Time,Accel_X,Accel_Y,Accel_Z,Gyro_X,Gyro_Y,Gyro_Z,Mag_X,Mag_Y,Mag_Z,Orient_X,Orient_Y,Orient_Z,Pressure,Latitude,Longitude,Altitude,Speed
2025-03-23 17:25:29.161,-0.38763726,4.6301117,6.8099732,0.27290383,0.17608178,-0.3915643,5.025,6.7500005,-42.05625,0.16476493,0.13939144,0.64394104,992.1943,37.88723344,127.73981199,140.85430908203125,0.0
2025-03-23 17:25:29.180,1.2155539,4.5535417,7.0779696,-0.0056504994,0.10399973,-0.41233373,4.7625003,6.3750005,-42.037502,0.1672841,0.14516583,0.6411753,992.1762,37.88723344,127.73981199,140.85430908203125,0.0
2025-03-23 17:25:29.200,-0.011964113,4.2999024,8.786445,-0.0044287695,-0.3498728,-0.47769627,4.33125,6.15,-42.225002,0.17044292,0.14487873,0.637918,992.1762,37.88723344,127.73981199,140.85430908203125,0.0
2025-03-23 17:25:29.221,-0.49292147,4.421936,9.176475,0.040775225,-0.54840386,-0.36896232,4.74375,6.43125,-41.71875,0.17229478,0.1428564,0.63390845,992.15106,37.88723344,127.73981199,140.85430908203125,0.0
2025-03-23 17:25:29.240,-0.567099,4.735396,8.695518,0.046273008,-0.4555524,-0.22113305,4.33125,6.3562503,-41.287502,0.17452477,0.14120981,0.6304771,992.15106,37.88723344,127.73981199,140.85430908203125,0.0
2025-03-23 17:25:29.260,-1.026521,5.1086764,8.432307,-0.07284562,-0.04016436,-0.092851445,3.7687502,6.7312503,-41.100002,0.17572139,0.14188543,0.62840074,992.11884,37.88723344,127.73981199,140.85430908203125,0.0
2025-03-23 17:25:29.281,0.67477596,5.1086764,9.360723,-0.15531237,0.2848157,0.020769402,3.1312501,6.99375,-40.36875,0.17363703,0.1463507,0.6281452,992.11884,37.88723344,127.73981199,140.85430908203125,0.0
2025-03-23 17:25:29.300,-0.09571291,5.5465627,9.432507,-0.0129808765,0.2695441,0.08124501,2.25,6.76875,-40.575,0.17220615,0.14852756,0.62888664,992.0822,37.88723344,127.73981199,140.85430908203125,0.0
2025-03-23 17:25:29.321,0.997807,4.5272202,9.992428,0.1556178,-4.581486E-4,0.10384701,2.4562502,6.6375003,-40.40625,0.17350331,0.14951058,0.6300095,992.0822,37.88723344,127.73981199,140.85430908203125,0.0
2025-03-23 17:25:29.340,1.0815558,4.5559344,9.241081,0.34254244,-0.14645483,0.11300998,2.5687501,6.525,-40.237503,0.17658943,0.14827298,0.6307443,992.06,37.88723344,127.73981199,140.85430908203125,0.0
2025-03-23 17:25:29.360,1.2203395,4.5248275,8.29113,0.44089165,-0.32177302,0.09040799,2.79375,6.3187504,-40.4625,0.18230945,0.14700536,0.63087785,992.06,37.88723344,127.73981199,140.85430908203125,0.0
2025-03-23 17:25:29.381,0.91405827,4.9674997,6.5635123,0.34193155,-0.20204352,0.07513637,2.7562501,6.3750005,-40.350002,0.19096464,0.14640059,0.63057065,992.04974,37.88723344,127.73981199,140.85430908203125,0.0
2025-03-23 17:25:29.400,0.41635114,5.2905307,6.046663,0.053603385,0.08506292,0.07086031,2.7,6.43125,-40.612503,0.19461592,0.14753614,0.6306233,992.04974,37.88723344,127.73981199,140.85430908203125,0.0
2025-03-23 17:25:29.422,1.0504491,6.4414787,7.479964,-0.40882125,0.41431904,0.056810424,2.68125,6.24375,-40.818752,0.19497825,0.15096004,0.6320526,992.0527,37.88723344,127.73981199,140.85430908203125,0.0
2025-03-23 17:25:29.441,0.37088752,4.948357,8.733803,-0.50106186,0.2866483,0.020769402,2.49375,6.20625,-40.631252,0.19308004,0.1518102,0.6332689,992.0527,37.88723344,127.73981199,140.85430908203125,0.0
2025-03-23 17:25:29.461,0.11006984,5.0656056,9.786645,-0.51388997,0.30619597,0.054366965,2.7,6.24375,-40.875,0.1867179,0.14971444,0.63520426,992.05707,37.88723344,127.73981199,140.85430908203125,0.0
2025-03-23 17:25:29.480,-0.3469593,4.453043,9.664611,-0.56642437,0.64828026,0.056199558,2.98125,6.05625,-40.85625,0.17994963,0.15009616,0.63717955,992.05707,37.88723344,127.73981199,140.85430908203125,0.0
2025-03-23 17:25:29.501,-0.46181476,4.3932223,10.057034,-0.27015495,0.42287114,0.049480047,3.2062502,6.3562503,-40.800003,0.17117655,0.15082291,0.6394809,992.05853,37.88723344,127.73981199,140.85430908203125,0.0
2025-03-23 17:25:29.520,-0.32303107,5.029713,9.911072,-0.01970039,0.022754714,0.068416856,4.14375,6.5437503,-41.1375,0.16900417,0.15160562,0.6400774,992.05853,37.88723344,127.73981199,140.85430908203125,0.0
2025-03-23 17:25:29.541,-0.43788654,4.790431,8.745767,0.07009673,-0.13790272,0.103236146,4.33125,7.0312505,-40.818752,0.17032605,0.15149997,0.64047164,992.0478,37.88723344,127.73981199,140.85430908203125,0.0
2025-03-23 17:25:29.560,-0.38763726,4.87418,8.221739,-0.054519683,0.013591741,0.21868959,4.36875,7.51875,-40.5,0.17099386,0.15199432,0.6413988,992.0478,37.88723344,127.73981199,140.85430908203125,0.0
2025-03-23 17:25:29.581,0.4642076,4.6205406,8.319844,-0.15103632,-0.049327333,0.32009315,4.5750003,7.6312504,-40.256252,0.17124808,0.15140127,0.64350635,992.0456,37.88723344,127.73981199,140.85430908203125,0.0
2025-03-23 17:25:29.600,1.1916257,4.342973,7.350751,-0.3251328,0.07040217,0.35674503,4.3125,7.70625,-39.787502,0.17154753,0.14881134,0.64617217,992.0456,37.88723344,127.73981199,140.85430908203125,0.0
2025-03-23 17:25:29.621,0.8781659,3.790231,9.06162,-0.50045097,0.6189587,0.31642795,4.36875,7.5000005,-40.0125,0.16674837,0.14766489,0.65039957,992.03485,37.88723344,127.73981199,140.85430908203125,0.0
2025-03-23 17:25:29.641,0.73459655,3.7304106,9.425328,-0.38805184,0.42409286,0.2535089,5.025,7.8562503,-40.03125,0.16068034,0.14702633,0.65411973,992.03485,37.88723344,127.73981199,140.85430908203125,0.0
2025-03-23 17:25:29.661,0.6771688,3.3140593,10.358529,0.009010255,0.043524116,0.1075122,5.49375,8.25,-40.2,0.1570533,0.14522813,0.6567229,992.0307,37.88723344,127.73981199,140.85430908203125,0.0
2025-03-23 17:25:29.682,-0.0071784677,3.5246277,8.920443,0.21181737,-0.17577635,0.0,6.3,8.4375,-40.256252,0.15828228,0.1438886,0.65674967,992.03754,37.88723344,127.73981199,140.85430908203125,0.0
2025-03-23 17:25:29.701,-0.3589234,3.5126636,7.776674,0.07620538,-0.17150028,0.032986697,6.6375003,8.55,-39.768753,0.15973413,0.1435393,0.65638494,992.03754,37.88723344,127.73981199,140.85430908203125,0.0
2025-03-23 17:25:29.721,0.17706887,3.4528432,8.79123,-0.1632536,0.24694209,0.08552107,6.3562503,8.53125,-39.9,0.15916432,0.14284441,0.65698665,992.03754,37.88723344,127.73981199,140.85430908203125,0.0
2025-03-23 17:25:29.742,0.32542387,3.5892339,11.124232,0.043218683,0.4063778,0.07696896,6.5625005,8.83125,-39.99375,0.15564522,0.14376253,0.65839684,992.0683,37.88723344,127.73981199,140.85430908203125,0.0
2025-03-23 17:25:29.761,-0.43070808,4.091727,10.315458,0.43600473,0.014813471,0.12278382,6.4875,8.775001,-40.03125,0.15479985,0.1457967,0.65916216,992.0683,37.88723344,127.73981199,140.85430908203125,0.0
2025-03-23 17:25:29.781,0.2009971,4.685147,9.343972,0.6687442,-0.4091267,0.08491021,6.4125004,8.981251,-39.956253,0.1615319,0.14792019,0.65861046,992.112,37.88723344,127.73981199,140.85430908203125,0.0
2025-03-23 17:25:29.801,0.13399807,4.9603214,7.9011,0.62842715,-0.46654797,0.032986697,6.5625005,8.75625,-39.693752,0.16982588,0.14909871,0.6572065,992.112,37.88723344,127.73981199,140.85430908203125,0.0
2025-03-23 17:25:29.821,0.38524446,4.792824,7.259824,0.26557347,-0.26923865,0.025045456,6.2250004,8.0625,-39.46875,0.17613557,0.14996509,0.65609837,992.1464,37.88723344,127.73981199,140.85430908203125,0.0
2025-03-23 17:25:29.841,1.012164,4.4554358,8.422736,-0.08933897,-0.045051277,0.0030543238,5.8500004,7.6312504,-39.581253,0.17815588,0.14964086,0.6559441,992.1464,37.88723344,127.73981199,140.85430908203125,0.0
2025-03-23 17:25:29.861,1.026521,4.1036906,10.396814,-0.077121675,0.14065161,-0.08429934,5.64375,7.0687504,-40.18125,0.17731565,0.14844444,0.65606564,992.164,37.88723344,127.73981199,140.85430908203125,0.0
2025-03-23 17:25:29.882,0.3182454,4.1371903,10.092926,0.17577635,0.20479241,-0.074525505,5.53125,6.6562505,-40.36875,0.17603163,0.14893693,0.6558627,992.164,37.88723344,127.73981199,140.85430908203125,0.0
2025-03-23 17:25:29.902,0.22253251,4.426722,8.894122,0.30039275,0.047189303,-0.037873615,5.2125,6.39375,-40.36875,0.17634878,0.15111563,0.6554212,992.1889,37.88723344,127.73981199,140.85430908203125,0.0
2025-03-23 17:25:29.921,0.28953153,4.517649,8.997013,0.31749696,-0.09025527,-0.051923506,5.4,6.5062504,-40.068752,0.17923786,0.15315042,0.65445423,992.1889,37.88723344,127.73981199,140.85430908203125,0.0
2025-03-23 17:25:29.942,0.19860429,4.759324,8.690732,0.39813113,-0.19776747,-0.034819294,5.4,6.4687505,-39.6375,0.18262088,0.15440704,0.65337646,992.1982,37.88723344,127.73981199,140.85430908203125,0.0
2025-03-23 17:25:29.962,0.45702913,4.907679,7.834101,0.34559676,-0.2790125,-0.03604102,5.30625,6.39375,-39.9375,0.18712255,0.15522403,0.65210307,992.1982,37.88723344,127.73981199,140.85430908203125,0.0
2025-03-23 17:25:29.981,0.8470592,4.9579287,7.219146,0.10797035,0.07834341,-0.103236146,5.4750004,6.525,-40.3125,0.19006276,0.1561264,0.6510984,992.20306,37.88723344,127.73981199,140.85430908203125,0.0
2025-03-23 17:25:30.001,0.5479564,4.991428,7.8963146,-0.15897755,0.46318823,-0.18814635,5.26875,6.0375004,-40.8375,0.18832973,0.15843509,0.6507534,992.20306,37.88723344,127.73981199,140.85430908203125,0.0
2025-03-23 17:25:30.021,-0.07178468,4.9196434,9.0233345,-0.15775582,0.34529132,-0.27855435,5.3250003,6.0,-41.081253,0.18421182,0.16099256,0.6502363,992.20184,37.88723344,127.73981199,140.85430908203125,0.0
2025-03-23 17:25:30.041,-0.6053841,4.6085763,8.992228,-0.067958705,0.047189303,-0.28832817,5.53125,6.0937505,-40.55625,0.18160973,0.16233349,0.64870226,992.20184,37.88723344,127.73981199,140.85430908203125,0.0
2025-03-23 17:25:30.061,-0.863809,4.261617,9.29133,-0.008093959,0.077121675,-0.22479823,5.55,5.7562504,-40.050003,0.18024659,0.16295952,0.64686835,992.1923,37.88723344,127.73981199,140.85430908203125,0.0
2025-03-23 17:25:30.081,-1.2035898,4.213761,9.482756,0.05299252,0.22372922,-0.09407318,5.86875,6.01875,-39.825,0.17773707,0.16521057,0.64570874,992.1923,37.88723344,127.73981199,140.85430908203125,0.0
2025-03-23 17:25:30.101,-0.29910284,4.4410787,9.32483,0.1574504,0.17363831,-0.06169734,6.3,6.0750003,-39.91875,0.17649494,0.16738547,0.6454105,992.1901,37.88723344,127.73981199,140.85430908203125,0.0
2025-03-23 17:25:30.121,-0.7920243,4.5559344,8.312666,0.13729186,0.18646647,-0.11117739,6.0937505,5.86875,-40.2,0.17608626,0.16978276,0.6447836,992.1901,37.88723344,127.73981199,140.85430908203125,0.0
2025-03-23 17:25:30.142,-1.538585,4.5559344,8.408379,0.027336199,0.12110394,-0.039095346,6.0,5.9437504,-40.40625,0.17504841,0.17204103,0.6442626,992.1828,37.88723344,127.73981199,140.85430908203125,0.0
2025-03-23 17:25:30.162,-0.8470592,4.546363,8.750552,-0.014202606,0.034361143,0.025045456,6.15,6.05625,-40.8375,0.17405827,0.17310967,0.64427537,992.1828,37.88723344,127.73981199,140.85430908203125,0.0
2025-03-23 17:25:30.181,-0.7920243,4.558327,9.107083,-0.0025961753,0.08384119,0.0073303776,5.9812503,6.0937505,-40.66875,0.17329617,0.17357723,0.6444318,992.1713,37.88723344,127.73981199,140.85430908203125,0.0
2025-03-23 17:25:30.201,-0.7800602,4.618148,9.004191,0.052381653,0.08384119,0.0140498895,6.20625,5.9812503,-40.706253,0.17238767,0.17459488,0.64461505,992.1713,37.88723344,127.73981199,140.85430908203125,0.0
2025-03-23 17:25:30.222,-0.70588267,4.642076,8.781659,0.07925971,-0.054825112,0.02932151,6.6562505,5.9812503,-40.725002,0.17242512,0.17526795,0.64461,992.1613,37.88723344,127.73981199,140.85430908203125,0.0
2025-03-23 17:25:30.242,-0.6771688,4.56072,8.681161,0.07620538,-0.11041381,0.05070178,6.39375,5.6625004,-40.125,0.17341083,0.17520534,0.6445262,992.1613,37.88723344,127.73981199,140.85430908203125,0.0
2025-03-23 17:25:30.262,-0.32063824,4.4721856,8.563912,0.042607818,-0.037110034,0.098960094,6.2625003,5.4375,-39.956253,0.17440645,0.17499185,0.64489347,992.15643,37.88723344,127.73981199,140.85430908203125,0.0
2025-03-23 17:25:30.282,0.15553348,4.503292,8.128419,-0.028863361,0.045967575,0.04459313,6.01875,5.7000003,-39.581253,0.17455927,0.17485376,0.6454293,992.15643,37.88723344,127.73981199,140.85430908203125,0.0
2025-03-23 17:25:30.302,-0.0741775,4.479364,8.159525,-0.09789108,0.1962403,-0.048258316,5.8500004,5.5687504,-39.28125,0.17348947,0.17511083,0.6457254,992.15155,37.88723344,127.73981199,140.85430908203125,0.0
2025-03-23 17:25:30.323,-0.6125626,4.5726843,8.482556,-0.12965605,0.25671592,-0.08124501,5.8875003,5.68125,-39.375,0.17102686,0.17620598,0.64587706,992.15155,37.88723344,127.73981199,140.85430908203125,0.0
2025-03-23 17:25:30.341,-1.134198,4.5559344,8.774481,-0.06429352,0.20784675,-0.045814857,6.0375004,5.6625004,-39.54375,0.1685181,0.17746659,0.64592206,992.1369,37.88723344,127.73981199,140.85430908203125,0.0
2025-03-23 17:25:30.362,-1.146162,4.6755753,8.669196,-0.0050396346,0.080176,-6.108648E-4,6.4125004,5.45625,-39.787502,0.16683193,0.1787179,0.64599824,992.1369,37.88723344,127.73981199,140.85430908203125,0.0
2025-03-23 17:25:30.381,-1.3639089,4.773681,8.5016985,0.016340632,-0.16416991,0.02932151,6.43125,5.64375,-39.956253,0.16693786,0.17891738,0.645829,992.133,37.88723344,127.73981199,140.85430908203125,0.0
2025-03-23 17:25:30.401,-1.0671989,4.733003,9.092726,0.022449281,-0.13973531,0.08735366,6.7500005,5.6625004,-40.143753,0.16793603,0.1780842,0.6458407,992.133,37.88723344,127.73981199,140.85430908203125,0.0
2025-03-23 17:25:30.421,-0.72263247,4.8191447,8.779266,-0.00320704,0.008704823,0.11362085,6.7500005,5.625,-40.0125,0.16824764,0.17788877,0.6462397,992.12787,37.88723344,127.73981199,140.85430908203125,0.0
2025-03-23 17:25:30.442,-0.4354937,4.7784667,9.037691,-0.10583232,0.13026692,0.07941242,7.0687504,5.5125003,-39.862503,0.16742906,0.17797312,0.6473378,992.12787,37.88723344,127.73981199,140.85430908203125,0.0
2025-03-23 17:25:30.463,-0.5096712,4.6636114,9.473185,-0.087506376,0.20173809,0.05497783,7.4062505,5.55,-39.975002,0.165615,0.17826204,0.6482562,992.1247,37.88723344,127.73981199,140.85430908203125,0.0
2025-03-23 17:25:30.483,-0.8327023,4.570291,9.5353985,0.023060145,0.18402301,0.058032155,7.2562504,5.49375,-39.6375,0.1636128,0.17894791,0.6490093,992.1247,37.88723344,127.73981199,140.85430908203125,0.0
2025-03-23 17:25:30.501,-0.89013004,4.5415773,9.1669035,0.1434005,0.052076224,0.09957096,7.6687503,5.53125,-39.881252,0.16257906,0.18022712,0.64952886,992.12274,37.88723344,127.73981199,140.85430908203125,0.0
2025-03-23 17:25:30.521,-0.55513483,4.4674,8.597412,0.18555018,-0.092087865,0.106290475,7.6875005,5.6625004,-40.10625,0.16341639,0.18113281,0.64985937,992.12274,37.88723344,127.73981199,140.85430908203125,0.0
2025-03-23 17:25:30.541,-0.6125626,4.479364,8.4682,0.14645483,-0.12324197,0.11117739,7.5750003,5.55,-39.956253,0.16564614,0.18127514,0.65014184,992.12396,37.88723344,127.73981199,140.85430908203125,0.0
2025-03-23 17:25:30.562,-0.47377887,4.517649,8.257631,0.07131846,-0.069485866,0.1197295,7.6312504,5.625,-40.0125,0.16717553,0.18107444,0.6505542,992.12396,37.88723344,127.73981199,140.85430908203125,0.0
2025-03-23 17:25:30.581,-0.41874397,4.613362,8.178668,0.010231985,0.00320704,0.1404989,7.3500004,5.4375,-39.75,0.16783781,0.18111642,0.6513,992.1276,37.88723344,127.73981199,140.85430908203125,0.0
2025-03-23 17:25:30.601,-0.39960137,4.65404,8.58784,-0.060017463,0.0056504994,0.1178969,6.9375005,5.30625,-39.525,0.16798727,0.18087931,0.65226376,992.1276,37.88723344,127.73981199,140.85430908203125,0.0
2025-03-23 17:25:30.621,-0.19381863,4.57747,8.879765,-0.03497201,-0.045662142,0.09529491,6.7312503,5.15625,-39.393753,0.16788542,0.18018712,0.65312475,992.1269,37.88723344,127.73981199,140.85430908203125,0.0
2025-03-23 17:25:30.642,-0.23449662,4.725825,8.91805,0.012064579,-0.10613775,0.077579826,6.4687505,5.0062504,-39.600002,0.16832556,0.17909822,0.6536913,992.1269,37.88723344,127.73981199,140.85430908203125,0.0
2025-03-23 17:25:30.661,-0.038285162,4.800002,8.73141,0.019394957,-0.14828743,0.05070178,6.3375,4.9875,-39.45,0.16953845,0.17791714,0.65396726,992.12445,37.88723344,127.73981199,140.85430908203125,0.0
2025-03-23 17:25:30.681,-0.22731815,4.84068,8.611769,0.007177661,0.0056504994,0.037873615,6.3562503,5.175,-39.73125,0.1707589,0.17708601,0.65418714,992.12445,37.88723344,127.73981199,140.85430908203125,0.0
2025-03-23 17:25:30.701,-0.04546363,4.881358,8.4682,-0.010537418,0.05146536,0.0048869182,6.15,4.9875,-39.6375,0.17091489,0.17738935,0.6544436,992.13007,37.88723344,127.73981199,140.85430908203125,0.0
2025-03-23 17:25:30.721,-0.14596218,4.807181,8.394022,-0.066126116,0.06429352,-0.06352994,6.0750003,4.8187504,-39.375,0.1709119,0.17760889,0.65443313,992.13007,37.88723344,127.73981199,140.85430908203125,0.0
2025-03-23 17:25:30.743,-0.5288138,4.8239303,8.7577305,-0.0923933,0.10522146,-0.067195125,6.1125,5.0625,-39.675003,0.16990556,0.1779786,0.65424645,992.12616,37.88723344,127.73981199,140.85430908203125,0.0
2025-03-23 17:25:30.762,-0.72502524,4.752146,9.0544405,-0.013591741,0.020311253,-0.064140804,6.0,4.9125004,-39.787502,0.1687111,0.17843644,0.65394753,992.12616,37.88723344,127.73981199,140.85430908203125,0.0
2025-03-23 17:25:30.781,-0.6436693,4.6779685,8.803194,0.056046844,-0.027336199,-0.02565632,6.3375,5.15625,-39.862503,0.16826929,0.17909314,0.6533626,992.1269,37.88723344,127.73981199,140.85430908203125,0.0
2025-03-23 17:25:30.801,-0.27996024,4.613362,8.549556,0.015729768,-0.038331766,-0.03970621,6.5437503,5.0625,-39.9,0.16863666,0.1792132,0.65299964,992.1269,37.88723344,127.73981199,140.85430908203125,0.0
2025-03-23 17:25:30.821,-0.2943172,4.505685,8.73141,-0.029474225,-0.012064579,-0.05253437,6.5625005,4.8,-39.693752,0.16863233,0.17887181,0.6526829,992.1374,37.88723344,127.73981199,140.85430908203125,0.0
2025-03-23 17:25:30.841,-0.46899325,4.4339004,8.886943,-0.019089524,-0.042607818,-0.02687805,6.7875004,4.7250004,-39.46875,0.16825233,0.17828165,0.6524391,992.1374,37.88723344,127.73981199,140.85430908203125,0.0
2025-03-23 17:25:30.861,-0.12203395,4.3501515,8.863015,0.0016798781,-0.05054906,-0.010995566,6.8437505,4.8,-39.975002,0.16809997,0.17749217,0.6523159,992.14276,37.88723344,127.73981199,140.85430908203125,0.0
2025-03-23 17:25:30.881,-0.3062813,4.505685,8.819944,0.0029016077,0.013591741,-0.021380268,6.9375005,5.26875,-40.256252,0.1680399,0.17678723,0.6522482,992.14276,37.88723344,127.73981199,140.85430908203125,0.0
2025-03-23 17:25:30.901,-0.30867413,4.666004,8.678768,0.019394957,-0.02367101,-0.03176497,6.9,5.4750004,-40.256252,0.16793217,0.17665248,0.6520968,992.14545,37.88723344,127.73981199,140.85430908203125,0.0
2025-03-23 17:25:30.921,-0.3804588,4.723432,8.350951,-0.03008509,-0.061544627,-0.041538805,6.6562505,5.3625,-40.2,0.16832672,0.17650916,0.65174073,992.14545,37.88723344,127.73981199,140.85430908203125,0.0
2025-03-23 17:25:30.941,-0.3182454,4.5918264,8.693125,-0.11071924,0.010537418,-0.045203995,6.58125,5.4,-39.956253,0.16812114,0.1762108,0.65147686,992.14813,37.88723344,127.73981199,140.85430908203125,0.0
2025-03-23 17:25:30.961,-0.4235296,4.56072,9.233903,-0.08994984,-0.020616686,-0.07147118,6.6562505,5.0437503,-40.18125,0.16714855,0.17545095,0.6513069,992.14813,37.88723344,127.73981199,140.85430908203125,0.0
2025-03-23 17:25:30.981,-0.65084773,4.5272202,9.425328,0.011453714,-0.07437278,-0.03054324,6.6562505,5.1000004,-40.256252,0.16640113,0.17449279,0.650779,992.1518,37.88723344,127.73981199,140.85430908203125,0.0
2025-03-23 17:25:31.001,-0.4019942,4.666004,9.212367,0.08414663,-0.049327333,0.0,6.7125,5.4187503,-40.331253,0.16652416,0.17432591,0.6504854,992.1518,37.88723344,127.73981199,140.85430908203125,0.0
2025-03-23 17:25:31.021,-0.3684947,4.718646,8.810373,0.10430516,-0.06398808,-0.0012217296,6.6562505,5.3250003,-40.162502,0.16741821,0.17446998,0.6502396,992.1596,37.88723344,127.73981199,140.85430908203125,0.0
2025-03-23 17:25:31.041,-0.5024927,4.7114677,8.592627,0.08842268,-0.057879437,0.010384701,6.43125,5.11875,-39.675003,0.16848874,0.17480008,0.64995235,992.1596,37.88723344,127.73981199,140.85430908203125,0.0
2025-03-23 17:25:31.062,-0.2727818,4.694718,8.4347,0.07131846,-0.067653276,0.0012217296,6.6562505,4.7625003,-39.54375,0.1693941,0.17521942,0.64975005,992.1584,37.88723344,127.73981199,140.85430908203125,0.0
2025-03-23 17:25:31.081,-0.27517462,4.6468616,8.382058,0.031001387,-0.07192933,-0.043982264,6.80625,4.5750003,-39.24375,0.17047527,0.17515422,0.649387,992.1584,37.88723344,127.73981199,140.85430908203125,0.0
2025-03-23 17:25:31.101,-0.29671,4.5798626,8.456235,-0.020922119,-0.020005822,-0.06597339,6.7125,4.4437504,-39.43125,0.17086805,0.17508684,0.64891183,992.15106,37.88723344,127.73981199,140.85430908203125,0.0
2025-03-23 17:25:31.121,-0.5910272,4.5320063,8.82473,-0.024587307,-0.010231985,-0.06597339,6.6375003,4.5750003,-39.3375,0.17042077,0.1749124,0.6483163,992.15106,37.88723344,127.73981199,140.85430908203125,0.0
2025-03-23 17:25:31.143,-0.701097,4.57747,8.717052,0.018173227,-0.0029016077,-0.0061086477,6.39375,4.9500003,-39.2625,0.16958158,0.17529503,0.6479133,992.144,37.88723344,127.73981199,140.85430908203125,0.0
2025-03-23 17:25:31.161,-0.6125626,4.651647,8.518449,0.022449281,-0.053603385,0.0024434591,6.5437503,5.025,-39.46875,0.1695155,0.17551649,0.64777756,992.144,37.88723344,127.73981199,140.85430908203125,0.0
2025-03-23 17:25:31.181,-0.69152576,4.6779685,8.41795,-0.012370012,-0.13729186,0.017104214,6.525,4.93125,-39.45,0.17003785,0.17535344,0.6475343,992.1508,37.88723344,127.73981199,140.85430908203125,0.0
2025-03-23 17:25:31.202,-0.5024927,4.575077,8.702696,-0.044745844,-0.075594515,0.051923506,6.525,5.0625,-39.318752,0.1704102,0.1748171,0.64747864,992.1508,37.88723344,127.73981199,140.85430908203125,0.0
2025-03-23 17:25:31.221,-0.29671,4.5822554,8.95155,-0.041080657,0.056963142,0.06352994,6.3375,4.8375,-39.393753,0.16976759,0.17440411,0.6480491,992.15717,37.88723344,127.73981199,140.85430908203125,0.0
2025-03-23 17:25:31.241,-0.062213387,4.6612186,8.872586,-0.020922119,0.06918044,0.02932151,6.0,4.8187504,-39.46875,0.16924074,0.1743697,0.648479,992.15717,37.88723344,127.73981199,140.85430908203125,0.0
2025-03-23 17:25:31.261,-0.09092726,4.6803613,8.657232,-0.0129808765,-0.03405571,-0.043982264,6.0750003,5.1937504,-39.412502,0.1693867,0.1738944,0.64856285,992.1613,37.88723344,127.73981199,140.85430908203125,0.0
2025-03-23 17:25:31.282,-0.25842485,4.6899323,8.602198,-0.054519683,0.0050396346,-0.064140804,6.1125,5.1375003,-39.6375,0.16945466,0.17355642,0.6482277,992.16254,37.88723344,127.73981199,140.85430908203125,0.0
2025-03-23 17:25:31.302,-0.485743,4.6707897,8.774481,-0.075289086,0.043524116,-0.05864302,6.1687503,5.30625,-39.693752,0.16882904,0.17352931,0.6479306,992.16254,37.88723344,127.73981199,140.85430908203125,0.0
2025-03-23 17:25:31.323,-0.61734825,4.5918264,8.927621,-0.028252495,0.01725693,-0.0097738365,6.0750003,5.4,-39.9375,0.1676139,0.17381525,0.64773345,992.16376,37.88723344,127.73981199,140.85430908203125,0.0
2025-03-23 17:25:31.341,-0.23449662,4.644469,8.853444,0.007788526,-0.059101168,6.108648E-4,6.0,5.2875004,-40.36875,0.16751488,0.1736495,0.64765096,992.16376,37.88723344,127.73981199,140.85430908203125,0.0
2025-03-23 17:25:31.363,-0.021535404,4.7162533,8.578269,-0.014813471,-0.11041381,-0.034208428,5.83125,5.4375,-40.59375,0.16815822,0.17303385,0.6474802,992.16376,37.88723344,127.73981199,140.85430908203125,0.0
2025-03-23 17:25:31.381,-0.17228323,4.7401814,8.82473,-0.09789108,-0.0151189035,-0.039095346,5.625,5.2312503,-40.65,0.16862172,0.171945,0.6471658,992.17035,37.88723344,127.73981199,140.85430908203125,0.0
2025-03-23 17:25:31.405,-0.18424734,4.7162533,9.241081,-0.09422589,0.033139415,-0.05131264,5.64375,5.0062504,-40.350002,0.16790299,0.17135799,0.6471112,992.17426,37.88723344,127.73981199,140.85430908203125,0.0
2025-03-23 17:25:31.421,-0.24646074,4.6564326,9.30808,-0.03924806,0.027030766,-0.04886918,5.64375,5.175,-40.0875,0.16707684,0.17097853,0.6469694,992.17426,37.88723344,127.73981199,140.85430908203125,0.0
2025-03-23 17:25:31.441,-0.3182454,4.65404,9.21476,0.02489274,-0.0151189035,-0.055588696,5.6625004,5.175,-40.050003,0.16678874,0.17082688,0.6466412,992.17426,37.88723344,127.73981199,140.85430908203125,0.0
2025-03-23 17:25:31.462,-0.51206404,4.610969,8.82473,0.061544627,-0.06398808,-0.04703659,6.01875,5.6062503,-40.050003,0.1671286,0.17084166,0.64611506,992.17914,37.88723344,127.73981199,140.85430908203125,0.0
2025-03-23 17:25:31.481,-0.38763726,4.5918264,8.702696,0.034666575,-0.03894263,-0.023823727,5.9625,5.6625004,-40.0125,0.16776834,0.17104569,0.6455211,992.1728,37.88723344,127.73981199,140.85430908203125,0.0
2025-03-23 17:25:31.501,-0.38763726,4.5296135,8.752945,0.017562363,7.6358096E-4,-0.021991132,6.0750003,5.4375,-40.125,0.1679278,0.17117015,0.6453252,992.1728,37.88723344,127.73981199,140.85430908203125,0.0
2025-03-23 17:25:31.521,-0.48095736,4.5008993,8.793623,0.021227552,-0.004734202,-0.007941242,6.4125004,5.7000003,-40.425003,0.16779001,0.17140284,0.64515966,992.1728,37.88723344,127.73981199,140.85430908203125,0.0
2025-03-23 17:25:31.541,-0.43788654,4.503292,8.786445,0.032223117,-0.0059559317,0.0097738365,6.4500003,5.45625,-40.55625,0.16774583,0.1715516,0.6450582,992.1706,37.88723344,127.73981199,140.85430908203125,0.0
2025-03-23 17:25:31.562,-0.29192436,4.627719,8.76491,0.018173227,-0.018784093,0.0,6.5625005,5.68125,-40.96875,0.16789475,0.17169291,0.6450391,992.1706,37.88723344,127.73981199,140.85430908203125,0.0
2025-03-23 17:25:31.581,-0.24646074,4.699504,8.736196,0.00962112,-0.038331766,-0.03054324,6.5062504,5.625,-40.74375,0.16824172,0.17157891,0.6448671,992.1745,37.88723344,127.73981199,140.85430908203125,0.0
2025-03-23 17:25:31.601,-0.46899325,4.6325045,8.678768,-0.003817905,-0.018784093,-0.04459313,6.1687503,5.3250003,-40.3875,0.16850051,0.17151198,0.64450055,992.1745,37.88723344,127.73981199,140.85430908203125,0.0
2025-03-23 17:25:31.621,-0.6149554,4.536792,8.738588,-0.019089524,0.04963276,-0.005497783,6.1687503,5.3250003,-40.443752,0.16808707,0.17202659,0.6442776,992.17084,37.88723344,127.73981199,140.85430908203125,0.0
2025-03-23 17:25:31.642,-0.43788654,4.5272202,8.937193,0.016951498,0.06918044,0.023212861,6.1125,5.4187503,-40.275,0.16726625,0.1724206,0.6444085,992.17084,37.88723344,127.73981199,140.85430908203125,0.0
2025-03-23 17:25:31.661,-0.37088752,4.5942197,8.750552,0.04444041,0.052076224,0.023212861,6.2625003,5.45625,-40.2,0.16686976,0.1729468,0.6446418,992.16254,37.88723344,127.73981199,140.85430908203125,0.0
2025-03-23 17:25:31.681,-0.36610186,4.6875396,8.578269,0.04016436,0.0368046,0.01527162,6.7125,5.71875,-40.3875,0.16697443,0.17370948,0.6447807,992.16254,37.88723344,127.73981199,140.85430908203125,0.0
2025-03-23 17:25:31.701,-0.33738798,4.6899323,8.549556,0.007788526,-0.0010690134,-0.009162972,6.6937504,5.55,-40.2,0.16720164,0.17400938,0.64476717,992.1611,37.88723344,127.73981199,140.85430908203125,0.0
2025-03-23 17:25:31.721,-0.5240282,4.6492543,8.626125,-0.026419902,0.015424335,0.008552107,6.7875004,5.3625,-40.10625,0.16720046,0.1742403,0.64475244,992.1611,37.88723344,127.73981199,140.85430908203125,0.0
2025-03-23 17:25:31.742,-0.29910284,4.666004,8.985049,-0.01847866,0.0013744457,0.011606431,6.3375,5.26875,-40.2,0.16688578,0.17422478,0.64490813,992.163,37.88723344,127.73981199,140.85430908203125,0.0
2025-03-23 17:25:31.763,-0.31345975,4.709075,8.865408,0.0151189035,0.0056504994,-0.005497783,5.925,4.96875,-39.91875,0.16690871,0.17405893,0.6449615,992.163,37.88723344,127.73981199,140.85430908203125,0.0
2025-03-23 17:25:31.784,-0.32063824,4.733003,8.709874,-0.0050396346,-0.013286309,0.0,5.7937503,5.1375003,-39.787502,0.16712657,0.1741632,0.6449126,992.1701,37.88723344,127.73981199,140.85430908203125,0.0
2025-03-23 17:25:31.801,-0.31345975,4.6971107,8.992228,4.581486E-4,-0.010231985,6.108648E-4,5.5125003,4.93125,-39.825,0.16729115,0.17407477,0.6448983,992.1701,37.88723344,127.73981199,140.85430908203125,0.0
2025-03-23 17:25:31.822,-0.50009996,4.6372905,8.9348,0.054825112,-4.581486E-4,0.02687805,5.775,5.4,-39.956253,0.16741288,0.1741129,0.644932,992.16864,37.88723344,127.73981199,140.85430908203125,0.0
2025-03-23 17:25:31.841,-0.07178468,4.668397,8.750552,0.055435978,-0.03527744,0.03848448,5.7375,5.30625,-39.862503,0.16801901,0.17434652,0.6451063,992.16864,37.88723344,127.73981199,140.85430908203125,0.0
2025-03-23 17:25:31.861,-0.09332009,4.6612186,8.762517,0.02611447,0.020311253,0.0018325944,5.68125,5.49375,-39.825,0.16874577,0.17411865,0.6452268,992.16693,37.88723344,127.73981199,140.85430908203125,0.0
2025-03-23 17:25:31.881,-0.32063824,4.587041,8.736196,0.0059559317,0.06062833,-0.008552107,5.9437504,5.7937503,-39.825,0.16873065,0.17430863,0.64531004,992.16693,37.88723344,127.73981199,140.85430908203125,0.0
2025-03-23 17:25:31.902,-0.3684947,4.5918264,8.807981,0.018173227,0.037415467,0.0067195124,5.7000003,5.25,-39.487503,0.16842383,0.1746311,0.6453593,992.1613,37.88723344,127.73981199,140.85430908203125,0.0
2025-03-23 17:25:31.920,-0.41874397,4.6085763,8.673982,0.04138609,0.003817905,0.009162972,5.8875003,5.45625,-39.6375,0.16840123,0.17493106,0.6454066,992.1613,37.88723344,127.73981199,140.85430908203125,0.0
2025-03-23 17:25:31.941,-0.3397808,4.735396,8.563912,0.011453714,-0.010231985,0.034819294,6.0937505,5.2875004,-39.825,0.16860513,0.175237,0.64548844,992.15594,37.88723344,127.73981199,140.85430908203125,0.0
2025-03-23 17:25:31.961,-0.08853444,4.8191447,8.8701935,-0.0050396346,-0.013897174,0.0073303776,5.775,5.0062504,-39.6375,0.16900094,0.17512302,0.6456564,992.15594,37.88723344,127.73981199,140.85430908203125,0.0
2025-03-23 17:25:31.980,-0.32303107,4.7569313,8.851051,0.014508039,0.011759147,-0.017715078,5.83125,4.9125004,-39.75,0.16940454,0.17494039,0.64567,992.1557,37.88723344,127.73981199,140.85430908203125,0.0
2025-03-23 17:25:32.000,-0.34456646,4.709075,8.800801,0.012675445,0.022754714,-0.009162972,5.775,4.78125,-39.768753,0.16940615,0.17514227,0.645602,992.1557,37.88723344,127.73981199,140.85430908203125,0.0
2025-03-23 17:25:32.021,-0.25842485,4.6492543,8.776874,0.015729768,-0.0059559317,-0.016493348,5.4375,4.6312504,-39.9,0.16943039,0.17525461,0.645538,992.1574,37.88723344,127.73981199,140.85430908203125,0.0
2025-03-23 17:25:32.041,-0.27996024,4.6492543,8.743374,0.022449281,-0.03649917,-0.018936807,5.7937503,4.5375004,-40.331253,0.16976531,0.1751082,0.64535385,992.1574,37.88723344,127.73981199,140.85430908203125,0.0
2025-03-23 17:25:32.061,-0.33738798,4.685147,8.635697,0.028557928,-0.011453714,-0.007941242,5.8125,4.8375,-40.725002,0.17007293,0.17511958,0.64518243,992.16693,37.88723344,127.73981199,140.85430908203125,0.0
2025-03-23 17:25:32.081,-0.19381863,4.7377887,8.5423765,0.0151189035,-0.016340632,-0.018936807,6.3375,5.11875,-41.30625,0.17039056,0.17525184,0.6450662,992.16693,37.88723344,127.73981199,140.85430908203125,0.0
2025-03-23 17:25:32.101,-0.4139583,4.7545385,8.563912,-1.527162E-4,-0.0016798781,-0.029932374,6.4500003,5.2312503,-41.268753,0.17070745,0.17527214,0.64486635,992.1696,37.88723344,127.73981199,140.85430908203125,0.0
2025-03-23 17:25:32.121,-0.4211368,4.6779685,8.626125,-0.015424335,-0.02367101,-0.028710645,6.4125004,5.175,-41.006252,0.17071849,0.17541185,0.64463943,992.1696,37.88723344,127.73981199,140.85430908203125,0.0
2025-03-23 17:25:32.141,-0.45702913,4.6061835,8.73141,-0.011759147,-0.043218683,-0.014660755,6.6937504,5.3250003,-40.912502,0.17066775,0.17524253,0.6443503,992.1645,37.88723344,127.73981199,140.85430908203125,0.0
2025-03-23 17:25:32.161,-0.31106696,4.5942197,8.800801,-0.021532983,-0.028557928,-0.021380268,6.3562503,5.25,-40.631252,0.17062367,0.17485344,0.6441884,992.1645,37.88723344,127.73981199,140.85430908203125,0.0
2025-03-23 17:25:32.183,-0.35413775,4.6229334,8.939586,-0.027641632,0.042302385,-0.019547673,6.1687503,4.89375,-40.800003,0.17002067,0.17465824,0.64411736,992.16595,37.88723344,127.73981199,140.85430908203125,0.0
2025-03-23 17:25:32.202,-0.4546363,4.6779685,8.908479,-0.00320704,0.03008509,-0.023212861,6.0937505,5.2125,-40.875,0.16961156,0.17471689,0.6440936,992.16595,37.88723344,127.73981199,140.85430908203125,0.0
2025-03-23 17:25:32.221,-0.5479564,4.694718,8.88455,0.016340632,0.024587307,0.0030543238,6.0375004,5.0062504,-40.612503,0.16924751,0.17504683,0.6439926,992.1645,37.88723344,127.73981199,140.85430908203125,0.0
2025-03-23 17:25:32.241,-0.38285163,4.7114677,8.755338,0.02489274,0.031917684,0.010384701,6.3562503,5.15625,-40.537502,0.16901389,0.1755104,0.6440324,992.1645,37.88723344,127.73981199,140.85430908203125,0.0
2025-03-23 17:25:32.261,-0.37567315,4.7306104,8.73141,0.010231985,0.013591741,0.008552107,6.58125,5.3250003,-40.36875,0.16902791,0.17585582,0.6440931,992.16766,37.88723344,127.73981199,140.85430908203125,0.0
2025-03-23 17:25:32.281,-0.35174492,4.723432,8.85823,0.027336199,0.00320704,0.010995566,6.5625005,5.2125,-39.7125,0.1691545,0.17602955,0.64414394,992.1608,37.88723344,127.73981199,140.85430908203125,0.0
2025-03-23 17:25:32.302,-0.31345975,4.7282176,8.690732,0.04138609,0.006261364,0.009162972,6.4500003,5.2125,-39.581253,0.16940048,0.17620644,0.64417046,992.1608,37.88723344,127.73981199,140.85430908203125,0.0
2025-03-23 17:25:32.323,-0.34456646,4.682754,8.523234,0.00962112,0.015424335,0.0073303776,6.2625003,5.025,-39.2625,0.1696332,0.17650762,0.6441972,992.1608,37.88723344,127.73981199,140.85430908203125,0.0
2025-03-23 17:25:32.341,-0.2727818,4.625326,8.676374,0.0059559317,0.009926553,-0.0073303776,6.01875,4.9500003,-38.925003,0.16969834,0.176625,0.64423263,992.16205,37.88723344,127.73981199,140.85430908203125,0.0
2025-03-23 17:25:32.361,-0.37328035,4.625326,8.49452,0.010231985,0.01847866,-0.009162972,6.0375004,4.89375,-39.375,0.16975869,0.17668404,0.6441846,992.16205,37.88723344,127.73981199,140.85430908203125,0.0
2025-03-23 17:25:32.381,-0.39720857,4.6899323,8.506484,-0.03375028,0.024587307,-0.0024434591,5.9625,4.78125,-39.300003,0.16960354,0.17691478,0.64416665,992.15594,37.88723344,127.73981199,140.85430908203125,0.0
2025-03-23 17:25:32.401,-0.35413775,4.694718,8.977871,-0.03924806,0.0129808765,-0.028710645,5.8500004,4.89375,-39.1875,0.16925801,0.17665415,0.644187,992.15594,37.88723344,127.73981199,140.85430908203125,0.0
2025-03-23 17:25:32.421,-0.5814559,4.7138605,9.008977,-1.527162E-4,0.038026333,0.0018325944,6.1125,5.0062504,-39.09375,0.16868396,0.17672944,0.6441654,992.16156,37.88723344,127.73981199,140.85430908203125,0.0
2025-03-23 17:25:32.441,-0.29671,4.7210393,8.848659,0.034666575,-0.024281874,0.0073303776,6.1875005,5.1000004,-39.112503,0.16863471,0.17690668,0.64418846,992.16156,37.88723344,127.73981199,140.85430908203125,0.0
2025-03-23 17:25:32.462,-0.33260235,4.7138605,8.626125,0.019394957,0.017867794,-0.017104214,6.2250004,5.25,-39.5625,0.16910349,0.17686461,0.6440858,992.1591,37.88723344,127.73981199,140.85430908203125,0.0
2025-03-23 17:25:32.481,-0.5838487,4.65404,8.590233,-0.013591741,0.07773254,0.0012217296,6.1312504,5.1375003,-39.61875,0.16882575,0.1773606,0.6440635,992.1591,37.88723344,127.73981199,140.85430908203125,0.0
2025-03-23 17:25:32.501,-0.40917268,4.5822554,8.776874,0.020616686,1.527162E-4,0.010384701,6.15,4.9875,-39.956253,0.16825466,0.17790093,0.6441618,992.15375,37.88723344,127.73981199,140.85430908203125,0.0
2025-03-23 17:25:32.521,-0.4331009,4.644469,8.46102,0.037110034,-0.07131846,0.0024434591,6.0937505,4.93125,-40.03125,0.16865218,0.17774042,0.64407724,992.15375,37.88723344,127.73981199,140.85430908203125,0.0
2025-03-23 17:25:32.541,-0.16749759,4.7018967,8.405986,-0.0490219,-0.042607818,-0.0030543238,6.3562503,5.025,-39.84375,0.16935223,0.17734067,0.64396554,992.153,37.88723344,127.73981199,140.85430908203125,0.0
2025-03-23 17:25:32.561,-0.28713873,4.7688956,8.925228,-0.08506292,-4.581486E-4,-0.027488915,6.4500003,5.1937504,-39.881252,0.16922404,0.17661051,0.6440024,992.153,37.88723344,127.73981199,140.85430908203125,0.0
2025-03-23 17:25:32.582,-0.3804588,4.7688956,9.109476,-0.03497201,-0.013286309,-0.021380268,6.3,5.1937504,-39.787502,0.16886131,0.17604367,0.64394367,992.1528,37.88723344,127.73981199,140.85430908203125,0.0
2025-03-23 17:25:32.601,-0.45224348,4.7832522,8.968299,0.017562363,-0.002290743,-0.0061086477,6.5062504,5.2125,-39.80625,0.16874398,0.1759511,0.6438858,992.1528,37.88723344,127.73981199,140.85430908203125,0.0
2025-03-23 17:25:32.621,-0.39481574,4.776074,8.676374,0.017562363,-0.013286309,0.012217295,6.0937505,5.175,-39.825,0.16895436,0.17615168,0.64384216,992.1586,37.88723344,127.73981199,140.85430908203125,0.0
2025-03-23 17:25:32.642,-0.28953153,4.706682,8.729017,-0.01847866,0.034361143,0.012217295,6.0375004,4.96875,-39.975002,0.16910169,0.17626084,0.6439196,992.1586,37.88723344,127.73981199,140.85430908203125,0.0
2025-03-23 17:25:32.662,-0.37328035,4.718646,8.829515,-0.022143848,0.055130545,-0.0030543238,6.05625,5.1937504,-40.18125,0.16870868,0.17638394,0.6441138,992.1613,37.88723344,127.73981199,140.85430908203125,0.0
2025-03-23 17:25:32.681,-0.33020952,4.6468616,8.874979,0.0010690134,-0.017562363,-0.017715078,6.01875,5.3625,-40.537502,0.1684432,0.17640924,0.64412546,992.1613,37.88723344,127.73981199,140.85430908203125,0.0
2025-03-23 17:25:32.701,-0.30149564,4.575077,8.853444,0.007177661,-0.0059559317,-0.021991132,6.0,5.08125,-40.40625,0.16852097,0.17612056,0.6439261,992.1611,37.88723344,127.73981199,140.85430908203125,0.0
2025-03-23 17:25:32.723,-0.45702913,4.6396832,8.961121,0.0059559317,0.081397735,-0.0067195124,6.1875005,5.2312503,-40.29375,0.16787389,0.17638478,0.64393514,992.15717,37.88723344,127.73981199,140.85430908203125,0.0
2025-03-23 17:25:32.742,-0.5072784,4.6636114,8.932407,0.042607818,0.06062833,0.0042760535,6.2625003,5.1937504,-40.050003,0.16750365,0.17682451,0.643994,992.15717,37.88723344,127.73981199,140.85430908203125,0.0
2025-03-23 17:25:32.763,-0.4331009,4.7114677,8.595019,0.08536835,-0.037110034,0.0073303776,6.1875005,5.1937504,-39.35625,0.16780867,0.17737937,0.64393365,992.15717,37.88723344,127.73981199,140.85430908203125,0.0
2025-03-23 17:25:32.781,-0.49052864,4.7162533,8.1738825,0.05299252,-0.0707076,0.0042760535,6.3,5.3625,-39.24375,0.16890283,0.17760874,0.6436491,992.1635,37.88723344,127.73981199,140.85430908203125,0.0
2025-03-23 17:25:32.802,-0.3469593,4.65404,8.200203,-0.04657844,-0.002290743,0.0042760535,6.0,5.3812504,-39.300003,0.16945527,0.17781074,0.6435303,992.1635,37.88723344,127.73981199,140.85430908203125,0.0
2025-03-23 17:25:32.821,-0.29192436,4.6396832,8.740981,-0.08872811,0.03252855,-0.014660755,5.925,5.3812504,-39.318752,0.16908649,0.17758994,0.64364505,992.16693,37.88723344,127.73981199,140.85430908203125,0.0
2025-03-23 17:25:32.841,-0.3062813,4.699504,9.18126,-0.028863361,0.009926553,-0.035430156,5.9812503,5.3812504,-39.693752,0.16820917,0.17699961,0.64368,992.16693,37.88723344,127.73981199,140.85430908203125,0.0
2025-03-23 17:25:32.862,-0.49292147,4.766503,9.15494,0.031001387,-0.021227552,-0.032986697,6.20625,5.49375,-39.5625,0.1680877,0.17669848,0.6434485,992.15594,37.88723344,127.73981199,140.85430908203125,0.0
2025-03-23 17:25:32.881,-0.4761717,4.790431,8.748159,0.063377224,-0.04016436,-0.013439025,6.3562503,5.6625004,-39.61875,0.16846707,0.17687955,0.64314485,992.15594,37.88723344,127.73981199,140.85430908203125,0.0
2025-03-23 17:25:32.901,-0.38763726,4.7401814,8.5423765,0.023060145,-0.020005822,-0.0036651888,6.4500003,5.68125,-39.825,0.16906855,0.17716338,0.6429192,992.15717,37.88723344,127.73981199,140.85430908203125,0.0
2025-03-23 17:25:32.921,-0.24646074,4.6564326,8.748159,-1.527162E-4,0.030695954,-0.013439025,6.2250004,5.6625004,-39.80625,0.16913062,0.1773432,0.64289105,992.15717,37.88723344,127.73981199,140.85430908203125,0.0
2025-03-23 17:25:32.941,-0.44506502,4.615755,8.812766,0.030390523,-0.018173227,-0.032986697,5.9625,5.49375,-40.2,0.16917509,0.1772831,0.6427619,992.1508,37.88723344,127.73981199,140.85430908203125,0.0
2025-03-23 17:25:32.961,-0.4761717,4.644469,8.549556,0.039553493,-0.052381653,-0.020769402,5.8125,5.45625,-40.0125,0.16946971,0.17730755,0.64242476,992.1508,37.88723344,127.73981199,140.85430908203125,0.0
2025-03-23 17:25:32.981,-0.53359944,4.6612186,8.432307,-0.009926553,0.0025961753,-0.0030543238,5.71875,5.2125,-39.881252,0.16971372,0.17742462,0.64221466,992.1469,37.88723344,127.73981199,140.85430908203125,0.0
2025-03-23 17:25:33.001,-0.42831525,4.6229334,8.76491,-0.0368046,-0.012675445,-0.0024434591,5.9437504,5.0625,-39.956253,0.16931935,0.17749774,0.64223284,992.1469,37.88723344,127.73981199,140.85430908203125,0.0
2025-03-23 17:25:33.022,-0.37567315,4.6061835,8.915657,0.007788526,-0.08048143,-0.011606431,6.01875,5.025,-40.068752,0.16940051,0.17691858,0.6421187,992.1501,37.88723344,127.73981199,140.85430908203125,0.0
2025-03-23 17:25:33.041,-0.33260235,4.651647,8.707481,0.016951498,-0.06520981,-0.008552107,6.3187504,5.1000004,-40.068752,0.1698482,0.17633498,0.641911,992.1501,37.88723344,127.73981199,140.85430908203125,0.0
2025-03-23 17:25:33.061,-0.27517462,4.706682,8.693125,0.007788526,-0.059101168,-0.010384701,6.3187504,5.1000004,-40.068752,0.16995525,0.17623004,0.6418681,992.15546,37.88723344,127.73981199,140.85430908203125,0.0
2025-03-23 17:25:33.082,-0.47377887,4.7712884,8.906086,4.581486E-4,0.017867794,-0.010384701,5.90625,5.3250003,-39.825,0.17013848,0.17590025,0.6416487,992.15546,37.88723344,127.73981199,140.85430908203125,0.0
2025-03-23 17:25:33.103,-0.2632105,4.7712884,8.903693,0.035888307,-0.017562363,-0.0048869182,6.1125,5.55,-39.525,0.17008702,0.17611088,0.6415964,992.1557,37.88723344,127.73981199,140.85430908203125,0.0
2025-03-23 17:25:33.121,-0.27517462,4.706682,8.800801,0.052381653,-0.038331766,-0.023823727,5.8875003,5.2875004,-39.6375,0.17097266,0.17590563,0.64132583,992.1557,37.88723344,127.73981199,140.85430908203125,0.0
2025-03-23 17:25:33.144,-0.3182454,4.735396,8.681161,0.03405571,0.020922119,-0.0067195124,6.2625003,5.3812504,-39.9375,0.17128505,0.17633465,0.6411315,992.15204,37.88723344,127.73981199,140.85430908203125,0.0
2025-03-23 17:25:33.160,-0.3182454,4.7018967,8.779266,0.03527744,0.0129808765,-0.010384701,6.6375003,5.4375,-40.050003,0.17142925,0.1765396,0.6410707,992.15204,37.88724412,127.73980993,139.5123291015625,0.0
2025-03-23 17:25:33.183,-0.36370903,4.7306104,8.724232,0.049327333,0.020311253,-0.008552107,6.5625005,5.2875004,-40.40625,0.17157595,0.17688742,0.6409766,992.1506,37.88724412,127.73980993,139.5123291015625,0.0
2025-03-23 17:25:33.201,-0.3684947,4.7162533,8.384451,0.043218683,0.029474225,-0.018325943,6.7312503,5.45625,-40.275,0.171781,0.17741364,0.640853,992.1506,37.88724412,127.73980993,139.5123291015625,0.0
2025-03-23 17:25:33.221,-0.5192425,4.709075,8.169097,-0.01970039,0.029474225,-0.02443459,6.61875,5.15625,-40.162502,0.17187665,0.1779746,0.6406618,992.1503,37.88724412,127.73980993,139.5123291015625,0.0
2025-03-23 17:25:33.242,-0.4019942,4.723432,8.609376,-0.07345649,0.05818487,-0.010384701,6.24375,4.8562503,-40.143753,0.17110357,0.17842476,0.64062095,992.1486,37.88724412,127.73980993,139.5123291015625,0.0
2025-03-23 17:25:33.262,-0.4331009,4.723432,8.85823,-0.05818487,0.06429352,-0.013439025,6.01875,4.89375,-39.881252,0.1704426,0.17843288,0.6407289,992.1486,37.88724412,127.73980993,139.5123291015625,0.0
2025-03-23 17:25:33.283,-0.41635114,4.766503,8.745767,-0.027030766,0.041691523,-0.005497783,5.8875003,4.51875,-39.956253,0.16948543,0.17855696,0.6408745,992.14935,37.88724412,127.73980993,139.5123291015625,0.0
2025-03-23 17:25:33.302,-0.30388847,4.76411,8.800801,-0.030695954,1.527162E-4,-0.021380268,5.925,4.7250004,-39.956253,0.16918452,0.1785046,0.64088607,992.14935,37.88724412,127.73980993,139.5123291015625,0.0
2025-03-23 17:25:33.323,-0.5599205,4.7162533,8.760123,-0.0050396346,-0.004123337,-0.037873615,6.05625,4.9875,-40.03125,0.16908972,0.17831609,0.64069223,992.14935,37.88724412,127.73980993,139.5123291015625,0.0
2025-03-23 17:25:33.342,-0.6269195,4.718646,8.554341,-0.0013744457,-0.025503604,-0.017715078,5.86875,4.8562503,-40.21875,0.16892748,0.17854309,0.640427,992.15765,37.88724412,127.73980993,139.5123291015625,0.0
2025-03-23 17:25:33.361,-0.5192425,4.65404,8.480164,-0.0386372,-0.008399391,-0.0140498895,5.9625,5.0062504,-40.350002,0.1688277,0.17861891,0.64020115,992.1596,37.88724412,127.73980993,139.5123291015625,0.0
2025-03-23 17:25:33.382,-0.44985065,4.599005,8.865408,-0.06307179,0.031917684,-0.016493348,5.8125,5.025,-40.4625,0.16841365,0.1784713,0.64020365,992.1596,37.88724412,127.73980993,139.5123291015625,0.0
2025-03-23 17:25:33.403,-0.63888365,4.644469,9.035298,-0.030695954,0.020922119,-0.005497783,5.8125,4.9875,-40.275,0.16744995,0.17822072,0.64026594,992.15765,37.88724412,127.73980993,139.5123291015625,0.0
2025-03-23 17:25:33.422,-0.61016977,4.685147,9.006584,0.016951498,0.009926553,0.02687805,6.2625003,5.3625,-40.18125,0.16695562,0.17833446,0.64035565,992.15765,37.88724412,127.73980993,139.5123291015625,0.0
2025-03-23 17:25:33.443,-0.5623133,4.7545385,8.592627,0.04382955,-0.031001387,0.032986697,6.5625005,5.625,-40.10625,0.16715577,0.1785136,0.64047736,992.1567,37.88724412,127.73980993,139.5123291015625,0.0
2025-03-23 17:25:33.461,-0.46899325,4.7138605,8.391629,-0.0019853106,-0.021227552,0.045203995,6.80625,5.6062503,-39.862503,0.16770159,0.17870012,0.64057267,992.1567,37.88724412,127.73980993,139.5123291015625,0.0
2025-03-23 17:25:33.481,-0.25842485,4.6372905,8.705089,-0.054519683,0.03008509,0.036651887,6.99375,5.5875,-39.506252,0.16773655,0.1786407,0.64090824,992.1567,37.88724412,127.73980993,139.5123291015625,0.0
2025-03-23 17:25:33.502,-0.21535404,4.6899323,9.044869,-0.031917684,0.06856957,0.0,6.6937504,5.53125,-39.318752,0.16728225,0.17826341,0.64132005,992.1547,37.88724412,127.73980993,139.5123291015625,0.0
2025-03-23 17:25:33.521,-0.62931234,4.759324,8.853444,-0.006872229,0.06918044,0.010384701,6.58125,5.3625,-39.525,0.1666111,0.17847224,0.6415488,992.1547,37.88724412,127.73980993,139.5123291015625,0.0
2025-03-23 17:25:33.543,-0.5766702,4.7306104,8.879765,0.017562363,0.039858926,0.037262753,6.58125,5.4187503,-39.393753,0.1662754,0.17890553,0.6417047,992.1486,37.88724412,127.73980993,139.5123291015625,0.0
2025-03-23 17:25:33.562,-0.24885355,4.7114677,8.702696,0.06582068,-0.03527744,0.031154104,6.7500005,5.64375,-39.99375,0.16664903,0.1792113,0.6419651,992.1486,37.88724412,127.73980993,139.5123291015625,0.0
2025-03-23 17:25:33.581,-0.38763726,4.7377887,8.343773,0.055435978,-0.043218683,0.010995566,7.0125003,5.5125003,-40.0125,0.16773304,0.17913307,0.6419265,992.14716,37.88724412,127.73980993,139.5123291015625,0.0
2025-03-23 17:25:33.601,-0.35174492,4.74736,8.288737,-0.022143848,-0.0029016077,0.011606431,6.7312503,5.1375003,-39.80625,0.16833104,0.17929363,0.64191526,992.14716,37.88724412,127.73980993,139.5123291015625,0.0
2025-03-23 17:25:33.621,-0.20338993,4.7042894,8.688339,-0.0716239,0.035582874,-0.015882485,6.1875005,4.875,-39.975002,0.16818114,0.17911726,0.6420674,992.14935,37.88724412,127.73980993,139.5123291015625,0.0
2025-03-23 17:25:33.641,-0.49292147,4.6492543,9.008977,-0.043524116,0.03008509,-0.008552107,5.55,4.6687503,-39.768753,0.1675464,0.17881964,0.6421529,992.14935,37.88724412,127.73980993,139.5123291015625,0.0
2025-03-23 17:25:33.661,-0.44985065,4.644469,8.999406,0.009010255,-0.00962112,0.008552107,5.6062503,5.0437503,-39.84375,0.16706152,0.17863216,0.6422187,992.1525,37.88724412,127.73980993,139.5123291015625,0.0
2025-03-23 17:25:33.682,-0.25603202,4.733003,8.717052,0.035888307,-0.04138609,-0.007941242,5.7562504,5.3250003,-39.84375,0.16736978,0.1783709,0.6421873,992.1525,37.88724412,127.73980993,139.5123291015625,0.0
2025-03-23 17:25:33.702,-0.50488555,4.7569313,8.504091,-0.0025961753,0.028252495,-0.007941242,6.15,5.4375,-39.862503,0.16785459,0.17848933,0.6420447,992.1486,37.88724412,127.73980993,139.5123291015625,0.0
2025-03-23 17:25:33.721,-0.4642076,4.6971107,8.657232,-0.03008509,0.011759147,-6.108648E-4,6.3750005,5.7375,-39.73125,0.16761148,0.1787843,0.6420694,992.1486,37.88724412,127.73980993,139.5123291015625,0.0
2025-03-23 17:25:33.741,-0.16510476,4.6301117,8.865408,-0.011148282,-0.016340632,-0.026267186,6.39375,5.4187503,-39.84375,0.16760443,0.17845722,0.64204824,992.1386,37.88724412,127.73980993,139.5123291015625,0.0
2025-03-23 17:25:33.761,-0.44985065,4.6564326,8.779266,-0.016035201,0.050854493,-0.047647454,6.15,5.55,-39.787502,0.16748807,0.17822419,0.6418865,992.1386,37.88724412,127.73980993,139.5123291015625,0.0
2025-03-23 17:25:33.782,-0.7178468,4.685147,8.848659,-0.017867794,0.055130545,-0.011606431,6.3,5.5125003,-39.675003,0.16672346,0.17868015,0.64177465,992.142,37.88724412,127.73980993,139.5123291015625,0.0
2025-03-23 17:25:33.804,-0.45942193,4.625326,8.774481,0.021227552,-0.06582068,0.0140498895,6.15,5.11875,-39.881252,0.16646539,0.17882562,0.6417479,992.1408,37.88724412,127.73980993,139.5123291015625,0.0
2025-03-23 17:25:33.823,-0.32063824,4.625326,8.535198,0.017562363,-0.07742711,0.007941242,5.8500004,5.15625,-39.375,0.16701421,0.17841294,0.6416861,992.1408,37.88724412,127.73980993,139.5123291015625,0.0
2025-03-23 17:25:33.842,-0.2536392,4.685147,8.566305,-0.028863361,0.026419902,0.009162972,5.8875003,4.93125,-39.35625,0.16736813,0.17807433,0.64178395,992.1408,37.88724412,127.73980993,139.5123291015625,0.0
2025-03-23 17:25:33.862,-0.31585258,4.733003,8.779266,-0.03252855,0.009926553,-0.0030543238,5.83125,5.15625,-39.506252,0.16715766,0.17796719,0.641934,992.1386,37.88724412,127.73980993,139.5123291015625,0.0
2025-03-23 17:25:33.881,-0.33738798,4.723432,8.784052,-0.0019853106,-0.04016436,-0.01527162,6.15,5.3812504,-39.525,0.1673373,0.17757496,0.6418841,992.1386,37.88724412,127.73980993,139.5123291015625,0.0
2025-03-23 17:25:33.902,-0.3589234,4.7449675,8.618947,-0.008704823,-0.005345067,-0.017104214,6.2812505,5.26875,-39.73125,0.16760479,0.17734404,0.64175254,992.13934,37.88724412,127.73980993,139.5123291015625,0.0
2025-03-23 17:25:33.921,-0.25603202,4.773681,8.705089,-0.0368046,0.0044287695,-0.037262753,6.58125,5.55,-40.162502,0.16763219,0.17726189,0.64163774,992.13934,37.88724412,127.73980993,139.5123291015625,0.0
2025-03-23 17:25:33.941,-0.44985065,4.6971107,8.79123,-0.04046979,0.03497201,-0.056810424,6.4687505,5.26875,-39.99375,0.16737431,0.17715617,0.6414064,992.1369,37.88724412,127.73980993,139.5123291015625,0.0
2025-03-23 17:25:33.961,-0.58624154,4.6061835,8.851051,-0.031306818,0.027030766,-0.03054324,6.39375,5.0625,-39.84375,0.16662824,0.17738512,0.64118004,992.1369,37.88724412,127.73980993,139.5123291015625,0.0
2025-03-23 17:25:33.981,-0.552742,4.610969,8.807981,-0.016035201,-0.0065667965,-0.020158539,6.3562503,5.34375,-40.050003,0.16609347,0.1774087,0.64103043,992.1403,37.88724412,127.73980993,139.5123291015625,0.0
2025-03-23 17:25:34.002,-0.47377887,4.6707897,8.779266,-0.011148282,-0.012675445,-0.01282816,6.3375,5.1000004,-39.581253,0.16581541,0.17731835,0.640862,992.1442,37.88724412,127.73980993,139.5123291015625,0.0
2025-03-23 17:25:34.022,-0.5599205,4.6755753,8.743374,-0.008093959,-0.009010255,-0.014660755,6.3750005,5.15625,-39.768753,0.16578136,0.1772683,0.64077246,992.1442,37.88724412,127.73980993,139.5123291015625,0.0
2025-03-23 17:25:34.043,-0.37088752,4.6085763,8.822337,-0.027030766,0.04963276,-0.017104214,6.1125,5.30625,-39.9375,0.1653728,0.1773385,0.64071584,992.13715,37.88724412,127.73980993,139.5123291015625,0.0
2025-03-23 17:25:34.062,-0.46899325,4.587041,8.748159,-0.024587307,0.07101303,-0.02687805,6.0750003,5.15625,-39.956253,0.16490856,0.17749493,0.6407245,992.13715,37.88724412,127.73980993,139.5123291015625,0.0
2025-03-23 17:25:34.083,-0.6939186,4.6085763,8.752945,-0.016035201,0.0056504994,-0.02443459,6.0,5.3250003,-40.125,0.16428559,0.17774701,0.6405704,992.142,37.88724412,127.73980993,139.5123291015625,0.0
2025-03-23 17:25:34.101,-0.57188463,4.5822554,8.740981,-0.020922119,-0.011453714,-0.0048869182,5.8875003,5.26875,-40.2,0.1640145,0.17783606,0.6404724,992.142,37.88724412,127.73980993,139.5123291015625,0.0
2025-03-23 17:25:34.122,-0.5383851,4.5894337,8.896515,-0.01970039,0.023976443,-0.005497783,6.1875005,5.4375,-39.99375,0.16373338,0.17774226,0.6404609,992.142,37.88724412,127.73980993,139.5123291015625,0.0
2025-03-23 17:25:34.144,-0.60059845,4.5726843,8.906086,0.022449281,0.014813471,0.010995566,6.1875005,5.3250003,-40.0875,0.16309243,0.17798151,0.64057946,992.14105,37.88724412,127.73980993,139.5123291015625,0.0
2025-03-23 17:25:34.160,-0.44506502,4.5655055,8.827123,0.038331766,-0.0377209,0.01282816,6.1875005,5.2125,-40.36875,0.16313294,0.17801377,0.6405912,992.14105,37.88724412,127.73980993,139.5123291015625,0.0
2025-03-23 17:25:34.183,-0.31345975,4.644469,8.602198,0.014508039,-0.066431545,-0.01282816,6.3375,5.3812504,-40.36875,0.16400579,0.1775035,0.64045036,992.1413,37.88724412,127.73980993,139.5123291015625,0.0
2025-03-23 17:25:34.202,-0.47377887,4.7018967,8.6548395,-0.025198173,-0.0029016077,-0.0140498895,6.3375,5.1937504,-40.537502,0.16433437,0.17725168,0.64032924,992.1413,37.88724412,127.73980993,139.5123291015625,0.0
2025-03-23 17:25:34.223,-0.65084773,4.685147,8.853444,-0.027641632,0.0019853106,0.01527162,6.4687505,5.4187503,-40.48125,0.16410825,0.17725915,0.6403443,992.1425,37.88724412,127.73980993,139.5123291015625,0.0
2025-03-23 17:25:34.243,-0.30388847,4.699504,8.8701935,0.018173227,-0.027336199,0.028710645,6.4500003,5.4750004,-40.2,0.16417584,0.17710899,0.6405694,992.1425,37.88724412,127.73980993,139.5123291015625,0.0
2025-03-23 17:25:34.261,-0.2656033,4.74736,8.664411,0.018784093,-0.04138609,0.0061086477,6.24375,5.34375,-39.975002,0.164653,0.17689632,0.64063007,992.1403,37.88724412,127.73980993,139.5123291015625,0.0
2025-03-23 17:25:34.281,-0.25842485,4.733003,8.729017,-0.0074830935,-0.0059559317,-0.014660755,6.0,5.2312503,-39.975002,0.16525224,0.17665574,0.64058065,992.1403,37.88724412,127.73980993,139.5123291015625,0.0
2025-03-23 17:25:34.301,-0.41874397,4.6899323,8.846265,-0.012370012,0.042302385,-0.031154104,5.8875003,5.15625,-39.84375,0.16520832,0.17669111,0.6404951,992.1364,37.88724412,127.73980993,139.5123291015625,0.0
2025-03-23 17:25:34.322,-0.5982057,4.6085763,8.8701935,0.007788526,0.012370012,-0.026267186,5.8125,5.1375003,-39.768753,0.16491312,0.17690843,0.6403347,992.1364,37.88724412,127.73980993,139.5123291015625,0.0
2025-03-23 17:25:34.341,-0.5383851,4.5415773,8.817552,0.02367101,-0.016951498,-0.01282816,5.9437504,5.4375,-39.825,0.16482697,0.17703488,0.640187,992.13983,37.88724412,127.73980993,139.5123291015625,0.0
2025-03-23 17:25:34.361,-0.33738798,4.5894337,8.743374,0.026725333,0.025198173,-0.037873615,6.0,5.775,-39.581253,0.16487601,0.1770929,0.63999873,992.13983,37.88724412,127.73980993,139.5123291015625,0.0
2025-03-23 17:25:34.381,-0.7106683,4.6085763,8.532805,-0.0050396346,0.025809037,-0.03848448,6.3750005,5.7562504,-39.506252,0.16477923,0.17741959,0.63972926,992.1464,37.88724412,127.73980993,139.5123291015625,0.0
2025-03-23 17:25:34.401,-0.7369894,4.5415773,8.719446,-0.027030766,0.03619374,0.0036651888,6.4500003,5.8125,-39.6375,0.16419363,0.17793928,0.6395757,992.1464,37.88724412,127.73980993,139.5123291015625,0.0
2025-03-23 17:25:34.421,-0.5288138,4.5559344,8.774481,4.581486E-4,0.0044287695,0.010995566,6.6375003,5.625,-39.65625,0.16363668,0.17815414,0.6396721,992.14886,37.88724412,127.73980993,139.5123291015625,0.0
2025-03-23 17:25:34.441,-0.51445687,4.618148,8.635697,-0.008704823,-0.037110034,6.108648E-4,6.8250003,5.45625,-40.0875,0.16370583,0.17799903,0.6396738,992.14886,37.88724412,127.73980993,139.5123291015625,0.0
2025-03-23 17:25:34.461,-0.35174492,4.6085763,8.786445,-0.038026333,0.016646065,0.0012217296,6.7312503,5.4187503,-40.237503,0.1636536,0.1777139,0.6397194,992.1442,37.88724412,127.73980993,139.5123291015625,0.0
2025-03-23 17:25:34.482,-0.4881358,4.6229334,8.95155,-0.04046979,0.09728022,-0.0073303776,6.8625,5.4750004,-40.3125,0.16305229,0.17767145,0.6398982,992.1442,37.88724412,127.73980993,139.5123291015625,0.0
2025-03-23 17:25:34.503,-0.63888365,4.6612186,8.855837,-0.008704823,0.054519683,0.0024434591,6.6375003,5.5875,-40.125,0.16219248,0.17813516,0.6400818,992.1501,37.88724412,127.73980993,139.5123291015625,0.0
2025-03-23 17:25:34.521,-0.4881358,4.587041,8.738588,0.0151189035,-0.027947064,0.0067195124,6.675,5.775,-39.61875,0.16206887,0.17833087,0.6400954,992.1501,37.88724412,127.73980993,139.5123291015625,0.0
2025-03-23 17:25:34.541,-0.44027936,4.610969,8.645268,0.004123337,0.0044287695,-0.005497783,6.5625005,5.6625004,-39.65625,0.16234706,0.17821908,0.6400781,992.14935,37.88724412,127.73980993,139.5123291015625,0.0
2025-03-23 17:25:34.561,-0.59342,4.6372905,8.568698,-0.016035201,0.010537418,-0.0036651888,6.43125,5.3812504,-39.2625,0.16234036,0.17833352,0.6400737,992.14935,37.88724412,127.73980993,139.5123291015625,0.0
2025-03-23 17:25:34.581,-0.5288138,4.613362,8.652447,-0.023976443,-0.0035124724,0.0018325944,6.3562503,5.3812504,-39.300003,0.16222967,0.17839222,0.6400657,992.1496,37.88724412,127.73980993,139.5123291015625,0.0
2025-03-23 17:25:34.602,-0.43788654,4.5726843,8.657232,-0.044134982,0.01725693,-0.009162972,6.15,5.53125,-39.506252,0.16197051,0.17822585,0.6401187,992.1496,37.88724412,127.73980993,139.5123291015625,0.0
2025-03-23 17:25:34.621,-0.6053841,4.5678983,8.784052,-0.05329795,0.003817905,-0.011606431,6.24375,5.775,-39.54375,0.16154552,0.17799695,0.6401382,992.1464,37.88724412,127.73980993,139.5123291015625,0.0
2025-03-23 17:25:34.641,-0.55034924,4.6037908,8.963513,-0.025809037,-0.03894263,0.0036651888,6.1875005,5.925,-39.675003,0.16124427,0.17762524,0.6401388,992.1464,37.88724412,127.73980993,139.5123291015625,0.0
2025-03-23 17:25:34.662,-0.567099,4.65404,8.9013,0.005345067,-0.024281874,0.013439025,6.4125004,6.05625,-39.7125,0.16128023,0.17726359,0.64016706,992.14105,37.88724412,127.73980993,139.5123291015625,0.0
2025-03-23 17:25:34.681,-0.38285163,4.6779685,8.762517,0.013897174,-0.04016436,0.005497783,6.6000004,5.90625,-39.675003,0.16158989,0.17711501,0.64018923,992.14105,37.88724412,127.73980993,139.5123291015625,0.0
2025-03-23 17:25:34.701,-0.4139583,4.666004,8.681161,-0.020311253,-0.012675445,-0.015882485,6.5625005,5.8500004,-39.35625,0.16208154,0.17680939,0.64012253,992.13617,37.88724412,127.73980993,139.5123291015625,0.0
2025-03-23 17:25:34.721,-0.4426722,4.5894337,8.906086,-0.061239194,0.0490219,-0.021991132,6.675,6.01875,-39.018753,0.16169415,0.17663376,0.6401145,992.13617,37.88724412,127.73980993,139.5123291015625,0.0
2025-03-23 17:25:34.742,-0.5479564,4.570291,9.0544405,-0.030695954,0.035582874,-0.008552107,6.6937504,5.9812503,-38.925003,0.16092703,0.17659459,0.64017963,992.13617,37.88724412,127.73980993,139.5123291015625,0.0
2025-03-23 17:25:34.763,-0.6125626,4.5655055,8.915657,0.032833982,-0.025503604,0.0030543238,6.6937504,5.9812503,-39.037502,0.16071293,0.17652497,0.6401775,992.1335,37.88724412,127.73980993,139.5123291015625,0.0
2025-03-23 17:25:34.781,-0.60777694,4.615755,8.597412,0.046273008,-0.048716467,0.023212861,6.3187504,6.01875,-39.131252,0.16114064,0.17660214,0.6401075,992.1335,37.88724412,127.73980993,139.5123291015625,0.0
2025-03-23 17:25:34.801,-0.19621146,4.6492543,8.4347,0.012064579,-0.05299252,0.021380268,6.39375,5.8875003,-39.45,0.16191375,0.17659578,0.6401348,992.1335,37.88724412,127.73980993,139.5123291015625,0.0
2025-03-23 17:25:34.821,-0.14356937,4.682754,8.508878,-0.054519683,0.016035201,-0.018325943,6.4500003,5.83125,-39.787502,0.16257349,0.17614803,0.640202,992.1325,37.88724412,127.73980993,139.5123291015625,0.0
2025-03-23 17:25:34.841,-0.37806597,4.634897,8.9013,-0.087506376,0.042302385,-0.04703659,6.3187504,5.7375,-39.61875,0.162319,0.1757752,0.64021885,992.1325,37.88724412,127.73980993,139.5123291015625,0.0
2025-03-23 17:25:34.861,-0.5096712,4.5918264,9.176475,-0.030695954,-0.0108428495,-0.02932151,6.6562505,5.7937503,-39.46875,0.16165888,0.17545527,0.6401228,992.1391,37.88724412,127.73980993,139.5123291015625,0.0
2025-03-23 17:25:34.881,-0.4953143,4.5894337,8.977871,0.04382955,-0.05177079,-0.01282816,6.39375,5.68125,-39.506252,0.1616851,0.17509224,0.63993615,992.1391,37.88724412,127.73980993,139.5123291015625,0.0
2025-03-23 17:25:34.901,-0.4235296,4.6731825,8.422736,0.049938194,-0.05177079,-0.0012217296,6.2250004,5.7375,-39.300003,0.16259587,0.1750428,0.63967043,992.14056,37.88724412,127.73980993,139.5123291015625,0.0
2025-03-23 17:25:34.921,-0.18424734,4.6731825,8.195417,-0.014813471,-0.05177079,-0.028099779,6.1687503,5.90625,-39.525,0.16352457,0.17498416,0.63945687,992.14056,37.88724412,127.73980993,139.5123291015625,0.0
2025-03-23 17:25:34.941,-0.33499518,4.6229334,8.441878,-0.064904384,0.0025961753,-0.0537561,5.9625,6.0750003,-39.975002,0.16385256,0.17470354,0.63918453,992.1374,37.88724412,127.73980993,139.5123291015625,0.0
2025-03-23 17:25:34.965,-0.5479564,4.54397,8.633304,-0.03924806,-0.035888307,-0.056810424,6.0,6.43125,-39.99375,0.16342989,0.17446047,0.6387977,992.1337,37.88724412,127.73980993,139.5123291015625,0.0
2025-03-23 17:25:34.981,-0.55513483,4.536792,8.583055,-0.006872229,-0.09697478,-0.037873615,6.0937505,6.5437503,-40.256252,0.16347075,0.17421715,0.6384578,992.1337,37.88724412,127.73980993,139.5123291015625,0.0
2025-03-23 17:25:35.001,-0.3589234,4.56072,8.293523,0.02489274,-0.1678351,-0.021991132,6.0,6.5437503,-40.050003,0.1642562,0.17360367,0.63799804,992.1337,37.88724412,127.73980993,139.5123291015625,0.0
2025-03-23 17:25:35.021,-0.06460621,4.6875396,7.6833534,0.016951498,-0.27412558,-0.023212861,6.0750003,6.4500003,-39.73125,0.16672054,0.17211527,0.6372783,992.12933,37.88724412,127.73980993,139.5123291015625,0.0
2025-03-23 17:25:35.041,0.014356935,4.570291,7.274181,-0.10644319,-0.2545779,-0.055588696,5.90625,6.3562503,-39.75,0.16922402,0.17018564,0.63660055,992.12933,37.88724412,127.73980993,139.5123291015625,0.0
2025-03-23 17:25:35.061,-0.23928227,4.453043,7.5900335,-0.19807291,-0.19471315,-0.028710645,5.7937503,6.3562503,-39.675003,0.17007409,0.16869527,0.6362393,992.12714,37.88724412,127.73980993,139.5123291015625,0.0
2025-03-23 17:25:35.081,0.03589234,4.26401,7.7120676,-0.1632536,-0.28023422,0.017104214,6.1687503,6.3187504,-40.050003,0.17081672,0.16559684,0.6360588,992.12714,37.88724412,127.73980993,139.5123291015625,0.0
2025-03-23 17:25:35.102,-0.031106694,4.1850467,7.018149,-0.16386448,-0.42806348,0.053145237,5.68125,6.4875,-40.3875,0.17249662,0.16228682,0.6359429,992.1276,37.88724412,127.73980993,139.5123291015625,0.0
2025-03-23 17:25:35.121,0.10049855,4.098905,7.271788,-0.08384119,-0.8336777,0.14660755,5.6062503,6.80625,-40.350002,0.17580149,0.15751947,0.6357649,992.1276,37.88724412,127.73980993,139.5123291015625,0.0
2025-03-23 17:25:35.142,0.36131623,3.8739798,7.1282187,0.28878632,-1.7078252,0.2669479,5.175,7.18125,-40.443752,0.18692201,0.14687552,0.63472044,992.1269,37.88724412,127.73980993,139.5123291015625,0.0
2025-03-23 17:25:35.161,0.06699903,3.5126636,5.5944195,0.7365502,-2.7878342,0.39645123,3.9750001,7.2937503,-40.4625,0.20545624,0.13338009,0.63195944,992.1269,37.88724412,127.73980993,139.5123291015625,0.0
2025-03-23 17:25:35.182,0.040677983,3.0580273,2.4598217,0.8978185,-3.867232,0.6487384,2.775,6.8437505,-40.350002,0.23309903,0.113578,0.62740433,992.1086,37.88724412,127.73980993,139.5123291015625,0.0
2025-03-23 17:25:35.201,1.0049855,2.5507488,1.0552348,0.5862775,-4.3730283,0.92057323,0.35625002,6.2250004,-40.725002,0.26489687,0.08649388,0.62209845,992.1086,37.88724412,127.73980993,139.5123291015625,0.0
2025-03-23 17:25:35.221,2.7756743,2.050649,1.2131611,0.13607013,-4.4261737,1.1191043,-2.5875,5.49375,-41.287502,0.29482543,0.05459615,0.6172379,992.0761,37.88724412,127.73980993,139.5123291015625,0.0
2025-03-23 17:25:35.241,4.316652,1.7180467,2.2971098,-0.09422589,-4.0975285,1.0818415,-5.68125,4.8562503,-41.625,0.32104334,0.020773586,0.61229664,992.0761,37.88724412,127.73980993,139.5123291015625,0.0
2025-03-23 17:25:35.261,2.4670002,1.0145568,1.012164,-0.3593412,-3.7523897,1.1979058,-9.13125,4.89375,-41.625,0.3429848,-0.011556279,0.60749054,992.0527,37.88724412,127.73980993,139.5123291015625,0.0
2025-03-23 17:25:35.281,2.1702902,0.23449662,0.17706887,-0.7845031,-3.9442012,1.693928,-12.375001,4.74375,-41.756252,0.3615242,-0.045881145,0.6039742,992.0527,37.88724412,127.73980993,139.5123291015625,0.0
2025-03-23 17:25:35.301,4.510471,-0.6197411,1.0217353,-1.3489422,-4.1127996,2.2302673,-15.750001,5.26875,-41.081253,0.38056257,-0.097548276,0.6016322,992.0312,37.88724412,127.73980993,139.5123291015625,0.0
2025-03-23 17:25:35.321,6.652047,-1.4931214,2.981457,-1.6152792,-3.9344273,2.4990478,-19.2,6.3375,-39.9,0.39107788,-0.14315173,0.6009544,992.0312,37.88724412,127.73980993,139.5123291015625,0.0
2025-03-23 17:25:35.341,9.133404,-2.0075781,4.2975097,-1.557247,-3.5410304,2.4825544,-22.462502,7.8562503,-39.09375,0.39799592,-0.18740287,0.6009332,992.0373,37.88724412,127.73980993,139.5123291015625,0.0
2025-03-23 17:25:35.361,8.800801,-2.7708886,4.017549,-1.5047127,-3.3693774,2.3719878,-25.312502,10.25625,-37.425003,0.40305176,-0.2285215,0.6002747,992.0373,37.88724412,127.73980993,139.5123291015625,0.0
2025-03-23 17:25:35.381,7.786245,-3.3140593,4.3262234,-1.4735585,-3.353495,2.5723517,-27.675001,12.468751,-35.11875,0.40684673,-0.26884001,0.5990244,992.04266,37.88724412,127.73980993,139.5123291015625,0.0
2025-03-23 17:25:35.401,8.054241,-3.8548372,4.1515474,-1.3348923,-3.2453718,2.833191,-30.243752,15.1125,-32.456253,0.40925327,-0.30869448,0.5986912,992.04266,37.88724412,127.73980993,139.5123291015625,0.0
2025-03-23 17:25:35.421,8.571091,-4.7712884,2.6416762,-1.3678789,-2.8489206,3.1881032,-32.362503,17.8875,-29.23125,0.4092625,-0.34710807,0.6001295,992.0632,37.88724412,127.73980993,139.5123291015625,0.0
2025-03-23 17:25:35.441,12.227324,-5.3072805,2.3832514,-1.7234023,-2.5202754,3.3078327,-34.3125,20.587502,-25.987501,0.40262777,-0.39446193,0.60348713,992.0632,37.88724412,127.73980993,139.5123291015625,0.0
2025-03-23 17:25:35.463,13.129417,-5.690132,3.4648073,-1.9561417,-2.1091633,3.1960444,-36.112503,23.4375,-22.875,0.395387,-0.42214045,0.604536,992.0756,37.88724412,127.73980993,139.5123291015625,0.0
2025-03-23 17:25:35.482,12.581462,-6.355337,4.278367,-2.0557127,-1.4530946,3.18566,-36.43125,26.212502,-20.306252,0.37765595,-0.46414793,0.60629356,992.0756,37.88724412,127.73980993,139.5123291015625,0.0
2025-03-23 17:25:35.501,13.380664,-6.6711893,4.5535417,-2.063043,-1.0059416,3.1563382,-36.0,29.00625,-17.60625,0.3588892,-0.4938746,0.6087659,992.0893,37.88724412,127.73980993,139.5123291015625,0.0
2025-03-23 17:25:35.521,14.067405,-6.977471,4.4554358,-2.0538802,-0.87643826,3.0677629,-35.11875,32.006252,-15.01875,0.33839083,-0.5209492,0.61105657,992.0893,37.88724412,127.73980993,139.5123291015625,0.0
2025-03-23 17:25:35.542,13.304094,-7.2215385,4.7952166,-1.9579743,-0.9418008,2.9168794,-33.506252,35.006252,-12.712501,0.31867054,-0.54663175,0.61189806,992.11053,37.88724412,127.73980993,139.5123291015625,0.0
2025-03-23 17:25:35.561,13.076776,-7.4512496,4.5391846,-1.8296927,-0.75609785,2.8771732,-31.800001,37.8375,-10.368751,0.2991505,-0.5702468,0.6125331,992.11053,37.88724412,127.73980993,139.5123291015625,0.0
2025-03-23 17:25:35.581,12.887743,-7.6737823,4.304688,-1.7221805,-0.56123203,2.7226243,-29.79375,40.0125,-8.700001,0.2793521,-0.59130967,0.61320865,992.1296,37.88724412,127.73980993,139.5123291015625,0.0
2025-03-23 17:25:35.601,11.569298,-7.776674,3.493521,-1.6812526,-0.26618433,2.6401575,-27.468752,41.7,-7.0125003,0.25385326,-0.61408573,0.61397785,992.1296,37.88724412,127.73980993,139.5123291015625,0.0
2025-03-23 17:25:35.621,10.968699,-7.9776707,3.3954153,-1.724624,-0.14095704,2.6768095,-25.237501,43.21875,-5.49375,0.2318596,-0.63083965,0.6143571,992.13226,37.88724412,127.73980993,139.5123291015625,0.0
2025-03-23 17:25:35.641,10.853844,-8.111669,3.8333018,-1.6916373,-0.19776747,2.6841397,-23.04375,44.4,-4.2000003,0.2093816,-0.6469138,0.61431026,992.13226,37.88724412,127.73980993,139.5123291015625,0.0
2025-03-23 17:25:35.661,10.844273,-8.130812,3.952943,-1.5554144,-0.308334,2.652375,-20.75625,45.80625,-2.60625,0.1879198,-0.6620401,0.6141018,992.1298,37.88724412,127.73980993,139.5123291015625,0.0
2025-03-23 17:25:35.681,10.968699,-8.410771,3.979264,-1.4008657,-0.4176788,2.529591,-18.375,46.93125,-0.99375004,0.16804752,-0.67594206,0.61379886,992.1298,37.88724412,127.73980993,139.5123291015625,0.0
2025-03-23 17:25:35.702,10.985449,-8.257631,4.412365,-1.1876738,-0.35598144,2.3744314,-16.21875,47.475002,0.69375,0.1498316,-0.6881731,0.6135924,992.1247,37.88724412,127.73980993,139.5123291015625,0.0
2025-03-23 17:25:35.723,10.380065,-7.678568,4.465007,-0.93783015,-0.19165882,2.1991131,-13.6125,48.225002,2.30625,0.12878366,-0.69972134,0.6145352,992.1298,37.88724412,127.73980993,139.5123291015625,0.0
2025-03-23 17:25:35.741,9.717253,-7.4679995,4.1611185,-0.7118102,-0.018784093,2.0769403,-11.137501,48.600002,3.1875002,0.11677647,-0.70474625,0.6158907,992.1298,37.88724412,127.73980993,139.5123291015625,0.0
2025-03-23 17:25:35.762,10.396814,-6.960721,3.735196,-0.49556404,0.12232567,1.833816,-8.85,49.068752,4.14375,0.097798936,-0.7104837,0.61909175,992.1298,37.88724412,127.73980993,139.5123291015625,0.0
2025-03-23 17:25:35.782,10.317851,-6.580262,3.3260236,-0.3159698,0.11988221,1.4746276,-6.4500003,49.518753,4.9125004,0.08539853,-0.71307963,0.6217465,992.13446,37.88724412,127.73980993,139.5123291015625,0.0
2025-03-23 17:25:35.801,9.753145,-6.35773,2.8594232,-0.14492767,0.066126116,1.1740822,-4.96875,49.537502,5.6625004,0.07611834,-0.71438193,0.6243896,992.13446,37.88724412,127.73980993,139.5123291015625,0.0
2025-03-23 17:25:35.821,9.367901,-6.5898337,2.0673988,-0.020311253,0.06062833,0.9431752,-3.2812502,49.500004,6.3,0.069106914,-0.7147624,0.62714994,992.1291,37.88724412,127.73980993,139.5123291015625,0.0
2025-03-23 17:25:35.841,8.9348,-6.4343,1.3112668,-0.039858926,0.052687086,0.75686145,-1.7812501,49.237503,6.5062504,0.06359413,-0.71477354,0.6295697,992.1291,37.88724412,127.73980993,139.5123291015625,0.0
2025-03-23 17:25:35.861,8.126026,-5.584848,1.1294123,-0.20967934,-0.0059559317,0.71349007,-0.61875004,49.143753,6.2625003,0.05889579,-0.71540004,0.63085496,992.11957,37.88724412,127.73980993,139.5123291015625,0.0
2025-03-23 17:25:35.881,8.597412,-5.005785,2.3976083,-0.3507891,-0.1452331,0.76419187,0.43125,49.068752,5.7000003,0.05418522,-0.7174181,0.6308298,992.11957,37.88724412,127.73980993,139.5123291015625,0.0
2025-03-23 17:25:35.901,10.387243,-4.9196434,4.2352962,-0.1791361,-0.36147922,0.71226835,0.99375004,48.862503,5.86875,0.049760282,-0.72010857,0.6309362,992.1298,37.88724412,127.73980993,139.5123291015625,0.0
2025-03-23 17:25:35.922,12.435499,-4.5678983,5.245067,0.17760894,-0.5887209,0.5387827,1.21875,48.91875,5.71875,0.0497483,-0.72068936,0.6328033,992.1298,37.88724412,127.73980993,139.5123291015625,0.0
2025-03-23 17:25:35.941,14.002798,-3.952943,5.642276,0.56611896,-0.77564555,0.17226386,2.04375,48.787502,6.05625,0.054433707,-0.71912825,0.6364626,992.1506,37.88724412,127.73980993,139.5123291015625,0.0
2025-03-23 17:25:35.962,15.239887,-4.386044,5.453243,0.98517215,-0.8471167,-0.40317076,2.60625,48.675003,6.3750005,0.06409903,-0.7151293,0.64138883,992.1506,37.88724412,127.73980993,139.5123291015625,0.0
2025-03-23 17:25:35.982,15.495919,-5.599205,4.4721856,1.2936589,-0.95401806,-0.8839213,2.3625002,48.693752,5.7937503,0.07885568,-0.70875555,0.64713115,992.16864,37.88724412,127.73980993,139.5123291015625,0.0
2025-03-23 17:25:36.001,15.51267,-6.6329045,3.330809,1.3975059,-1.1000148,-1.3066398,2.49375,48.6375,5.5125003,0.09799862,-0.7009409,0.6527267,992.16864,37.88724412,127.73980993,139.5123291015625,0.0
2025-03-23 17:25:36.021,15.524633,-7.6402826,2.6368906,1.3266456,-1.1122321,-1.6975932,1.5187501,48.61875,4.425,0.12034492,-0.692733,0.6568307,992.1767,37.88724412,127.73980993,139.5123291015625,0.0
2025-03-23 17:25:36.041,15.012569,-8.300702,2.2325034,1.0468695,-0.7225003,-2.042121,0.28125,48.525,3.0,0.14924142,-0.6823664,0.6587923,992.1767,37.88724412,127.73980993,139.5123291015625,0.0
2025-03-23 17:25:36.061,14.924035,-8.152347,3.4624143,0.8526145,-0.31199917,-2.2803583,-0.675,48.506252,1.8375001,0.17024466,-0.6738322,0.65794355,992.1801,37.88724412,127.73980993,139.5123291015625,0.0
2025-03-23 17:25:36.081,15.108282,-7.9776707,4.7114677,1.0187697,-0.1226311,-2.6462662,-2.34375,48.468754,0.22500001,0.19098184,-0.66330224,0.65654796,992.1801,37.88724412,127.73980993,139.5123291015625,0.0
2025-03-23 17:25:36.101,14.359328,-8.377272,4.4482574,1.3956733,-0.24663666,-3.1050258,-4.1625004,48.35625,-1.06875,0.21500528,-0.6493681,0.65542096,992.1879,37.88724412,127.73980993,139.5123291015625,0.0
2025-03-23 17:25:36.121,13.177275,-9.131011,2.8594232,1.6840014,-0.43722647,-3.53202,-6.24375,48.506252,-1.8937501,0.24317431,-0.6324543,0.6540042,992.1879,37.88724412,127.73980993,139.5123291015625,0.0
2025-03-23 17:25:36.144,11.456835,-9.743574,1.4596218,1.7084361,-0.5148063,-3.830733,-9.262501,48.16875,-3.0,0.28200108,-0.6090746,0.6499263,992.19745,37.88724412,127.73980993,139.5123291015625,0.0
2025-03-23 17:25:36.161,10.372886,-9.564112,0.7322037,1.6357431,-0.5508473,-3.8924303,-12.4875,47.30625,-4.21875,0.31334406,-0.58957714,0.6445277,992.19745,37.88724412,127.73980993,139.5123291015625,0.0
2025-03-23 17:25:36.181,9.226724,-9.454042,0.033499517,1.4500402,-0.6852376,-3.7971354,-15.95625,46.3875,-5.30625,0.33644012,-0.57539517,0.6390728,992.186,37.88724412,127.73980993,139.5123291015625,0.0
2025-03-23 17:25:36.203,9.241081,-8.8701935,-0.14596218,1.1067343,-0.8990402,-3.6688538,-19.29375,44.850002,-6.6375003,0.37318984,-0.553965,0.6272433,992.17645,37.88724412,127.73980993,139.5123291015625,0.0
2025-03-23 17:25:36.223,9.399008,-8.602198,0.35653058,0.8978185,-1.0810779,-3.7195556,-22.518751,43.5,-7.4437504,0.4019148,-0.5388071,0.6145414,992.17645,37.88724412,127.73980993,139.5123291015625,0.0
2025-03-23 17:25:36.242,8.920443,-8.5112705,0.37806597,0.732885,-1.0926844,-3.848448,-26.156252,41.86875,-8.175,0.43047163,-0.5240457,0.59929097,992.17645,37.88724412,127.73980993,139.5123291015625,0.0
2025-03-23 17:25:36.261,7.32443,-8.626125,0.3397808,0.6052143,-0.8758274,-3.7329946,-29.5125,39.84375,-8.53125,0.45730844,-0.5088486,0.58292174,992.1716,37.88724412,127.73980993,139.5123291015625,0.0
2025-03-23 17:25:36.281,5.8839507,-8.047063,0.1794617,0.5422952,-0.5710059,-3.351815,-33.075,37.59375,-8.7375,0.48021913,-0.4935498,0.5677294,992.1716,37.88724412,127.73980993,139.5123291015625,0.0
2025-03-23 17:25:36.301,5.2570314,-7.618747,-0.41635114,0.4592176,-0.34926194,-2.899775,-36.225002,34.96875,-9.0375,0.49893746,-0.47895908,0.5547229,992.16376,37.88724412,127.73980993,139.5123291015625,0.0
2025-03-23 17:25:36.321,4.6372905,-6.800402,-0.93320084,0.29917103,-0.19349141,-2.516763,-38.662502,32.49375,-8.681251,0.51374775,-0.4657759,0.5436044,992.16376,37.88724412,127.73980993,139.5123291015625,0.0
2025-03-23 17:25:36.341,3.6921253,-6.5252275,-0.90448695,0.10002911,-0.2008218,-2.0427318,-41.1375,30.018751,-8.38125,0.52797425,-0.45259407,0.531015,992.15985,37.88724412,127.73980993,139.5123291015625,0.0
2025-03-23 17:25:36.361,2.9048867,-6.5108705,-0.485743,0.048716467,-0.14034618,-1.5882484,-42.975002,27.750002,-8.175,0.53430057,-0.44674706,0.5246085,992.15985,37.88724412,127.73980993,139.5123291015625,0.0
2025-03-23 17:25:36.381,1.698904,-6.2117677,-0.1363909,0.15073088,-0.15989386,-0.8930843,-44.34375,25.837502,-8.043751,0.54149956,-0.4401424,0.51763564,992.1601,37.88724412,127.73980993,139.5123291015625,0.0
2025-03-23 17:25:36.402,0.4354937,-6.113662,-0.89013004,0.2509127,-0.11713332,0.0042760535,-45.375,24.45,-7.8187504,0.544602,-0.43831158,0.51622224,992.1601,37.88724412,127.73980993,139.5123291015625,0.0
2025-03-23 17:25:36.421,0.22492532,-5.5657053,-1.6677973,0.15195261,-0.02611447,0.8863648,-45.61875,23.550001,-7.7625003,0.5437993,-0.44063133,0.51924515,992.1569,37.88724412,127.73980993,139.5123291015625,0.0
2025-03-23 17:25:36.441,1.375873,-5.2689953,-2.0793629,-0.14065161,0.107054055,1.6029092,-45.80625,23.362501,-7.6312504,0.53823364,-0.44776198,0.5256615,992.1569,37.88724412,127.73980993,139.5123291015625,0.0
2025-03-23 17:25:36.461,2.3234308,-4.9196434,-1.3304094,-0.45463613,0.45036006,2.032958,-45.46875,23.587502,-7.65,0.5273134,-0.45843783,0.5344109,992.14716,37.88724412,127.73980993,139.5123291015625,0.0
2025-03-23 17:25:36.481,3.17049,-5.395815,-0.5168497,-0.585972,0.7832814,2.2870777,-45.075,24.2625,-7.9125004,0.5073225,-0.47304264,0.54820263,992.14716,37.88724412,127.73980993,139.5123291015625,0.0
2025-03-23 17:25:36.501,3.0269206,-6.1591253,-0.16749759,-0.5224421,0.8205441,2.4733915,-44.381252,25.687502,-8.34375,0.48869,-0.48464307,0.56078714,992.15106,37.88724412,127.73980993,139.5123291015625,0.0
2025-03-23 17:25:36.521,3.2159536,-7.099505,-0.46660042,-0.4149299,0.6391173,2.7354524,-43.10625,27.206251,-8.85,0.46938568,-0.4969162,0.5741742,992.15106,37.88724412,127.73980993,139.5123291015625,0.0
2025-03-23 17:25:36.541,3.7184465,-8.01117,-1.0360922,-0.33551747,0.18646647,3.036609,-41.49375,29.19375,-8.981251,0.45056814,-0.5110135,0.587182,992.1569,37.88724412,127.73980993,139.5123291015625,0.0
2025-03-23 17:25:36.561,4.668397,-8.985049,-1.7802601,-0.41004297,-0.13668099,3.27057,-39.412502,31.518751,-9.0375,0.43227243,-0.5274474,0.59905875,992.1569,37.88724412,127.73980993,139.5123291015625,0.0
2025-03-23 17:25:36.581,5.534599,-10.174282,-2.3042881,-0.6488911,-0.2527453,3.437947,-37.237503,33.5625,-9.50625,0.4132915,-0.5461296,0.60922134,992.14813,37.88724412,127.73980993,139.5123291015625,0.0
2025-03-23 17:25:36.602,5.2737813,-11.298908,-2.5292134,-1.2579232,-0.047494736,3.748877,-34.893753,35.79375,-9.1125,0.38527694,-0.5724898,0.619247,992.14716,37.88724412,127.73980993,139.5123291015625,0.0
2025-03-23 17:25:36.621,5.352744,-12.126825,-1.9716859,-1.7301217,0.12965605,4.046979,-32.662502,37.800003,-8.681251,0.36422548,-0.59046394,0.62367284,992.14716,37.88724412,127.73980993,139.5123291015625,0.0
2025-03-23 17:25:36.641,6.2811594,-12.928421,-0.062213387,-2.356869,0.43447757,4.517345,-30.075,39.581253,-7.89375,0.3205866,-0.6239272,0.6281623,992.14716,37.88724412,127.73980993,139.5123291015625,0.0
2025-03-23 17:25:36.661,8.16431,-13.148561,1.7515461,-2.5792239,0.75823593,4.759858,-26.531252,42.0,-6.0937505,0.27889267,-0.6511875,0.62990844,992.1501,37.88724412,127.73980993,139.5123291015625,0.0
2025-03-23 17:25:36.682,9.762716,-12.780066,3.5437703,-2.5169156,0.9616539,4.69022,-22.81875,44.04375,-4.5375004,0.23468,-0.67593694,0.63039607,992.1501,37.88724412,127.73980993,139.5123291015625,0.0
2025-03-23 17:25:36.701,10.66481,-11.944971,4.7162533,-2.2188137,1.0239621,4.4116654,-18.6,45.881252,-3.075,0.19093798,-0.69645077,0.63030237,992.1596,37.88724412,127.73980993,139.5123291015625,0.0
2025-03-23 17:25:36.721,10.399207,-11.389835,5.1900325,-1.7056872,0.92194766,4.1306677,-14.025001,47.30625,-0.93750006,0.15041809,-0.71201813,0.6306197,992.1596,37.88724412,127.73980993,139.5123291015625,0.0
2025-03-23 17:25:36.741,10.183853,-11.353944,4.558327,-1.1388047,0.8101594,3.998721,-9.900001,47.79375,0.5625,0.113560684,-0.72269094,0.6328442,992.1772,37.88724412,127.73980993,139.5123291015625,0.0
2025-03-23 17:25:36.762,10.07139,-11.425728,3.397808,-0.65683234,0.698982,3.9632907,-5.7375,48.318752,2.0062501,0.07100221,-0.7304231,0.63844717,992.1772,37.88724412,127.73980993,139.5123291015625,0.0
2025-03-23 17:25:36.781,10.798809,-10.789237,2.1463618,-0.4167625,0.6696605,3.9632907,-1.8000001,48.506252,3.6750002,0.0384096,-0.7333945,0.6442249,992.1801,37.88724412,127.73980993,139.5123291015625,0.0
2025-03-23 17:25:36.801,12.126825,-10.13839,1.538585,-0.33124143,0.5700896,3.767203,2.04375,48.131252,4.3875003,0.0076529332,-0.734757,0.6495565,992.1801,37.88724412,127.73980993,139.5123291015625,0.0
2025-03-23 17:25:36.821,13.349558,-9.116654,1.68694,-0.20112723,0.41431904,3.4312274,5.925,47.68125,5.45625,-0.019634845,-0.734924,0.6540968,992.16766,37.88724412,127.73980993,139.5123291015625,0.0
2025-03-23 17:25:36.842,14.373686,-8.939586,0.8207382,0.0065667965,0.3593412,2.8667884,9.50625,46.59375,6.0750003,-0.042303614,-0.73357266,0.65852976,992.16766,37.88724412,127.73980993,139.5123291015625,0.0
2025-03-23 17:25:36.861,14.268401,-8.504091,-0.17228323,-0.10338886,0.53038335,2.340834,12.712501,45.206253,6.4125004,-0.061445035,-0.7316219,0.6619026,992.15985,37.88724412,127.73980993,139.5123291015625,0.0
2025-03-23 17:25:36.881,13.789837,-7.7623167,-0.18185452,-0.4253146,0.70570153,1.7757839,15.562501,44.268753,6.5437503,-0.08211271,-0.7309981,0.66217476,992.15985,37.88724412,127.73980993,139.5123291015625,0.0
2025-03-23 17:25:36.902,13.617554,-7.628319,0.8997013,-0.6488911,0.70509064,1.2608249,17.79375,43.03125,6.43125,-0.09568749,-0.73247194,0.65924615,992.15204,37.88724412,127.73980993,139.5123291015625,0.0
2025-03-23 17:25:36.921,13.990834,-8.544769,1.9453648,-0.67821264,0.53343767,0.7354812,19.59375,41.775,6.6937504,-0.10508493,-0.7349401,0.65504354,992.15204,37.88724412,127.73980993,139.5123291015625,0.0
2025-03-23 17:25:36.941,13.830515,-9.523434,2.5172493,-0.6323978,0.23716825,0.09346231,21.056252,41.193752,7.2937503,-0.10875429,-0.7379602,0.65061235,992.14813,37.88724412,127.73980993,139.5123291015625,0.0
2025-03-23 17:25:36.962,13.244273,-9.781859,3.2207394,-0.59085894,0.119271345,-0.35796675,21.825,40.612503,8.08125,-0.10751172,-0.7413808,0.64607877,992.14813,37.88724412,127.73980993,139.5123291015625,0.0
2025-03-23 17:25:36.981,13.083954,-11.016556,4.4434714,-0.44852746,0.116217025,-0.75930494,22.06875,40.125,8.925,-0.102825955,-0.74463665,0.6416849,992.1501,37.88724412,127.73980993,139.5123291015625,0.0
2025-03-23 17:25:37.001,12.373286,-10.777273,5.4125648,-0.119271345,0.07223476,-1.0958914,22.29375,40.350002,9.356251,-0.09528953,-0.74649215,0.6385919,992.1501,37.88724412,127.73980993,139.5123291015625,0.0
2025-03-23 17:25:37.021,11.99522,-9.786645,5.9916277,0.3413207,-0.12507457,-1.4514147,22.10625,40.18125,9.712501,-0.08412088,-0.7461616,0.63796854,992.16205,37.88724412,127.73980993,139.5123291015625,0.0
2025-03-23 17:25:37.041,12.18186,-10.703095,5.424529,0.81901693,-0.43783733,-2.0763295,21.6,40.59375,10.087501,-0.06258864,-0.74241847,0.6408202,992.16205,37.88724412,127.73980993,139.5123291015625,0.0
2025-03-23 17:25:37.061,11.720045,-12.301501,4.6301117,1.0835214,-0.6504183,-2.651153,20.8125,41.175003,10.012501,-0.038220767,-0.737573,0.6443549,992.1723,37.88724412,127.73980993,139.5123291015625,0.0
2025-03-23 17:25:37.082,10.939985,-13.694124,4.208975,1.2337941,-0.6724094,-3.1141887,19.3875,41.9625,9.918751,-0.0095908195,-0.7312951,0.6476323,992.1723,37.88724412,127.73980993,139.5123291015625,0.0
2025-03-23 17:25:37.101,10.219746,-14.507684,4.278367,1.3810126,-0.6394227,-3.4086254,18.50625,42.675003,9.450001,0.0136003345,-0.7254891,0.64973253,992.18085,37.88724412,127.73980993,139.5123291015625,0.0
2025-03-23 17:25:37.122,9.602397,-14.947963,3.7280176,1.6168064,-0.7225003,-3.7598727,15.000001,44.362503,7.7812505,0.05482836,-0.7130771,0.65292495,992.18085,37.88724412,127.73980993,139.5123291015625,0.0
2025-03-23 17:25:37.142,9.145369,-14.732609,3.2159536,1.7756312,-0.9259183,-4.025599,12.225,45.787502,6.20625,0.100176774,-0.69777095,0.6550111,992.1884,37.88724412,127.73980993,139.5123291015625,0.0
2025-03-23 17:25:37.161,8.965906,-13.840086,2.3042881,1.8544327,-0.9106467,-4.2357364,8.83125,46.8375,4.2000003,0.13858429,-0.68349546,0.65534425,992.1884,37.88726084,127.73980701,140.520751953125,0.8
2025-03-23 17:25:37.181,8.843872,-13.471592,1.0935199,1.7426445,-0.7640391,-4.5039062,5.0437503,47.5875,2.5500002,0.17735918,-0.66758466,0.65358824,992.1982,37.88726084,127.73980701,140.520751953125,0.8
2025-03-23 17:25:37.203,7.348358,-13.129417,0.6771688,1.5661045,-0.525191,-4.6285224,0.63750005,48.037502,0.45000002,0.21536896,-0.65056664,0.6490657,992.2004,37.88726084,127.73980701,140.520751953125,0.8
2025-03-23 17:25:37.223,5.960521,-12.241681,0.72741807,1.4011711,-0.34620762,-4.53506,-3.825,48.131252,-1.0875001,0.25056654,-0.63275564,0.64248925,992.2004,37.88726084,127.73980701,140.520751953125,0.8
2025-03-23 17:25:37.242,5.706882,-11.540584,1.0815558,1.3547454,-0.25702137,-4.3065968,-8.587501,47.8125,-2.0625,0.28252923,-0.61443156,0.6350222,992.2004,37.88726084,127.73980701,140.520751953125,0.8
2025-03-23 17:25:37.263,6.9894347,-11.176874,0.72502524,1.3767365,-0.64003354,-4.1752605,-12.95625,47.006252,-2.8312502,0.32148564,-0.59133726,0.6245525,992.20087,37.88726084,127.73980701,140.520751953125,0.8
2025-03-23 17:25:37.282,7.5469627,-10.782059,0.51445687,1.3064871,-1.0206023,-4.3072076,-17.306252,46.03125,-3.7687502,0.3462938,-0.57797307,0.61633444,992.20087,37.88726084,127.73980701,140.520751953125,0.8
2025-03-23 17:25:37.301,6.798009,-10.908878,0.44745782,1.1366667,-1.2411245,-4.432435,-21.73125,44.475002,-4.875,0.3810437,-0.5607058,0.60213846,992.20087,37.88726084,127.73980701,140.520751953125,0.8
2025-03-23 17:25:37.321,5.2546387,-10.679168,0.4642076,0.94057906,-1.0468695,-4.345692,-25.500002,42.487503,-5.625,0.41448358,-0.5435023,0.5857159,992.20087,37.88726084,127.73980701,140.520751953125,0.8
2025-03-23 17:25:37.341,4.0869412,-10.281959,0.5383851,0.79458237,-0.72616553,-4.010938,-29.250002,40.59375,-6.2625003,0.45062268,-0.52175,0.5652921,992.1945,37.88726084,127.73980701,140.520751953125,0.8
2025-03-23 17:25:37.361,3.505485,-9.980463,0.021535404,0.72555465,-0.2875646,-3.6535823,-32.49375,37.912502,-6.7875004,0.47414842,-0.5038923,0.5510311,992.1945,37.88726084,127.73980701,140.520751953125,0.8
2025-03-23 17:25:37.381,3.1489546,-9.95175,-0.552742,0.61071205,-0.047494736,-3.2901177,-35.60625,35.25,-6.7312503,0.49316335,-0.4861523,0.53883815,992.195,37.88726084,127.73980701,140.520751953125,0.8
2025-03-23 17:25:37.405,2.2851455,-10.131211,-0.701097,0.51724976,0.025198173,-2.7391176,-38.49375,32.79375,-7.05,0.5121293,-0.46613312,0.5257599,992.1855,37.88726084,127.73980701,140.520751953125,0.8
2025-03-23 17:25:37.422,1.227518,-9.286545,-0.59342,0.49464774,-0.09575305,-2.1972806,-41.268753,29.98125,-7.1250005,0.52146953,-0.45614633,0.5191986,992.1855,37.88726084,127.73980701,140.520751953125,0.8
2025-03-23 17:25:37.440,0.83988076,-8.961121,-0.8542377,0.46899143,-0.18188499,-1.4660754,-43.0875,27.88125,-7.0875,0.5317621,-0.4462566,0.5124477,992.1855,37.88726084,127.73980701,140.520751953125,0.8
2025-03-23 17:25:37.461,0.9020941,-9.456435,-1.6295122,0.3291034,-0.07803798,-0.7696896,-44.568752,25.9125,-7.1625004,0.53859055,-0.44042763,0.50874704,992.1857,37.88726084,127.73980701,140.520751953125,0.8
2025-03-23 17:25:37.482,0.2632105,-9.221938,-2.1487548,0.101250835,0.1632536,-0.045814857,-45.35625,24.375002,-7.2937503,0.5406654,-0.4383332,0.50858146,992.1857,37.88726084,127.73980701,140.520751953125,0.8
2025-03-23 17:25:37.503,-0.5623133,-8.863015,-3.0652058,-0.34162614,0.3074177,0.80206543,-45.54375,23.268751,-7.6125,0.53563315,-0.44186434,0.51293975,992.1796,37.88726084,127.73980701,140.520751953125,0.8
2025-03-23 17:25:37.521,-1.3208381,-8.066205,-2.9479575,-0.9445497,0.35445428,1.6450589,-45.768753,23.04375,-7.6312504,0.5246294,-0.4516935,0.5185667,992.1796,37.88726084,127.73980701,140.520751953125,0.8
2025-03-23 17:25:37.541,-0.4761717,-7.587641,-0.7298109,-1.4900519,0.52671814,2.597397,-45.375,23.475,-7.8187504,0.5062309,-0.46804163,0.52603376,992.1806,37.88726084,127.73980701,140.520751953125,0.8
2025-03-23 17:25:37.563,1.416551,-8.583055,1.2634103,-1.5065453,0.73807734,3.2730136,-44.831253,24.562502,-7.7812505,0.48127294,-0.48800316,0.5366708,992.1806,37.88726084,127.73980701,140.520751953125,0.8
2025-03-23 17:25:37.581,3.7256248,-9.793823,1.7563318,-1.1950042,0.9164499,3.7024515,-43.66875,26.5125,-7.5750003,0.45216286,-0.5080324,0.55137,992.18256,37.88726084,127.73980701,140.520751953125,0.8
2025-03-23 17:25:37.601,5.568098,-10.880164,0.95473623,-0.830318,0.77106404,3.8618872,-41.8875,28.743752,-7.2375,0.42211497,-0.5265329,0.568621,992.18256,37.88726084,127.73980701,140.520751953125,0.8
2025-03-23 17:25:37.621,6.2285175,-11.856436,-0.5479564,-0.61407185,0.11071924,3.9388561,-39.675003,31.3875,-6.8250003,0.3878437,-0.54934174,0.58916616,992.186,37.88726084,127.73980701,140.520751953125,0.8
2025-03-23 17:25:37.641,6.4965134,-12.58864,-1.6127625,-0.6592758,-0.47571096,4.1282244,-36.412502,34.40625,-6.9750004,0.36343014,-0.56984,0.6026876,992.186,37.88726084,127.73980701,140.520751953125,0.8
2025-03-23 17:25:37.662,6.9391856,-12.918849,-2.4335005,-0.97448206,-0.62659454,4.326755,-33.375,36.9,-6.8250003,0.33869383,-0.59271926,0.6133891,992.1916,37.88726084,127.73980701,140.520751953125,0.8
2025-03-23 17:25:37.682,6.991828,-13.268202,-1.8711873,-1.589012,-0.3065014,4.5735445,-30.375002,39.3375,-6.6937504,0.30985734,-0.6173883,0.6210636,992.1916,37.88726084,127.73980701,140.520751953125,0.8
2025-03-23 17:25:37.701,7.628319,-12.928421,-0.20817557,-1.9665264,0.03375028,4.8227773,-26.98125,41.625,-6.20625,0.27510843,-0.6428311,0.6262,992.1818,37.88726084,127.73980701,140.520751953125,0.8
2025-03-23 17:25:37.721,9.016156,-12.653246,1.0863415,-2.077093,0.42470375,4.9260135,-23.8125,43.275,-4.8562503,0.23560287,-0.66689825,0.62990314,992.1818,37.88726084,127.73980701,140.520751953125,0.8
2025-03-23 17:25:37.745,9.779466,-12.201003,2.333002,-1.882838,1.0086905,4.860651,-19.837502,44.86875,-3.2062502,0.1822558,-0.69207865,0.633647,992.18207,37.88726084,127.73980701,140.520751953125,0.8
2025-03-23 17:25:37.760,9.944571,-12.071791,2.7828526,-1.7270675,1.1070397,4.7989535,-15.337501,46.10625,-1.6125001,0.14908305,-0.7037921,0.6359951,992.18207,37.88726084,127.73980701,140.520751953125,0.8
2025-03-23 17:25:37.781,10.150353,-12.059826,3.1369905,-1.3092359,0.9091195,4.6835003,-10.650001,47.23125,-0.20625001,0.09584041,-0.7183911,0.64025027,992.195,37.88726084,127.73980701,140.520751953125,0.8
2025-03-23 17:25:37.801,10.743773,-11.753545,2.565106,-0.93844104,0.6006328,4.536282,-6.0750003,47.90625,1.3312501,0.05713279,-0.72602975,0.6445073,992.195,37.88726084,127.73980701,140.520751953125,0.8
2025-03-23 17:25:37.822,11.251052,-10.832308,1.7204394,-0.7790053,0.3819432,4.2210755,-1.4625001,48.112503,2.41875,0.02247827,-0.7312543,0.6484695,992.19574,37.88726084,127.73980701,140.520751953125,0.8
2025-03-23 17:25:37.840,11.643475,-10.530812,1.7443677,-0.75945765,0.3611738,3.9376345,2.625,47.79375,3.73125,-0.008732906,-0.7351866,0.6509935,992.19574,37.88726084,127.73980701,140.520751953125,0.8
2025-03-23 17:25:37.860,12.574283,-9.97807,2.2444677,-0.68126696,0.6476694,3.5601199,6.95625,46.875,4.89375,-0.038203392,-0.73760545,0.65229064,992.20013,37.88726084,127.73980701,140.520751953125,0.8
2025-03-23 17:25:37.881,13.770695,-9.877572,2.306681,-0.5358811,0.8535308,3.0787585,10.6875,45.61875,5.5125003,-0.06580922,-0.7382566,0.65289426,992.20013,37.88726084,127.73980701,140.520751953125,0.8
2025-03-23 17:25:37.902,14.404793,-9.812965,1.7635103,-0.40515608,0.95371264,2.4636176,14.250001,44.475002,6.24375,-0.095682904,-0.73713475,0.65302914,992.2111,37.88726084,127.73980701,140.520751953125,0.8
2025-03-23 17:25:37.921,14.584254,-9.915857,1.2155539,-0.44852746,1.0215186,1.9773693,17.550001,43.2,7.3125005,-0.11553513,-0.73603505,0.6520414,992.2111,37.88726084,127.73980701,140.520751953125,0.8
2025-03-23 17:25:37.942,15.680167,-10.080962,0.87338024,-0.6849321,0.9775364,1.4819579,19.78125,41.850002,7.93125,-0.13233046,-0.7361948,0.648976,992.2087,37.88726084,127.73980701,140.520751953125,0.8
2025-03-23 17:25:37.961,16.405191,-9.583255,2.1559331,-1.0123557,0.7008146,0.77274394,21.84375,41.025,9.20625,-0.14370467,-0.7392214,0.6429027,992.2087,37.88726084,127.73980701,140.520751953125,0.8
2025-03-23 17:25:37.980,16.333406,-10.588241,4.5942197,-1.0141883,0.3666716,0.047647454,23.0625,39.7125,10.1625,-0.1479874,-0.7443331,0.6352982,992.2026,37.88726084,127.73980701,140.520751953125,0.8
2025-03-23 17:25:38.001,14.699109,-11.519048,6.8506513,-0.49434233,0.011759147,-0.60597783,23.925001,39.16875,11.00625,-0.1451609,-0.74874717,0.6295113,992.2026,37.88726084,127.73980701,140.520751953125,0.8
2025-03-23 17:25:38.021,13.296915,-10.171889,7.34118,0.38163778,-0.24541493,-0.97371846,24.0375,38.737503,12.337501,-0.13390595,-0.74948764,0.62909317,992.22797,37.88726084,127.73980701,140.520751953125,0.8
2025-03-23 17:25:38.041,13.430914,-10.200603,6.0155563,0.91797704,-0.49159342,-1.4172063,23.90625,38.381252,12.76875,-0.1233395,-0.74712783,0.63249826,992.22797,37.88726084,127.73980701,140.520751953125,0.8
2025-03-23 17:25:38.062,12.909278,-11.4496565,4.3812585,1.3400846,-0.9625702,-2.0995421,23.475,39.09375,12.8625,-0.0967882,-0.74101144,0.6411132,992.2492,37.88726084,127.73980701,140.520751953125,0.8
2025-03-23 17:25:38.081,12.160325,-12.71546,2.5818555,1.4262166,-1.3461933,-2.6407685,22.63125,39.80625,11.625,-0.06776046,-0.7355215,0.648396,992.2492,37.88726084,127.73980701,140.520751953125,0.8
2025-03-23 17:25:38.101,11.674582,-13.679767,1.9549361,1.2643374,-1.5404483,-3.1514513,21.525002,40.93125,9.975,-0.033653907,-0.73067373,0.653475,992.2475,37.88726084,127.73980701,140.520751953125,0.8
2025-03-23 17:25:38.122,11.160125,-15.098711,2.3162522,1.0658063,-1.5349505,-3.6566365,19.650002,42.28125,8.85,0.0038094255,-0.7263716,0.6553856,992.2475,37.88726084,127.73980701,140.520751953125,0.8
2025-03-23 17:25:38.141,9.762716,-15.127425,3.3643086,1.022435,-1.491579,-3.9461865,16.875,43.256252,7.275,0.042939432,-0.7214781,0.6547461,992.2392,37.88726084,127.73980701,140.520751953125,0.8
2025-03-23 17:25:38.161,9.442079,-14.550755,3.505485,1.1146755,-1.3315325,-4.165487,13.89375,44.4375,6.05625,0.08277544,-0.7126605,0.6522666,992.2392,37.88727601,127.73979779,141.54742431640625,1.91
2025-03-23 17:25:38.181,9.533006,-14.433506,2.9072795,1.1818706,-1.0077741,-4.5014625,10.3125,45.825,4.7250004,0.12275966,-0.7053793,0.64993393,992.2392,37.88727601,127.73979779,141.54742431640625,1.91
2025-03-23 17:25:38.201,8.2456665,-14.409578,2.428715,1.1959205,-0.5667298,-4.815447,6.2250004,46.85625,3.05625,0.17181301,-0.6896298,0.6441285,992.2392,37.88727601,127.73979779,141.54742431640625,1.91
2025-03-23 17:25:38.222,7.1210403,-14.196617,2.1942184,1.2820524,-0.28634286,-4.8759227,2.2875001,48.037502,1.7625,0.20910133,-0.6738533,0.6383654,992.2319,37.88727601,127.73979779,141.54742431640625,1.91
2025-03-23 17:25:38.241,6.5611196,-13.42852,1.861616,1.3944516,-0.37675086,-4.85271,-2.3812501,48.487503,0.71250004,0.24542628,-0.6558752,0.6319732,992.2319,37.88727601,127.73979779,141.54742431640625,1.91
2025-03-23 17:25:38.262,6.7573314,-13.052848,1.2155539,1.4549272,-0.6137664,-4.8453794,-7.0312505,48.35625,0.0,0.28241113,-0.636702,0.6243009,992.2209,37.88727601,127.73979779,141.54742431640625,1.91
2025-03-23 17:25:38.282,6.8889365,-13.115061,0.43788654,1.3284782,-0.67363113,-4.918683,-11.512501,47.925003,-1.25625,0.3198607,-0.6169736,0.61435676,992.2209,37.88727601,127.73979779,141.54742431640625,1.91
2025-03-23 17:25:38.302,6.218946,-13.016955,0.18424734,1.1195624,-0.44577858,-4.9351764,-16.181252,46.725002,-1.7812501,0.3554714,-0.5964697,0.60218245,992.2109,37.88727601,127.73979779,141.54742431640625,1.91
2025-03-23 17:25:38.321,5.111069,-12.404392,0.15314065,0.9570724,-0.23075417,-4.828275,-20.7,45.206253,-2.6437502,0.38784492,-0.5751619,0.58857006,992.2109,37.88727601,127.73979779,141.54742431640625,1.91
2025-03-23 17:25:38.341,3.95055,-12.382857,-0.13160525,0.8184061,-0.045051277,-4.543612,-25.218752,43.03125,-3.80625,0.42338908,-0.54805,0.5708793,992.21405,37.88727601,127.73979779,141.54742431640625,1.91
2025-03-23 17:25:38.361,2.5172493,-11.650654,-0.30867413,0.64736396,0.07223476,-4.14655,-29.156252,40.893753,-4.5,0.44737723,-0.52711904,0.5569968,992.21405,37.88727601,127.73979779,141.54742431640625,1.91
2025-03-23 17:25:38.381,1.7395821,-11.145768,-0.22492532,0.5270236,0.17180572,-3.6804602,-32.775,38.5875,-5.4750004,0.46726343,-0.5077183,0.54398686,992.215,37.88727601,127.73979779,141.54742431640625,1.91
2025-03-23 17:25:38.402,1.052842,-10.439885,-0.41156548,0.42195484,0.28053966,-3.1025822,-36.09375,35.90625,-6.1875005,0.48333228,-0.49002203,0.5325006,992.215,37.88727601,127.73979779,141.54742431640625,1.91
2025-03-23 17:25:38.421,0.35653058,-10.636097,-0.64845496,0.37186393,0.33857182,-2.5589125,-38.68125,33.318752,-6.3375,0.4955271,-0.47448948,0.52332187,992.2138,37.88727601,127.73979779,141.54742431640625,1.91
2025-03-23 17:25:38.442,-0.7298109,-9.815358,-1.0289137,0.25824308,0.15958843,-1.6701043,-41.1375,30.768751,-6.6562505,0.5041795,-0.46281958,0.5167178,992.2138,37.88727601,127.73979779,141.54742431640625,1.91
2025-03-23 17:25:38.461,-0.72023964,-9.178867,-0.81595254,0.18432845,0.037415467,-0.9150754,-42.975002,28.275002,-7.0125003,0.5096381,-0.45622134,0.5125336,992.21063,37.88727601,127.73979779,141.54742431640625,1.91
2025-03-23 17:25:38.481,-0.8279166,-8.882157,-1.079163,0.15134175,0.04291325,-0.13439025,-43.912502,26.812502,-6.80625,0.5121612,-0.45353094,0.5115403,992.21063,37.88727601,127.73979779,141.54742431640625,1.91
2025-03-23 17:25:38.501,-0.93320084,-9.322437,-2.3042881,-0.009315688,0.32146758,0.58032155,-44.53125,26.081251,-7.0687504,0.5095373,-0.4549581,0.5150576,992.2155,37.88727601,127.73979779,141.54742431640625,1.91
2025-03-23 17:25:38.521,-1.5864414,-9.298509,-3.3379877,-0.49006626,0.5743656,1.3884957,-44.643753,25.48125,-7.2375,0.50051355,-0.46051362,0.5221515,992.2155,37.88727601,127.73979779,141.54742431640625,1.91
2025-03-23 17:25:38.541,-1.1796615,-9.193225,-2.6608188,-1.1210896,0.66110843,2.271806,-44.34375,25.706251,-7.6125,0.48372063,-0.47237295,0.5314712,992.2045,37.88727601,127.73979779,141.54742431640625,1.91
2025-03-23 17:25:38.561,1.026521,-9.667004,-0.46899325,-1.5224278,0.6562215,2.9529204,-43.59375,26.343752,-7.9687505,0.46004164,-0.4900886,0.5420401,992.2045,37.88727601,127.73979779,141.54742431640625,1.91
2025-03-23 17:25:38.583,3.4504502,-10.425529,1.9286151,-1.3238966,0.5377137,3.3707519,-42.600002,27.675001,-8.0625,0.425721,-0.5149786,0.55714506,992.1965,37.88727601,127.73979779,141.54742431640625,1.91
2025-03-23 17:25:38.601,4.517649,-11.155339,2.3545375,-0.91889334,0.23533566,3.4880378,-41.04375,29.75625,-7.9500003,0.40575427,-0.5292251,0.5672262,992.1965,37.88727601,127.73979779,141.54742431640625,1.91
2025-03-23 17:25:38.621,4.5942197,-12.399607,0.8111669,-0.4253146,-0.17577635,3.70856,-39.28125,32.04375,-7.36875,0.3763212,-0.5517722,0.5850816,992.2028,37.88727601,127.73979779,141.54742431640625,1.91
2025-03-23 17:25:38.641,3.7758741,-12.827922,-0.76570326,-0.33551747,-0.46899143,4.1025677,-37.050003,34.425003,-7.1625004,0.35394704,-0.5702919,0.5998725,992.2028,37.88727601,127.73979779,141.54742431640625,1.91
2025-03-23 17:25:38.662,4.847859,-13.067204,-1.7228323,-0.5212204,-0.5911644,4.562549,-34.256252,36.768753,-6.7500005,0.3293866,-0.59073925,0.61421496,992.19745,37.88727601,127.73979779,141.54742431640625,1.91
2025-03-23 17:25:38.682,6.0729837,-13.471592,-1.713261,-0.9317215,-0.615599,4.8966923,-31.44375,38.775,-6.05625,0.30157128,-0.6131133,0.6264505,992.19745,37.88727601,127.73979779,141.54742431640625,1.91
2025-03-23 17:25:38.701,7.4847493,-13.488341,-0.18424734,-1.2371539,-0.47204575,5.0897255,-27.618752,41.100002,-5.6062503,0.2700676,-0.63644004,0.6359317,992.1882,37.88727601,127.73979779,141.54742431640625,1.91
2025-03-23 17:25:38.722,9.0544405,-13.330415,1.3208381,-1.3043491,-0.21609342,5.1123276,-23.94375,43.0875,-4.6687503,0.23539153,-0.65846187,0.64347047,992.1882,37.88727601,127.73979779,141.54742431640625,1.91
2025-03-23 17:25:38.742,9.564112,-13.438092,2.2229323,-1.1760675,0.017867794,5.032915,-19.893751,44.5125,-3.4875002,0.19924504,-0.6771594,0.6500497,992.18744,37.88727601,127.73979779,141.54742431640625,1.91
2025-03-23 17:25:38.761,10.250853,-13.749159,2.9359934,-0.9335541,0.07345649,5.046354,-15.168751,46.3125,-2.5500002,0.16253524,-0.69214493,0.65645,992.18744,37.88727601,127.73979779,141.54742431640625,1.91
2025-03-23 17:25:38.781,12.172289,-13.533805,3.3714871,-0.58108515,-0.08048143,5.002372,-10.89375,47.41875,-1.3125,0.118325286,-0.70590705,0.664815,992.19037,37.88727601,127.73979779,141.54742431640625,1.91
2025-03-23 17:25:38.802,14.371293,-12.045469,3.534199,-0.3037525,0.18829907,4.6651745,-6.01875,47.79375,-0.43125,0.08519993,-0.7124592,0.6716127,992.19037,37.88727601,127.73979779,141.54742431640625,1.91
2025-03-23 17:25:38.822,15.400207,-10.676775,3.7160535,-0.0129808765,0.7325796,3.966956,-1.2750001,47.9625,-0.09375,0.04594375,-0.7148772,0.6799148,992.1989,37.88727601,127.73979779,141.54742431640625,1.91
2025-03-23 17:25:38.841,15.589239,-9.724431,3.940979,0.2197586,0.80954856,3.5723372,3.6937501,47.34375,0.26250002,0.024493346,-0.71375483,0.6849869,992.1989,37.88727601,127.73979779,141.54742431640625,1.91
2025-03-23 17:25:38.862,16.21616,-8.126026,3.3116665,0.5581777,0.7044798,2.8771732,8.34375,46.0875,0.39375,-1.5555914E-5,-0.70966744,0.6923873,992.207,37.88727601,127.73979779,141.54742431640625,1.91
2025-03-23 17:25:38.881,15.443277,-7.2670026,2.5531418,0.674242,0.636063,2.2754712,12.4125,45.15,0.28125,-0.018581886,-0.7038892,0.6998149,992.207,37.88727601,127.73979779,141.54742431640625,1.91
2025-03-23 17:25:38.901,13.978869,-8.094919,2.0386848,0.7145591,0.5761982,1.8215988,15.8625,43.85625,0.13125001,-0.032779425,-0.69771844,0.7065899,992.21063,37.88727601,127.73979779,141.54742431640625,1.91
2025-03-23 17:25:38.921,14.888143,-9.217153,1.5960127,0.87827086,0.568257,1.6878194,18.525002,42.45,-0.056250002,-0.045340028,-0.6909409,0.7133938,992.21063,37.88727601,127.73979779,141.54742431640625,1.91
2025-03-23 17:25:38.942,16.261623,-8.76491,0.3804588,0.98883736,0.3904953,1.314581,20.306252,41.381252,-0.5625,-0.05757146,-0.6811863,0.7226229,992.207,37.88727601,127.73979779,141.54742431640625,1.91
2025-03-23 17:25:38.961,17.266607,-8.288737,-1.253839,0.7573196,0.27992877,0.7324269,21.337502,40.162502,-0.84375006,-0.06235484,-0.67446786,0.7287563,992.207,37.88727601,127.73979779,141.54742431640625,1.91
2025-03-23 17:25:38.983,17.417356,-9.30808,-2.306681,0.047494736,0.42409286,-0.18936808,22.48125,39.65625,-1.4250001,-0.06299614,-0.67165184,0.7308379,992.2048,37.88727601,127.73979779,141.54742431640625,1.91
2025-03-23 17:25:39.002,15.6873455,-10.382458,-1.105484,-0.62384564,0.3367392,-0.8814779,22.85625,39.318752,-1.725,-0.05971677,-0.67427194,0.72738826,992.2048,37.88727601,127.73979779,141.54742431640625,1.91
2025-03-23 17:25:39.022,14.502898,-10.470992,1.2083755,-0.9488257,-0.12996148,-1.4398082,23.1375,39.24375,-1.8000001,-0.051586226,-0.6807998,0.72013265,992.19354,37.88727601,127.73979779,141.54742431640625,1.91
2025-03-23 17:25:39.041,13.519448,-10.621739,4.0558343,-0.8339831,-0.67912894,-2.0250168,23.118752,39.65625,-1.63125,-0.03644857,-0.68847376,0.71173424,992.19354,37.88727601,127.73979779,141.54742431640625,1.91
2025-03-23 17:25:39.061,12.543177,-11.935399,4.802395,-0.34101525,-1.0810779,-2.6444337,22.5375,40.425003,-0.99375004,-0.0075032427,-0.69483197,0.7034457,992.20013,37.88727601,127.73979779,141.54742431640625,1.91
2025-03-23 17:25:39.081,11.475977,-13.055241,4.1108694,-0.031917684,-1.2588396,-3.0653195,20.8125,41.4375,-0.82500005,0.021382097,-0.69663554,0.6983957,992.20013,37.88727601,127.73979779,141.54742431640625,1.91
2025-03-23 17:25:39.101,11.6339035,-14.569897,3.4408789,0.10308343,-1.5496112,-3.3817475,18.6375,42.54375,-0.5625,0.045667976,-0.6967711,0.6946137,992.21234,37.88727601,127.73979779,141.54742431640625,1.91
2025-03-23 17:25:39.121,11.653047,-15.560526,3.35713,0.21181737,-2.2362232,-3.8185158,15.975,43.74375,-0.63750005,0.093204595,-0.69577926,0.68680596,992.21234,37.88727601,127.73979779,141.54742431640625,1.91
2025-03-23 17:25:39.143,10.652846,-14.708681,2.725425,0.25885394,-2.210567,-4.242456,12.88125,44.550003,-1.48125,0.14823492,-0.6924812,0.6765288,992.2297,37.88727601,127.73979779,141.54742431640625,1.91
2025-03-23 17:25:39.162,10.035499,-14.313865,2.225325,0.10613775,-1.4879138,-4.4403763,9.4125,45.75,-1.725,0.1797134,-0.6888253,0.66905457,992.2297,37.88728602,127.73978808,140.935546875,1.57
2025-03-23 17:25:39.181,8.671589,-14.031512,2.6129622,-0.03008509,-0.479987,-4.6248574,5.7000003,46.95,-2.775,0.21620357,-0.6817299,0.6579432,992.2402,37.88728602,127.73978808,140.935546875,1.57
2025-03-23 17:25:39.202,7.5326056,-13.464413,2.9623144,0.11835505,0.17669263,-4.7146544,1.40625,47.8125,-3.5812502,0.25455025,-0.6681192,0.6443999,992.2402,37.88728602,127.73978808,140.935546875,1.57
2025-03-23 17:25:39.222,6.9655066,-13.16531,2.4909284,0.35781404,0.25305074,-4.7635236,-3.5812502,48.393753,-3.3750002,0.28295463,-0.653345,0.634398,992.2463,37.88728602,127.73978808,140.935546875,1.57
2025-03-23 17:25:39.242,6.166304,-12.815958,1.9477576,0.6039925,-0.0151189035,-4.7604694,-7.8187504,48.487503,-3.80625,0.31229934,-0.6363154,0.6241794,992.2463,37.88728602,127.73978808,140.935546875,1.57
2025-03-23 17:25:39.261,5.5896335,-12.437892,1.0432707,0.7451023,-0.34070984,-4.689609,-12.3,47.90625,-3.3750002,0.34315395,-0.6182319,0.61306465,992.2475,37.88728602,127.73978808,140.935546875,1.57
2025-03-23 17:25:39.281,5.2977095,-11.96172,0.29192436,0.7035635,-0.583834,-4.621192,-16.6875,46.78125,-3.43125,0.37461817,-0.6001412,0.600222,992.2475,37.88728602,127.73978808,140.935546875,1.57
2025-03-23 17:25:39.302,5.015356,-11.4018,0.031106694,0.5245801,-0.8171843,-4.6059203,-21.0,45.35625,-3.5625002,0.40594542,-0.582631,0.5849247,992.2365,37.88728602,127.73978808,140.935546875,1.57
2025-03-23 17:25:39.321,4.4817567,-10.930414,0.3900301,0.40057456,-0.9143119,-4.576599,-25.29375,43.350002,-3.4875002,0.44424427,-0.56147224,0.56229967,992.2365,37.88728602,127.73978808,140.935546875,1.57
2025-03-23 17:25:39.341,3.5820556,-10.616954,0.6987042,0.35598144,-0.9167553,-4.432435,-29.400002,41.287502,-3.7125,0.47333035,-0.54434913,0.54289323,992.22015,37.88728602,127.73978808,140.935546875,1.57
2025-03-23 17:25:39.361,2.347359,-11.212767,0.21535404,0.34559676,-0.69317883,-4.121505,-33.075,39.112503,-3.6375,0.4997912,-0.52694005,0.52405983,992.22015,37.88728602,127.73978808,140.935546875,1.57
2025-03-23 17:25:39.381,1.0983056,-10.9375925,-0.2632105,0.20876303,-0.42500916,-3.505753,-36.525,36.581253,-3.6562502,0.52131915,-0.5105424,0.5075219,992.2231,37.88728602,127.73978808,140.935546875,1.57
2025-03-23 17:25:39.401,0.148355,-10.186246,-0.68195444,0.06398808,-0.18188499,-2.7262895,-39.881252,33.73125,-3.80625,0.5369309,-0.49677038,0.49425647,992.2231,37.88728602,127.73978808,140.935546875,1.57
2025-03-23 17:25:39.422,0.28235307,-9.805787,-1.160519,-0.15775582,-0.09025527,-1.825264,-42.46875,31.087502,-3.3375,0.5471849,-0.48715577,0.48401406,992.2187,37.88728602,127.73978808,140.935546875,1.57
2025-03-23 17:25:39.441,0.22253251,-9.131011,-0.9834501,-0.37033677,0.20967934,-1.1239913,-44.8125,28.48125,-3.0,0.55192685,-0.48152572,0.47708634,992.2187,37.88728602,127.73978808,140.935546875,1.57
2025-03-23 17:25:39.461,0.124426775,-8.525627,-0.4977071,-0.5065596,0.5395463,-0.46608981,-46.275,26.343752,-2.775,0.55117136,-0.47873476,0.47402826,992.20135,37.88728602,127.73978808,140.935546875,1.57
2025-03-23 17:25:39.481,0.23449662,-8.989835,-0.50488555,-0.53038335,0.8193224,0.1594357,-47.175003,25.143751,-2.4562502,0.5455004,-0.4781022,0.4753706,992.20135,37.88728602,127.73978808,140.935546875,1.57
2025-03-23 17:25:39.501,-1.1964114,-8.5016985,-1.1653047,-0.6317869,0.76129025,1.0158682,-47.943752,24.581251,-2.8312502,0.53279346,-0.48169065,0.4822198,992.2004,37.88728602,127.73978808,140.935546875,1.57
2025-03-23 17:25:39.520,-0.7537391,-8.810373,-1.5720844,-0.8553634,0.58230686,1.8136575,-47.737503,24.525002,-2.775,0.5221491,-0.48823383,0.48805326,992.2004,37.88728602,127.73978808,140.935546875,1.57
2025-03-23 17:25:39.542,1.0935199,-9.693324,-0.50488555,-1.1479677,0.5261073,2.6456554,-47.25,25.462502,-3.15,0.4980587,-0.50666606,0.49997202,992.2004,37.88728602,127.73978808,140.935546875,1.57
2025-03-23 17:25:39.561,2.8474588,-10.6815605,0.92602235,-1.1204787,0.57680905,3.289507,-46.518753,26.550001,-3.7125,0.4735257,-0.52504075,0.51219827,992.2004,37.88728602,127.73978808,140.935546875,1.57
2025-03-23 17:25:39.581,3.7806597,-11.397015,1.3423735,-0.90728694,0.5419898,3.6651888,-44.8875,27.993752,-3.73125,0.44633684,-0.5441738,0.52705914,992.1994,37.88728602,127.73978808,140.935546875,1.57
2025-03-23 17:25:39.601,4.4745784,-12.08854,0.71306115,-0.6323978,0.4894554,4.086685,-43.350002,30.45,-3.8437502,0.41766882,-0.5629689,0.5442379,992.1994,37.88728602,127.73978808,140.935546875,1.57
2025-03-23 17:25:39.622,4.948357,-12.067004,-0.27996024,-0.57864165,0.4082104,4.4642,-41.2125,32.5125,-3.7687502,0.3797198,-0.58645,0.56703347,992.19965,37.88728602,127.73978808,140.935546875,1.57
2025-03-23 17:25:39.641,5.3312087,-11.741581,-0.67477596,-0.6977603,0.42226028,4.693885,-38.4375,35.11875,-3.43125,0.35527197,-0.6007959,0.5803062,992.19965,37.88728602,127.73978808,140.935546875,1.57
2025-03-23 17:25:39.662,5.8839507,-11.7463665,-0.74416786,-1.00136,0.47174034,4.959611,-34.93125,37.96875,-3.2250001,0.31059676,-0.6250884,0.60035014,992.19574,37.88728602,127.73978808,140.935546875,1.57
2025-03-23 17:25:39.681,6.664011,-11.956935,0.30388847,-1.2334887,0.42409286,5.1801333,-30.6375,40.725002,-3.2062502,0.27148727,-0.6451437,0.61362725,992.19574,37.88728602,127.73978808,140.935546875,1.57
2025-03-23 17:25:39.701,7.8077803,-12.344572,1.7324036,-1.1968368,0.31291547,5.305361,-25.725,43.5,-2.60625,0.2309336,-0.66430426,0.62509024,992.1945,37.88728602,127.73978808,140.935546875,1.57
2025-03-23 17:25:39.722,8.908479,-12.433106,2.725425,-0.8486439,0.20784675,5.32613,-20.587502,45.975002,-1.7625,0.19071442,-0.68046355,0.63612956,992.1945,37.88728602,127.73978808,140.935546875,1.57
2025-03-23 17:25:39.742,10.147961,-12.856636,2.2947168,-0.44302967,0.01970039,5.2241154,-15.637501,47.775,-1.125,0.15265158,-0.6924904,0.64753705,992.1928,37.88728602,127.73978808,140.935546875,1.57
2025-03-23 17:25:39.760,11.341979,-12.768102,1.3471591,-0.21517712,-0.1867719,5.020087,-10.481251,48.675003,-0.31875002,0.11803775,-0.70103943,0.65854955,992.1928,37.88728602,127.73978808,140.935546875,1.57
2025-03-23 17:25:39.781,12.052648,-12.143575,0.33499518,-0.24755295,0.05574141,4.712211,-5.68125,49.143753,0.28125,0.08580265,-0.7070553,0.66795766,992.20184,37.88728602,127.73978808,140.935546875,1.57
2025-03-23 17:25:39.801,12.492927,-12.131611,0.526421,-0.48151416,0.36728245,4.3676834,-0.93750006,48.937504,0.6,0.053726085,-0.71287864,0.67544705,992.20184,37.88728602,127.73978808,140.935546875,1.57
2025-03-23 17:25:39.822,12.686746,-11.129018,2.210968,-0.5193878,0.5083922,3.971232,3.6000001,48.16875,1.06875,0.014951372,-0.7165291,0.6785837,992.1982,37.88728602,127.73978808,140.935546875,1.57
2025-03-23 17:25:39.840,13.249059,-10.255638,3.4313076,-0.2603811,0.74418604,3.5802784,7.7625003,47.1375,1.21875,-0.013841143,-0.7177076,0.6814764,992.1982,37.88728602,127.73978808,140.935546875,1.57
2025-03-23 17:25:39.862,14.261223,-9.767502,3.694518,0.30589053,0.9622647,3.0781476,11.587501,45.825,1.35,-0.046657607,-0.7137587,0.6873995,992.1977,37.88728602,127.73978808,140.935546875,1.57
2025-03-23 17:25:39.881,14.651253,-10.437492,1.98365,0.7939715,0.9121738,2.6126688,15.01875,44.5125,1.81875,-0.063548125,-0.70844674,0.692754,992.1977,37.88728602,127.73978808,140.935546875,1.57
2025-03-23 17:25:39.901,15.294922,-10.911271,-0.37567315,0.9460768,0.56275916,2.1875067,17.75625,43.3125,1.7062501,-0.081747346,-0.6998248,0.7008697,992.20624,37.88728602,127.73978808,140.935546875,1.57
2025-03-23 17:25:39.922,16.297516,-11.02852,-2.2755744,0.6058251,0.0820086,1.5864159,20.118752,42.16875,1.7812501,-0.0953295,-0.69150287,0.7087694,992.20624,37.88728602,127.73978808,140.935546875,1.57
2025-03-23 17:25:39.942,16.144375,-10.265209,-2.696711,-0.2866483,0.03252855,0.8478803,22.143751,40.7625,1.40625,-0.09976027,-0.6907963,0.70954764,992.20526,37.88728602,127.73978808,140.935546875,1.57
2025-03-23 17:25:39.962,16.429121,-10.911271,-0.32542387,-1.0538945,0.2848157,0.2046397,23.775002,39.300003,0.975,-0.10197012,-0.69615746,0.70398796,992.20526,37.88728602,127.73978808,140.935546875,1.57
2025-03-23 17:25:39.980,16.333406,-10.660025,2.993421,-1.2292126,0.28053966,-0.47097674,25.0125,38.568752,1.29375,-0.10105216,-0.70446604,0.6950995,992.19403,37.88728602,127.73978808,140.935546875,1.57
2025-03-23 17:25:40.001,16.048662,-10.573883,5.9676995,-0.6574432,-0.17760894,-1.3219113,25.35,38.2125,1.725,-0.09352536,-0.71277225,0.6863889,992.1965,37.88728602,127.73978808,140.935546875,1.57
2025-03-23 17:25:40.020,15.096318,-11.911471,5.831309,-0.17791437,-0.7866411,-2.0390666,25.331251,38.5875,2.4,-0.07559003,-0.7152324,0.6842327,992.1965,37.88728602,127.73978808,140.935546875,1.57
2025-03-23 17:25:40.042,11.935399,-13.722837,4.23051,0.37491825,-1.2863286,-2.905273,24.618752,39.487503,3.1125002,-0.04746137,-0.716151,0.68364847,992.1965,37.88728602,127.73978808,140.935546875,1.57
2025-03-23 17:25:40.062,9.95175,-14.658431,3.0269206,0.44577858,-1.0181589,-3.2052076,23.175001,40.3875,3.0,-0.00822815,-0.71481293,0.6830884,992.22235,37.88728602,127.73978808,140.935546875,1.57
2025-03-23 17:25:40.081,9.659825,-15.077175,2.902494,0.46166107,-0.78786284,-3.3640323,21.4125,41.4375,2.3625002,0.021944143,-0.71230936,0.6814531,992.22235,37.88728602,127.73978808,140.935546875,1.57
2025-03-23 17:25:40.101,9.882358,-14.737394,3.0412776,0.60887945,-0.98700476,-3.6554148,18.993752,43.0125,1.5187501,0.053679723,-0.7083415,0.6792019,992.2387,37.88728602,127.73978808,140.935546875,1.57
2025-03-23 17:25:40.121,9.298509,-13.797015,2.7876384,0.7677043,-1.3706279,-3.9510734,16.03125,44.4375,0.26250002,0.08956116,-0.7027235,0.67638093,992.2387,37.88728602,127.73978808,140.935546875,1.57
2025-03-23 17:25:40.141,8.920443,-13.069597,1.9381863,0.800691,-1.3651301,-4.2394013,12.95625,45.693752,-0.71250004,0.12853003,-0.6954974,0.67231977,992.2492,37.88728602,127.73978808,140.935546875,1.57
2025-03-23 17:25:40.161,8.544769,-12.820744,1.4835501,0.6687442,-1.0639738,-4.491078,11.043751,46.143753,-1.0125,0.15767276,-0.68911135,0.6678119,992.2492,37.88729741,127.73977915,140.6878662109375,1.46
2025-03-23 17:25:40.183,7.0636125,-12.873385,1.8640088,0.61071205,-0.5752819,-4.742143,5.4,47.550003,-1.9125,0.2130078,-0.673283,0.65541726,992.2419,37.88729741,127.73977915,140.6878662109375,1.46
2025-03-23 17:25:40.201,6.5946193,-12.684353,1.9645073,0.7182243,-0.62842715,-4.7488627,1.29375,48.093754,-2.7375002,0.23951523,-0.6635092,0.6484838,992.2419,37.88729741,127.73977915,140.6878662109375,1.46
2025-03-23 17:25:40.221,6.2955165,-12.102897,1.3591232,0.8581123,-0.9955569,-4.7696323,-3.3187501,48.375004,-3.3937502,0.2758975,-0.64903545,0.6384833,992.2358,37.88729741,127.73977915,140.6878662109375,1.46
2025-03-23 17:25:40.242,6.053841,-12.083755,0.0,0.75487614,-1.1067343,-4.819723,-8.1,48.018753,-3.825,0.32331085,-0.62993646,0.6231075,992.2358,37.88729741,127.73977915,140.6878662109375,1.46
2025-03-23 17:25:40.261,5.1254263,-12.337394,-0.4331009,0.44089165,-0.7988584,-4.7684107,-12.918751,47.362503,-4.14375,0.35868078,-0.61440605,0.6082016,992.23456,37.88729741,127.73977915,140.6878662109375,1.46
2025-03-23 17:25:40.282,3.7471602,-11.9019,0.21774685,0.1470657,-0.3755291,-4.517345,-17.71875,46.143753,-4.14375,0.3890132,-0.598805,0.5921785,992.23456,37.88729741,127.73977915,140.6878662109375,1.46
2025-03-23 17:25:40.302,2.9192436,-11.054841,0.70348984,0.08048143,-0.043218683,-4.1807585,-22.10625,44.925003,-4.3125,0.41419524,-0.5829043,0.5766759,992.22845,37.88729741,127.73977915,140.6878662109375,1.46
2025-03-23 17:25:40.322,2.7038896,-10.523634,0.55513483,0.07437278,0.15775582,-3.8240135,-26.1375,43.48125,-4.18125,0.43508065,-0.5666099,0.5626699,992.22845,37.88729741,127.73977915,140.6878662109375,1.46
2025-03-23 17:25:40.342,2.7828526,-10.540383,0.3924229,0.10308343,0.19379686,-3.4929247,-29.98125,41.68125,-4.2562504,0.45288894,-0.5505787,0.5499013,992.22723,37.88729741,127.73977915,140.6878662109375,1.46
2025-03-23 17:25:40.362,2.7230322,-10.662417,0.15553348,0.1226311,-0.0029016077,-3.134958,-33.525,39.6375,-4.14375,0.47267464,-0.53208345,0.53491795,992.22723,37.88729741,127.73977915,140.6878662109375,1.46
2025-03-23 17:25:40.380,2.1894326,-10.1599245,0.02871387,0.12873976,-0.1470657,-2.8906121,-35.081253,38.41875,-4.03125,0.48386538,-0.52243435,0.52597064,992.22455,37.88729741,127.73977915,140.6878662109375,1.46
2025-03-23 17:25:40.402,0.88295156,-9.760324,-0.7393822,0.07192933,-0.11713332,-2.3115122,-39.54375,35.081253,-3.6375,0.50010514,-0.50881,0.5123208,992.22455,37.88729741,127.73977915,140.6878662109375,1.46
2025-03-23 17:25:40.422,-0.09092726,-9.446864,-1.3016955,-0.1357647,0.08933897,-1.6933172,-42.112503,32.71875,-3.6375,0.50843096,-0.5006955,0.5040431,992.215,37.88729741,127.73977915,140.6878662109375,1.46
2025-03-23 17:25:40.442,-0.8925229,-8.350951,-1.0336994,-0.3911062,0.4308124,-0.754418,-43.74375,30.900002,-3.61875,0.5110349,-0.49516273,0.49813628,992.2065,37.88729741,127.73977915,140.6878662109375,1.46
2025-03-23 17:25:40.461,-0.019142581,-8.623733,-0.70348984,-0.44913834,0.65988666,-0.126449,-44.737503,29.175001,-4.05,0.5083178,-0.494078,0.49777377,992.2065,37.88729741,127.73977915,140.6878662109375,1.46
2025-03-23 17:25:40.481,-0.2105684,-8.300702,-1.0552348,-0.5035053,0.7832814,0.5357284,-44.925003,28.2,-4.65,0.5008022,-0.49472854,0.5008594,992.2065,37.88729741,127.73977915,140.6878662109375,1.46
2025-03-23 17:25:40.502,-0.32303107,-8.379665,-1.4787644,-0.698982,0.78022707,1.3133593,-44.850002,27.993752,-4.8187504,0.4890161,-0.49911666,0.50702363,992.20795,37.88729741,127.73977915,140.6878662109375,1.46
2025-03-23 17:25:40.522,0.3900301,-8.626125,-0.93320084,-1.0312924,0.66355187,2.1875067,-44.756252,28.425001,-4.89375,0.46726292,-0.511753,0.5177219,992.20795,37.88729741,127.73977915,140.6878662109375,1.46
2025-03-23 17:25:40.542,2.1966112,-9.327223,0.4642076,-1.1094831,0.49250972,2.79715,-44.325,29.400002,-4.7250004,0.44509354,-0.52700484,0.5279827,992.2072,37.88729741,127.73977915,140.6878662109375,1.46
2025-03-23 17:25:40.561,3.5533416,-10.176675,1.2418749,-0.92255855,0.3489565,3.2314746,-43.21875,30.900002,-4.3500004,0.42096245,-0.54413944,0.5399953,992.2072,37.88729741,127.73977915,140.6878662109375,1.46
2025-03-23 17:25:40.581,4.24726,-10.801202,1.0600204,-0.61529356,0.23655738,3.6279259,-41.60625,32.737503,-4.2562504,0.39589953,-0.56125695,0.55419743,992.2094,37.88729741,127.73977915,140.6878662109375,1.46
2025-03-23 17:25:40.602,4.692325,-11.270195,0.29192436,-0.4583013,0.09789108,3.93458,-39.05625,34.8375,-4.2375,0.37030226,-0.578242,0.5697627,992.2094,37.88729741,127.73977915,140.6878662109375,1.46
2025-03-23 17:25:40.621,4.981857,-11.334801,-0.17706887,-0.42409286,-0.004123337,4.2351255,-36.300003,37.10625,-3.9375002,0.34366935,-0.5954115,0.5856783,992.2087,37.88729741,127.73977915,140.6878662109375,1.46
2025-03-23 17:25:40.641,5.6303115,-11.351551,-0.69152576,-0.5535962,0.006261364,4.5503316,-33.487503,39.581253,-3.4125001,0.30764607,-0.61730254,0.60492086,992.2087,37.88729741,127.73977915,140.6878662109375,1.46
2025-03-23 17:25:40.661,6.407979,-11.507084,-0.6125626,-0.74357516,0.15164718,4.724428,-29.98125,41.925003,-3.1125002,0.28372058,-0.63048095,0.61554235,992.207,37.88729741,127.73977915,140.6878662109375,1.46
2025-03-23 17:25:40.682,7.1545396,-11.71526,-0.011964113,-0.9457714,0.37583455,4.8178906,-26.025002,43.95,-2.8500001,0.23989743,-0.6515073,0.6310754,992.2045,37.88729741,127.73977915,140.6878662109375,1.46
2025-03-23 17:25:40.701,7.479964,-12.093326,0.75613195,-0.9812015,0.37949973,4.863705,-22.2,45.80625,-2.325,0.2029028,-0.66683847,0.6415186,992.2045,37.88729741,127.73977915,140.6878662109375,1.46
2025-03-23 17:25:40.722,8.405986,-12.497713,1.146162,-0.9304998,0.14065161,4.951059,-17.75625,47.04375,-1.8375001,0.1660287,-0.6807883,0.65057933,992.2045,37.88729741,127.73977915,140.6878662109375,1.46
2025-03-23 17:25:40.742,10.143175,-12.507284,1.7754744,-0.75884676,-0.09758565,4.9089093,-13.087501,47.9625,-1.35,0.13090377,-0.6931338,0.6583261,992.2055,37.88729741,127.73977915,140.6878662109375,1.46
2025-03-23 17:25:40.761,11.303694,-12.040684,2.103291,-0.52671814,-0.072540194,4.684111,-8.6625,48.581253,-0.91875005,0.09795369,-0.7025073,0.66543514,992.2055,37.88729741,127.73977915,140.6878662109375,1.46
2025-03-23 17:25:40.781,11.968899,-11.818151,2.1702902,-0.26832235,0.03252855,4.3915067,-3.4875002,48.937504,-0.35625002,0.06709206,-0.7083224,0.6723299,992.2077,37.88729741,127.73977915,140.6878662109375,1.46
2025-03-23 17:25:40.801,12.815958,-10.863415,1.8807586,-0.022143848,0.20173809,4.0139923,1.29375,48.73125,-0.112500004,0.03165479,-0.71112365,0.6807956,992.2077,37.88729741,127.73977915,140.6878662109375,1.46
2025-03-23 17:25:40.821,13.246666,-9.966106,1.4763715,0.05665771,0.5548179,3.6126542,5.86875,47.98125,0.15,0.0049040643,-0.7105761,0.68697417,992.20184,37.88729741,127.73977915,140.6878662109375,1.46
