Time,Accel_X,Accel_Y,Accel_Z,Gyro_X,Gyro_Y,Gyro_Z,Mag_X,Mag_Y,Mag_Z,Orient_X,Orient_Y,Orient_Z,Pressure,Latitude,Longitude,Altitude,Speed
2025-04-06 16:13:39.393,-0.3062813,4.017549,8.958728,0.012217295,0.012370012,0.027870705,-14.587501,-285.99377,965.92505,0.15277511,0.15497938,0.68906873,997.279,37.88840168,127.7398141,136.57342529296875,0.0
2025-04-06 16:13:39.413,-0.4546363,4.005585,8.953942,6.108648E-4,0.03008509,0.067576915,-14.6625,-285.91876,965.8875,0.15222105,0.15521717,0.68931717,997.2756,37.88840168,127.7398141,136.57342529296875,0.0
2025-04-06 16:13:39.433,-0.37328035,3.9625144,9.099904,0.0036651888,0.010537418,0.13660464,-15.187501,-285.88126,966.2813,0.1512656,0.15560023,0.6900857,997.2756,37.88840168,127.7398141,136.57342529296875,0.0
2025-04-06 16:13:39.453,0.148355,4.0127635,9.162118,0.054366965,-0.004734202,0.14576761,-15.281251,-285.80627,966.5813,0.15116724,0.15537994,0.69107187,997.2714,37.88840168,127.7398141,136.57342529296875,0.0
2025-04-06 16:13:39.473,0.28235307,4.125226,9.049655,0.07574723,-0.004734202,0.124998204,-15.0375,-286.03125,966.6938,0.15186782,0.15510382,0.69197804,997.2714,37.88840168,127.7398141,136.57342529296875,0.0
2025-04-06 16:13:39.494,0.485743,4.2975097,8.920443,0.077579826,-0.0035124724,0.09262237,-14.925,-286.125,966.54376,0.1529548,0.15494454,0.6927317,997.2692,37.88840168,127.7398141,136.57342529296875,0.0
2025-04-06 16:13:39.513,0.5072784,4.4147577,8.755338,0.064140804,0.029474225,0.050472703,-14.775001,-286.51877,966.4688,0.1542485,0.15494438,0.6932401,997.2692,37.88840168,127.7398141,136.57342529296875,0.0
2025-04-06 16:13:39.533,0.37806597,4.4339004,8.652447,0.01527162,0.048411034,0.021151192,-14.868751,-286.7625,966.41254,0.1551756,0.15529835,0.6934917,997.2697,37.88840168,127.7398141,136.57342529296875,0.0
2025-04-06 16:13:39.553,0.5383851,4.388437,8.788837,-0.021991132,-4.581486E-4,0.0058795735,-15.20625,-286.65002,966.525,0.1557716,0.15539251,0.6936792,997.2697,37.88840168,127.7398141,136.57342529296875,0.0
2025-04-06 16:13:39.573,0.6197411,4.3764725,9.040084,-0.055588696,-0.05299252,-0.02649626,-15.356251,-286.7625,966.93756,0.15662906,0.15439467,0.6937749,997.26337,37.88840168,127.7398141,136.57342529296875,0.0
2025-04-06 16:13:39.594,0.4139583,4.2975097,9.427721,-0.04092794,-0.056046844,-0.047265664,-15.468751,-286.61252,966.93756,0.15722637,0.15305643,0.6936251,997.26337,37.88840168,127.7398141,136.57342529296875,0.0
2025-04-06 16:13:39.613,0.2727818,4.2855453,9.3511505,0.049480047,0.048411034,-0.020387612,-15.31875,-286.3875,966.6375,0.15730654,0.15249711,0.69349426,997.2663,37.88840168,127.7398141,136.57342529296875,0.0
2025-04-06 16:13:39.633,0.35413775,4.436293,8.829515,0.10506874,0.03619374,-0.037491824,-15.356251,-286.1625,966.6938,0.15761194,0.15317325,0.6934007,997.2663,37.88840168,127.7398141,136.57342529296875,0.0
2025-04-06 16:13:39.653,0.29192436,4.4578285,8.489735,0.051923506,-0.06459895,-0.10224349,-15.4875,-286.05002,966.6563,0.15873355,0.15389882,0.6928896,997.2641,37.88840168,127.7398141,136.57342529296875,0.0
2025-04-06 16:13:39.673,0.016749758,4.328616,8.568698,-0.042760536,-0.06459895,-0.13400847,-15.450001,-285.825,966.9938,0.15975024,0.15394382,0.6919043,997.2641,37.88840168,127.7398141,136.57342529296875,0.0
2025-04-06 16:13:39.694,-0.28713873,4.180261,9.004191,-0.07574723,0.027641632,-0.10651954,-15.993751,-286.0125,967.1813,0.15913875,0.15380593,0.6908272,997.25653,37.88840168,127.7398141,136.57342529296875,0.0
2025-04-06 16:13:39.713,-0.32063824,4.0677986,9.128618,-0.026267186,0.0368046,-0.052763447,-15.7875,-286.08752,967.23755,0.15806995,0.15399717,0.6904563,997.25653,37.88840168,127.7398141,136.57342529296875,0.0
2025-04-06 16:13:39.733,0.009571291,4.1587257,9.040084,0.023212861,-0.03894263,-0.03138318,-15.58125,-285.90002,967.05005,0.1571897,0.15421331,0.6901388,997.2504,37.88840168,127.7398141,136.57342529296875,0.0
2025-04-06 16:13:39.753,0.06460621,4.2855453,9.073584,0.02687805,-0.07864884,-0.03932442,-15.618751,-286.08752,967.0125,0.15761523,0.1538785,0.68979245,997.2504,37.88840168,127.7398141,136.57342529296875,0.0
2025-04-06 16:13:39.773,-0.011964113,4.2831526,8.8701935,0.037873615,-0.012675445,-0.038713556,-15.39375,-285.91876,966.86255,0.15805736,0.15382272,0.68939495,997.2448,37.88840168,127.7398141,136.57342529296875,0.0
2025-04-06 16:13:39.794,-0.05503492,4.304688,8.623733,-0.015882485,0.027030766,-0.033826638,-15.6,-285.91876,966.45,0.15811133,0.15430051,0.68909043,997.2448,37.88840168,127.7398141,136.57342529296875,0.0
2025-04-06 16:13:39.813,-0.06699903,4.194618,8.867801,-0.06963859,0.008704823,-0.032604907,-15.4875,-285.90002,966.3938,0.1577495,0.15451066,0.6888778,997.2475,37.88840168,127.7398141,136.57342529296875,0.0
2025-04-06 16:13:39.833,0.05503492,4.0773697,9.128618,-0.06536253,0.0074830935,-0.029550584,-15.093751,-285.825,965.775,0.15698826,0.15413417,0.68879205,997.2475,37.88840168,127.7398141,136.57342529296875,0.0
2025-04-06 16:13:39.853,-0.033499517,4.091727,9.255438,-0.010384701,-0.030390523,-0.022220206,-14.887501,-285.6375,965.47504,0.1561991,0.15344469,0.688724,997.2404,37.88840168,127.7398141,136.57342529296875,0.0
2025-04-06 16:13:39.873,0.078963146,4.125226,9.212367,0.045814857,-0.057268575,-0.0112246405,-14.83125,-285.71252,965.66254,0.1562621,0.15303265,0.6885805,997.2404,37.88840168,127.7398141,136.57342529296875,0.0
2025-04-06 16:13:39.893,-0.06699903,4.1515474,9.032906,0.109344795,-0.08781181,-0.018555017,-15.056251,-285.75,965.73755,0.15700157,0.15287226,0.6883224,997.2421,37.88840168,127.7398141,136.57342529296875,0.0
2025-04-06 16:13:39.913,-0.2009971,4.1778684,8.662018,0.09651663,-0.08536835,-0.013057235,-15.281251,-285.67502,966.22504,0.1575349,0.1529747,0.6881067,997.2421,37.88840168,127.7398141,136.57342529296875,0.0
2025-04-06 16:13:39.933,0.05742774,4.2951164,8.851051,-0.05986475,0.015424335,0.031535894,-15.1125,-285.71252,966.54376,0.15806557,0.1533712,0.6878888,997.24335,37.88840168,127.7398141,136.57342529296875,0.0
2025-04-06 16:13:39.953,0.11246266,4.2999024,9.360723,-0.04214967,0.077121675,0.022983788,-15.0375,-285.88126,966.6188,0.15737054,0.1531961,0.68826,997.24335,37.88840168,127.7398141,136.57342529296875,0.0
2025-04-06 16:13:39.973,0.18664017,4.386044,9.226724,0.039095346,0.04535671,0.0297033,-14.906251,-286.06876,966.4313,0.15676986,0.1534012,0.6886981,997.23553,37.88840168,127.7398141,136.57342529296875,0.0
2025-04-06 16:13:39.993,0.2847459,4.505685,9.068798,0.07819069,-0.049938194,0.019929463,-14.718751,-286.05002,966.2813,0.15746914,0.1536764,0.6888157,997.23553,37.88840168,127.7398141,136.57342529296875,0.0
2025-04-06 16:13:40.014,0.3397808,4.45065,8.877372,0.086742796,-0.05177079,-2.290743E-4,-14.85,-285.91876,966.5063,0.1585868,0.15371548,0.6887273,997.2399,37.88840168,127.7398141,136.57342529296875,0.0
2025-04-06 16:13:40.034,0.30867413,4.4004006,8.721839,0.04886918,-0.02489274,-0.0051159924,-14.700001,-285.80627,966.54376,0.16019604,0.15398143,0.68847543,997.2399,37.88840168,127.7398141,136.57342529296875,0.0
2025-04-06 16:13:40.053,0.3900301,4.3501515,8.779266,0.017104214,0.011759147,-0.013668099,-14.775001,-285.825,966.7125,0.16099411,0.15403245,0.68836963,997.2448,37.88840168,127.7398141,136.57342529296875,0.0
2025-04-06 16:13:40.073,0.46181476,4.347759,8.693125,0.010995566,0.04535671,-0.03932442,-14.906251,-285.76877,966.6938,0.16131423,0.15415666,0.6882987,997.2448,37.88840168,127.7398141,136.57342529296875,0.0
2025-04-06 16:13:40.094,0.2440679,4.386044,8.657232,-0.04886918,0.01970039,-0.09308052,-14.812501,-285.76877,966.5813,0.16155167,0.15420683,0.6879796,997.24896,37.88840168,127.7398141,136.57342529296875,0.0
2025-04-06 16:13:40.113,-0.19142582,4.287938,8.855837,-0.07147118,0.03008509,-0.089415334,-15.1125,-285.73126,966.75006,0.16110152,0.15422928,0.68743485,997.24896,37.88840168,127.7398141,136.57342529296875,0.0
2025-04-06 16:13:40.133,-0.24885355,4.2257247,9.001799,-0.031154104,-0.025503604,-0.042989608,-14.962501,-285.5625,966.78754,0.15990019,0.15443893,0.68688893,997.24286,37.88840168,127.7398141,136.57342529296875,0.0
2025-04-06 16:13:40.154,-0.16271193,4.2424746,8.889337,-0.010384701,-0.047494736,-0.03138318,-14.887501,-285.54376,966.9563,0.15962595,0.15431263,0.6865425,997.24286,37.88840168,127.7398141,136.57342529296875,0.0
2025-04-06 16:13:40.173,-0.02871387,4.254439,8.827123,-0.060475614,0.027641632,-0.033826638,-14.94375,-285.6375,966.9938,0.15935889,0.15421185,0.6863143,997.24506,37.88840168,127.7398141,136.57342529296875,0.0
2025-04-06 16:13:40.194,-0.20817557,4.141976,9.099904,-0.08491021,0.0716239,-0.032604907,-14.812501,-285.7875,966.9938,0.15821522,0.15422305,0.68625605,997.24506,37.88840168,127.7398141,136.57342529296875,0.0
2025-04-06 16:13:40.213,-0.14356937,4.1108694,9.284152,-0.033597562,0.021532983,-0.019165883,-14.868751,-285.80627,967.0125,0.15685622,0.154158,0.68626827,997.2409,37.88840168,127.7398141,136.57342529296875,0.0
2025-04-06 16:13:40.234,-0.26799613,4.1371903,8.985049,0.027488915,0.057574004,-0.0014508038,-15.356251,-285.975,967.05005,0.15606983,0.15424266,0.6862445,997.2409,37.88840168,127.7398141,136.57342529296875,0.0
2025-04-06 16:13:40.253,-0.15792629,4.2831526,8.650054,-0.027488915,0.060017463,0.014431681,-15.13125,-286.06876,967.10626,0.15528591,0.15524042,0.6863249,997.248,37.88840168,127.7398141,136.57342529296875,0.0
2025-04-06 16:13:40.273,-0.18185452,4.2951164,8.886943,-0.07819069,0.031306818,0.00160352,-15.262501,-285.76877,966.97504,0.1548124,0.15548001,0.6864252,997.248,37.88840168,127.7398141,136.57342529296875,0.0
2025-04-06 16:13:40.293,-0.34217364,4.180261,9.147761,-0.056810424,7.6358096E-4,0.008933897,-15.450001,-285.7875,966.86255,0.15379083,0.15530033,0.6865531,997.2419,37.88840168,127.7398141,136.57342529296875,0.0
2025-04-06 16:13:40.313,-0.2321038,4.1922255,9.202796,-0.018325943,-0.019394957,0.035201084,-15.168751,-285.61877,967.0688,0.15316956,0.15511005,0.68670076,997.2419,37.88840168,127.7398141,136.57342529296875,0.0
2025-04-06 16:13:40.333,-0.0023928226,4.1898327,9.202796,0.007941242,0.03619374,0.056581352,-15.39375,-285.48752,967.0688,0.15289174,0.15498543,0.6870139,997.25214,37.88840168,127.7398141,136.57342529296875,0.0
2025-04-06 16:13:40.353,0.033499517,4.211368,9.071191,0.032375835,0.045967575,0.04925097,-15.31875,-285.71252,967.0313,0.15274061,0.15510319,0.6874576,997.25214,37.88840168,127.7398141,136.57342529296875,0.0
2025-04-06 16:13:40.373,-0.0071784677,4.2664027,8.831908,0.034819294,0.026419902,0.05535962,-15.20625,-285.61877,966.9938,0.15285806,0.15547006,0.6878078,997.2519,37.88840168,127.7398141,136.57342529296875,0.0
2025-04-06 16:13:40.393,0.1052842,4.3357944,8.652447,-0.0012217296,0.044134982,0.04253146,-15.281251,-285.90002,966.8063,0.1531493,0.15582609,0.68815625,997.2519,37.88840168,127.7398141,136.57342529296875,0.0
2025-04-06 16:13:40.414,0.0526421,4.338187,8.786445,-0.06169734,-0.018784093,0.030314164,-15.150001,-285.9375,966.6375,0.1533267,0.15592383,0.6885208,997.2485,37.88840168,127.7398141,136.57342529296875,0.0
2025-04-06 16:13:40.434,0.20338993,4.213761,9.243474,-0.05986475,-0.023060145,0.021762058,-14.887501,-285.65625,966.6563,0.15336595,0.1551208,0.6887689,997.2485,37.88840168,127.7398141,136.57342529296875,0.0
2025-04-06 16:13:40.454,0.16510476,4.249653,9.257831,0.0036651888,0.07956514,0.01809687,-14.962501,-285.7875,966.3188,0.15311886,0.15459388,0.6890913,997.2348,37.88840168,127.7398141,136.57342529296875,0.0
2025-04-06 16:13:40.473,-0.047856454,4.388437,8.896515,0.040317077,0.066126116,0.010155627,-14.793751,-285.80627,966.5813,0.15293574,0.15510531,0.68931097,997.2348,37.88840168,127.7398141,136.57342529296875,0.0
2025-04-06 16:13:40.495,-0.17706887,4.4051867,8.671589,-0.0036651888,-0.012064579,0.008933897,-15.056251,-285.69376,966.4313,0.15318114,0.15605214,0.6892436,997.2338,37.88840168,127.7398141,136.57342529296875,0.0
2025-04-06 16:13:40.515,-0.047856454,4.2951164,8.894122,-0.03970621,-0.035888307,0.0034361144,-14.906251,-285.65625,966.2438,0.15333703,0.15613216,0.6892124,997.2338,37.88840168,127.7398141,136.57342529296875,0.0
2025-04-06 16:13:40.534,0.05503492,4.141976,9.195618,-0.03970621,0.0019853106,-0.009392046,-14.85,-285.67502,966.6188,0.15325499,0.15552235,0.6892428,997.2343,37.88840168,127.7398141,136.57342529296875,0.0
2025-04-06 16:13:40.553,0.038285162,4.17069,9.274581,-0.0073303776,0.07101303,-0.01244637,-14.793751,-285.33752,966.35626,0.15275285,0.15524977,0.68931836,997.2343,37.88840168,127.7398141,136.57342529296875,0.0
2025-04-06 16:13:40.575,0.050249275,4.240082,9.114262,0.0061086477,0.11133011,-0.027107125,-14.85,-285.43127,966.35626,0.15206914,0.15564671,0.6894039,997.2331,37.88840168,127.7398141,136.57342529296875,0.0
2025-04-06 16:13:40.594,-0.09571291,4.2281175,9.004191,0.009162972,0.06734784,-0.041157015,-14.887501,-285.52502,966.8813,0.15147957,0.15630245,0.68932784,997.2331,37.88840168,127.7398141,136.57342529296875,0.0
2025-04-06 16:13:40.613,-0.2321038,4.1587257,9.040084,0.021380268,0.003817905,-0.022831071,-14.812501,-285.46875,966.8813,0.15114056,0.15674904,0.68912065,997.2338,37.88840168,127.7398141,136.57342529296875,0.0
2025-04-06 16:13:40.634,-0.078963146,4.1443686,9.032906,0.03970621,-0.013897174,-0.0032833982,-14.700001,-285.6,966.8063,0.151207,0.15688567,0.6889789,997.2338,37.88840168,127.7398141,136.57342529296875,0.0
2025-04-06 16:13:40.653,-0.0023928226,4.173083,8.992228,0.033597562,-0.0059559317,-8.3993905E-4,-14.981251,-285.99377,967.35004,0.15141362,0.15695186,0.6889374,997.2326,37.88840168,127.7398141,136.57342529296875,0.0
2025-04-06 16:13:40.674,-0.11485548,4.1754756,8.985049,0.032986697,0.026419902,-0.0032833982,-15.093751,-285.9375,967.31256,0.1516022,0.15708855,0.6888996,997.2326,37.88840168,127.7398141,136.57342529296875,0.0
2025-04-06 16:13:40.694,-0.2632105,4.2352962,8.700303,0.043982264,0.04963276,0.005268709,-15.093751,-286.05002,967.4438,0.15146354,0.15788093,0.6888714,997.2358,37.88840168,127.7398141,136.57342529296875,0.0
2025-04-06 16:13:40.714,-0.36370903,4.2424746,8.563912,-0.0030543238,7.6358096E-4,0.025427246,-15.4875,-286.2,967.6313,0.15134378,0.15867326,0.6888637,997.2358,37.88840168,127.7398141,136.57342529296875,0.0
2025-04-06 16:13:40.733,-0.16031912,4.2041893,8.85823,-0.054366965,-0.046883874,0.04253146,-15.075001,-285.84375,967.23755,0.15125443,0.15869127,0.68900776,997.23236,37.88840168,127.7398141,136.57342529296875,0.0
2025-04-06 16:13:40.753,0.11246266,4.1491547,9.224331,-0.049480047,-0.014508039,0.022372922,-15.0375,-285.80627,967.0125,0.15116476,0.15788653,0.6893071,997.23236,37.88840168,127.7398141,136.57342529296875,0.0
2025-04-06 16:13:40.773,-0.050249275,4.089334,9.06162,-0.0,0.07345649,-0.01244637,-14.925,-285.6375,966.91876,0.15088536,0.15733853,0.68952364,997.23456,37.88840168,127.7398141,136.57342529296875,0.0
2025-04-06 16:13:40.794,-0.33738798,4.1036906,8.71466,0.011606431,0.06368265,0.0077121677,-14.64375,-285.45,967.1438,0.15022786,0.1578013,0.68959516,997.23456,37.88840168,127.7398141,136.57342529296875,0.0
2025-04-06 16:13:40.813,-0.27996024,4.1587257,8.616554,-0.02565632,-0.0059559317,0.035201084,-14.83125,-285.48752,967.3313,0.14976998,0.15832837,0.68969154,997.2409,37.88840168,127.7398141,136.57342529296875,0.0
2025-04-06 16:13:40.834,-0.25124636,4.1850467,8.748159,-0.07208204,-0.02611447,0.044364054,-14.718751,-285.71252,967.48126,0.14953543,0.15810262,0.6899976,997.2409,37.88840168,127.7398141,136.57342529296875,0.0
2025-04-06 16:13:40.854,-0.10289137,4.1491547,9.049655,-0.07696896,-0.019394957,0.048029244,-14.625001,-285.7875,967.68756,0.1491507,0.15747002,0.69037926,997.238,37.88840168,127.7398141,136.57342529296875,0.0
2025-04-06 16:13:40.873,0.03589234,4.106084,9.0951185,-0.049480047,0.025809037,0.027870705,-14.587501,-285.65625,967.4625,0.14876862,0.15681042,0.6907967,997.238,37.88840168,127.7398141,136.57342529296875,0.0
2025-04-06 16:13:40.893,-0.043070808,4.1108694,9.159725,-0.06108648,0.025198173,0.011377357,-14.587501,-285.61877,967.2188,0.14828435,0.15637912,0.69110703,997.23944,37.88840168,127.7398141,136.57342529296875,0.0
2025-04-06 16:13:40.913,-0.0047856453,4.141976,9.38465,-0.042760536,0.016035201,0.018707734,-14.55,-285.54376,967.2,0.14770709,0.15586822,0.69136804,997.23944,37.88840168,127.7398141,136.57342529296875,0.0
2025-04-06 16:13:40.933,0.05742774,4.254439,9.327223,0.0140498895,0.037415467,0.019929463,-14.55,-285.54376,966.8438,0.14743508,0.15555456,0.6916503,997.2365,37.88840168,127.7398141,136.57342529296875,0.0
2025-04-06 16:13:40.953,0.014356935,4.2855453,9.037691,0.027488915,-0.0016798781,0.012599086,-14.531251,-285.61877,966.825,0.14759955,0.15573992,0.6917875,997.2365,37.88840168,127.7398141,136.57342529296875,0.0
2025-04-06 16:13:40.974,0.09092726,4.2520456,9.01137,0.007941242,-0.022449281,-2.290743E-4,-14.45625,-285.52502,967.0125,0.14811654,0.15575662,0.6918063,997.2382,37.88840168,127.7398141,136.57342529296875,0.0
2025-04-06 16:13:40.994,0.09092726,4.23051,8.970692,-0.009162972,0.050243627,-0.016722424,-14.587501,-285.5625,967.0688,0.14843966,0.1556472,0.69182044,997.2382,37.88840168,127.7398141,136.57342529296875,0.0
2025-04-06 16:13:41.014,-0.08135597,4.199404,8.968299,-0.0067195124,0.044134982,-0.03138318,-14.587501,-285.52502,967.1438,0.14815068,0.15593973,0.6917648,997.2419,37.88840168,127.7398141,136.57342529296875,0.0
2025-04-06 16:13:41.034,-0.30388847,4.1228333,8.772088,0.0036651888,0.026419902,-0.019776747,-14.718751,-285.4125,967.23755,0.14786887,0.15632392,0.6915965,997.2419,37.88840168,127.7398141,136.57342529296875,0.0
2025-04-06 16:13:41.055,-0.2847459,4.1587257,8.750552,-0.009162972,-0.02367101,0.016264275,-14.718751,-285.33752,967.16254,0.14761658,0.15670846,0.69149446,997.2414,37.88840168,127.7398141,136.57342529296875,0.0
2025-04-06 16:13:41.074,-0.16031912,4.194618,8.839087,-0.0030543238,-0.05421425,0.022983788,-14.55,-285.24377,967.0875,0.1477307,0.15671283,0.6915272,997.2414,37.88840168,127.7398141,136.57342529296875,0.0
2025-04-06 16:13:41.093,-0.08135597,4.182654,8.9826565,0.0012217296,-0.1122464,0.0040469794,-14.400001,-285.16876,967.0688,0.1483069,0.15632302,0.69149715,997.23724,37.88840168,127.7398141,136.57342529296875,0.0
2025-04-06 16:13:41.113,0.02871387,4.139583,9.071191,-0.007941242,-0.11835505,-0.013668099,-14.64375,-285.43127,966.73126,0.14914614,0.15546782,0.6913301,997.23724,37.88840168,127.7398141,136.57342529296875,0.0
2025-04-06 16:13:41.133,-0.069391854,4.0510488,9.1669035,-0.037262753,-0.012675445,-0.014278964,-14.493751,-285.46875,966.91876,0.14962496,0.154399,0.6911328,997.2409,37.88840168,127.7398141,136.57342529296875,0.0
2025-04-06 16:13:41.153,-0.2105684,4.024728,9.241081,-0.02932151,0.048411034,0.022372922,-14.400001,-285.5625,966.73126,0.14912303,0.15419519,0.69120145,997.2409,37.88840168,127.7398141,136.57342529296875,0.0
2025-04-06 16:13:41.173,0.16510476,4.199404,9.253045,0.020769402,-0.019394957,0.048029244,-14.625001,-285.5625,966.91876,0.14849815,0.15412116,0.69163877,997.2443,37.88840168,127.7398141,136.57342529296875,0.0
2025-04-06 16:13:41.193,0.3924229,4.2185464,8.958728,0.058032155,-0.06398808,-0.0045051277,-14.718751,-285.24377,966.9938,0.14945509,0.15369493,0.69178945,997.2443,37.88840168,127.7398141,136.57342529296875,0.0
2025-04-06 16:13:41.214,0.031106694,4.213761,8.657232,0.020158539,-0.04444041,-0.036880963,-14.64375,-285.35626,966.7125,0.15073827,0.15332101,0.69150436,997.2531,37.88840168,127.7398141,136.57342529296875,0.0
2025-04-06 16:13:41.233,0.014356935,4.2161536,8.592627,-0.05497783,0.016035201,-0.027717989,-14.887501,-285.39377,966.8813,0.15112995,0.15337852,0.6911974,997.2531,37.88840168,127.7398141,136.57342529296875,0.0
2025-04-06 16:13:41.253,-0.033499517,4.1491547,8.953942,-0.13255766,0.06368265,-0.042989608,-14.962501,-285.375,966.8438,0.15058292,0.15322529,0.6911249,997.2536,37.88840168,127.7398141,136.57342529296875,0.0
2025-04-06 16:13:41.273,-0.26799613,4.0366917,9.430114,-0.11606431,0.056352276,-0.022831071,-14.887501,-285.75,966.91876,0.1490849,0.15283097,0.6911489,997.2536,37.88840168,127.7398141,136.57342529296875,0.0
2025-04-06 16:13:41.293,-0.21774685,4.074977,9.683753,-0.0097738365,-0.031001387,0.008933897,-15.056251,-285.86252,967.1438,0.1476944,0.15240309,0.6912717,997.2492,37.88840168,127.7398141,136.57342529296875,0.0
2025-04-06 16:13:41.314,0.08135597,4.223332,9.236296,0.10567961,-0.039553493,-0.010002911,-15.056251,-285.80627,966.93756,0.1480248,0.1520927,0.6912249,997.2492,37.88840168,127.7398141,136.57342529296875,0.0
2025-04-06 16:13:41.333,-0.021535404,4.2975097,8.616554,0.060475614,-0.004123337,-0.036880963,-15.0375,-286.125,966.6188,0.14904675,0.15268263,0.69087785,997.25214,37.88840168,127.7398141,136.57342529296875,0.0
2025-04-06 16:13:41.353,-0.083748795,4.208975,8.705089,-0.037262753,0.03924806,-0.03199404,-14.718751,-285.75,966.5813,0.14933404,0.15327634,0.6905402,997.25214,37.88840168,127.7398141,136.57342529296875,0.0
2025-04-06 16:13:41.373,-0.07178468,4.1276193,9.064013,-0.046425723,0.027030766,-0.020998476,-14.625001,-285.67502,966.3188,0.14878252,0.15342358,0.690455,997.2531,37.88840168,127.7398141,136.57342529296875,0.0
2025-04-06 16:13:41.394,-0.1052842,4.130012,9.08794,0.0036651888,-0.0010690134,-0.010002911,-14.55,-285.5625,966.2625,0.14834934,0.15336671,0.69040704,997.2531,37.88840168,127.7398141,136.57342529296875,0.0
2025-04-06 16:13:41.413,-0.038285162,4.208975,8.953942,0.020769402,0.006872229,-0.0063377223,-14.400001,-285.30002,966.2625,0.14842057,0.15345517,0.6903473,997.2475,37.88840168,127.7398141,136.57342529296875,0.0
2025-04-06 16:13:41.434,0.050249275,4.2424746,8.829515,-0.0018325944,-0.007177661,-0.02527453,-14.606251,-285.39377,966.41254,0.14865257,0.15368295,0.69024646,997.2475,37.88840168,127.7398141,136.57342529296875,0.0
2025-04-06 16:13:41.453,0.033499517,4.1778684,9.032906,-0.03970621,-0.03405571,-0.0570395,-14.587501,-285.375,966.56256,0.14901873,0.15338877,0.6899115,997.2431,37.88840168,127.7398141,136.57342529296875,0.0
2025-04-06 16:13:41.474,-0.14596218,4.1587257,9.238688,-0.03054324,0.025809037,-0.04848739,-14.681251,-285.39377,966.8063,0.14880797,0.15303814,0.6895759,997.2431,37.88840168,127.7398141,136.57342529296875,0.0
2025-04-06 16:13:41.493,-0.2416751,4.199404,9.202796,0.031154104,0.03008509,-0.020998476,-14.700001,-285.4125,966.9,0.14821817,0.1533168,0.6893683,997.23724,37.88840168,127.7398141,136.57342529296875,0.0
2025-04-06 16:13:41.515,0.031106694,4.223332,8.939586,0.053145237,-0.012064579,-0.024663666,-14.64375,-285.65625,966.6188,0.1482338,0.15386361,0.6891785,997.23724,37.88840168,127.7398141,136.57342529296875,0.0
2025-04-06 16:13:41.534,-0.04546363,4.199404,8.867801,0.0048869182,-0.020005822,-0.057650365,-14.718751,-285.69376,966.7688,0.14883785,0.15407948,0.68884236,997.24066,37.88840168,127.7398141,136.57342529296875,0.0
2025-04-06 16:13:41.554,-0.22492532,4.106084,9.18126,-0.041538805,0.024587307,-0.046654798,-14.775001,-285.69376,966.8813,0.14864734,0.15409353,0.6883807,997.24066,37.88840168,127.7398141,136.57342529296875,0.0
2025-04-06 16:13:41.573,-0.32303107,4.058227,9.382257,-6.108648E-4,0.0594066,-0.018555017,-14.606251,-285.54376,966.86255,0.14773671,0.15426262,0.68824315,997.24506,37.88840168,127.7398141,136.57342529296875,0.0
2025-04-06 16:13:41.594,-0.22013968,4.065406,9.190832,0.06169734,0.04046979,-0.0026725335,-14.587501,-285.31876,966.8063,0.14715225,0.15476014,0.6882314,997.24506,37.88840168,127.7398141,136.57342529296875,0.0
2025-04-06 16:13:41.613,-0.16510476,4.125226,8.88455,0.08307761,-0.0108428495,0.0028252497,-14.08125,-285.20627,966.60004,0.14730911,0.15539041,0.6881468,997.2426,37.88840168,127.7398141,136.57342529296875,0.0
2025-04-06 16:13:41.633,-0.11724831,4.208975,8.705089,0.043982264,-0.04444041,-0.010613776,-13.8,-284.92502,966.3188,0.14806847,0.15576275,0.68794894,997.2426,37.88840168,127.7398141,136.57342529296875,0.0
2025-04-06 16:13:41.653,-0.17467605,4.2161536,8.640483,-0.0097738365,0.009926553,-0.01244637,-14.08125,-285.0,966.2625,0.14857568,0.15598604,0.6877444,997.2482,37.88840168,127.7398141,136.57342529296875,0.0
2025-04-06 16:13:41.673,-0.24646074,4.130012,8.882157,-0.05131264,0.0074830935,0.0028252497,-14.025001,-285.075,966.41254,0.14837149,0.15621988,0.6876802,997.2482,37.88840168,127.7398141,136.57342529296875,0.0
2025-04-06 16:13:41.693,-0.12203395,4.06062,9.224331,-0.04092794,-0.0029016077,0.025427246,-14.512501,-285.09375,966.4688,0.14776397,0.15586106,0.6878641,997.2453,37.88840168,127.7398141,136.57342529296875,0.0
2025-04-06 16:13:41.713,-0.05742774,4.031906,9.229117,0.005497783,0.033139415,0.024205517,-14.19375,-285.39377,966.15,0.14749569,0.15554266,0.6880804,997.2453,37.88840168,127.7398141,136.57342529296875,0.0
2025-04-06 16:13:41.734,-0.19621146,4.1850467,9.047262,0.021380268,0.06062833,0.015653409,-14.1,-285.39377,966.35626,0.14711976,0.1558185,0.688364,997.247,37.88840168,127.7398141,136.57342529296875,0.0
2025-04-06 16:13:41.753,-0.2847459,4.1778684,8.997013,-0.0012217296,0.033139415,0.012599086,-13.81875,-285.28125,965.9625,0.14682919,0.1563444,0.68846774,997.247,37.88840168,127.7398141,136.57342529296875,0.0
2025-04-06 16:13:41.773,-0.25842485,4.1443686,9.013762,-0.0,0.011148282,0.028481571,-13.406251,-285.24377,966.2625,0.1465295,0.1566385,0.68859214,997.25116,37.88840168,127.7398141,136.57342529296875,0.0
2025-04-06 16:13:41.793,-0.031106694,4.1587257,9.131011,-6.108648E-4,-0.027947064,0.028481571,-13.556251,-285.2625,966.6563,0.14656869,0.15657859,0.68879026,997.25116,37.88840168,127.7398141,136.57342529296875,0.0
2025-04-06 16:13:41.813,-0.0526421,4.141976,9.111869,0.019547673,0.030695954,0.0193186,-13.275001,-285.09375,966.18756,0.14679733,0.15631677,0.68897307,997.2492,37.88840168,127.7398141,136.57342529296875,0.0
2025-04-06 16:13:41.833,-0.19860429,4.139583,8.968299,0.03054324,0.060017463,0.021762058,-13.575001,-285.13126,966.48755,0.14670707,0.15663266,0.6891517,997.2492,37.88840168,127.7398141,136.57342529296875,0.0
2025-04-06 16:13:41.853,-0.21774685,4.168297,8.88455,0.029932374,0.011759147,0.028481571,-13.5375,-285.30002,966.0563,0.14658022,0.15721932,0.6893095,997.2487,37.88840168,127.7398141,136.57342529296875,0.0
2025-04-06 16:13:41.873,-0.13878371,4.091727,8.872586,0.026267186,-0.021227552,0.026648976,-13.8,-285.31876,965.8313,0.14681406,0.15745306,0.6894167,997.2487,37.88840168,127.7398141,136.57342529296875,0.0
2025-04-06 16:13:41.893,0.04546363,4.0965123,8.839087,-0.011606431,-0.002290743,0.016264275,-14.343751,-285.45,966.48755,0.14718075,0.15730733,0.6895996,997.2365,37.88840168,127.7398141,136.57342529296875,0.0
2025-04-06 16:13:41.913,-0.09092726,4.132405,9.020942,-0.05497783,0.028863361,-0.0026725335,-14.250001,-285.4125,966.37506,0.14705226,0.15700556,0.68975264,997.2365,37.88840168,127.7398141,136.57342529296875,0.0
2025-04-06 16:13:41.933,-0.2416751,4.0869412,9.2075815,-0.03604102,0.041691523,0.007101303,-14.531251,-285.48752,966.2438,0.14640503,0.15675049,0.68989366,997.2458,37.88840168,127.7398141,136.57342529296875,0.0
2025-04-06 16:13:41.953,-0.25842485,4.031906,9.219545,0.016493348,0.044134982,0.043753188,-14.493751,-285.6375,966.3188,0.14568353,0.15682358,0.69011045,997.2458,37.88840168,127.7398141,136.57342529296875,0.0
2025-04-06 16:13:41.973,0.076570325,4.113262,8.874979,0.07024945,0.017867794,0.054748755,-13.81875,-285.71252,965.81256,0.14549173,0.15716134,0.6904879,997.2431,37.88840168,127.7398141,136.57342529296875,0.0
2025-04-06 16:13:41.993,0.2632105,4.2999024,8.504091,0.017715078,-0.03894263,-0.003894263,-13.63125,-285.6375,966.2438,0.14639817,0.15731539,0.6907107,997.2431,37.88840168,127.7398141,136.57342529296875,0.0
2025-04-06 16:13:42.014,-0.09332009,4.2185464,8.879765,-0.102014415,-0.018173227,-0.04421134,-13.81875,-285.6,966.48755,0.14727063,0.15671864,0.6904832,997.2424,37.88840168,127.7398141,136.57342529296875,0.0
2025-04-06 16:13:42.033,-0.27517462,4.1204405,9.420543,-0.10873393,0.08994984,9.926553E-4,-13.51875,-285.31876,966.56256,0.14608383,0.15629844,0.69053954,997.2424,37.88840168,127.7398141,136.57342529296875,0.0
2025-04-06 16:13:42.053,-0.34217364,4.0677986,9.614362,-0.021991132,0.093615025,0.040698867,-13.63125,-285.2625,966.91876,0.14450978,0.15629607,0.69094914,997.2419,37.88840168,127.7398141,136.57342529296875,0.0
2025-04-06 16:13:42.073,-0.29910284,4.0677986,9.58804,0.07574723,-0.012675445,0.07551816,-13.81875,-285.4125,966.6375,0.14382938,0.15658115,0.69141597,997.2419,37.88840168,127.7398141,136.57342529296875,0.0
2025-04-06 16:13:42.093,0.0,4.1443686,9.427721,0.13133593,-0.095142186,0.06879865,-13.70625,-285.13126,966.7125,0.14472657,0.15648475,0.69174147,997.25116,37.88840168,127.7398141,136.57342529296875,0.0
2025-04-06 16:13:42.113,-0.031106694,4.1754756,9.001799,0.116675176,0.025198173,0.026648976,-13.6125,-285.11252,966.7688,0.14620124,0.156569,0.6918587,997.25116,37.88840168,127.7398141,136.57342529296875,0.0
2025-04-06 16:13:42.133,-0.2321038,4.223332,8.736196,0.07208204,0.1357647,0.019929463,-13.950001,-285.2625,966.8813,0.1466051,0.15766926,0.6919655,997.24115,37.88840168,127.7398141,136.57342529296875,0.0
2025-04-06 16:13:42.153,-0.30867413,4.261617,8.650054,0.023212861,0.09728022,0.022983788,-14.1,-285.54376,967.0875,0.14625499,0.1591905,0.69212127,997.24115,37.88840168,127.7398141,136.57342529296875,0.0
2025-04-06 16:13:42.173,-0.31106696,4.125226,8.762517,-0.012217295,0.09728022,0.084070265,-14.043751,-285.91876,966.73126,0.14557439,0.16035403,0.69253916,997.2343,37.88840168,127.7398141,136.57342529296875,0.0
2025-04-06 16:13:42.193,-0.08135597,4.1515474,8.886943,-0.016493348,0.081397735,0.09445497,-14.343751,-286.35,966.5813,0.1449232,0.16086705,0.69330037,997.2343,37.88840168,127.7398141,136.57342529296875,0.0
2025-04-06 16:13:42.213,-0.4354937,4.2185464,8.721839,-0.06169734,0.050243627,0.15248711,-14.325001,-286.23752,966.41254,0.14470242,0.16085339,0.69404966,997.22943,37.88840168,127.7398141,136.57342529296875,0.0
2025-04-06 16:13:42.233,-0.08853444,4.065406,8.34138,-0.20647229,0.15714496,0.26855144,-14.08125,-286.35,966.41254,0.14367925,0.1607063,0.69564986,997.22943,37.88840168,127.7398141,136.57342529296875,0.0
2025-04-06 16:13:42.254,0.06699903,4.1347976,8.453842,-0.24740024,0.1547015,0.22701262,-14.250001,-286.33127,967.0313,0.14181761,0.16012596,0.6979076,997.22284,37.88840168,127.7398141,136.57342529296875,0.0
2025-04-06 16:13:42.273,0.4426722,4.3525443,8.836694,-0.26633704,-0.10797035,0.12194388,-14.025001,-286.27502,967.31256,0.14052294,0.15865792,0.6997552,997.22284,37.88840168,127.7398141,136.57342529296875,0.0
2025-04-06 16:13:42.293,0.24646074,4.3405805,8.685946,-0.3488038,-0.63209236,0.022983788,-14.062501,-286.3125,967.5938,0.14205465,0.15336595,0.70049435,997.23114,37.88840168,127.7398141,136.57342529296875,0.0
2025-04-06 16:13:42.313,0.29910284,4.0845485,8.839087,-0.36896232,-1.1226168,-0.037491824,-14.1,-285.90002,967.42505,0.14499776,0.14761107,0.69999737,997.23114,37.88840168,127.7398141,136.57342529296875,0.0
2025-04-06 16:13:42.335,0.37328035,3.749553,8.748159,-0.45142907,-1.1122321,0.007101303,-14.793751,-285.73126,966.86255,0.15312167,0.13192914,0.6980953,997.23676,37.88840168,127.7398141,136.57342529296875,0.0
2025-04-06 16:13:42.353,0.44027936,3.4887354,9.018549,-0.49663305,-0.66141385,0.074907295,-15.262501,-285.4125,966.3188,0.15521601,0.12513717,0.69776636,997.23676,37.88840168,127.7398141,136.57342529296875,0.0
2025-04-06 16:13:42.373,0.6963114,3.7806597,9.150154,-0.49418962,-0.64492047,0.15004367,-15.69375,-285.13126,965.23126,0.1560972,0.117171675,0.6981109,997.26483,37.88840168,127.7398141,136.57342529296875,0.0
2025-04-06 16:13:42.393,0.6628119,3.6729827,8.834301,-0.37201664,-0.6241511,0.3174206,-16.181252,-284.71875,964.4438,0.15831251,0.109250724,0.69896144,997.26483,37.88840168,127.7398141,136.57342529296875,0.0
2025-04-06 16:13:42.414,0.6125626,3.3164523,7.9657063,-0.0048869182,-0.8752165,0.45730865,-16.78125,-284.38126,963.6563,0.16287166,0.10106404,0.70113134,997.28094,37.88840168,127.7398141,136.57342529296875,0.0
2025-04-06 16:13:42.434,0.32063824,3.818945,7.420143,0.22357652,-1.2069161,0.622853,-16.7625,-284.1,963.4313,0.16851078,0.09659433,0.70228845,997.28094,37.88840168,127.7398141,136.57342529296875,0.0
2025-04-06 16:13:42.454,0.5240282,3.2925239,5.343173,0.26328272,-1.8568763,1.0480149,-17.8875,-284.25,963.15,0.18452857,0.08734456,0.7048246,997.24896,37.88840168,127.7398141,136.57342529296875,0.0
2025-04-06 16:13:42.473,2.4311078,2.172683,3.333202,-0.19730933,-1.1293362,0.984485,-19.5375,-284.83127,962.73755,0.1976531,0.075981386,0.7086165,997.24896,37.88840168,127.7398141,136.57342529296875,0.0
2025-04-06 16:13:42.493,3.089134,2.7732813,5.85763,-0.8796453,-0.9582941,0.5293907,-21.018751,-285.11252,962.6438,0.20200445,0.06410758,0.7119184,997.21747,37.88840168,127.7398141,136.57342529296875,0.0
2025-04-06 16:13:42.513,2.4646072,1.4596218,7.140183,-0.7660244,-0.6241511,0.66561353,-22.59375,-285.375,961.87506,0.20280181,0.05136491,0.71447057,997.21747,37.88840168,127.7398141,136.57342529296875,0.0
2025-04-06 16:13:42.534,2.3569303,2.3425734,7.338787,-0.07269291,-1.6113086,0.5654317,-23.625,-285.30002,961.4063,0.20585243,0.0404666,0.7171639,997.2138,37.88840168,127.7398141,136.57342529296875,0.0
2025-04-06 16:13:42.554,3.842873,1.9740787,4.398008,0.1075122,-2.6271768,0.43715012,-24.7875,-284.96252,960.86255,0.22466928,0.02270225,0.71599126,997.2138,37.88840168,127.7398141,136.57342529296875,0.0
2025-04-06 16:13:42.573,2.3018954,1.3854443,3.4456646,0.1924224,-3.7175703,0.43592837,-26.156252,-284.56876,959.6813,0.24176836,0.0074042287,0.7126054,997.17377,37.88840168,127.7398141,136.57342529296875,0.0
2025-04-06 16:13:42.594,1.6414764,0.552742,2.4741786,0.18997894,-4.2813983,0.8403209,-28.143751,-284.34375,959.06256,0.2778236,-0.024374016,0.7045964,997.17377,37.88840168,127.7398141,136.57342529296875,0.0
2025-04-06 16:13:42.613,2.9240294,0.22253251,1.5170496,-0.023212861,-3.8849473,1.2618176,-30.862501,-284.34375,958.3688,0.30619338,-0.05275015,0.69953513,997.142,37.88840168,127.7398141,136.57342529296875,0.0
2025-04-06 16:13:42.634,3.5844483,-0.22731815,-0.31345975,-0.45265082,-3.7218463,1.3925426,-35.86875,-284.5125,957.73126,0.33013082,-0.08169363,0.69493663,997.142,37.88840168,127.7398141,136.57342529296875,0.0
2025-04-06 16:13:42.654,4.386044,-1.134198,0.30149564,-1.0830632,-3.953975,1.6271147,-37.800003,-284.55002,957.5063,0.35073906,-0.114444695,0.6915782,997.0927,37.88840168,127.7398141,136.57342529296875,0.0
2025-04-06 16:13:42.673,5.9748783,-2.2612174,2.5268207,-1.4532473,-3.9270968,1.8586324,-41.9625,-284.475,957.41254,0.36799616,-0.15302505,0.686296,997.0927,37.88840168,127.7398141,136.57342529296875,0.0
2025-04-06 16:13:42.693,6.3290157,-2.9838498,2.333002,-1.6658282,-3.0608907,2.185445,-45.99375,-283.575,957.2625,0.38053036,-0.19272736,0.68181026,997.0849,37.88840168,127.7398141,136.57342529296875,0.0
2025-04-06 16:13:42.714,5.6949177,-4.0534415,2.199004,-2.1044292,-2.2661557,2.6307654,-50.081253,-282.45,956.7,0.3823712,-0.23883146,0.68182427,997.0849,37.88840168,127.7398141,136.57342529296875,0.0
2025-04-06 16:13:42.733,6.9344,-5.276174,2.672783,-2.2779148,-2.6369505,2.9368088,-53.925003,-280.875,957.0188,0.37852147,-0.27747422,0.6832749,997.0971,37.88840168,127.7398141,136.57342529296875,0.0
2025-04-06 16:13:42.755,9.188439,-6.558727,4.615755,-2.2968516,-3.560578,3.1054075,-57.787502,-278.56876,956.8875,0.3772589,-0.3212711,0.6817885,997.0971,37.88840168,127.7398141,136.57342529296875,0.0
2025-04-06 16:13:42.774,10.526027,-6.7908306,6.611369,-1.8014402,-3.2013896,2.9642978,-61.687504,-276.13126,957.48755,0.37852627,-0.36559013,0.67766166,997.1281,37.88840168,127.7398141,136.57342529296875,0.0
2025-04-06 16:13:42.794,10.200603,-7.152147,4.8047876,-1.3903283,-2.973537,3.0021713,-65.4375,-273.075,958.72504,0.3785916,-0.4026087,0.675317,997.1281,37.88840168,127.7398141,136.57342529296875,0.0
2025-04-06 16:13:42.815,12.392428,-7.836494,4.668397,-1.4220932,-3.3974771,3.1671047,-69.131256,-270.075,960.16876,0.3793244,-0.43794098,0.67268974,997.1474,37.88840168,127.7398141,136.57342529296875,0.0
2025-04-06 16:13:42.833,14.024334,-7.9704924,5.288138,-1.3151919,-2.779893,3.1133487,-72.225006,-266.85,962.2125,0.3800182,-0.47315153,0.66851324,997.1474,37.88840168,127.7398141,136.57342529296875,0.0
2025-04-06 16:13:42.853,13.521841,-7.850851,4.5966125,-1.2321143,-1.5929826,2.9105415,-74.83125,-263.85,964.275,0.37342715,-0.50897044,0.6660872,997.17084,37.88840168,127.7398141,136.57342529296875,0.0
2025-04-06 16:13:42.874,11.059627,-7.7910304,3.1274192,-1.1875211,-1.1702642,2.7810383,-76.5,-260.73752,966.8063,0.36301172,-0.5318207,0.6661789,997.17084,37.88840168,127.7398141,136.57342529296875,0.0
2025-04-06 16:13:42.894,10.243673,-8.252846,2.1463618,-1.3292418,-0.8135192,2.9380305,-77.55,-257.53125,968.8313,0.3495049,-0.55331,0.66658986,997.174,37.88840168,127.7398141,136.57342529296875,0.0
2025-04-06 16:13:42.913,10.906486,-8.599805,1.9381863,-1.3909391,-1.057865,2.9789584,-77.606255,-254.41876,969.7688,0.33428213,-0.5749749,0.6663187,997.174,37.88840168,127.7398141,136.57342529296875,0.0
2025-04-06 16:13:42.933,11.363515,-8.975478,2.4191437,-1.3384048,-1.2875502,2.8799984,-77.2125,-251.23126,969.93756,0.3206267,-0.59683585,0.66422427,997.16547,37.88840168,127.7398141,136.57342529296875,0.0
2025-04-06 16:13:42.953,11.176874,-9.427721,2.3808584,-1.2272273,-1.189201,2.8665593,-77.100006,-248.08125,969.525,0.3078415,-0.6173473,0.66150427,997.16547,37.88840168,127.7398141,136.57342529296875,0.0
2025-04-06 16:13:42.974,10.856236,-9.74836,1.7587247,-1.1734712,-0.75854135,2.9380305,-77.0625,-245.38126,969.54376,0.29402366,-0.6359299,0.65934974,997.1567,37.88840168,127.7398141,136.57342529296875,0.0
2025-04-06 16:13:42.995,11.10509,-9.745967,2.1655045,-1.188132,-0.19104797,2.936198,-77.30625,-241.18126,971.10004,0.2713271,-0.6566617,0.65789056,997.1567,37.88840168,127.7398141,136.57342529296875,0.0
2025-04-06 16:13:43.013,10.971092,-9.856036,2.160719,-1.1630865,-0.11957678,2.8616724,-77.381256,-239.98126,971.73755,0.25610945,-0.66776854,0.6572808,997.1547,37.88840168,127.7398141,136.57342529296875,0.0
2025-04-06 16:13:43.033,10.760524,-9.822537,2.2181466,-1.0500766,-0.31077746,2.7792056,-76.631256,-237.45001,973.16254,0.23159079,-0.6847662,0.6557936,997.1547,37.88840168,127.7398141,136.57342529296875,0.0
2025-04-06 16:13:43.053,12.143575,-9.18126,2.3401806,-0.93767744,-0.5215258,2.4780493,-74.981255,-233.2875,974.1563,0.21458331,-0.69708896,0.65396804,997.1491,37.88840168,127.7398141,136.57342529296875,0.0
2025-04-06 16:13:43.073,11.97847,-8.664411,2.656033,-0.7990111,-0.48059785,2.1139739,-74.512505,-232.2375,974.5125,0.2009569,-0.70755,0.6515991,997.1491,37.88840168,127.7398141,136.57342529296875,0.0
2025-04-06 16:13:43.094,11.172089,-8.013563,2.565106,-0.5577195,-0.19471315,1.6655992,-72.225006,-228.8625,975.60004,0.18690051,-0.71707135,0.6494359,997.15155,37.88840168,127.7398141,136.57342529296875,0.0
2025-04-06 16:13:43.114,10.889736,-7.628319,2.3018954,-0.41722065,0.034361143,1.3583342,-71.68125,-227.925,975.9,0.1793044,-0.7209986,0.64884615,997.15155,37.88840168,127.7398141,136.57342529296875,0.0
2025-04-06 16:13:43.133,10.777273,-7.367501,1.6917256,-0.30237806,0.3581195,0.9069051,-70.200005,-226.50002,976.65,0.16807236,-0.7250508,0.6487073,997.1574,37.88840168,127.7398141,136.57342529296875,0.0
2025-04-06 16:13:43.154,10.097712,-7.379465,1.3591232,-0.2583958,0.6421716,0.48479757,-69.037506,-225.1125,977.1188,0.1603913,-0.72650725,0.6488443,997.1574,37.88840168,127.7398141,136.57342529296875,0.0
2025-04-06 16:13:43.173,9.02812,-7.7742805,1.3854443,-0.17959425,0.7502947,0.19524765,-68.08125,-224.41876,976.9313,0.15395547,-0.7267667,0.649045,997.14764,37.88840168,127.7398141,136.57342529296875,0.0
2025-04-06 16:13:43.193,8.32463,-7.585248,1.3375878,-0.02932151,0.6885973,0.015653409,-67.2375,-223.725,976.42505,0.14909136,-0.72593313,0.6496917,997.14764,37.88840168,127.7398141,136.57342529296875,0.0
2025-04-06 16:13:43.213,8.671589,-7.685746,0.7728817,0.08307761,0.65683234,-0.17982332,-65.86875,-223.08751,975.75006,0.14587134,-0.7241025,0.6509119,997.13495,37.88840168,127.7398141,136.57342529296875,0.0
2025-04-06 16:13:43.233,8.822337,-7.7383885,0.74895346,0.13988803,0.56092656,-0.407065,-65.662506,-223.18126,975.67505,0.14452653,-0.7215844,0.6521429,997.13495,37.88840168,127.7398141,136.57342529296875,0.0
2025-04-06 16:13:43.253,8.480164,-7.649854,0.65324056,0.23884813,0.39477137,-0.6923389,-65.5875,-223.2375,975.35626,0.14599471,-0.7184464,0.65318745,997.12665,37.88840168,127.7398141,136.57342529296875,0.0
2025-04-06 16:13:43.273,8.774481,-7.2263246,0.79441714,0.3280344,0.21090107,-0.9482912,-65.64375,-223.425,975.16876,0.15022665,-0.7146787,0.6541067,997.12665,37.88840168,127.7398141,136.57342529296875,0.0
2025-04-06 16:13:43.295,8.118847,-7.314859,0.8877372,0.49296787,0.11499529,-1.3099232,-66.262505,-223.74376,974.9438,0.16002098,-0.7086536,0.655127,997.1171,37.88840168,127.7398141,136.57342529296875,0.0
2025-04-06 16:13:43.314,6.407979,-7.257431,0.35413775,0.6218603,0.09300416,-1.419268,-66.84375,-224.26875,974.4563,0.1703162,-0.7023895,0.65632594,997.1171,37.88840168,127.7398141,136.57342529296875,0.0
2025-04-06 16:13:43.334,5.111069,-7.1808605,-0.016749758,0.65790135,0.03619374,-1.3032037,-66.918755,-224.75626,973.68756,0.18077238,-0.6956921,0.65784085,997.12177,37.88840168,127.7398141,136.57342529296875,0.0
2025-04-06 16:13:43.354,4.0534415,-6.91765,-0.49292147,0.6878337,0.2121228,-0.9934952,-67.55625,-225.71251,973.275,0.18973917,-0.6890655,0.6598812,997.12177,37.88840168,127.7398141,136.57342529296875,0.0
2025-04-06 16:13:43.373,3.7160535,-6.9128647,-0.7800602,0.66095567,0.38683012,-0.642248,-67.93125,-226.425,972.45,0.19526553,-0.68256664,0.6628597,997.13446,37.88840168,127.7398141,136.57342529296875,0.0
2025-04-06 16:13:43.393,3.1800613,-7.015756,-0.8709874,0.6487384,0.4063778,-0.22380558,-68.34375,-227.23126,971.9438,0.19746652,-0.6766251,0.6666704,997.13446,37.88840168,127.7398141,136.57342529296875,0.0
2025-04-06 16:13:43.413,3.6801612,-6.6185474,-0.77766734,0.6517927,0.28176138,0.20257804,-68.887505,-228.0375,971.775,0.1968906,-0.6716182,0.6713594,997.1318,37.88840168,127.7398141,136.57342529296875,0.0
2025-04-06 16:13:43.434,4.9770713,-6.3218374,-0.57427746,0.71410096,-0.09269873,0.5116756,-69.075005,-228.4125,971.25006,0.19486497,-0.6667528,0.67796946,997.1318,37.88840168,127.7398141,136.57342529296875,0.0
2025-04-06 16:13:43.453,5.986842,-6.5850477,-0.849452,0.7495311,-0.49953467,0.6491202,-69.15,-228.84377,971.1188,0.19478378,-0.6637236,0.6833449,997.1401,37.88840168,127.7398141,136.57342529296875,0.0
2025-04-06 16:13:43.473,6.9224358,-6.5443697,-0.7680961,0.6511819,-0.79336065,0.7419716,-69.037506,-228.93752,970.4063,0.19650702,-0.6618839,0.6879189,997.1401,37.88840168,127.7398141,136.57342529296875,0.0
2025-04-06 16:13:43.493,8.336594,-6.317052,-0.15792629,0.65790135,-0.80802137,0.86109024,-69.1125,-229.01251,970.2188,0.19877057,-0.6609624,0.6917759,997.1506,37.88840168,127.7398141,136.57342529296875,0.0
2025-04-06 16:13:43.514,10.396814,-6.070591,-0.62452674,0.686612,-0.5679515,0.75235635,-68.606255,-228.93752,970.12506,0.20027846,-0.6592851,0.69618607,997.1506,37.88840168,127.7398141,136.57342529296875,0.0
2025-04-06 16:13:43.534,11.301301,-6.2644095,-1.4859428,0.36285368,-0.3969094,0.47868893,-68.418755,-228.95625,970.31256,0.20164238,-0.6574168,0.6998355,997.1591,37.88840168,127.7398141,136.57342529296875,0.0
2025-04-06 16:13:43.554,11.763116,-6.6017976,-0.997807,-0.216857,-0.28328854,0.06940951,-68.4375,-228.71251,970.9688,0.20376372,-0.6578595,0.700025,997.1591,37.88840168,127.7398141,136.57342529296875,0.0
2025-04-06 16:13:43.573,11.82533,-7.0348988,0.5168497,-0.49174616,-0.37003133,-0.27450737,-68.418755,-228.56252,971.23126,0.20689838,-0.6605782,0.6964378,997.1567,37.88840168,127.7398141,136.57342529296875,0.0
2025-04-06 16:13:43.594,11.8588295,-7.8604226,1.8592232,-0.4715876,-0.4714349,-0.53779006,-68.850006,-228.46877,971.7188,0.212326,-0.66350603,0.69144815,997.1567,37.88840168,127.7398141,136.57342529296875,0.0
2025-04-06 16:13:43.614,12.069397,-7.8436728,2.009971,-0.31398448,-0.58322316,-0.72227126,-69.168755,-228.24376,972.16876,0.21993293,-0.6652909,0.6865952,997.1706,37.88840168,127.7398141,136.57342529296875,0.0
2025-04-06 16:13:43.633,12.71546,-7.647461,1.7706888,-0.31276277,-0.5807797,-0.99777126,-69.46875,-228.61876,972.78754,0.22944209,-0.6658976,0.6818829,997.1706,37.88840168,127.7398141,136.57342529296875,0.0
2025-04-06 16:13:43.653,12.58864,-7.379465,2.6608188,-0.26755878,-0.36514443,-1.4046072,-69.9375,-229.20001,973.16254,0.24046704,-0.6656805,0.6764788,997.1794,37.88840168,127.7398141,136.57342529296875,0.0
2025-04-06 16:13:43.674,12.155539,-7.2526455,3.0987053,-0.06108648,-0.20265439,-1.771737,-70.51875,-229.96877,973.53754,0.2524837,-0.6632295,0.6715431,997.1794,37.88840168,127.7398141,136.57342529296875,0.0
2025-04-06 16:13:43.694,11.854043,-7.389036,2.7278178,0.17776164,-0.0481056,-2.1339798,-71.08125,-230.83125,973.72504,0.26615673,-0.65792114,0.66752225,997.20233,37.88840168,127.7398141,136.57342529296875,0.0
2025-04-06 16:13:43.713,10.990234,-7.5828547,2.1128623,0.35674503,0.20540328,-2.4522402,-71.8125,-231.82501,974.1375,0.28104728,-0.64972305,0.66430736,997.20233,37.88840168,127.7398141,136.57342529296875,0.0
2025-04-06 16:13:43.734,9.678967,-8.030313,1.3615161,0.47280934,0.39477137,-2.7088034,-72.787506,-233.06252,974.62506,0.30002764,-0.6360169,0.66098845,997.2182,37.88840168,127.7398141,136.57342529296875,0.0
2025-04-06 16:13:43.754,8.52802,-8.090134,0.83030945,0.49907652,0.34651303,-2.832809,-74.0625,-234.37502,975.16876,0.3156007,-0.6234592,0.6580346,997.2182,37.88840168,127.7398141,136.57342529296875,0.0
2025-04-06 16:13:43.773,7.6809607,-7.905886,0.41874397,0.46608981,0.13271037,-2.8835108,-75.4875,-236.45625,975.4688,0.33218974,-0.61073864,0.65388155,997.21844,37.88840168,127.7398141,136.57342529296875,0.0
2025-04-06 16:13:43.793,7.2119675,-7.3986077,0.44745782,0.4386009,-0.10002911,-2.8877869,-77.043755,-238.81876,975.2625,0.34978124,-0.59844637,0.6482597,997.21844,37.88840168,127.7398141,136.57342529296875,0.0
2025-04-06 16:13:43.813,6.771688,-7.1952176,0.36610186,0.44348782,-0.41645706,-2.8395286,-78.43125,-241.03127,975.2625,0.36845592,-0.5865241,0.6413487,997.21185,37.88840168,127.7398141,136.57342529296875,0.0
2025-04-06 16:13:43.833,6.800402,-6.8889365,0.31345975,0.4386009,-0.79091716,-2.7320163,-79.36875,-243.93752,975.0188,0.38849866,-0.5755755,0.6329995,997.21185,37.88840168,127.7398141,136.57342529296875,0.0
2025-04-06 16:13:43.853,7.2670026,-6.582655,0.0,0.41538805,-1.0028872,-2.660545,-80.45625,-246.39375,974.6813,0.40975687,-0.56575304,0.6232194,997.216,37.88840168,127.7398141,136.57342529296875,0.0
2025-04-06 16:13:43.876,6.7573314,-6.393622,-0.634098,0.26511532,-0.7903063,-2.548146,-81.84375,-250.70625,975.30005,0.43574074,-0.5541626,0.6098416,997.216,37.88840168,127.7398141,136.57342529296875,0.0
2025-04-06 16:13:43.894,6.259624,-6.4271216,-0.6221339,0.116675176,-0.5374083,-2.349615,-82.40625,-252.33751,975.3938,0.4533678,-0.5452368,0.5993958,997.2126,37.88840168,127.7398141,136.57342529296875,0.0
2025-04-06 16:13:43.914,5.7427745,-6.245267,-0.10049855,0.055588696,-0.13973531,-2.0435717,-83.512505,-254.79376,975.73126,0.46682802,-0.5367616,0.590508,997.2126,37.88840168,127.7398141,136.57342529296875,0.0
2025-04-06 16:13:43.934,4.9698925,-6.0801625,0.16510476,0.13133593,0.15347977,-1.6636139,-84.225006,-257.26877,976.42505,0.47628108,-0.5282429,0.5843366,997.22064,37.88840168,127.7398141,136.57342529296875,0.0
2025-04-06 16:13:43.953,4.1347976,-6.1998034,-0.5455636,0.20280711,0.44547313,-1.1718677,-84.39375,-258.91876,976.2563,0.48208413,-0.5199785,0.5814941,997.22064,37.88840168,127.7398141,136.57342529296875,0.0
2025-04-06 16:13:43.974,3.8955152,-6.2715883,-1.0336994,0.13194679,0.48334676,-0.5274054,-84.4875,-260.325,976.2188,0.48406288,-0.5134627,0.58156055,997.22845,37.88840168,127.7398141,136.57342529296875,0.0
2025-04-06 16:13:43.993,3.400201,-6.391229,-1.1174482,0.098960094,0.28237224,0.037644543,-84.356255,-261.48752,975.9563,0.48331743,-0.51019746,0.58317924,997.22845,37.88840168,127.7398141,136.57342529296875,0.0
2025-04-06 16:13:44.013,3.6323047,-6.6759753,-1.5433706,0.0537561,-0.073761925,0.7089849,-84.24375,-262.35,975.825,0.48015642,-0.51175076,0.5865293,997.2204,37.88840168,127.7398141,136.57342529296875,0.0
2025-04-06 16:13:44.033,4.0845485,-7.4847493,-2.3234308,-0.09529491,-0.16966769,1.201342,-84.1875,-262.59375,975.8438,0.47578764,-0.51754785,0.5898399,997.2204,37.88840168,127.7398141,136.57342529296875,0.0
2025-04-06 16:13:44.053,3.6801612,-7.152147,-2.4670002,-0.37079492,-0.07742711,1.675373,-83.981255,-262.55627,975.78754,0.46820548,-0.526724,0.5937436,997.2126,37.88840168,127.7398141,136.57342529296875,0.0
2025-04-06 16:13:44.073,3.4121652,-6.8410797,-1.5672989,-0.6676752,0.13881902,2.2697444,-83.86875,-261.13126,975.9563,0.45603243,-0.53908795,0.59848756,997.2126,37.88840168,127.7398141,136.57342529296875,0.0
2025-04-06 16:13:44.094,4.0103707,-6.355337,-0.6723832,-0.82344574,0.25121814,2.677802,-84.09375,-260.38126,976.1438,0.43909094,-0.5538225,0.6044417,997.2128,37.88840168,127.7398141,136.57342529296875,0.0
2025-04-06 16:13:44.115,5.163711,-6.1830535,0.20338993,-0.8704823,0.2829831,2.8396814,-84.15,-258.84375,976.2563,0.41909826,-0.569775,0.61089313,997.2128,37.88840168,127.7398141,136.57342529296875,0.0
2025-04-06 16:13:44.134,6.053841,-6.5922265,1.0217353,-0.72387475,0.3019199,2.7755406,-84.1125,-256.46252,976.4438,0.39305556,-0.588931,0.6188442,997.2299,37.88840168,127.7398141,136.57342529296875,0.0
2025-04-06 16:13:44.154,6.06102,-7.3579297,1.1294123,-0.44409868,0.260992,2.6136613,-83.043755,-252.58125,976.65,0.37312397,-0.6018285,0.62555844,997.2299,37.88840168,127.7398141,136.57342529296875,0.0
2025-04-06 16:13:44.174,5.3359947,-8.221739,0.5096712,-0.24862197,0.26160285,2.6344306,-82.33125,-251.21251,976.5563,0.35452548,-0.6125753,0.6328441,997.23846,37.88840168,127.7398141,136.57342529296875,0.0
2025-04-06 16:13:44.193,5.639883,-8.793623,-0.33020952,-0.21197008,0.2554942,2.7651558,-81.58125,-248.43752,976.68756,0.34037375,-0.6199758,0.6387763,997.23846,37.88840168,127.7398141,136.57342529296875,0.0
2025-04-06 16:13:44.215,6.1902323,-9.152547,-1.2993027,-0.38423395,0.18524474,2.8329618,-80.025,-244.725,975.78754,0.31095806,-0.6353373,0.6493906,997.23676,37.88840168,127.7398141,136.57342529296875,0.0
2025-04-06 16:13:44.233,6.099305,-9.219545,-1.1653047,-0.64629495,0.16386448,2.908709,-79.51875,-243.43126,975.37506,0.2956997,-0.6439611,0.6530862,997.23676,37.88840168,127.7398141,136.57342529296875,0.0
2025-04-06 16:13:44.254,5.948557,-9.3104725,-0.4019942,-0.84360427,0.27382013,3.040045,-78.881256,-241.03127,974.5875,0.2739351,-0.6564512,0.6564686,997.2399,37.88840168,127.7398141,136.57342529296875,0.0
2025-04-06 16:13:44.274,6.4462643,-9.379865,0.33020952,-0.94928384,0.4741838,3.1536658,-77.793755,-238.35,974.0813,0.24969088,-0.6691802,0.65957963,997.2399,37.88840168,127.7398141,136.57342529296875,0.0
2025-04-06 16:13:44.295,7.3986077,-9.188439,1.2801601,-0.88880825,0.4668534,3.0931902,-75.80625,-234.15001,974.1375,0.21741118,-0.68408155,0.6615189,997.24286,37.88840168,127.7398141,136.57342529296875,0.0
2025-04-06 16:13:44.313,7.783852,-9.107083,1.5122639,-0.7440333,0.3611738,2.9423065,-75.037506,-232.9125,974.28754,0.1927975,-0.69425076,0.66319346,997.24286,37.88840168,127.7398141,136.57342529296875,0.0
2025-04-06 16:13:44.334,7.580462,-9.317652,1.2562319,-0.5894845,0.23655738,2.8066945,-71.606255,-229.03127,974.10004,0.17038311,-0.7025947,0.66487926,997.24286,37.88840168,127.7398141,136.57342529296875,0.0
2025-04-06 16:13:44.353,7.5589266,-9.193225,0.97866446,-0.5027417,0.18524474,2.7608798,-70.78125,-228.09377,973.7625,0.14951597,-0.70968604,0.6664817,997.24286,37.88840168,127.7398141,136.57342529296875,0.0
2025-04-06 16:13:44.373,7.5756764,-9.080762,0.7537391,-0.45937032,0.25732678,2.8066945,-68.512505,-226.50002,973.275,0.12878487,-0.71580374,0.66799074,997.2502,37.88840168,127.7398141,136.57342529296875,0.0
2025-04-06 16:13:44.393,8.3581295,-9.0951185,0.61016977,-0.41233373,0.3715585,2.8708353,-66.84375,-224.83125,973.0313,0.10713533,-0.7211102,0.6694709,997.2502,37.88839141,127.73981216,138.21405029296875,0.95
2025-04-06 16:13:44.413,10.047462,-8.169097,0.95473623,-0.3506364,0.46257734,2.7016258,-65.006256,-223.74376,973.29376,0.08505401,-0.7254318,0.67081374,997.248,37.88839141,127.73981216,138.21405029296875,0.95
2025-04-06 16:13:44.433,11.602797,-7.759924,1.3830515,-0.14844014,0.4705186,2.3589306,-62.643753,-222.4875,973.53754,0.06473485,-0.7281908,0.6722382,997.248,37.88839141,127.73981216,138.21405029296875,0.95
2025-04-06 16:13:44.453,12.490534,-8.037491,0.6053841,0.28832817,0.25488332,1.8115959,-60.43125,-221.34377,973.7438,0.045161605,-0.72807604,0.67583805,997.2475,37.88839141,127.73981216,138.21405029296875,0.95
2025-04-06 16:13:44.473,12.21536,-7.9513497,-0.66041905,0.40805766,0.10155627,1.3992622,-58.256252,-220.38751,974.04376,0.03464805,-0.72585756,0.679954,997.2475,37.88839141,127.73981216,138.21405029296875,0.95
2025-04-06 16:13:44.494,11.473584,-8.080562,-0.89491564,0.29016078,0.12171481,1.0693952,-56.325,-219.45001,974.17505,0.027428456,-0.72370595,0.6833677,997.2487,37.88839141,127.73981216,138.21405029296875,0.95
2025-04-06 16:13:44.514,11.58844,-8.786445,-0.71306115,0.102014415,0.29275694,0.7615193,-54.73125,-219.28127,973.87506,0.021386707,-0.7223383,0.68544775,997.2487,37.88839141,127.73981216,138.21405029296875,0.95
2025-04-06 16:13:44.533,11.789437,-9.717253,-0.20817557,-0.03604102,0.3019199,0.43715012,-53.60625,-218.90627,973.68756,0.016499657,-0.7218461,0.6861384,997.24335,37.88839141,127.73981216,138.21405029296875,0.95
2025-04-06 16:13:44.554,12.296716,-10.30828,0.37088752,-0.026267186,0.14920372,0.09445497,-52.48125,-218.64375,973.10626,0.014173852,-0.72182274,0.68601406,997.24335,37.88839141,127.73981216,138.21405029296875,0.95
2025-04-06 16:13:44.575,12.722638,-10.334601,0.06699903,-0.06475167,0.09605849,-0.43211046,-51.562504,-218.45625,972.8813,0.016178347,-0.7216281,0.68560225,997.2404,37.88839141,127.73981216,138.21405029296875,0.95
2025-04-06 16:13:44.593,12.521641,-10.439885,0.18664017,-0.18203771,0.11194097,-0.76625353,-51.43125,-218.23126,973.2188,0.019702807,-0.7218441,0.6846271,997.2404,37.88839141,127.73981216,138.21405029296875,0.95
2025-04-06 16:13:44.614,11.614761,-9.994821,1.3519448,-0.23518294,-0.037110034,-1.1425462,-51.281254,-218.2875,973.2563,0.028948283,-0.72297245,0.6814533,997.24896,37.88839141,127.73981216,138.21405029296875,0.95
2025-04-06 16:13:44.635,11.502298,-9.789038,2.4526432,-0.10873393,-0.5374083,-1.4021637,-51.412502,-218.45625,973.5563,0.04054492,-0.7235744,0.6787988,997.24896,37.88839141,127.73981216,138.21405029296875,0.95
2025-04-06 16:13:44.653,12.8111725,-10.293923,2.7684958,0.029932374,-1.130558,-1.8584797,-52.0875,-218.53127,973.53754,0.058302335,-0.72338206,0.6765487,997.2548,37.88839141,127.73981216,138.21405029296875,0.95
2025-04-06 16:13:44.674,12.528819,-11.784652,3.2805598,0.14538582,-1.4567598,-2.584187,-53.41875,-218.77501,973.53754,0.083326705,-0.7223163,0.6737838,997.2548,37.88839141,127.73981216,138.21405029296875,0.95
2025-04-06 16:13:44.694,10.760524,-12.823136,3.400201,0.36285368,-1.4085015,-3.0551639,-55.18125,-219.225,973.72504,0.11335129,-0.7193377,0.67074764,997.2746,37.88839141,127.73981216,138.21405029296875,0.95
2025-04-06 16:13:44.713,9.470792,-13.627125,2.696711,0.5522218,-1.3657409,-3.2872925,-57.693752,-219.71251,974.1938,0.14526011,-0.71372306,0.6681391,997.2746,37.88839141,127.73981216,138.21405029296875,0.95
2025-04-06 16:13:44.733,9.150154,-13.8353,1.9357935,0.59803665,-1.3510802,-3.3850307,-60.393753,-220.8,974.7,0.18635985,-0.70422757,0.66457003,997.28827,37.88839141,127.73981216,138.21405029296875,0.95
2025-04-06 16:13:44.753,8.817552,-13.03849,1.5218352,0.56627166,-0.97539836,-3.39847,-63.468754,-222.13126,975.16876,0.21029857,-0.69764346,0.6619484,997.28827,37.88839141,127.73981216,138.21405029296875,0.95
2025-04-06 16:13:44.774,8.99462,-11.789437,0.96430755,0.42699447,-0.344375,-3.4900997,-66.506256,-223.55626,976.0313,0.24573149,-0.68524027,0.6570943,997.28656,37.88839141,127.73981216,138.21405029296875,0.95
2025-04-06 16:13:44.794,8.750552,-11.176874,1.1940185,0.33536476,0.14004076,-3.6971827,-70.950005,-226.425,976.8938,0.27648878,-0.6708216,0.65127057,997.28656,37.88839141,127.73981216,138.21405029296875,0.95
2025-04-06 16:13:44.814,8.267202,-10.892129,1.3926228,0.411112,0.2603811,-3.9635198,-72.4875,-227.49376,976.95,0.29411393,-0.66068524,0.6474206,997.2839,37.88839141,127.73981216,138.21405029296875,0.95
2025-04-06 16:13:44.834,7.3363943,-10.554741,1.2179468,0.5577195,0.08384119,-4.1687703,-74.606255,-229.83751,976.7813,0.31886116,-0.645278,0.641522,997.2839,37.88839141,127.73981216,138.21405029296875,0.95
2025-04-06 16:13:44.853,6.5204415,-10.559526,0.36131623,0.64812756,-0.06520981,-4.270785,-76.36875,-232.55626,976.3688,0.34556627,-0.6280965,0.63450307,997.28436,37.88839141,127.73981216,138.21405029296875,0.95
2025-04-06 16:13:44.874,5.113462,-10.313066,-0.4211368,0.5534435,0.052687086,-4.2255807,-78.693756,-237.45001,976.29376,0.37894925,-0.6053366,0.62394065,997.28436,37.88839141,127.73981216,138.21405029296875,0.95
2025-04-06 16:13:44.893,4.141976,-10.224531,-0.80159557,0.4007273,0.319635,-4.0545387,-79.3125,-239.175,976.3313,0.39691347,-0.591482,0.6170612,997.2839,37.88839141,127.73981216,138.21405029296875,0.95
2025-04-06 16:13:44.913,3.859623,-9.769895,-0.5623133,0.2913825,0.41981682,-3.8205774,-80.662506,-242.75626,976.65,0.4173048,-0.5732621,0.60784197,997.2839,37.88839141,127.73981216,138.21405029296875,0.95
2025-04-06 16:13:44.935,3.3547373,-9.5760765,-0.8805587,0.27183482,0.028863361,-3.5908923,-82.4625,-248.77501,976.3313,0.44521785,-0.54734355,0.59271497,997.2697,37.88839141,127.73981216,138.21405029296875,0.95
2025-04-06 16:13:44.954,2.2205393,-9.449257,-0.8877372,0.22357652,-0.18432845,-3.3587637,-82.8375,-250.51875,976.4438,0.45925927,-0.53563803,0.58400416,997.2697,37.88839141,127.73981216,138.21405029296875,0.95
2025-04-06 16:13:44.973,1.4715859,-9.497113,-0.90448695,0.1924224,-0.3657553,-2.9439864,-83.55,-254.30626,975.91876,0.4770207,-0.52191186,0.5719587,997.26117,37.88839141,127.73981216,138.21405029296875,0.95
2025-04-06 16:13:44.993,0.89013004,-9.712467,-0.8877372,0.17592905,-0.42012227,-2.5151594,-84.037506,-257.73752,976.0125,0.49283174,-0.51057756,0.560548,997.26117,37.88839141,127.73981216,138.21405029296875,0.95
2025-04-06 16:13:45.014,-0.25603202,-9.174082,-0.971486,0.17715079,-0.4054615,-1.7521893,-84.24375,-260.11877,976.23755,0.50863045,-0.49985936,0.5488931,997.2575,37.88839141,127.73981216,138.21405029296875,0.95
2025-04-06 16:13:45.034,-0.3684947,-9.212367,-1.2370893,0.1423315,-0.37980518,-1.0613012,-84.262505,-262.7625,976.12506,0.5174475,-0.49470454,0.54250115,997.2575,37.88839141,127.73981216,138.21405029296875,0.95
2025-04-06 16:13:45.054,0.023928227,-10.265209,-1.4931214,0.07880156,-0.22525638,-0.36858055,-84.225006,-264.65625,976.4625,0.5223396,-0.49305052,0.5391126,997.2492,37.88839141,127.73981216,138.21405029296875,0.95
2025-04-06 16:13:45.073,-0.28235307,-10.085748,-1.7300107,-0.0018325944,0.064904384,0.24594943,-84.28125,-266.08127,976.575,0.5228347,-0.49377838,0.53907347,997.2492,37.88839141,127.73981216,138.21405029296875,0.95
2025-04-06 16:13:45.095,-0.22492532,-9.504292,-1.902294,-0.23029602,0.5554288,1.1640792,-84.4875,-267.30002,976.80005,0.5162187,-0.4983607,0.5443432,997.2358,37.88839141,127.73981216,138.21405029296875,0.95
2025-04-06 16:13:45.114,0.46660042,-9.820144,-2.009971,-0.4062251,0.7698423,1.7731113,-84.39375,-267.4125,976.85626,0.50412285,-0.505327,0.5526589,997.2358,37.88839141,127.73981216,138.21405029296875,0.95
2025-04-06 16:13:45.134,0.47138608,-9.726824,-2.0458634,-0.62491465,0.65683234,2.3784783,-84.58125,-266.98126,976.8375,0.48746365,-0.5155535,0.56286216,997.2304,37.88839141,127.73981216,138.21405029296875,0.95
2025-04-06 16:13:45.154,1.3232309,-10.518848,-1.5936198,-0.8136719,0.22006404,3.0229406,-84.675,-265.98752,976.4063,0.46769977,-0.53049207,0.57308346,997.2304,37.88839141,127.73981216,138.21405029296875,0.95
2025-04-06 16:13:45.173,2.902494,-11.68176,-0.66999036,-0.8619302,-0.3498728,3.7358198,-84.80625,-264.31876,976.05005,0.4403308,-0.55613667,0.5848437,997.2199,37.88839141,127.73981216,138.21405029296875,0.95
2025-04-06 16:13:45.194,5.0751767,-12.473784,0.18664017,-0.72815084,-0.8153518,4.2019095,-85.03125,-261.99377,976.05005,0.4174531,-0.58043313,0.5935698,997.2199,37.88839141,127.73981216,138.21405029296875,0.95
2025-04-06 16:13:45.213,7.4153576,-12.64846,0.35413775,-0.46547896,-0.832456,4.3509607,-85.05,-258.75,975.97504,0.39434233,-0.6045888,0.60240024,997.2319,37.88839141,127.73981216,138.21405029296875,0.95
2025-04-06 16:13:45.233,8.099705,-12.437892,-0.10767702,-0.28527385,-0.50991935,4.250779,-84.7125,-255.225,976.4625,0.3705639,-0.62547517,0.61192924,997.2319,37.88839141,127.73981216,138.21405029296875,0.95
2025-04-06 16:13:45.254,7.7551384,-11.440085,-0.67477596,-0.28038692,-0.06276636,4.1084476,-83.90625,-251.00626,977.1375,0.34517172,-0.6428847,0.62177896,997.2358,37.88839141,127.73981216,138.21405029296875,0.95
2025-04-06 16:13:45.274,7.1138616,-10.79163,-0.8781659,-0.4386009,0.3074177,4.0455284,-82.8375,-246.88126,976.8188,0.31775323,-0.65806127,0.6309788,997.2358,37.88839141,127.73981216,138.21405029296875,0.95
2025-04-06 16:13:45.293,6.5754766,-10.518848,-0.13160525,-0.6218603,0.62934345,4.0546913,-81.05625,-243.16876,976.05005,0.27965385,-0.6754961,0.64076394,997.23944,37.88839141,127.73981216,138.21405029296875,0.95
2025-04-06 16:13:45.313,6.786045,-10.884951,0.9499506,-0.6181952,0.67943436,4.170756,-78.9,-239.51251,975.4688,0.24674755,-0.6883951,0.6474437,997.23944,37.88839141,127.73981216,138.21405029296875,0.95
2025-04-06 16:13:45.333,7.678568,-11.298908,1.2323036,-0.45570514,0.61162835,4.27277,-76.387505,-236.13751,974.2125,0.21302211,-0.6996368,0.65393037,997.2358,37.88839141,127.73981216,138.21405029296875,0.95
2025-04-06 16:13:45.353,8.523234,-11.176874,0.8255238,-0.30604327,0.5120574,4.3057566,-72.318756,-231.71251,973.0125,0.1794858,-0.70882607,0.66029054,997.2358,37.88839141,127.73981216,138.21405029296875,0.95
2025-04-06 16:13:45.373,9.623933,-10.975878,0.30867413,-0.27122396,0.41920596,4.2153487,-70.818756,-230.40001,972.73126,0.14692745,-0.7162933,0.6658308,997.2397,37.88839141,127.73981216,138.21405029296875,0.95
2025-04-06 16:13:45.393,10.918449,-10.396814,0.22253251,-0.28954992,0.33551747,3.974668,-67.856255,-227.77501,972.3938,0.11631723,-0.72248536,0.66983455,997.2397,37.88838139,127.73979469,137.53277587890625,2.22
2025-04-06 16:13:45.414,11.277373,-9.552148,0.32303107,-0.27244568,0.19318599,3.5433974,-64.818756,-225.58125,972.0563,0.08866835,-0.7273885,0.67235047,997.2409,37.88838139,127.73979469,137.53277587890625,2.22
2025-04-06 16:13:45.433,11.497513,-9.162118,0.40677986,-0.22601996,0.13209951,3.179322,-61.406254,-223.25626,972.00006,0.06458631,-0.7311051,0.67378557,997.2409,37.88838139,127.73979469,137.53277587890625,2.22
2025-04-06 16:13:45.453,11.499906,-9.164511,0.31585258,-0.17287473,0.12721258,2.8189118,-58.218754,-221.7375,972.1313,0.04348798,-0.7336216,0.67468834,997.25287,37.88838139,127.73979469,137.53277587890625,2.22
2025-04-06 16:13:45.474,11.806187,-9.379865,0.15074782,-0.13805544,0.18035783,2.4835472,-55.893753,-220.06876,972.9,0.02042942,-0.7354824,0.6753363,997.25287,37.88838139,127.73979469,137.53277587890625,2.22
2025-04-06 16:13:45.494,12.468999,-9.602397,0.5383851,-0.07574723,0.12660173,2.1341324,-52.575,-218.32501,974.06256,9.300743E-4,-0.7363099,0.6756897,997.26483,37.88838139,127.73979469,137.53277587890625,2.22
2025-04-06 16:13:45.513,13.395021,-9.738789,0.6939186,0.0537561,0.10583232,1.8012111,-51.768753,-217.96877,974.325,-0.008594162,-0.73607,0.676245,997.26483,37.88838139,127.73979469,137.53277587890625,2.22
2025-04-06 16:13:45.533,14.550755,-10.035499,0.5288138,0.17898338,0.14126249,1.2141701,-50.5875,-217.14375,975.2625,-0.018334351,-0.73491514,0.67756313,997.26996,37.88838139,127.73979469,137.53277587890625,2.22
2025-04-06 16:13:45.553,14.596218,-10.241281,0.33260235,0.20158538,0.22739442,0.70715237,-48.750004,-216.84377,975.0563,-0.02427105,-0.73327523,0.67923236,997.26996,37.88838139,127.73979469,137.53277587890625,2.22
2025-04-06 16:13:45.573,14.770894,-10.923235,0.17228323,0.16432263,0.3434587,0.064522594,-47.268753,-216.58125,974.775,-0.026967924,-0.7317494,0.68071985,997.27484,37.88838139,127.73979469,137.53277587890625,2.22
2025-04-06 16:13:45.594,15.026926,-11.96172,0.08135597,0.10506874,0.28420484,-0.60132,-46.36875,-216.6,974.60626,-0.025603691,-0.73067886,0.6817042,997.27484,37.88838139,127.73979469,137.53277587890625,2.22
2025-04-06 16:13:45.613,13.880764,-11.382657,0.31585258,0.03848448,0.29031348,-1.174922,-45.73125,-216.54376,974.325,-0.017319996,-0.73005897,0.6819857,997.289,37.88838139,127.73979469,137.53277587890625,2.22
2025-04-06 16:13:45.635,12.519248,-10.947164,1.2705889,0.023212861,0.21884231,-1.7778456,-45.693752,-216.61876,974.2125,-0.006629948,-0.7297532,0.6815231,997.289,37.88838139,127.73979469,137.53277587890625,2.22
2025-04-06 16:13:45.653,11.62194,-11.600404,1.9214365,0.1508836,-0.028557928,-2.3117414,-46.425003,-216.93752,974.25006,0.008642775,-0.7288267,0.6810047,997.2973,37.88838139,127.73979469,137.53277587890625,2.22
2025-04-06 16:13:45.674,10.325029,-12.899707,2.1655045,0.39767298,-0.5203041,-2.8517458,-47.831253,-217.33125,974.1563,0.029592112,-0.7263706,0.6810682,997.2973,37.88838139,127.73979469,137.53277587890625,2.22
2025-04-06 16:13:45.693,9.643075,-13.727624,1.9405792,0.5552761,-0.92652917,-3.154124,-49.443752,-217.66876,973.9313,0.056345318,-0.72218275,0.68157375,997.3112,37.88838139,127.73979469,137.53277587890625,2.22
2025-04-06 16:13:45.714,9.052048,-14.411971,0.6197411,0.54672396,-1.3315325,-3.483991,-51.61875,-218.11876,973.9313,0.087954365,-0.7167594,0.68155986,997.3112,37.88838139,127.73979469,137.53277587890625,2.22
2025-04-06 16:13:45.735,8.63809,-14.502898,0.30388847,0.3017672,-1.4170536,-3.6996262,-55.706253,-219.0375,973.6313,0.13161264,-0.70999163,0.6783214,997.3088,37.88838139,127.73979469,137.53277587890625,2.22
2025-04-06 16:13:45.753,8.360522,-13.950156,0.6771688,0.023823727,-1.1042908,-3.8786097,-57.05625,-219.26251,973.53754,0.16650437,-0.7049327,0.6725522,997.3088,37.88838139,127.73979469,137.53277587890625,2.22
2025-04-06 16:13:45.773,7.771888,-13.057633,1.5529419,-0.06108648,-0.5203041,-4.083249,-60.15,-220.44376,974.06256,0.19894211,-0.6991194,0.6649317,997.3005,37.88838139,127.73979469,137.53277587890625,2.22
2025-04-06 16:13:45.793,7.2861447,-12.564712,1.8305093,-0.016493348,-0.063377224,-4.2494044,-63.506252,-222.0375,974.23126,0.22128284,-0.693232,0.65904886,997.3005,37.88838139,127.73979469,137.53277587890625,2.22
2025-04-06 16:13:45.814,6.4606214,-12.803994,1.7467605,0.29810202,0.28848088,-4.45832,-66.225006,-223.70625,974.62506,0.25617805,-0.6794044,0.6498759,997.299,37.88838139,127.73979469,137.53277587890625,2.22
2025-04-06 16:13:45.833,5.3503513,-12.813565,1.0145568,0.5540544,0.5218312,-4.435718,-69.1875,-225.7875,975.30005,0.2830961,-0.66445357,0.6436323,997.299,37.88838139,127.73979469,137.53277587890625,2.22
2025-04-06 16:13:45.853,4.843073,-12.622139,0.11246266,0.69516414,0.78022707,-4.310491,-71.90625,-228.3,975.075,0.307768,-0.64674866,0.6385036,997.2946,37.88838139,127.73979469,137.53277587890625,2.22
2025-04-06 16:13:45.873,4.5918264,-12.468999,-0.89013004,0.69394237,0.84436786,-4.2255807,-73.856255,-231.09377,975.2063,0.3301274,-0.6274287,0.6336496,997.2946,37.88838139,127.73979469,137.53277587890625,2.22
2025-04-06 16:13:45.894,3.5557344,-12.430714,-1.5984055,0.54550225,0.53038335,-4.1308966,-75.80625,-234.65627,975.2438,0.3566827,-0.6031648,0.6257146,997.27826,37.88838139,127.73979469,137.53277587890625,2.22
2025-04-06 16:13:45.913,1.8520447,-12.086147,-1.5984055,0.31093016,-0.043218683,-3.8902159,-77.625,-238.44376,975.4313,0.37859437,-0.58632004,0.6159665,997.27826,37.88838139,127.73979469,137.53277587890625,2.22
2025-04-06 16:13:45.933,0.53359944,-11.200803,-0.9738788,0.09773836,-0.4384482,-3.3966372,-78.95625,-242.13751,975.4313,0.40019315,-0.5730381,0.60367125,997.2609,37.88838139,127.73979469,137.53277587890625,2.22
2025-04-06 16:13:45.953,0.18185452,-10.253245,-0.18185452,-0.010384701,-0.53313226,-2.9348235,-80.30625,-245.79376,975.22504,0.41963047,-0.5629287,0.5906917,997.2609,37.88838139,127.73979469,137.53277587890625,2.22
2025-04-06 16:13:45.974,0.32063824,-9.272188,0.4881358,0.046425723,-0.28145593,-2.3880994,-81.637505,-249.24376,975.0188,0.43557438,-0.5544907,0.57920724,997.25385,37.88838139,127.73979469,137.53277587890625,2.22
2025-04-06 16:13:45.994,0.6364908,-10.095319,-0.11964113,0.13439025,0.07284562,-2.0264676,-82.481255,-252.00002,974.8875,0.44771856,-0.545968,0.5708136,997.25385,37.88838139,127.73979469,137.53277587890625,2.22
2025-04-06 16:13:46.013,-0.0741775,-10.406385,-0.7609176,0.13072506,0.2689332,-1.5933645,-83.193756,-254.64375,974.9438,0.45607233,-0.5373707,0.565504,997.2343,37.88838139,127.73979469,137.53277587890625,2.22
2025-04-06 16:13:46.033,-0.44985065,-10.226924,-1.2179468,0.11117739,0.083230324,-0.9837214,-83.5875,-256.80002,974.9625,0.46251994,-0.52945477,0.56165344,997.2343,37.88838139,127.73979469,137.53277587890625,2.22
2025-04-06 16:13:46.053,-0.2727818,-9.82493,-1.3974084,0.06352994,-0.089033544,-0.4400517,-83.625,-258.69376,975.075,0.46557796,-0.5269937,0.55990547,997.2233,37.88838139,127.73979469,137.53277587890625,2.22
2025-04-06 16:13:46.075,0.1268196,-10.085748,-1.7706888,-0.0067195124,0.009926553,0.16531529,-83.381256,-260.79376,974.8313,0.46609813,-0.52749884,0.5598035,997.2233,37.88838139,127.73979469,137.53277587890625,2.22
2025-04-06 16:13:46.093,0.22492532,-10.679168,-2.2779672,-0.09468404,0.13698642,0.6307942,-83.4,-261.075,974.7,0.4628626,-0.5303473,0.56214607,997.2072,37.88838139,127.73979469,137.53277587890625,2.22
2025-04-06 16:13:46.113,-0.37806597,-10.650454,-2.8307092,-0.30298892,0.21273366,1.3143519,-83.45625,-261.46875,974.6813,0.4553484,-0.53614867,0.5666893,997.2072,37.88838139,127.73979469,137.53277587890625,2.22
2025-04-06 16:13:46.134,0.37567315,-10.600204,-2.481357,-0.67195123,0.18707734,2.1732278,-83.568756,-260.26877,974.775,0.4386048,-0.5498285,0.5745255,997.2004,37.88838139,127.73979469,137.53277587890625,2.22
2025-04-06 16:13:46.153,2.3688943,-10.607383,-0.715454,-0.8429934,0.14553854,2.7804275,-83.850006,-259.80002,974.9438,0.41973895,-0.5654478,0.5818171,997.2004,37.88838139,127.73979469,137.53277587890625,2.22
2025-04-06 16:13:46.175,4.5966125,-10.801202,0.5599205,-0.70982486,0.077121675,3.1084619,-83.55,-258.0375,974.9063,0.39809155,-0.58231026,0.59027296,997.20233,37.88838139,127.73979469,137.53277587890625,2.22
2025-04-06 16:13:46.193,5.6877394,-11.095519,0.94277215,-0.3506364,-0.10308343,3.1371725,-83.3625,-255.73126,974.8313,0.37689778,-0.5979164,0.59959245,997.20233,37.88838139,127.73979469,137.53277587890625,2.22
2025-04-06 16:13:46.213,5.7379885,-11.724831,-0.30388847,-0.043371398,-0.17394374,3.134729,-82.8375,-253.05,975.11255,0.3576342,-0.6112666,0.60979503,997.2121,37.88838139,127.73979469,137.53277587890625,2.22
2025-04-06 16:13:46.234,4.8885365,-11.492727,-1.4955142,-0.037262753,-0.12812889,3.266065,-82.0875,-250.33125,975.03754,0.33850697,-0.6232952,0.620331,997.2121,37.88838139,127.73979469,137.53277587890625,2.22
2025-04-06 16:13:46.253,4.6396832,-10.760524,-1.8161523,-0.30665413,-0.08353576,3.5714972,-80.86875,-247.36876,974.8313,0.3173588,-0.63591856,0.6300706,997.2077,37.88838139,127.73979469,137.53277587890625,2.22
2025-04-06 16:13:46.273,4.9268217,-10.332209,-1.2514462,-0.61086476,0.053908817,3.853106,-79.856255,-244.36876,974.7,0.29302612,-0.64999235,0.6382548,997.2077,37.88838139,127.73979469,137.53277587890625,2.22
2025-04-06 16:13:46.293,5.7427745,-10.34178,0.37806597,-0.8295544,0.123547405,4.08218,-78.1125,-239.51251,974.04376,0.25772387,-0.6688318,0.64624614,997.20233,37.88838139,127.73979469,137.53277587890625,2.22
2025-04-06 16:13:46.313,6.640083,-10.597812,2.0075781,-0.67683816,0.056352276,4.182973,-77.175,-237.52501,973.87506,0.22772744,-0.68318295,0.65165806,997.20233,37.88838139,127.73979469,137.53277587890625,2.22
2025-04-06 16:13:46.333,6.317052,-11.179267,2.28036,-0.194255,-0.1989892,4.3283587,-75.76875,-234.4875,973.5938,0.20557143,-0.6920842,0.65631676,997.2067,37.88838139,127.73979469,137.53277587890625,2.22
2025-04-06 16:13:46.355,6.290731,-11.538191,-0.34217364,0.17837252,-0.5093085,4.5885873,-74.006256,-231.69376,973.5938,0.17038581,-0.7027756,0.666449,997.2067,37.88838139,127.73979469,137.53277587890625,2.22
2025-04-06 16:13:46.373,6.943971,-10.968699,-1.698904,-0.010384701,-0.48487392,4.7584076,-71.887505,-229.21877,973.8938,0.14239053,-0.709856,0.6738704,997.19965,37.88838139,127.73979469,137.53277587890625,2.22
2025-04-06 16:13:46.393,10.164711,-10.482956,-1.1270195,-0.3262018,-0.1904371,4.572705,-69.65625,-227.32501,973.7625,0.11254543,-0.7172255,0.6780156,997.19965,37.8883715,127.73978295,137.80352783203125,1.94
2025-04-06 16:13:46.413,10.916057,-10.408778,0.5910272,-0.50152,0.006872229,4.024148,-67.05,-225.37502,973.9688,0.083719715,-0.72413903,0.6789536,997.19574,37.8883715,127.73978295,137.80352783203125,1.94
2025-04-06 16:13:46.434,10.693524,-10.600204,1.5409778,-0.22418737,-0.13607013,3.600208,-63.7125,-223.31252,974.2688,0.057521176,-0.72920156,0.67887294,997.19574,37.8883715,127.73978295,137.80352783203125,1.94
2025-04-06 16:13:46.455,11.030912,-11.667403,0.74416786,0.2547306,-0.59360784,3.2544584,-58.66875,-220.46251,974.36255,0.031444404,-0.7309448,0.68081385,997.19867,37.8883715,127.73978295,137.80352783203125,1.94
2025-04-06 16:13:46.474,12.598211,-11.150554,-0.11246266,0.37873617,-0.61437726,2.9972844,-57.3375,-219.63751,974.73755,0.015009349,-0.72942746,0.6837941,997.19867,37.8883715,127.73978295,137.80352783203125,1.94
2025-04-06 16:13:46.494,14.538791,-10.557134,-0.59581286,0.27672175,-0.22403465,2.3864195,-54.73125,-218.3625,975.2438,-9.765294E-4,0.7272495,-0.68633264,997.19916,37.8883715,127.73978295,137.80352783203125,1.94
2025-04-06 16:13:46.514,14.232509,-10.133604,-0.10049855,0.10262528,0.24816382,1.6637666,-53.006252,-217.74376,975.35626,0.010969336,0.7258961,-0.6874739,997.19916,37.8883715,127.73978295,137.80352783203125,1.94
2025-04-06 16:13:46.533,13.904693,-11.155339,0.55034924,0.14355323,0.53343767,1.0345758,-51.000004,-217.425,975.0188,0.020831686,0.7250073,-0.6880785,997.2055,37.8883715,127.73978295,137.80352783203125,1.94
2025-04-06 16:13:46.553,13.653446,-11.796616,0.5312066,0.30543238,0.64339334,0.4896845,-48.9,-217.03127,975.0563,0.027815083,0.72346026,-0.68950933,997.2055,37.8883715,127.73978295,137.80352783203125,1.94
2025-04-06 16:13:46.574,13.7730875,-12.674782,-0.5886344,0.4062251,0.6421716,-0.10713041,-47.25,-216.82501,974.55005,0.031746566,0.72100663,-0.6920495,997.2099,37.8883715,127.73978295,137.80352783203125,1.94
2025-04-06 16:13:46.593,13.043276,-12.500106,-1.1150553,0.23335035,0.40088,-0.7271582,-45.412502,-216.58125,974.06256,0.03024687,0.7184927,-0.69486916,997.2099,37.8883715,127.73978295,137.80352783203125,1.94
2025-04-06 16:13:46.613,12.440285,-11.196017,-0.14117654,0.1197295,0.2866483,-1.1694243,-44.90625,-216.82501,973.7063,-0.025772167,-0.7178959,0.6956552,997.2077,37.8883715,127.73978295,137.80352783203125,1.94
2025-04-06 16:13:46.634,11.973684,-11.174481,1.0815558,0.16554436,0.066736974,-1.7534109,-44.86875,-217.06876,973.3688,-0.015804363,-0.7173391,0.69631124,997.2077,37.8883715,127.73978295,137.80352783203125,1.94
2025-04-06 16:13:46.655,10.820344,-12.189038,1.0887343,0.365908,-0.24113888,-2.403371,-45.5625,-217.20001,973.3313,0.0045762174,-0.7151007,0.69801724,997.22015,37.8883715,127.73978295,137.80352783203125,1.94
2025-04-06 16:13:46.673,9.475577,-13.612768,0.13878371,0.365908,-0.42195484,-2.8523567,-46.93125,-217.50002,973.4063,0.026582744,-0.7120146,0.69956017,997.22015,37.8883715,127.73978295,137.80352783203125,1.94
2025-04-06 16:13:46.693,8.439486,-14.658431,-0.45702913,0.091629714,-0.41706792,-3.1797802,-48.43125,-217.66876,973.35004,0.051385567,-0.7091971,0.69936824,997.22626,37.8883715,127.73978295,137.80352783203125,1.94
2025-04-06 16:13:46.714,8.250452,-15.1657095,0.5383851,-0.16249003,-0.5129737,-3.4363434,-50.4,-218.26875,972.86255,0.07743518,-0.70744574,0.696377,997.22626,37.8883715,127.73978295,137.80352783203125,1.94
2025-04-06 16:13:46.733,8.437093,-14.7661085,1.9860427,-0.1924224,-0.82207125,-3.777206,-52.425003,-218.77501,972.9563,0.113859594,-0.70534956,0.6896029,997.2358,37.8883715,127.73978295,137.80352783203125,1.94
2025-04-06 16:13:46.753,7.8221374,-14.081761,2.4478576,-0.05070178,-0.9130901,-4.210309,-55.331253,-219.61876,972.7125,0.14724128,-0.70175207,0.6829946,997.2358,37.8883715,127.73978295,137.80352783203125,1.94
2025-04-06 16:13:46.774,5.922236,-13.66541,2.0482562,0.041538805,-0.63209236,-4.377075,-58.537502,-220.63126,973.0313,0.18165146,-0.6956343,0.6758798,997.2597,37.8883715,127.73978295,137.80352783203125,1.94
2025-04-06 16:13:46.794,4.8598228,-13.014563,1.7228323,0.14905101,-0.1018617,-4.310491,-63.318752,-222.05626,973.7063,0.21327591,-0.6871969,0.66875225,997.2597,37.8883715,127.73978295,137.80352783203125,1.94
2025-04-06 16:13:46.813,4.3836513,-12.669996,1.4141582,0.2669479,0.21823144,-4.155942,-64.818756,-222.88126,973.8938,0.24084625,-0.6764214,0.6623884,997.2819,37.8883715,127.73978295,137.80352783203125,1.94
2025-04-06 16:13:46.833,4.2041893,-11.79183,1.1844472,0.45265082,0.36300638,-3.9568002,-67.55625,-224.56876,974.60626,0.26529214,-0.6636782,0.65689987,997.2819,37.8883715,127.73978295,137.80352783203125,1.94
2025-04-06 16:13:46.853,4.4817567,-11.124232,0.5599205,0.5888736,0.45036006,-3.8370707,-70.18125,-226.89375,974.5688,0.28799826,-0.6492287,0.65211713,997.2983,37.8883715,127.73978295,137.80352783203125,1.94
2025-04-06 16:13:46.873,4.1084766,-10.57149,-0.15074782,0.6365211,0.47845984,-3.790034,-72.76875,-230.175,974.8688,0.30954123,-0.63339686,0.64747757,997.2983,37.8883715,127.73978295,137.80352783203125,1.94
2025-04-06 16:13:46.893,3.979264,-10.468599,-1.0600204,0.5192351,0.32696536,-3.714287,-75.1125,-233.85,974.775,0.33569938,-0.6131548,0.6403623,997.3078,37.8883715,127.73978295,137.80352783203125,1.94
2025-04-06 16:13:46.913,3.9218364,-10.480563,-0.997807,0.3365865,0.13637556,-3.6703048,-76.818756,-237.6,974.5313,0.35117552,-0.6017952,0.6345249,997.3078,37.8883715,127.73978295,137.80352783203125,1.94
2025-04-06 16:13:46.934,3.0412776,-10.356136,-0.19860429,0.23518294,-0.23564109,-3.5487425,-79.162506,-243.00002,974.5125,0.3771911,-0.58467096,0.62189806,997.2907,37.8883715,127.73978295,137.80352783203125,1.94
2025-04-06 16:13:46.954,2.2348964,-10.114461,-0.05742774,0.24006985,-0.51602805,-3.352044,-80.25,-246.09377,974.04376,0.3983451,-0.5721591,0.61028945,997.2907,37.8883715,127.73978295,137.80352783203125,1.94
2025-04-06 16:13:46.973,1.416551,-9.755538,-0.2632105,0.24068072,-0.65591604,-3.0875397,-81.037506,-247.63126,973.98755,0.41934234,-0.56091106,0.5980347,997.2902,37.8883715,127.73978295,137.80352783203125,1.94
2025-04-06 16:13:46.993,0.4211368,-10.171889,-1.1509477,0.1178969,-0.457385,-2.6397758,-82.256256,-250.65001,974.06256,0.43819383,-0.55088127,0.58629775,997.2902,37.8883715,127.73978295,137.80352783203125,1.94
2025-04-06 16:13:47.014,-0.8470592,-10.064212,-1.18684,-0.073303774,-0.23441936,-2.0356305,-83.043755,-253.35,974.23126,0.45244014,-0.5426937,0.57613647,997.28534,37.8883715,127.73978295,137.80352783203125,1.94
2025-04-06 16:13:47.034,-0.94755775,-9.970892,-0.83988076,-0.18692462,-0.029168794,-1.347186,-83.7375,-255.80626,974.7188,0.46119472,-0.5372214,0.5684379,997.28534,37.8883715,127.73978295,137.80352783203125,1.94
2025-04-06 16:13:47.054,-0.40438703,-10.365707,-0.59342,-0.22968516,0.06918044,-0.68378675,-84.09375,-257.86877,975.2063,0.4655226,-0.5340348,0.5629134,997.2795,37.8883715,127.73978295,137.80352783203125,1.94
2025-04-06 16:13:47.073,-0.63888365,-10.116854,-0.2847459,-0.22785257,0.19318599,-0.10529782,-84.3375,-259.44376,975.48755,0.4648871,-0.53405255,0.5615461,997.2795,37.8883715,127.73978295,137.80352783203125,1.94
2025-04-06 16:13:47.093,-0.76570326,-10.3681,-0.20578274,-0.10567961,0.22678354,0.62040955,-84.525,-260.5125,975.35626,0.46069607,-0.5360989,0.56338334,997.2756,37.8883715,127.73978295,137.80352783203125,1.94
2025-04-06 16:13:47.113,-1.416551,-10.518848,-0.9619147,-0.06963859,0.24388777,1.2630392,-84.39375,-260.86877,975.2438,0.45336732,-0.5405342,0.56854874,997.2756,37.8883715,127.73978295,137.80352783203125,1.94
2025-04-06 16:13:47.133,-0.8279166,-10.334601,-1.5122639,-0.25045455,0.2536616,2.2208753,-84.4875,-260.83127,975.075,0.44152758,-0.5486166,0.5766393,997.27997,37.8883715,127.73978295,137.80352783203125,1.94
2025-04-06 16:13:47.154,1.1030912,-10.313066,-0.96909314,-0.4422661,0.25060728,2.8842745,-84.05625,-259.89377,974.5875,0.42456543,-0.56096643,0.5864788,997.27997,37.8883715,127.73978295,137.80352783203125,1.94
2025-04-06 16:13:47.175,3.6083765,-10.722239,0.076570325,-0.48319405,0.25854853,3.251404,-83.775,-258.30002,974.8313,0.3978466,-0.57960427,0.60000944,997.27484,37.8883715,127.73978295,137.80352783203125,1.94
2025-04-06 16:13:47.193,4.725825,-10.9375925,0.7465607,-0.34025168,0.0820086,3.31921,-83.71875,-256.05002,975.1313,0.38083503,-0.59084004,0.6082852,997.27484,37.8883715,127.73978295,137.80352783203125,1.94
2025-04-06 16:13:47.213,5.2331033,-11.267802,0.3469593,-0.06902772,-0.14828743,3.3295949,-83.137505,-253.50002,975.16876,0.35963276,-0.60485303,0.61911076,997.27094,37.8883715,127.73978295,137.80352783203125,1.94
2025-04-06 16:13:47.234,4.7042894,-11.569298,-1.1988041,0.0097738365,-0.13545926,3.4499352,-82.55625,-250.57501,975.30005,0.3345626,-0.6204621,0.6326744,997.27094,37.8883715,127.73978295,137.80352783203125,1.94
2025-04-06 16:13:47.255,4.7162533,-11.334801,-2.4215364,-0.19792019,-0.10491603,3.7064984,-81.506256,-247.66876,975.16876,0.31278223,-0.63297206,0.64289576,997.25824,37.8883715,127.73978295,137.80352783203125,1.94
2025-04-06 16:13:47.273,5.4556355,-11.217552,-2.861816,-0.6071996,-0.10980295,3.8695993,-80.325005,-244.74376,974.41876,0.2886954,-0.64704293,0.65092355,997.25824,37.8883715,127.73978295,137.80352783203125,1.94
2025-04-06 16:13:47.293,6.8171515,-11.229517,-2.158326,-1.0366375,0.03008509,3.911138,-79.068756,-241.425,973.9313,0.26218176,-0.6630091,0.655629,997.24677,37.8883715,127.73978295,137.80352783203125,1.94
2025-04-06 16:13:47.314,7.743174,-11.07159,-0.3493521,-1.2687662,0.16264275,3.748037,-77.68125,-237.95625,973.7438,0.23384792,-0.67964935,0.65722287,997.24677,37.8883715,127.73978295,137.80352783203125,1.94
2025-04-06 16:13:47.333,7.6139617,-11.181661,0.6436693,-1.2308925,0.16630794,3.6154795,-76.05,-234.52501,973.0688,0.19838868,-0.6988194,0.6568287,997.2431,37.8883715,127.73978295,137.80352783203125,1.94
2025-04-06 16:13:47.354,7.192825,-11.375479,0.91884387,-1.0903937,0.10766492,3.6154795,-74.08125,-231.65627,973.2563,0.17080246,-0.71207607,0.6560628,997.2431,37.8883715,127.73978295,137.80352783203125,1.94
2025-04-06 16:13:47.374,8.477771,-11.444871,0.8039884,-1.0372484,0.24022257,3.6869507,-71.25,-227.94376,973.98755,0.14300527,-0.72372234,0.6552908,997.2526,37.8883715,127.73978295,137.80352783203125,1.94
2025-04-06 16:13:47.394,9.896714,-10.8969145,1.1844472,-1.0855067,0.62934345,3.4804785,-69.131256,-225.84377,974.7563,0.10678156,-0.736224,0.6534674,997.2526,37.88836521,127.73977122,137.0987548828125,1.42
2025-04-06 16:13:47.413,9.784252,-9.865608,2.2827528,-1.0610721,0.8633047,3.270341,-67.912506,-224.88751,975.1313,0.08478469,-0.74255294,0.6516789,997.2563,37.88836521,127.73977122,137.0987548828125,1.42
2025-04-06 16:13:47.433,9.851251,-9.068798,3.7088752,-0.7629701,1.0074687,3.0076692,-65.100006,-222.71251,975.93756,0.055859134,-0.7487751,0.6497271,997.2563,37.88836521,127.73977122,137.0987548828125,1.42
2025-04-06 16:13:47.453,10.291531,-9.135797,3.4313076,-0.13194679,0.6036871,2.7333908,-62.081253,-220.78127,976.31256,0.02982512,-0.75135136,0.6501917,997.27167,37.88836521,127.73977122,137.0987548828125,1.42
2025-04-06 16:13:47.473,10.679168,-9.3104725,1.6893328,0.35307986,0.13271037,2.5507421,-59.081253,-219.16876,976.80005,0.009019688,-0.7503857,0.653782,997.27167,37.88836521,127.73977122,137.0987548828125,1.42
2025-04-06 16:13:47.493,11.894721,-9.336794,-0.33499518,0.53511757,-0.23991714,2.2880704,-56.456253,-218.11876,977.1938,-0.010529291,-0.7463183,0.6607155,997.2719,37.88836521,127.73977122,137.0987548828125,1.42
2025-04-06 16:13:47.515,12.713067,-9.255438,-0.9499506,0.4477639,-0.33643377,1.9453752,-54.018753,-217.50002,976.8938,-0.021796,-0.7429043,0.6657681,997.2719,37.88836521,127.73977122,137.0987548828125,1.42
2025-04-06 16:13:47.534,13.318451,-9.590433,-0.62931234,0.37079492,-0.15134175,1.5031091,-51.73125,-216.99376,976.7063,-0.030467262,-0.7400235,0.6696171,997.268,37.88836521,127.73977122,137.0987548828125,1.42
2025-04-06 16:13:47.553,13.749159,-10.200603,-0.5838487,0.3506364,-0.007788526,1.0761147,-49.93125,-216.84377,976.275,-0.037283763,-0.7373006,0.6728048,997.268,37.88836521,127.73977122,137.0987548828125,1.42
2025-04-06 16:13:47.573,14.409578,-10.875379,-1.0767702,0.27427828,0.067958705,0.56848603,-48.225002,-216.675,975.8813,-0.041520286,-0.7348371,0.6754632,997.2658,37.88836521,127.73977122,137.0987548828125,1.42
2025-04-06 16:13:47.593,14.591433,-11.863615,-1.2729816,0.07269291,0.052076224,-0.014278964,-47.1375,-216.52501,975.6188,-0.042284176,-0.73342097,0.676894,997.2658,37.88836521,127.73977122,137.0987548828125,1.42
2025-04-06 16:13:47.613,13.849657,-11.444871,0.076570325,-0.074525505,-0.13362667,-0.5939896,-46.331253,-216.4125,975.1313,-0.037033297,-0.7337118,0.6765039,997.2602,37.88836521,127.73977122,137.0987548828125,1.42
2025-04-06 16:13:47.633,13.586447,-10.691132,1.6893328,-0.018936807,-0.39568767,-1.125442,-45.600002,-216.24376,975.2813,-0.027481887,-0.73434865,0.67576826,997.2602,37.88836521,127.73977122,137.0987548828125,1.42
2025-04-06 16:13:47.653,13.301702,-10.918449,2.7158537,0.22357652,-0.6498074,-1.789452,-45.693752,-216.09377,975.0563,-0.01194855,-0.73396826,0.6758967,997.269,37.88836521,127.73977122,137.0987548828125,1.42
2025-04-06 16:13:47.673,12.134004,-11.880364,2.5914268,0.50152,-0.8355103,-2.4510186,-46.331253,-215.94376,975.11255,0.0098340055,-0.73158383,0.67738664,997.269,37.88836521,127.73977122,137.0987548828125,1.42
2025-04-06 16:13:47.694,10.298709,-13.16531,1.9357935,0.72265303,-0.98517215,-3.00996,-48.037502,-216.52501,974.9438,0.03667181,-0.7271328,0.679646,997.29193,37.88836521,127.73977122,137.0987548828125,1.42
2025-04-06 16:13:47.713,9.097511,-14.0697975,1.2801601,0.7806852,-1.1433861,-3.3123379,-50.456253,-216.90001,974.3813,0.06719046,-0.72107613,0.6817461,997.29193,37.88836521,127.73977122,137.0987548828125,1.42
2025-04-06 16:13:47.733,8.626125,-14.490934,0.5694918,0.66095567,-1.058476,-3.470552,-53.437504,-217.83751,974.1375,0.10757318,-0.71243477,0.68257475,997.2956,37.88836521,127.73977122,137.0987548828125,1.42
2025-04-06 16:13:47.754,9.303294,-14.014762,0.96430755,0.48685923,-0.95096374,-3.6629744,-56.41875,-219.01875,973.7813,0.13161395,-0.70722705,0.6814674,997.2956,37.88836521,127.73977122,137.0987548828125,1.42
2025-04-06 16:13:47.774,8.748159,-13.55534,1.6486548,0.433714,-1.0016655,-4.1357837,-59.4,-219.82501,973.85626,0.17321521,-0.69755864,0.6770729,997.29486,37.88836521,127.73977122,137.0987548828125,1.42
2025-04-06 16:13:47.794,6.9726853,-13.457234,1.9549361,0.49418962,-1.0352631,-4.350808,-62.456253,-221.1,974.0813,0.2090645,-0.6880243,0.67167825,997.29486,37.88836521,127.73977122,137.0987548828125,1.42
2025-04-06 16:13:47.814,6.005985,-12.847065,1.3016955,0.56321734,-0.88865554,-4.35936,-66.506256,-223.18126,974.7,0.24466465,-0.6765903,0.6655632,997.309,37.88836521,127.73977122,137.0987548828125,1.42
2025-04-06 16:13:47.834,5.515456,-12.440285,0.4546363,0.54733485,-0.5905535,-4.3153777,-68.381256,-224.40001,975.2063,0.2785298,-0.66357636,0.658857,997.309,37.88836521,127.73977122,137.0987548828125,1.42
2025-04-06 16:13:47.854,5.3336015,-11.789437,-0.37328035,0.39950556,0.16203189,-4.17549,-71.568756,-226.95001,975.67505,0.3077739,-0.6491932,0.6521248,997.30853,37.88836521,127.73977122,137.0987548828125,1.42
2025-04-06 16:13:47.874,5.0344987,-11.330015,-0.39720857,0.28344125,0.5028944,-4.133951,-74.45625,-230.1,976.05005,0.3318152,-0.63373935,0.6453747,997.30853,37.88836521,127.73977122,137.0987548828125,1.42
2025-04-06 16:13:47.895,4.4721856,-10.963913,-0.2321038,0.23518294,0.38805184,-4.115625,-78.037506,-235.6125,976.50006,0.358936,-0.6134821,0.63571846,997.3122,37.88836521,127.73977122,137.0987548828125,1.42
2025-04-06 16:13:47.913,3.940979,-10.877771,0.023928227,0.23090689,0.055130545,-4.088136,-78.731255,-237.39375,976.5188,0.37548602,-0.60130936,0.6286642,997.3122,37.88836521,127.73977122,137.0987548828125,1.42
2025-04-06 16:13:47.933,2.536392,-10.872986,0.083748795,0.2614501,-0.6070469,-3.908542,-79.875,-241.05,976.7813,0.4053907,-0.5821877,0.61407775,997.30927,37.88836521,127.73977122,137.0987548828125,1.42
2025-04-06 16:13:47.953,1.7084754,-11.026127,-0.1052842,0.21624613,-1.0383174,-3.6330419,-81.1125,-244.725,976.9313,0.42452362,-0.5722191,0.6036922,997.30927,37.88836521,127.73977122,137.0987548828125,1.42
2025-04-06 16:13:47.974,0.86141616,-10.657632,-0.0023928226,0.034208428,-0.8147409,-2.942154,-83.0625,-250.27501,977.36255,0.45978653,-0.5563856,0.58177435,997.29315,37.88836521,127.73977122,137.0987548828125,1.42
2025-04-06 16:13:47.994,1.1413764,-10.518848,0.09810573,-0.032375835,-0.3339903,-2.4809508,-83.5875,-252.07501,977.4563,0.47263968,-0.54950774,0.57282615,997.29315,37.88836521,127.73977122,137.0987548828125,1.42
2025-04-06 16:13:48.013,1.1006985,-10.499705,0.11964113,-0.029932374,0.05329795,-2.0502913,-84.58125,-255.28127,977.85004,0.48463437,-0.5406267,0.5640617,997.2846,37.88836521,127.73977122,137.0987548828125,1.42
2025-04-06 16:13:48.034,0.72023964,-10.889736,-0.37088752,0.06536253,0.077121675,-1.4876848,-85.51875,-258.95627,978.0938,0.4945006,-0.5305998,0.5570842,997.2846,37.88836521,127.73977122,137.0987548828125,1.42
2025-04-06 16:13:48.053,0.38285163,-10.985449,-0.79441714,0.08429934,0.04291325,-1.1486548,-85.818756,-259.93127,978.3938,0.4988962,-0.52598983,0.5543166,997.26996,37.88836521,127.73977122,137.0987548828125,1.42
2025-04-06 16:13:48.073,-0.69152576,-10.076176,-1.1318051,0.02932151,0.12110394,-0.6153699,-85.65,-261.45,978.67505,0.5026845,-0.52190477,0.55213237,997.26996,37.88836521,127.73977122,137.0987548828125,1.42
2025-04-06 16:13:48.093,-1.1653047,-10.351351,-1.7802601,-0.05986475,0.3611738,0.09078978,-85.59375,-262.46252,978.35626,0.5021339,-0.5204425,0.5528715,997.2585,37.88836521,127.73977122,137.0987548828125,1.42
2025-04-06 16:13:48.113,-1.9764715,-10.51167,-2.1655045,-0.21013749,0.49250972,0.8543708,-85.5,-263.55002,978.3375,0.49619928,-0.52281517,0.5569154,997.2585,37.88836521,127.73977122,137.0987548828125,1.42
2025-04-06 16:13:48.133,-1.134198,-10.602597,-2.2755744,-0.4630355,0.52671814,1.8555782,-85.36875,-263.96252,977.775,0.48485035,-0.52988774,0.5636508,997.248,37.88836521,127.73977122,137.0987548828125,1.42
2025-04-06 16:13:48.156,0.92602235,-10.518848,-0.9762716,-0.718377,0.62934345,2.6857433,-85.33125,-263.36252,977.47504,0.46277827,-0.54534304,0.57474893,997.248,37.88836521,127.73977122,137.0987548828125,1.42
2025-04-06 16:13:48.174,2.7014968,-10.748559,-0.2416751,-0.7458659,0.6837104,3.0376015,-85.40625,-262.98752,977.3813,0.4399525,-0.56048703,0.58533,997.2365,37.88836521,127.73977122,137.0987548828125,1.42
2025-04-06 16:13:48.193,3.871587,-11.102697,0.35653058,-0.6395754,0.5603157,3.1915393,-85.36875,-261.1875,977.0063,0.42145595,-0.57216513,0.59373266,997.2365,37.88836521,127.73977122,137.0987548828125,1.42
2025-04-06 16:13:48.213,4.261617,-11.655439,0.19142582,-0.35491243,0.22495095,3.3198211,-85.18125,-258.7875,976.575,0.39159426,-0.59100366,0.6076792,997.23773,37.88836521,127.73977122,137.0987548828125,1.42
2025-04-06 16:13:48.233,4.0510488,-12.110075,-0.89013004,-0.23396121,0.035582874,3.5354562,-84.84375,-255.82501,976.2188,0.368923,-0.6055265,0.61877674,997.23773,37.88836521,127.73977122,137.0987548828125,1.42
2025-04-06 16:13:48.253,3.9696927,-11.73201,-1.7563318,-0.37995788,0.099723674,3.9190793,-83.64375,-252.35626,975.86255,0.34506595,-0.6206504,0.62939155,997.23773,37.88836521,127.73977122,137.0987548828125,1.42
2025-04-06 16:13:48.273,4.6612186,-11.399407,-1.5816557,-0.6365211,0.30863944,4.200077,-82.350006,-248.98126,975.7125,0.31720868,-0.6367348,0.63920224,997.23773,37.88836521,127.73977122,137.0987548828125,1.42
2025-04-06 16:13:48.294,5.493921,-11.219945,-0.15074782,-0.844826,0.37766716,4.412658,-81.05625,-245.11876,975.3188,0.28537226,-0.653436,0.64750576,997.2319,37.88836521,127.73977122,137.0987548828125,1.42
2025-04-06 16:13:48.314,6.4343,-11.442478,1.1150553,-0.79534596,0.16081016,4.498179,-80.100006,-241.87502,975.075,0.25226548,-0.6696593,0.6542942,997.2319,37.88836521,127.73977122,137.0987548828125,1.42
2025-04-06 16:13:48.334,7.5326056,-11.394622,1.7682959,-0.59559315,-0.12812889,4.4603057,-78.356255,-238.48126,975.075,0.21261129,-0.6875896,0.66140395,997.2297,37.88836521,127.73977122,137.0987548828125,1.42
2025-04-06 16:13:48.353,7.8460655,-11.667403,1.5840486,-0.34269515,-0.15378521,4.4566402,-76.14375,-234.82501,974.41876,0.19027111,-0.6964508,0.66537935,997.2297,37.88836521,127.73977122,137.0987548828125,1.42
2025-04-06 16:13:48.373,9.556933,-12.117254,-0.031106694,-0.17837252,0.022143848,4.5562115,-73.8,-231.93752,974.3063,0.1526863,-0.70758617,0.6726364,997.2365,37.88836521,127.73977122,137.0987548828125,1.42
2025-04-06 16:13:48.393,11.521441,-11.722438,-1.3830515,-0.42699447,0.6189587,4.4016623,-70.350006,-228.71251,973.72504,0.12051711,-0.714688,0.67715186,997.2365,37.88835503,127.7397525,137.6966552734375,1.99
2025-04-06 16:13:48.413,12.914063,-10.581061,-0.5814559,-0.87659097,1.1607958,3.8830383,-67.443756,-226.1625,973.0875,0.085942,-0.721948,0.67808443,997.2341,37.88835503,127.7397525,137.6966552734375,1.99
2025-04-06 16:13:48.434,13.196417,-9.255438,1.9405792,-0.9645555,1.0764965,3.1958156,-64.537506,-224.25002,973.53754,0.05313889,-0.7292438,0.67558473,997.2341,37.88835503,127.7397525,137.6966552734375,1.99
2025-04-06 16:13:48.454,12.531212,-9.276974,2.6823542,-0.54916745,0.49739665,2.484158,-59.568752,-221.15627,973.87506,0.021952251,-0.73553884,0.6721675,997.2275,37.88835503,127.7397525,137.6966552734375,1.99
2025-04-06 16:13:48.473,11.581262,-9.3200445,1.8257236,-0.20647229,0.15042545,2.1756713,-57.937504,-220.18126,974.0813,0.008823144,-0.7371595,0.6716095,997.2275,37.88835503,127.7397525,137.6966552734375,1.99
2025-04-06 16:13:48.493,11.875579,-9.71486,0.19621146,-0.08918626,0.18585561,1.8885648,-54.975002,-218.86876,974.60626,-0.008682657,-0.73764056,0.67237586,997.2441,37.88835503,127.7397525,137.6966552734375,1.99
2025-04-06 16:13:48.514,12.169896,-10.124033,0.25124636,-0.14110976,0.29642212,1.5721369,-52.10625,-217.6125,974.5313,-0.020921532,-0.7378909,0.6724685,997.2441,37.88835503,127.7397525,137.6966552734375,1.99
2025-04-06 16:13:48.533,12.813565,-11.172089,0.2440679,-0.10384701,0.2328922,1.2514329,-50.456253,-217.29376,974.8313,-0.028751185,-0.73804575,0.672303,997.24066,37.88835503,127.7397525,137.6966552734375,1.99
2025-04-06 16:13:48.553,13.873586,-11.992827,0.019142581,-0.028710645,-0.07864884,0.7841213,-48.656254,-217.06876,974.62506,-0.036637854,-0.73799497,0.672302,997.24066,37.88835503,127.7397525,137.6966552734375,1.99
2025-04-06 16:13:48.573,14.419149,-12.174682,-0.57427746,-0.1301142,-0.28878632,0.18852814,-47.325,-216.73126,974.6438,-0.03718013,-0.7380818,0.6723203,997.2421,37.88835503,127.7397525,137.6966552734375,1.99
2025-04-06 16:13:48.594,13.933406,-11.767901,0.53599226,-0.3103193,-0.13790272,-0.32215482,-46.7625,-216.80626,974.5688,-0.033390786,-0.73942524,0.67100096,997.2421,37.88835503,127.7397525,137.6966552734375,1.99
2025-04-06 16:13:48.613,13.452449,-10.894522,2.5531418,-0.24373505,0.11071924,-0.8206205,-45.99375,-216.39375,974.5875,-0.027560169,-0.7413415,0.6687866,997.24774,37.88835503,127.7397525,137.6966552734375,1.99
2025-04-06 16:13:48.633,12.839887,-10.480563,3.5772698,0.10873393,0.10461059,-1.3844486,-46.331253,-216.09377,974.8688,-0.019251093,-0.74182755,0.66774344,997.24774,37.88835503,127.7397525,137.6966552734375,1.99
2025-04-06 16:13:48.653,12.040684,-10.829915,3.2685957,0.5552761,-0.2612974,-2.0576217,-46.96875,-216.09377,974.8875,-0.0016741285,-0.7387617,0.66981727,997.2734,37.88835503,127.7397525,137.6966552734375,1.99
2025-04-06 16:13:48.673,11.248659,-12.126825,2.3784657,0.79229164,-0.47571096,-2.657491,-47.775,-215.96251,975.22504,0.019490127,-0.7337679,0.67325944,997.2734,37.88835503,127.7397525,137.6966552734375,1.99
2025-04-06 16:13:48.694,9.643075,-13.6606245,1.7898313,0.90102553,-0.57467103,-3.167563,-49.143753,-216.4125,975.18756,0.04531604,-0.72726303,0.6766852,997.2968,37.88835503,127.7397525,137.6966552734375,1.99
2025-04-06 16:13:48.713,8.46102,-14.617754,1.0695918,0.9285145,-0.65897036,-3.4442847,-51.131252,-217.05,974.85004,0.07392849,-0.71951354,0.6794272,997.2968,37.88835503,127.7397525,137.6966552734375,1.99
2025-04-06 16:13:48.733,7.2765737,-14.5100765,0.55752766,0.8289435,-0.84161896,-3.5548513,-53.850002,-217.96877,974.85004,0.104339436,-0.71112883,0.6807794,997.299,37.88835503,127.7397525,137.6966552734375,1.99
2025-04-06 16:13:48.753,7.2646093,-13.799408,0.5383851,0.63041246,-1.1501057,-3.6116617,-56.850002,-219.15001,974.1375,0.13614355,-0.70307255,0.6799168,997.299,37.88835503,127.7397525,137.6966552734375,1.99
2025-04-06 16:13:48.773,7.5230346,-12.937992,1.3974084,0.45875946,-1.4207188,-3.7338345,-59.925003,-220.55626,973.5938,0.1699023,-0.69574624,0.6762579,997.29144,37.88835503,127.7397525,137.6966552734375,1.99
2025-04-06 16:13:48.793,8.195417,-12.447463,2.2420747,0.5070178,-1.4524838,-4.004448,-62.718754,-221.925,973.48126,0.2054813,-0.68799126,0.6704696,997.29144,37.88835503,127.7397525,137.6966552734375,1.99
2025-04-06 16:13:48.813,7.1569324,-12.074183,1.7850457,0.64324063,-1.2496766,-4.342256,-65.55,-223.425,973.4625,0.25189248,-0.6749063,0.6619751,997.29974,37.88835503,127.7397525,137.6966552734375,1.99
2025-04-06 16:13:48.833,6.407979,-11.830115,1.0719845,0.6591231,-1.0364848,-4.459542,-68.5875,-225.45001,974.3813,0.28846774,-0.66151285,0.6545203,997.29974,37.88835503,127.7397525,137.6966552734375,1.99
2025-04-06 16:13:48.854,5.706882,-11.674582,0.37088752,0.64751667,-0.9167553,-4.4479356,-71.775,-227.86876,975.1313,0.32381266,-0.6464038,0.64609295,997.3049,37.88835503,127.7397525,137.6966552734375,1.99
2025-04-06 16:13:48.873,5.3718867,-11.018949,-0.16510476,0.5412262,-0.5581777,-4.287278,-74.981255,-231.18752,975.9563,0.35675108,-0.63039255,0.636919,997.3049,37.88835503,127.7397525,137.6966552734375,1.99
2025-04-06 16:13:48.893,4.776074,-10.612168,-0.6771688,0.3451386,0.1375973,-4.092412,-77.850006,-234.95625,976.80005,0.39110753,-0.6093269,0.62561715,997.2985,37.88835503,127.7397525,137.6966552734375,1.99
2025-04-06 16:13:48.913,3.8955152,-10.303494,-0.74177504,0.19486587,0.5676461,-3.885329,-80.043755,-238.76251,977.3063,0.40723503,-0.5961858,0.6194354,997.2985,37.88835503,127.7397525,137.6966552734375,1.99
2025-04-06 16:13:48.933,3.022135,-10.112068,-0.33499518,0.09773836,0.7832814,-3.5279732,-81.8625,-242.71877,978.075,0.42804974,-0.57445604,0.6100335,997.2863,37.88835503,127.7397525,137.6966552734375,1.99
2025-04-06 16:13:48.953,2.9048867,-9.9038925,0.0741775,0.15332706,0.52977246,-3.2732425,-82.70625,-246.28127,978.075,0.4418439,-0.5579152,0.60286576,997.2863,37.88835503,127.7397525,137.6966552734375,1.99
2025-04-06 16:13:48.973,2.0961127,-9.724431,0.16271193,0.28893903,-0.019394957,-3.0148468,-83.15625,-249.82501,977.92505,0.4565917,-0.5427588,0.59478945,997.2778,37.88835503,127.7397525,137.6966552734375,1.99
2025-04-06 16:13:48.993,1.3998013,-9.547362,-0.36610186,0.39522952,-0.457385,-2.6666539,-83.700005,-253.18126,977.6438,0.4730066,-0.52978325,0.5856881,997.2778,37.88835503,127.7397525,137.6966552734375,1.99
2025-04-06 16:13:49.014,0.6843473,-9.54497,-1.6558332,0.28893903,-0.4017963,-2.1345906,-83.850006,-256.25626,976.95,0.48861426,-0.51908886,0.5768418,997.268,37.88835503,127.7397525,137.6966552734375,1.99
2025-04-06 16:13:49.033,0.36131623,-9.568898,-1.8113668,0.043982264,-0.10613775,-1.6159664,-84.3375,-259.25626,976.85626,0.50010055,-0.51101756,0.56946,997.268,37.88835503,127.7397525,137.6966552734375,1.99
2025-04-06 16:13:49.053,-0.6987042,-9.188439,-1.3998013,-0.12034036,0.18035783,-1.05336,-84.5625,-261.4125,976.65,0.5062713,-0.50540435,0.56442165,997.2492,37.88835503,127.7397525,137.6966552734375,1.99
2025-04-06 16:13:49.074,-1.2323036,-9.683753,-1.442872,-0.2376264,0.26648977,-0.3099375,-84.46875,-263.21252,976.5563,0.50733244,-0.50229764,0.56203043,997.2492,37.88835503,127.7397525,137.6966552734375,1.99
2025-04-06 16:13:49.093,-1.6486548,-10.332209,-1.6199409,-0.3103193,0.28237224,0.44509134,-84.543755,-264.6375,976.7625,0.503699,-0.504107,0.563011,997.2343,37.88835503,127.7397525,137.6966552734375,1.99
2025-04-06 16:13:49.113,-0.86859465,-9.970892,-1.3136597,-0.50152,0.32696536,1.3668863,-84.506256,-265.35,976.7063,0.49554688,-0.51036793,0.56676036,997.2343,37.88835503,127.7397525,137.6966552734375,1.99
2025-04-06 16:13:49.133,1.0671989,-9.839287,-0.27517462,-0.6365211,0.46318823,1.9808054,-84.7125,-265.2,976.61255,0.4823478,-0.52073574,0.5729626,997.2214,37.88835503,127.7397525,137.6966552734375,1.99
2025-04-06 16:13:49.154,2.833102,-10.291531,0.47856453,-0.61330825,0.5865829,2.3198354,-84.80625,-264.33752,976.48126,0.4650863,-0.53304654,0.58128434,997.2214,37.88835503,127.7397525,137.6966552734375,1.99
2025-04-06 16:13:49.173,3.574877,-10.966306,0.65084773,-0.4544834,0.54809844,2.4707189,-84.825005,-262.85626,976.10626,0.4458839,-0.54545265,0.59106076,997.2233,37.88835503,127.7397525,137.6966552734375,1.99
2025-04-06 16:13:49.193,2.8354948,-11.581262,-0.11485548,-0.24740024,0.39477137,2.6765804,-84.412506,-261.0,975.9938,0.42669603,-0.5573562,0.6016359,997.2233,37.88835503,127.7397525,137.6966552734375,1.99
2025-04-06 16:13:49.214,1.8305093,-12.303894,-1.5074782,-0.17226386,0.050854493,3.1567202,-83.981255,-258.71252,975.8813,0.4026819,-0.5733002,0.6154687,997.2297,37.88835503,127.7397525,137.6966552734375,1.99
2025-04-06 16:13:49.233,2.115255,-12.335001,-2.1678972,-0.31398448,-0.07315106,3.6765661,-83.606255,-256.29376,975.5813,0.38721436,-0.5848437,0.6262288,997.2297,37.88835503,127.7397525,137.6966552734375,1.99
2025-04-06 16:13:49.253,4.398008,-11.868401,-1.8687944,-0.5729912,0.031306818,4.1951904,-82.875,-253.18126,975.3375,0.35630417,-0.60723305,0.6365047,997.21454,37.88835503,127.7397525,137.6966552734375,1.99
2025-04-06 16:13:49.273,6.151947,-11.334801,-1.3567305,-0.79534596,0.2695441,4.332635,-81.9375,-249.54376,974.775,0.32724002,-0.62603045,0.6456142,997.21454,37.88835503,127.7397525,137.6966552734375,1.99
2025-04-06 16:13:49.294,6.8315086,-11.181661,-0.5312066,-0.98410314,0.5713113,4.290485,-81.3,-245.81252,974.1563,0.29527614,-0.6440252,0.65317535,997.2099,37.88835503,127.7397525,137.6966552734375,1.99
2025-04-06 16:13:49.313,6.546763,-11.339586,0.2727818,-1.0622939,0.60857403,4.2611637,-80.006256,-241.76251,974.43756,0.2614967,-0.66069245,0.65917474,997.2099,37.88835503,127.7397525,137.6966552734375,1.99
2025-04-06 16:13:49.333,6.8913293,-11.507084,1.3351951,-1.0140356,0.42592546,4.395554,-77.625,-237.71251,974.2125,0.21886268,-0.68012947,0.6645979,997.21014,37.88835503,127.7397525,137.6966552734375,1.99
2025-04-06 16:13:49.353,8.269595,-11.320444,1.416551,-0.8637628,0.4809033,4.38578,-74.625,-232.38751,973.4625,0.18489437,-0.69372237,0.6682402,997.21014,37.88835503,127.7397525,137.6966552734375,1.99
2025-04-06 16:13:49.374,9.49472,-11.052447,1.3950156,-0.8155045,0.5371029,4.1988554,-73.125,-230.77501,973.42505,0.15116845,-0.70490754,0.67124486,997.22186,37.88835503,127.7397525,137.6966552734375,1.99
2025-04-06 16:13:49.393,10.035499,-11.23191,1.3447664,-0.75808316,0.51633346,3.8958664,-70.443756,-228.18752,972.54376,0.11925392,-0.71402156,0.6730607,997.22186,37.88834884,127.73973622,137.69647216796875,1.68
2025-04-06 16:13:49.413,10.724631,-10.820344,1.5050855,-0.71226835,0.5371029,3.5629451,-68.025,-225.82501,972.2063,0.08985289,-0.7214171,0.6737503,997.23114,37.88834884,127.73973622,137.69647216796875,1.68
2025-04-06 16:13:49.434,10.643275,-10.241281,1.3974084,-0.70677054,0.7392991,3.0974662,-65.381256,-223.93126,972.8813,0.06251498,-0.72718805,0.6735408,997.23114,37.88834884,127.73973622,137.69647216796875,1.68
2025-04-06 16:13:49.454,9.84168,-10.092926,2.0985055,-0.7061597,0.6672171,2.7761514,-62.531254,-222.31876,973.4063,0.037208397,-0.7320169,0.67219716,997.238,37.88834884,127.73973622,137.69647216796875,1.68
2025-04-06 16:13:49.473,9.4229355,-10.765309,2.7014968,-0.42271844,0.3666716,2.713843,-59.737503,-220.55626,973.85626,0.014709902,-0.7356583,0.6708303,997.238,37.88834884,127.73973622,137.69647216796875,1.68
2025-04-06 16:13:49.493,11.755938,-11.021341,2.0051854,-0.05070178,-0.030390523,2.7175083,-57.187504,-219.50626,974.47504,-0.009869391,-0.7369239,0.67177606,997.2487,37.88834884,127.73973622,137.69647216796875,1.68
2025-04-06 16:13:49.513,14.244473,-10.748559,1.5194423,0.2131918,-0.17455462,2.4554474,-54.206253,-218.30626,974.47504,-0.02197089,-0.73612416,0.6735731,997.2487,37.88834884,127.73973622,137.69647216796875,1.68
2025-04-06 16:13:49.533,16.347765,-10.502099,-0.43788654,0.31276277,0.11071924,1.7413464,-51.6375,-217.63126,974.66254,-0.037625823,-0.7327505,0.6777794,997.2629,37.88834884,127.73973622,137.69647216796875,1.68
2025-04-06 16:13:49.553,16.266409,-10.899307,-1.430908,0.028099779,0.4094321,0.9710459,-49.3875,-217.46251,974.6813,-0.04640119,-0.7308836,0.67952996,997.2629,37.88834884,127.73973622,137.69647216796875,1.68
2025-04-06 16:13:49.573,15.096318,-12.074183,-1.012164,-0.41294459,0.54565495,0.23067781,-47.49375,-217.31252,974.10004,-0.051687606,-0.73160416,0.67823523,997.2568,37.88834884,127.73973622,137.69647216796875,1.68
2025-04-06 16:13:49.593,14.139189,-12.0023985,0.6843473,-0.6194169,0.46746427,-0.19326234,-46.0125,-217.27501,974.10004,-0.053380735,-0.7347334,0.67429477,997.2568,37.88834884,127.73973622,137.69647216796875,1.68
2025-04-06 16:13:49.614,13.66541,-10.727024,3.2542388,-0.4978548,0.2988656,-0.7265473,-45.112503,-216.95625,974.17505,-0.05126729,-0.7383892,0.6698069,997.25433,37.88834884,127.73973622,137.69647216796875,1.68
2025-04-06 16:13:49.634,13.232309,-10.358529,4.625326,-0.05131264,0.056963142,-1.4357613,-44.25,-216.56252,974.4,-0.041543562,-0.7406769,0.6666735,997.25433,37.88834884,127.73973622,137.69647216796875,1.68
2025-04-06 16:13:49.653,12.081362,-11.215159,4.4985065,0.45203993,-0.13607013,-2.0447936,-44.23125,-216.05626,975.18756,-0.026949687,-0.73929733,0.66737497,997.2707,37.88834884,127.73973622,137.69647216796875,1.68
2025-04-06 16:13:49.674,10.863415,-12.1866455,3.278167,0.8393282,-0.29550585,-2.5279875,-44.90625,-215.98126,975.3938,-0.0071635987,-0.73486096,0.67062676,997.2707,37.88834884,127.73973622,137.69647216796875,1.68
2025-04-06 16:13:49.694,9.58804,-12.866207,2.2301106,1.0158682,-0.39080074,-2.9213843,-45.975002,-216.20625,975.3188,0.016445719,-0.7284109,0.6747714,997.30365,37.88834884,127.73973622,137.69647216796875,1.68
2025-04-06 16:13:49.714,8.980264,-13.347165,1.7012969,1.0549635,-0.42928523,-3.2378125,-47.8875,-216.65627,974.8313,0.04248184,-0.7207425,0.6784967,997.30365,37.88834884,127.73973622,137.69647216796875,1.68
2025-04-06 16:13:49.733,8.465807,-13.708481,1.3591232,1.0225877,-0.5422952,-3.5554621,-50.662502,-217.59377,974.4,0.07079691,-0.7122191,0.6810375,997.3088,37.88834884,127.73973622,137.69647216796875,1.68
2025-04-06 16:13:49.754,8.051848,-13.677374,1.7156538,1.007316,-0.7182243,-3.849288,-53.643753,-218.68126,973.48126,0.101760104,-0.7031439,0.68179935,997.3088,37.88834884,127.73973622,137.69647216796875,1.68
2025-04-06 16:13:49.773,7.0301127,-13.464413,1.8065811,1.043968,-0.8581123,-4.0985208,-56.41875,-219.61876,972.9563,0.13534924,-0.69290763,0.68104637,997.30536,37.88834884,127.73973622,137.69647216796875,1.68
2025-04-06 16:13:49.793,6.24766,-12.806387,1.4261223,1.084285,-0.6192642,-4.111349,-59.531254,-221.19376,972.3375,0.17012258,-0.6812404,0.67904395,997.30536,37.88834884,127.73973622,137.69647216796875,1.68
2025-04-06 16:13:49.814,6.7645097,-12.117254,0.5096712,0.9615012,0.20418155,-4.1107383,-63.018753,-223.2375,971.8688,0.20854604,-0.66398114,0.6759722,997.31,37.88834884,127.73973622,137.69647216796875,1.68
2025-04-06 16:13:49.833,7.1545396,-11.722438,0.36610186,0.8411608,0.6824887,-4.1626616,-64.59375,-224.13751,972.2438,0.23416024,-0.6484019,0.6725284,997.31,37.88834884,127.73973622,137.69647216796875,1.68
2025-04-06 16:13:49.853,6.8985076,-11.229517,0.20338993,0.84238255,0.8016073,-4.2402415,-67.856255,-226.59377,971.8875,0.25711763,-0.6312575,0.6681152,997.30316,37.88834884,127.73973622,137.69647216796875,1.68
2025-04-06 16:13:49.873,6.3218374,-11.08834,-0.076570325,0.8429934,0.78511393,-4.246961,-69.8625,-229.1625,971.6438,0.27945352,-0.61282986,0.6625914,997.30316,37.88834884,127.73973622,137.69647216796875,1.68
2025-04-06 16:13:49.893,4.871787,-10.693524,-0.08135597,0.8643737,0.49312058,-4.2359653,-72.375,-233.15627,971.6813,0.3074036,-0.588948,0.6537866,997.2973,37.88834884,127.73973622,137.69647216796875,1.68
2025-04-06 16:13:49.913,3.5772698,-10.411171,-0.27756742,0.85643244,-0.21242823,-4.107073,-74.381256,-239.43752,970.68756,0.33158895,-0.57049626,0.6445919,997.2973,37.88834884,127.73973622,137.69647216796875,1.68
2025-04-06 16:13:49.933,2.9647074,-10.375279,-0.65084773,0.7819069,-0.570395,-3.9433613,-75.15,-241.70625,970.8188,0.35131392,-0.55812377,0.6360211,997.2873,37.88834884,127.73973622,137.69647216796875,1.68
2025-04-06 16:13:49.954,2.359323,-10.131211,-0.85902333,0.56810427,-0.69440055,-3.5884488,-77.006256,-246.01875,970.9313,0.38350582,-0.5404107,0.6196801,997.2873,37.88834884,127.73973622,137.69647216796875,1.68
2025-04-06 16:13:49.973,1.8017955,-10.279566,-0.7609176,0.38851,-0.7841977,-3.2139888,-77.981255,-249.71251,970.5563,0.40637803,-0.52857286,0.60594225,997.2724,37.88834884,127.73973622,137.69647216796875,1.68
2025-04-06 16:13:49.993,1.5409778,-10.301102,-0.3397808,0.31398448,-1.1158972,-2.761338,-79.162506,-253.21877,970.6313,0.42713,-0.51949507,0.5920708,997.2724,37.88834884,127.73973622,137.69647216796875,1.68
2025-04-06 16:13:50.013,1.7012969,-10.047462,-0.38763726,0.30604327,-1.6827798,-2.2567635,-79.8,-256.21875,970.72504,0.44760177,-0.5138967,0.5778618,997.2597,37.88834884,127.73973622,137.69647216796875,1.68
2025-04-06 16:13:50.033,1.5960127,-10.236495,-1.0049855,0.2480111,-1.6021456,-1.7876195,-80.64375,-259.03125,970.98755,0.4676608,-0.5115711,0.56351954,997.2597,37.88834884,127.73973622,137.69647216796875,1.68
2025-04-06 16:13:50.053,0.99302137,-10.3681,-1.538585,-0.0042760535,-0.8159626,-1.1168898,-81.693756,-261.975,972.2438,0.48547068,-0.51049304,0.549798,997.2553,37.88834884,127.73973622,137.69647216796875,1.68
2025-04-06 16:13:50.074,0.3589234,-10.693524,-1.7587247,-0.21930045,0.034361143,-0.4247801,-82.200005,-262.875,972.9563,0.49034804,-0.51055735,0.54461104,997.2553,37.88834884,127.73973622,137.69647216796875,1.68
2025-04-06 16:13:50.093,-0.5982057,-10.514063,-2.2875385,-0.43799004,0.67699087,0.3400226,-83.100006,-264.35626,974.1563,0.48652884,-0.51168686,0.5453507,997.248,37.88834884,127.73973622,137.69647216796875,1.68
2025-04-06 16:13:50.114,-0.93320084,-9.868001,-2.103291,-0.7806852,0.8138246,1.1659118,-83.15625,-264.825,974.8875,0.47536612,-0.5161926,0.55001074,997.248,37.88834884,127.73973622,137.69647216796875,1.68
2025-04-06 16:13:50.133,0.10049855,-9.667004,-0.4546363,-1.0091486,0.7002038,1.978362,-83.64375,-264.95627,974.9438,0.45863473,-0.5257769,0.55647486,997.237,37.88834884,127.73973622,137.69647216796875,1.68
2025-04-06 16:13:50.153,1.4045869,-9.997213,0.7585248,-0.9419535,0.59574586,2.438343,-83.49375,-264.09375,974.4,0.43834558,-0.5387442,0.56463575,997.237,37.88834884,127.73973622,137.69647216796875,1.68
2025-04-06 16:13:50.173,2.7278178,-10.877771,1.5050855,-0.66156656,0.38621926,2.7254496,-83.231255,-262.2,973.91254,0.4222417,-0.54923826,0.5720071,997.2336,37.88834884,127.73973622,137.69647216796875,1.68
2025-04-06 16:13:50.193,3.359523,-11.79183,0.9667004,-0.18997894,0.014813471,2.966741,-83.287506,-260.30627,973.6313,0.39709076,-0.56627566,0.58632004,997.2336,37.88834884,127.73973622,137.69647216796875,1.68
2025-04-06 16:13:50.214,3.4217365,-12.3708935,-0.4211368,0.091018856,-0.32360563,3.2587345,-82.875,-257.83127,973.575,0.3748018,-0.5829652,0.6019126,997.24115,37.88834884,127.73973622,137.69647216796875,1.68
2025-04-06 16:13:50.234,2.7278178,-12.162718,-1.0025927,0.0537561,-0.35048366,3.6350272,-82.293755,-255.26251,973.87506,0.35632372,-0.5968327,0.6147093,997.24115,37.88834884,127.73973622,137.69647216796875,1.68
2025-04-06 16:13:50.254,2.5722845,-11.913864,-0.97866446,-0.042760536,-0.33826637,4.11028,-81.600006,-252.76875,973.91254,0.33474013,-0.6118221,0.6275932,997.2458,37.88834884,127.73973622,137.69647216796875,1.68
2025-04-06 16:13:50.275,3.8644085,-11.827723,-1.0719845,-0.22601996,-0.14767656,4.572094,-80.287506,-247.74376,973.3875,0.30213904,-0.6316032,0.64341444,997.2458,37.88834884,127.73973622,137.69647216796875,1.68
2025-04-06 16:13:50.294,5.0273204,-11.899507,-0.6436693,-0.4007273,0.016646065,4.7303076,-80.08125,-246.20625,973.0688,0.27960983,-0.64342624,0.6521266,997.2375,37.88834884,127.73973622,137.69647216796875,1.68
2025-04-06 16:13:50.313,5.9318075,-12.064611,-0.25603202,-0.4807506,0.009926553,4.811553,-79.05,-242.49376,973.1813,0.24768616,-0.6587016,0.6621894,997.2375,37.88834884,127.73973622,137.69647216796875,1.68
2025-04-06 16:13:50.333,7.0612197,-12.078969,0.124426775,-0.5503892,-0.002290743,4.8763046,-77.2125,-238.40627,972.7688,0.2067628,-0.6763916,0.6721153,997.2255,37.88834884,127.73973622,137.69647216796875,1.68
2025-04-06 16:13:50.353,8.719446,-12.5958185,0.09332009,-0.61514086,0.16264275,4.850648,-75.46875,-234.75002,972.56256,0.1815435,-0.6859292,0.6767565,997.2255,37.88834884,127.73973622,137.69647216796875,1.68
2025-04-06 16:13:50.374,10.844273,-12.430714,0.70348984,-0.767857,0.12843432,4.5818677,-71.53125,-230.08125,972.37506,0.13917348,-0.70016617,0.6816744,997.22284,37.88834884,127.73973622,137.69647216796875,1.68
2025-04-06 16:13:50.394,11.478371,-11.794223,1.7347964,-0.7519745,0.110108376,4.213516,-70.18125,-228.6,971.9438,0.10797737,-0.7099943,0.68290377,997.22284,37.88834216,127.739722,137.1033935546875,1.65
2025-04-06 16:13:50.414,11.775081,-11.255837,2.2779672,-0.6377428,0.6733257,3.7303221,-68.0625,-226.57501,972.0563,0.07889865,-0.7173921,0.68318796,997.22675,37.88834216,127.739722,137.1033935546875,1.65
2025-04-06 16:13:50.434,12.074183,-11.07159,2.8235307,-0.5387827,1.2029455,3.418781,-64.818756,-224.64375,972.6375,0.04878037,-0.7221209,0.6833829,997.22675,37.88834216,127.739722,137.1033935546875,1.65
2025-04-06 16:13:50.453,12.454642,-10.762917,3.6179478,-0.21991132,1.1504111,3.0681448,-61.593754,-222.975,972.91876,0.018857462,-0.7243132,0.683954,997.23505,37.88834216,127.739722,137.1033935546875,1.65
2025-04-06 16:13:50.474,13.088739,-10.296316,2.7421749,0.24678937,0.7564033,2.7266712,-58.537502,-221.7375,973.23755,-0.0068073724,-0.7233861,0.6863556,997.23505,37.88834216,127.739722,137.1033935546875,1.65
2025-04-06 16:13:50.493,13.42852,-10.023534,0.9379865,0.42088583,0.5175552,2.3448808,-55.143753,-220.31252,973.4063,-0.027075628,-0.71990716,0.69053835,997.24554,37.88834216,127.739722,137.1033935546875,1.65
2025-04-06 16:13:50.514,13.562519,-9.645468,-0.20338993,0.31398448,0.49006626,1.9484296,-52.406254,-219.26251,973.1813,-0.047191665,-0.71521735,0.69523036,997.24554,37.88834216,127.739722,137.1033935546875,1.65
2025-04-06 16:13:50.534,13.978869,-9.49472,-0.31106696,0.08124501,0.40393433,1.5422045,-49.800003,-218.25002,972.8063,-0.060132768,-0.7128062,0.69714785,997.24774,37.88834216,127.739722,137.1033935546875,1.65
2025-04-06 16:13:50.554,14.708681,-9.868001,0.023928227,-0.14355323,0.27382013,1.0003674,-47.5875,-218.13751,972.41254,-0.06906278,-0.7121832,0.6972083,997.24774,37.88834216,127.739722,137.1033935546875,1.65
2025-04-06 16:13:50.574,14.916857,-11.018949,0.2105684,-0.38056874,0.16203189,0.24900375,-46.03125,-218.1,972.4313,-0.073012784,-0.7133532,0.6956407,997.2426,37.88834216,127.739722,137.1033935546875,1.65
2025-04-06 16:13:50.593,13.813766,-11.174481,1.0313065,-0.56810427,0.07651082,-0.26962045,-44.456253,-218.23126,972.0563,-0.071868315,-0.71643347,0.69238853,997.2426,37.88834216,127.739722,137.1033935546875,1.65
2025-04-06 16:13:50.614,12.906885,-10.430314,2.9120653,-0.5674934,-0.107359484,-0.88292867,-42.99375,-218.1,972.37506,-0.064671226,-0.7216174,0.6871648,997.24554,37.88834216,127.739722,137.1033935546875,1.65
2025-04-06 16:13:50.634,12.399607,-10.738988,4.065406,-0.33902994,-0.34498587,-1.468748,-42.318752,-217.51875,972.35626,-0.053417142,-0.7250895,0.6837786,997.24554,37.88834216,127.739722,137.1033935546875,1.65
2025-04-06 16:13:50.654,11.313266,-11.576476,4.4554358,0.05864302,-0.65774864,-2.0454044,-42.24375,-217.425,972.5063,-0.03625205,-0.7265596,0.6823274,997.25726,37.88834216,127.739722,137.1033935546875,1.65
2025-04-06 16:13:50.674,10.068997,-12.600604,3.6179478,0.4318814,-1.022435,-2.5059965,-43.425003,-217.21877,973.0688,-0.01315721,-0.7253483,0.6831707,997.25726,37.88834216,127.739722,137.1033935546875,1.65
2025-04-06 16:13:50.693,9.410972,-13.318451,2.4861426,0.637132,-1.3785691,-2.8755696,-44.8125,-217.2375,973.3875,0.014983491,-0.7221225,0.6851227,997.2797,37.88834216,127.739722,137.1033935546875,1.65
2025-04-06 16:13:50.713,9.298509,-13.780266,1.7778672,0.6401863,-1.5874848,-3.159011,-47.737503,-217.89375,973.4625,0.0470365,-0.7177949,0.6866515,997.2797,37.88834216,127.739722,137.1033935546875,1.65
2025-04-06 16:13:50.733,9.257831,-13.854444,1.2370893,0.53023064,-1.6516256,-3.524308,-50.812504,-218.475,973.7438,0.08232564,-0.71301717,0.68650055,997.29193,37.88834216,127.739722,137.1033935546875,1.65
2025-04-06 16:13:50.753,9.3104725,-13.607983,0.5072784,0.29688028,-1.4475968,-3.867614,-53.98125,-219.1125,973.8375,0.119063705,-0.7079293,0.68395054,997.29193,37.88834216,127.739722,137.1033935546875,1.65
2025-04-06 16:13:50.773,9.080762,-13.8448715,0.634098,0.04092794,-1.0859649,-4.1999245,-57.80625,-220.20001,973.66876,0.16481546,-0.7013567,0.67655057,997.2851,37.88834216,127.739722,137.1033935546875,1.65
2025-04-06 16:13:50.793,8.195417,-13.9573345,1.8424734,-0.049480047,-0.88315773,-4.4454923,-61.143753,-221.21251,974.04376,0.2001165,-0.6950404,0.6681327,997.2851,37.88834216,127.739722,137.1033935546875,1.65
2025-04-06 16:13:50.814,7.4177504,-13.526627,2.821138,0.16982041,-0.8513928,-4.5578914,-64.36875,-222.54376,974.5125,0.23572248,-0.68658096,0.6588858,997.2856,37.88834216,127.739722,137.1033935546875,1.65
2025-04-06 16:13:50.833,6.6568327,-13.296915,1.7802601,0.4233293,-0.20509785,-4.5878234,-68.025,-224.45625,975.3938,0.26961723,-0.6743218,0.6508935,997.2856,37.88834216,127.739722,137.1033935546875,1.65
2025-04-06 16:13:50.853,5.6685967,-12.631711,0.62931234,0.51495904,0.581696,-4.526737,-71.137505,-226.87502,976.3313,0.29864877,-0.658516,0.6444982,997.30316,37.88834216,127.739722,137.1033935546875,1.65
2025-04-06 16:13:50.873,5.156533,-12.421143,-0.0047856453,0.573602,1.0093013,-4.4247227,-73.70625,-229.65001,976.6313,0.3226792,-0.6400474,0.63921624,997.30316,37.88834216,127.739722,137.1033935546875,1.65
2025-04-06 16:13:50.893,4.199404,-12.021541,-0.23688944,0.66401,0.90850866,-4.328206,-76.2375,-233.34377,976.80005,0.34392634,-0.61983573,0.634186,997.2978,37.88834216,127.739722,137.1033935546875,1.65
