Time,Accel_X,Accel_Y,Accel_Z,Gyro_X,Gyro_Y,Gyro_Z,Mag_X,Mag_Y,Mag_Z,Orient_X,Orient_Y,Orient_Z,Pressure,Latitude,Longitude,Altitude,Speed
2025-03-08 15:32:23.606,0.4833502,4.725825,8.597412,0.029932374,0.04886918,-0.043371398,19.25625,-32.456253,-33.412502,0.16187848,0.17863345,0.6971704,1007.85223,37.88839414,127.73982312,145.88970947265625,0.16
2025-03-08 15:32:23.626,0.18903299,4.776074,8.480164,0.0030543238,0.022601997,-0.09773836,19.275002,-32.68125,-33.7125,0.16241562,0.17884092,0.696869,1007.85223,37.88839414,127.73982312,145.88970947265625,0.16
2025-03-08 15:32:23.646,-0.0741775,4.694718,8.630911,-0.035430156,-0.045814857,-0.12278382,19.2,-32.86875,-33.768753,0.16273835,0.17876373,0.696163,1007.8547,37.88839414,127.73982312,145.88970947265625,0.16
2025-03-08 15:32:23.666,-0.17706887,4.5966125,8.800801,-0.036651887,-0.10690133,-0.11117739,19.48125,-32.8125,-34.256252,0.16284434,0.17826775,0.69533783,1007.8547,37.88839414,127.73982312,145.88970947265625,0.16
2025-03-08 15:32:23.686,-0.25603202,4.5894337,8.819944,0.0036651888,-0.13133593,-0.08429934,19.425001,-32.98125,-34.443752,0.16325562,0.17742284,0.6945328,1007.85345,37.88839414,127.73982312,145.88970947265625,0.16
2025-03-08 15:32:23.706,-0.05503492,4.6061835,8.60459,0.012217295,-0.04214967,-0.054366965,19.2,-32.850002,-34.256252,0.16386378,0.17688681,0.69374096,1007.85345,37.88839414,127.73982312,145.88970947265625,0.16
2025-03-08 15:32:23.726,-0.18424734,4.599005,8.568698,-0.036651887,-0.04214967,-0.07208204,18.975,-32.737503,-34.575,0.16403414,0.1768099,0.69339436,1007.8571,37.88839414,127.73982312,145.88970947265625,0.16
2025-03-08 15:32:23.746,-0.19621146,4.5559344,9.18126,-0.045203995,-0.13500112,-0.06963859,18.618752,-32.737503,-34.575,0.16395901,0.17599492,0.6927384,1007.8571,37.88839414,127.73982312,145.88970947265625,0.16
2025-03-08 15:32:23.767,-0.2727818,4.584648,9.32483,0.0140498895,-0.14966187,-0.04459313,18.6375,-32.475002,-34.800003,0.16425584,0.17474477,0.6922081,1007.85834,37.88839414,127.73982312,145.88970947265625,0.16
2025-03-08 15:32:23.786,-0.18903299,4.668397,9.107083,0.07208204,-0.11423171,-0.0042760535,19.050001,-32.456253,-35.193752,0.16489755,0.17410922,0.6917695,1007.85834,37.88839414,127.73982312,145.88970947265625,0.16
2025-03-08 15:32:23.806,0.20817557,4.8765726,8.784052,0.09224058,-0.12583815,-0.017104214,19.2,-32.475002,-35.25,0.16617006,0.17391358,0.6914351,1007.87006,37.88839414,127.73982312,145.88970947265625,0.16
2025-03-08 15:32:23.826,0.29671,4.8646083,8.398808,0.062308207,-0.07269291,-0.07880156,19.29375,-32.550003,-35.1375,0.16800301,0.17374852,0.690896,1007.87006,37.88839414,127.73982312,145.88970947265625,0.16
2025-03-08 15:32:23.846,-0.086141616,4.725825,8.410771,-0.041538805,-0.007941242,-0.11911863,19.35,-32.831253,-34.95,0.16922785,0.1738407,0.68986475,1007.87054,37.88839414,127.73982312,145.88970947265625,0.16
2025-03-08 15:32:23.866,-0.3589234,4.558327,8.79123,-0.064140804,0.03054324,-0.08613193,19.125,-32.756252,-34.74375,0.16856934,0.17397705,0.6891987,1007.87054,37.88839414,127.73982312,145.88970947265625,0.16
2025-03-08 15:32:23.886,-0.3493521,4.4674,8.745767,0.0073303776,-0.027488915,-0.02565632,18.993752,-32.8125,-34.575,0.16751508,0.17419533,0.68885845,1007.8647,37.88839414,127.73982312,145.88970947265625,0.16
2025-03-08 15:32:23.908,0.0071784677,4.4721856,8.487342,0.028099779,-0.10140356,-0.02687805,18.75,-32.68125,-34.6875,0.167552,0.17407869,0.68858194,1007.8647,37.88839414,127.73982312,145.88970947265625,0.16
2025-03-08 15:32:23.926,0.09092726,4.429115,8.4347,-0.018325943,-0.092851445,-0.06597339,18.75,-32.49375,-34.65,0.16837786,0.17336746,0.68815225,1007.8686,37.88839414,127.73982312,145.88970947265625,0.16
2025-03-08 15:32:23.946,-0.28713873,4.3812585,8.484949,-0.09407318,0.060475614,-0.06597339,18.712502,-32.475002,-34.6875,0.16812761,0.1728045,0.68774116,1007.8686,37.88839414,127.73982312,145.88970947265625,0.16
2025-03-08 15:32:23.966,-0.3278167,4.453043,9.025727,-0.115453444,0.07574723,-0.020769402,18.88125,-32.30625,-34.912502,0.16640012,0.17285256,0.68766385,1007.87445,37.88839414,127.73982312,145.88970947265625,0.16
2025-03-08 15:32:23.986,-0.09810573,4.4985065,9.439685,-0.03054324,0.019547673,-6.108648E-4,19.3125,-32.25,-34.893753,0.16475818,0.17258826,0.68787456,1007.87445,37.88839414,127.73982312,145.88970947265625,0.16
2025-03-08 15:32:24.006,0.04546363,4.618148,9.205189,0.089797124,-0.0537561,-0.023823727,19.5,-31.931252,-34.987503,0.16465816,0.1719916,0.6878969,1007.873,37.88839414,127.73982312,145.88970947265625,0.16
2025-03-08 15:32:24.026,-0.15074782,4.843073,8.532805,0.06963859,-0.03970621,-0.036651887,19.48125,-31.95,-35.04375,0.16561207,0.17226505,0.68747425,1007.873,37.88839414,127.73982312,145.88970947265625,0.16
2025-03-08 15:32:24.047,-0.023928227,4.8382874,8.547162,-0.02932151,0.03054324,-0.054366965,19.237501,-31.9125,-34.93125,0.16619079,0.17279741,0.6870195,1007.873,37.88839414,127.73982312,145.88970947265625,0.16
2025-03-08 15:32:24.067,-0.3684947,4.6492543,8.750552,-0.059253883,0.09040799,-0.04886918,19.125,-31.9125,-34.8375,0.16554606,0.1733047,0.68675387,1007.873,37.88839414,127.73982312,145.88970947265625,0.16
2025-03-08 15:32:24.086,-0.4977071,4.508078,8.9013,-0.02687805,0.033597562,-6.108648E-4,18.88125,-32.1375,-34.48125,0.16437146,0.17382516,0.6866305,1007.87054,37.88839414,127.73982312,145.88970947265625,0.16
2025-03-08 15:32:24.107,-0.15314065,4.4171505,8.949157,0.014660755,0.021380268,0.033597562,18.7875,-32.23125,-34.612503,0.16358604,0.17407314,0.6867423,1007.87054,37.88839414,127.73982312,145.88970947265625,0.16
2025-03-08 15:32:24.126,-0.038285162,4.3908296,8.750552,0.054366965,0.026267186,0.013439025,19.087502,-31.987501,-34.443752,0.16338317,0.17409673,0.6870044,1007.8781,37.88839414,127.73982312,145.88970947265625,0.16
2025-03-08 15:32:24.146,-0.16031912,4.5008993,8.410771,0.026267186,-0.062308207,-0.026267186,18.862501,-32.325,-34.612503,0.16373736,0.17419904,0.6869844,1007.8781,37.88839414,127.73982312,145.88970947265625,0.16
2025-03-08 15:32:24.166,-0.28713873,4.517649,8.408379,-0.03848448,0.02932151,-0.014660755,18.7875,-32.193752,-34.96875,0.16409476,0.1741141,0.6866751,1007.88153,37.88839414,127.73982312,145.88970947265625,0.16
2025-03-08 15:32:24.186,-0.55752766,4.5966125,8.652447,-0.0971275,0.12767074,0.023823727,19.087502,-31.81875,-34.893753,0.16269445,0.17472215,0.68685377,1007.88153,37.88839414,127.73982312,145.88970947265625,0.16
2025-03-08 15:32:24.207,-0.5407779,4.6468616,8.937193,-0.07024945,0.04214967,0.09224058,18.88125,-32.006252,-34.912502,0.16107894,0.17526804,0.687379,1007.8752,37.88839414,127.73982312,145.88970947265625,0.16
2025-03-08 15:32:24.227,-0.023928227,4.599005,8.975478,-6.108648E-4,0.021991132,0.11362085,19.1625,-31.556252,-34.612503,0.16058958,0.17511067,0.68814695,1007.8752,37.88839414,127.73982312,145.88970947265625,0.16
2025-03-08 15:32:24.247,0.11006984,4.6612186,8.745767,-0.0012217296,0.008552107,0.076358095,19.1625,-31.81875,-34.2,0.16088948,0.17487706,0.6889169,1007.8747,37.88839414,127.73982312,145.88970947265625,0.16
2025-03-08 15:32:24.267,0.083748795,4.7138605,8.628518,-0.023212861,-0.012217295,0.03054324,18.50625,-32.081253,-33.825,0.16152734,0.17448494,0.6894699,1007.8747,37.88839414,127.73982312,145.88970947265625,0.16
2025-03-08 15:32:24.286,0.040677983,4.644469,8.700303,-0.05497783,0.010384701,-0.0018325944,18.618752,-32.268753,-33.75,0.16180158,0.17421375,0.6895975,1007.8747,37.88839414,127.73982312,145.88970947265625,0.16
2025-03-08 15:32:24.306,-0.22492532,4.546363,8.874979,-0.077579826,0.08918626,-6.108648E-4,18.618752,-32.34375,-33.9375,0.16121046,0.17390291,0.68979186,1007.8747,37.88839414,127.73982312,145.88970947265625,0.16
2025-03-08 15:32:24.326,-0.40677986,4.453043,9.174082,-0.026267186,0.1178969,0.056810424,19.10625,-32.268753,-34.125,0.15982047,0.17421637,0.6903456,1007.8774,37.88839414,127.73982312,145.88970947265625,0.16
2025-03-08 15:32:24.348,-0.03589234,4.5152564,9.004191,0.035430156,0.0067195124,0.08185588,19.03125,-32.175003,-34.18125,0.15891412,0.17445132,0.69082326,1007.8774,37.88839414,127.73982312,145.88970947265625,0.16
2025-03-08 15:32:24.366,0.2009971,4.7018967,8.946764,0.064140804,-0.10140356,0.031154104,18.88125,-32.25,-34.256252,0.15960905,0.17416704,0.69121283,1007.87396,37.88839414,127.73982312,145.88970947265625,0.16
2025-03-08 15:32:24.386,0.17467605,4.6875396,8.556734,0.033597562,-0.007941242,-0.033597562,18.862501,-32.23125,-34.2,0.16113435,0.17365359,0.69112486,1007.87396,37.88839414,127.73982312,145.88970947265625,0.16
2025-03-08 15:32:24.406,-0.18185452,4.7114677,8.439486,-0.03054324,0.06291907,-0.041538805,19.03125,-32.100002,-34.18125,0.16153213,0.17399119,0.69087136,1007.8774,37.88839414,127.73982312,145.88970947265625,0.16
2025-03-08 15:32:24.426,-0.2009971,4.682754,8.970692,-0.020769402,0.103236146,-0.020158539,19.10625,-32.025,-34.21875,0.16063862,0.17470057,0.69078517,1007.8774,37.88839414,127.73982312,145.88970947265625,0.16
2025-03-08 15:32:24.448,-0.33020952,4.65404,8.662018,0.033597562,0.016493348,0.010995566,19.25625,-32.0625,-33.9,0.16006325,0.17546159,0.6907999,1007.87494,37.88839414,127.73982312,145.88970947265625,0.16
2025-03-08 15:32:24.466,0.019142581,4.610969,8.475378,0.01527162,-0.04214967,0.0140498895,19.48125,-31.875002,-34.0875,0.16040806,0.1758522,0.6907644,1007.87494,37.88839414,127.73982312,145.88970947265625,0.16
2025-03-08 15:32:24.487,0.18903299,4.601398,8.394022,-0.034208428,-0.05253437,-0.02565632,19.35,-31.9125,-34.275,0.16126063,0.17546378,0.6906971,1007.88104,37.88839414,127.73982312,145.88970947265625,0.16
2025-03-08 15:32:24.506,-0.17706887,4.4913282,8.7984085,-0.09957096,0.037873615,-0.050090913,19.44375,-31.893751,-34.125,0.16135213,0.1747998,0.69051826,1007.88104,37.88839414,127.73982312,145.88970947265625,0.16
2025-03-08 15:32:24.526,-0.27038896,4.3740797,9.090333,-0.07269291,0.18814635,-0.019547673,19.5,-31.968752,-34.143753,0.15991041,0.17462835,0.690579,1007.8737,37.88839414,127.73982312,145.88970947265625,0.16
2025-03-08 15:32:24.547,-0.39481574,4.5678983,8.973084,-0.050090913,0.2083049,0.005497783,19.237501,-32.04375,-34.162502,0.15722062,0.17568773,0.6911024,1007.8737,37.88839414,127.73982312,145.88970947265625,0.16
2025-03-08 15:32:24.568,-0.2632105,4.668397,9.176475,-0.0024434591,0.05497783,0.012217295,19.237501,-32.175003,-34.3875,0.15598474,0.17644145,0.6914075,1007.8786,37.88839414,127.73982312,145.88970947265625,0.16
2025-03-08 15:32:24.589,-0.2847459,4.615755,8.999406,0.032375835,-0.032986697,0.0073303776,19.368752,-31.931252,-34.6875,0.15602492,0.17656884,0.6914545,1007.8786,37.88839414,127.73982312,145.88970947265625,0.16
2025-03-08 15:32:24.606,-0.33020952,4.4985065,8.889337,0.025045456,-0.0073303776,0.017104214,19.35,-31.875002,-34.425003,0.15621276,0.17656608,0.69143844,1007.8857,37.88839022,127.73984514,148.43902587890625,0.0
2025-03-08 15:32:24.627,0.043070808,4.3836513,9.004191,0.009162972,0.08735366,0.013439025,19.35,-31.85625,-34.65,0.15616871,0.17658922,0.6916689,1007.8857,37.88839022,127.73984514,148.43902587890625,0.0
2025-03-08 15:32:24.646,-0.14596218,4.4458647,9.037691,0.0073303776,0.1753182,-0.0061086477,19.368752,-31.48125,-34.55625,0.15534645,0.17697269,0.69204974,1007.89105,37.88839022,127.73984514,148.43902587890625,0.0
2025-03-08 15:32:24.666,-0.30388847,4.4913282,8.977871,0.04886918,0.033597562,-0.022601997,19.3875,-31.66875,-33.975002,0.15447317,0.17771725,0.69223773,1007.89105,37.88839022,127.73984514,148.43902587890625,0.0
2025-03-08 15:32:24.686,-0.4881358,4.496114,8.7673025,0.103236146,-0.09040799,0.0073303776,19.462502,-31.85625,-33.91875,0.15501395,0.17815137,0.6918981,1007.89325,37.88839022,127.73984514,148.43902587890625,0.0
2025-03-08 15:32:24.706,-0.23928227,4.558327,8.583055,0.12705988,-0.08429934,0.032986697,19.6875,-31.893751,-33.506252,0.15630478,0.17846264,0.6916625,1007.89325,37.88839022,127.73984514,148.43902587890625,0.0
2025-03-08 15:32:24.726,-0.18424734,4.6229334,8.336594,0.09957096,-0.09407318,0.035430156,19.59375,-32.11875,-33.581253,0.15794492,0.17880622,0.6915116,1007.89496,37.88839022,127.73984514,148.43902587890625,0.0
2025-03-08 15:32:24.746,0.26081768,4.6707897,8.322237,0.03176497,-0.0073303776,-0.0097738365,19.331251,-32.175003,-33.300003,0.15944777,0.17888689,0.6914284,1007.89496,37.88839022,127.73984514,148.43902587890625,0.0
2025-03-08 15:32:24.766,-0.043070808,4.7282176,8.606983,-0.037262753,0.049480047,-0.067195125,18.900002,-32.325,-33.112503,0.16011012,0.17886841,0.6912774,1007.88446,37.88839022,127.73984514,148.43902587890625,0.0
2025-03-08 15:32:24.786,-0.55034924,4.599005,9.01137,-0.06475167,0.005497783,-0.056199558,18.69375,-32.23125,-33.24375,0.15947792,0.1789978,0.6909482,1007.88446,37.88839022,127.73984514,148.43902587890625,0.0
2025-03-08 15:32:24.806,-0.60059845,4.5152564,9.360723,-0.007941242,-0.06658426,0.0067195124,18.88125,-32.0625,-33.09375,0.1585792,0.17880851,0.69074214,1007.87933,37.88839022,127.73984514,148.43902587890625,0.0
2025-03-08 15:32:24.826,-0.4211368,4.496114,9.253045,0.08307761,-0.074525505,0.056810424,19.425001,-32.34375,-33.45,0.15853769,0.17836449,0.6907536,1007.87933,37.88839022,127.73984514,148.43902587890625,0.0
2025-03-08 15:32:24.846,-0.06460621,4.6061835,8.82473,0.09529491,-0.031154104,0.047647454,19.800001,-32.362503,-33.65625,0.1592901,0.17833081,0.690928,1007.8735,37.88839022,127.73984514,148.43902587890625,0.0
2025-03-08 15:32:24.866,-0.21535404,4.6085763,8.73141,0.06291907,0.02443459,0.008552107,19.931252,-32.475002,-33.80625,0.16027038,0.17871542,0.69102967,1007.8735,37.88839022,127.73984514,148.43902587890625,0.0
2025-03-08 15:32:24.886,-0.47377887,4.613362,8.688339,0.048258316,0.0067195124,0.0097738365,19.7625,-32.737503,-33.9375,0.16041245,0.17933328,0.690976,1007.8847,37.88839022,127.73984514,148.43902587890625,0.0
2025-03-08 15:32:24.906,-0.43070808,4.570291,8.705089,0.056199558,-0.02932151,0.022601997,19.48125,-32.475002,-33.862503,0.16060708,0.17983337,0.6908882,1007.8847,37.88839022,127.73984514,148.43902587890625,0.0
2025-03-08 15:32:24.926,-0.44506502,4.56072,8.650054,0.06597339,-0.0061086477,0.042760536,19.331251,-32.456253,-33.768753,0.16091001,0.18022864,0.69087833,1007.8835,37.88839022,127.73984514,148.43902587890625,0.0
2025-03-08 15:32:24.947,-0.13878371,4.615755,8.645268,0.03970621,0.032986697,0.04886918,19.25625,-32.4375,-33.393753,0.1611383,0.18069562,0.6910776,1007.8835,37.88839022,127.73984514,148.43902587890625,0.0
2025-03-08 15:32:24.967,-0.086141616,4.6229334,8.585447,0.028710645,-0.0036651888,0.010384701,19.3875,-32.23125,-33.487503,0.16143784,0.18097281,0.69139755,1007.8879,37.88839022,127.73984514,148.43902587890625,0.0
2025-03-08 15:32:24.986,-0.38285163,4.6061835,8.492127,0.037262753,-0.08002329,0.0097738365,19.25625,-32.175003,-33.45,0.16184409,0.18097503,0.6913409,1007.8879,37.88839022,127.73984514,148.43902587890625,0.0
2025-03-08 15:32:25.006,-0.2536392,4.6301117,8.477771,0.018325943,-0.15149446,0.03054324,19.63125,-32.100002,-33.581253,0.1629907,0.18063676,0.69112414,1007.883,37.88839022,127.73984514,148.43902587890625,0.0
2025-03-08 15:32:25.027,0.014356935,4.6301117,8.678768,-6.108648E-4,-0.08735366,0.023212861,19.5375,-32.34375,-33.768753,0.16407286,0.17976153,0.69110495,1007.883,37.88839022,127.73984514,148.43902587890625,0.0
2025-03-08 15:32:25.048,-0.25842485,4.618148,8.650054,-0.011606431,0.09468404,0.02932151,19.987501,-32.34375,-33.80625,0.16438766,0.17934613,0.69124705,1007.8857,37.88839022,127.73984514,148.43902587890625,0.0
2025-03-08 15:32:25.066,-0.16749759,4.6899323,8.46102,-0.028099779,0.18692462,0.05742129,20.025002,-32.34375,-33.825,0.16341737,0.18017642,0.6917148,1007.8857,37.88839022,127.73984514,148.43902587890625,0.0
2025-03-08 15:32:25.086,0.16271193,4.9172506,8.015956,-0.055588696,0.021380268,0.009162972,19.59375,-32.53125,-33.393753,0.16269892,0.18105787,0.69225925,1007.884,37.88839022,127.73984514,148.43902587890625,0.0
2025-03-08 15:32:25.106,0.2943172,4.8095737,7.5062847,-0.18142684,0.0030543238,-0.11606431,19.48125,-32.625,-33.43125,0.16327497,0.18052962,0.6921144,1007.884,37.88839022,127.73984514,148.43902587890625,0.0
2025-03-08 15:32:25.126,0.14356937,4.7569313,6.9535427,-0.4178315,0.15577053,-0.08124501,19.237501,-32.550003,-33.65625,0.16269758,0.17977114,0.69169873,1007.8901,37.88839022,127.73984514,148.43902587890625,0.0
2025-03-08 15:32:25.146,0.8757731,4.922036,8.078169,-0.5638282,-0.091629714,-0.0971275,19.2,-32.550003,-33.675003,0.15940242,0.17698409,0.69232166,1007.8901,37.88839022,127.73984514,148.43902587890625,0.0
2025-03-08 15:32:25.166,0.99302137,4.924429,7.865208,-0.5094612,-0.6029235,-0.2877173,19.10625,-32.23125,-33.825,0.15977977,0.17253618,0.69190145,1007.9106,37.88839022,127.73984514,148.43902587890625,0.0
2025-03-08 15:32:25.187,0.6364908,4.3932223,7.580462,-0.62491465,-0.682336,-0.36102107,19.425001,-31.800001,-34.350002,0.16205725,0.16341437,0.68922687,1007.9106,37.88839022,127.73984514,148.43902587890625,0.0
2025-03-08 15:32:25.208,0.51206404,4.35733,8.841479,-0.53511757,-0.89002997,-0.34086254,18.862501,-31.63125,-34.537502,0.16363314,0.15507178,0.6864923,1007.93036,37.88839022,127.73984514,148.43902587890625,0.0
2025-03-08 15:32:25.226,0.91166544,3.8763726,9.652647,-0.37384924,-1.0189224,-0.30604327,18.91875,-31.10625,-35.0625,0.16662899,0.14544834,0.6836457,1007.93036,37.88839022,127.73984514,148.43902587890625,0.0
2025-03-08 15:32:25.246,-0.27517462,4.2999024,9.52822,-0.08429934,-0.97066414,-0.22418737,18.712502,-30.525002,-36.225002,0.17136015,0.13484378,0.6799767,1007.955,37.88839022,127.73984514,148.43902587890625,0.0
2025-03-08 15:32:25.267,0.8781659,4.898108,9.15494,0.116675176,-1.4184281,0.05253437,18.393751,-30.45,-36.46875,0.17650858,0.12953757,0.6779194,1007.955,37.88839022,127.73984514,148.43902587890625,0.0
2025-03-08 15:32:25.288,3.8333018,4.7162533,7.7120676,0.20036365,-1.3530655,-6.108648E-4,17.681252,-29.6625,-37.48125,0.19064336,0.11855694,0.675046,1007.93964,37.88839022,127.73984514,148.43902587890625,0.0
2025-03-08 15:32:25.306,4.1587257,4.331009,7.7120676,0.17043127,-1.1258237,-0.22052218,17.175001,-29.643751,-37.78125,0.20110449,0.11054721,0.67196697,1007.93964,37.88839022,127.73984514,148.43902587890625,0.0
2025-03-08 15:32:25.326,2.7732813,4.0797625,7.173682,0.19181155,-1.4300344,-0.33719736,16.518751,-29.643751,-38.4375,0.2099989,0.10395877,0.6677013,1007.9128,37.88839022,127.73984514,148.43902587890625,0.0
2025-03-08 15:32:25.347,2.143969,3.2638102,7.01097,0.32009315,-2.0793836,-0.34025168,15.69375,-29.475,-38.79375,0.22245722,0.094411686,0.66165954,1007.9128,37.88839022,127.73984514,148.43902587890625,0.0
2025-03-08 15:32:25.368,0.8566305,2.2851455,6.7932234,0.5668825,-2.6395466,-0.1802051,14.812501,-29.475,-39.956253,0.23970847,0.08147961,0.65415424,1007.86835,37.88839022,127.73984514,148.43902587890625,0.0
2025-03-08 15:32:25.386,-0.9020941,2.3234308,4.438686,0.411112,-4.3298097,0.72815084,13.481251,-29.60625,-40.5,0.26221475,0.06428459,0.6464689,1007.86835,37.88839022,127.73984514,148.43902587890625,0.0
2025-03-08 15:32:25.406,3.76391,1.1557333,2.2301106,0.25045455,-4.3884525,0.695775,11.475,-29.5125,-41.287502,0.2927664,0.03394992,0.63978773,1007.81244,37.88839022,127.73984514,148.43902587890625,0.0
2025-03-08 15:32:25.426,2.7278178,2.07697,3.062813,-0.2046397,-4.421439,0.8203914,8.793751,-29.531252,-42.54375,0.32701123,-0.0059544947,0.62940437,1007.81244,37.88839022,127.73984514,148.43902587890625,0.0
2025-03-08 15:32:25.446,3.546163,1.3615161,2.5507488,-0.4263836,-4.0494227,1.0629047,5.49375,-29.79375,-43.275,0.34557936,-0.032524798,0.62321985,1007.7729,37.88839022,127.73984514,148.43902587890625,0.0
2025-03-08 15:32:25.467,3.4887354,1.1916257,1.753939,-0.5412262,-2.290132,1.2815943,1.9125,-29.868752,-44.662502,0.3664364,-0.06983698,0.6181757,1007.7729,37.88839022,127.73984514,148.43902587890625,0.0
2025-03-08 15:32:25.487,3.2829528,0.06460621,1.5672989,-0.835663,-2.1435244,1.3408482,-1.575,-30.000002,-45.787502,0.37345526,-0.092313685,0.6191337,1007.7314,37.88839022,127.73984514,148.43902587890625,0.0
2025-03-08 15:32:25.506,5.5393844,-0.28953153,3.694518,-0.962112,-3.930304,1.291979,-4.89375,-29.94375,-46.331253,0.3832902,-0.12266493,0.6165672,1007.7314,37.88839022,127.73984514,148.43902587890625,0.0
2025-03-08 15:32:25.526,4.536792,-1.0049855,6.094519,-0.38728827,-5.2345004,1.3048072,-8.043751,-29.493752,-46.85625,0.40278974,-0.16241045,0.6066843,1007.7238,37.88839022,127.73984514,148.43902587890625,0.0
2025-03-08 15:32:25.546,3.062813,-1.3567305,2.2707887,0.0140498895,-5.0078692,2.0127995,-11.6625,-28.85625,-46.65,0.42818624,-0.20336707,0.5953717,1007.7238,37.88839022,127.73984514,148.43902587890625,0.0
2025-03-08 15:32:25.566,5.953343,-1.9716859,-0.930808,-0.57482374,-3.971232,2.7409503,-15.618751,-27.712502,-46.2,0.44886687,-0.24344559,0.5895547,1007.7153,37.88839022,127.73984514,148.43902587890625,0.0
2025-03-08 15:32:25.586,8.394022,-2.4478576,-0.27038896,-1.3866631,-3.6578584,2.9981244,-20.1,-26.94375,-45.581253,0.46006817,-0.2955252,0.58709687,1007.7153,37.88839022,127.73984514,148.43902587890625,0.0
2025-03-08 15:32:25.606,13.722837,-3.196811,4.426722,-1.4703516,-4.017047,2.9101598,-24.843752,-26.04375,-44.4,0.46413186,-0.34098774,0.5824729,1007.7287,37.88839022,127.73984514,148.43902587890625,0.0
2025-03-08 15:32:25.626,11.389835,-3.1848469,3.7423747,-1.1496475,-2.367101,2.6945245,-29.250002,-24.54375,-43.237503,0.4662941,-0.38057792,0.5778211,1007.7287,37.88839022,127.73984514,148.43902587890625,0.0
2025-03-08 15:32:25.646,8.635697,-3.603591,2.091327,-1.4880666,-1.1624757,2.9486444,-33.412502,-22.837502,-41.737503,0.45900214,-0.41056782,0.5796399,1007.7658,37.88839022,127.73984514,148.43902587890625,0.0
2025-03-08 15:32:25.666,8.717052,-4.5535417,2.4311078,-1.6707152,-1.544877,3.2375834,-36.787502,-20.1,-40.4625,0.4442572,-0.43930957,0.5842256,1007.7658,37.88839022,127.73984514,148.43902587890625,0.0
2025-03-08 15:32:25.686,10.061819,-5.8097734,4.022335,-1.3695588,-3.0476043,3.5485134,-39.412502,-17.34375,-39.45,0.43225923,-0.47303206,0.5856306,1007.79584,37.88839022,127.73984514,148.43902587890625,0.0
2025-03-08 15:32:25.706,15.273387,-5.790631,2.778067,-1.0891719,-3.0793693,3.5198028,-41.4,-14.400001,-38.4375,0.42619842,-0.5100707,0.58419716,1007.79584,37.88839022,127.73984514,148.43902587890625,0.0
2025-03-08 15:32:25.726,15.428921,-5.2809596,2.5028925,-1.1496475,-1.7061453,2.937038,-43.125,-11.15625,-37.237503,0.41681927,-0.5486485,0.58222103,1007.8156,37.88839022,127.73984514,148.43902587890625,0.0
2025-03-08 15:32:25.746,10.985449,-5.9030933,1.6486548,-1.2351686,-0.64568406,2.7592762,-44.850002,-8.0625,-35.568752,0.40278196,-0.5709728,0.58321714,1007.8156,37.88839022,127.73984514,148.43902587890625,0.0
2025-03-08 15:32:25.766,10.461421,-6.7166533,1.7802601,-1.2095122,-0.9627229,2.9437573,-46.256252,-4.6875,-33.61875,0.3850576,-0.5912328,0.58546346,1007.8256,37.88839022,127.73984514,148.43902587890625,0.0
2025-03-08 15:32:25.787,11.440085,-7.192825,2.0003998,-1.1050544,-1.3775,3.0011787,-47.287502,-1.8375001,-32.23125,0.3692348,-0.6128,0.58630055,1007.8256,37.88839022,127.73984514,148.43902587890625,0.0
2025-03-08 15:32:25.808,12.602997,-7.795816,2.4741786,-0.9004147,-1.1557561,3.0140069,-47.9625,0.975,-31.031252,0.35467649,-0.6336572,0.58672464,1007.8271,37.88839022,127.73984514,148.43902587890625,0.0
2025-03-08 15:32:25.826,13.074383,-7.7096744,2.7876384,-0.62491465,-0.6664535,2.81853,-48.037502,3.825,-30.16875,0.33469215,-0.6544449,0.5899719,1007.8271,37.88839022,127.73984514,148.43902587890625,0.0
2025-03-08 15:32:25.846,13.227524,-7.288538,1.3663018,-0.39278606,-0.7874047,2.5778494,-47.86875,6.525,-29.456251,0.32316974,-0.6640222,0.5929678,1007.82513,37.88839022,127.73984514,148.43902587890625,0.0
2025-03-08 15:32:25.866,13.050455,-7.219146,0.5383851,-0.40500334,-0.98410314,2.3432772,-47.5875,9.28125,-28.425001,0.30821693,-0.678723,0.59608936,1007.82513,37.88839022,127.73984514,148.43902587890625,0.0
2025-03-08 15:32:25.886,12.323036,-6.977471,0.9020941,-0.4819723,-0.32498005,2.195448,-46.875,11.775001,-27.525002,0.296871,-0.68928456,0.5974549,1007.8095,37.88839022,127.73984514,148.43902587890625,0.0
2025-03-08 15:32:25.906,11.767901,-7.003792,0.89491564,-0.51740247,0.4459313,2.1013749,-46.48125,13.8,-26.625002,0.2813129,-0.6972814,0.6002653,1007.8095,37.88839022,127.73984514,148.43902587890625,0.0
2025-03-08 15:32:25.926,12.4833555,-6.9248285,1.134198,-0.5742129,1.0329723,1.9266676,-45.825,15.900001,-26.1375,0.26229075,-0.7032479,0.604016,1007.7973,37.88839022,127.73984514,148.43902587890625,0.0
2025-03-08 15:32:25.946,12.248859,-6.5922265,1.2131611,-0.5051852,0.9957096,1.6071852,-44.925003,17.400002,-25.556252,0.242868,-0.7073869,0.60769385,1007.7973,37.88839022,127.73984514,148.43902587890625,0.0
2025-03-08 15:32:25.966,11.045269,-6.4199433,1.1150553,-0.44532043,0.80939585,1.3982695,-43.2,19.0125,-25.3875,0.22645347,-0.7104654,0.6105471,1007.7907,37.88839022,127.73984514,148.43902587890625,0.0
2025-03-08 15:32:25.986,9.533006,-6.5635123,1.457229,-0.44470957,1.0268637,1.4526365,-41.60625,20.7,-26.175001,0.21165738,-0.71319926,0.61299133,1007.7907,37.88839022,127.73984514,148.43902587890625,0.0
2025-03-08 15:32:26.006,10.150353,-6.0921264,2.4861426,-0.24190246,1.197295,1.4373648,-40.18125,21.75,-26.362501,0.1901492,-0.71501034,0.6175054,1007.79,37.88839022,127.73984514,148.43902587890625,0.0
2025-03-08 15:32:26.027,12.30868,-5.1661043,2.8091738,0.16371176,0.9731076,1.0384701,-38.362503,23.19375,-26.868752,0.17505246,-0.7138535,0.62254626,1007.79,37.88839022,127.73984514,148.43902587890625,0.0
2025-03-08 15:32:26.046,12.124433,-5.194818,1.5696917,0.54183704,0.54672396,0.54916745,-37.55625,24.375002,-27.73125,0.16834746,-0.71112937,0.6269302,1007.8007,37.88839022,127.73984514,148.43902587890625,0.0
2025-03-08 15:32:26.066,10.260424,-5.072784,-0.76331043,0.63041246,0.21930045,0.10567961,-36.112503,24.956251,-27.993752,0.16599205,-0.70521593,0.6338216,1007.8007,37.88839022,127.73984514,148.43902587890625,0.0
2025-03-08 15:32:26.086,9.743574,-5.503492,-1.8257236,0.3933969,0.4300488,0.0024434591,-34.93125,25.425001,-28.743752,0.16622755,-0.7009874,0.63771677,1007.79095,37.88839022,127.73984514,148.43902587890625,0.0
2025-03-08 15:32:26.106,9.698111,-5.682954,-1.4955142,-0.04092794,0.4581486,-0.171653,-34.0875,25.518751,-29.812502,0.1651489,-0.6983748,0.63912034,1007.79095,37.88839022,127.73984514,148.43902587890625,0.0
2025-03-08 15:32:26.127,9.176475,-6.108876,-0.17228323,-0.2669479,0.19730933,-0.40805766,-33.46875,25.181252,-30.656252,0.16514798,-0.6977137,0.6370462,1007.79926,37.88839022,127.73984514,148.43902587890625,0.0
2025-03-08 15:32:26.146,8.889337,-6.2404814,0.83748794,-0.2498437,0.017715078,-0.54855657,-33.46875,25.1625,-31.10625,0.16684194,-0.697988,0.63469404,1007.79926,37.88839022,127.73984514,148.43902587890625,0.0
2025-03-08 15:32:26.166,8.188239,-6.474978,1.1270195,-0.15638138,-0.03604102,-0.70677054,-33.46875,24.88125,-31.25625,0.17081784,-0.6979508,0.63074225,1007.80756,37.88839022,127.73984514,148.43902587890625,0.0
2025-03-08 15:32:26.186,6.539584,-6.6424756,1.591227,-0.020769402,-0.073303774,-0.6798925,-33.84375,24.73125,-31.031252,0.17713228,-0.69694674,0.62812316,1007.80756,37.88838038,127.7398397,151.407470703125,0.32
2025-03-08 15:32:26.206,5.8169518,-6.9655066,2.0697916,0.21197008,-0.26328272,-0.4752528,-34.36875,24.768751,-30.581251,0.18223523,-0.6954785,0.6269532,1007.82635,37.88838038,127.7398397,151.407470703125,0.32
2025-03-08 15:32:26.226,5.9342003,-7.0540414,2.0267208,0.46914417,-0.43615746,-0.26755878,-34.725002,24.6,-30.468752,0.18774527,-0.6933444,0.62797505,1007.82635,37.88838038,127.7398397,151.407470703125,0.32
2025-03-08 15:32:26.247,6.1639113,-7.02772,1.2634103,0.73120517,-0.44409868,-0.05986475,-35.15625,24.6,-30.31875,0.19324966,-0.69026095,0.63110125,1007.84784,37.88838038,127.7398397,151.407470703125,0.32
2025-03-08 15:32:26.266,5.938986,-6.7118673,0.9403793,0.82405657,-0.42821622,0.09651663,-35.5125,24.150002,-30.300001,0.19807953,-0.68653405,0.6355669,1007.84784,37.88838038,127.7398397,151.407470703125,0.32
2025-03-08 15:32:26.288,6.017949,-6.661618,0.6771688,0.87475836,-0.55894125,0.284663,-36.1875,23.4375,-30.4125,0.20324722,-0.6817909,0.6422467,1007.85077,37.88838038,127.7398397,151.407470703125,0.32
2025-03-08 15:32:26.306,6.352944,-6.623333,0.6412765,0.8704823,-0.6377428,0.43737918,-36.506252,22.800001,-30.375002,0.20614189,-0.67928153,0.647896,1007.85077,37.88838038,127.7398397,151.407470703125,0.32
2025-03-08 15:32:26.326,7.405786,-6.539584,0.7178468,0.8344413,-0.7342595,0.4996874,-37.0125,22.3875,-30.562502,0.21055767,-0.67568415,0.65343267,1007.86127,37.88838038,127.7398397,151.407470703125,0.32
2025-03-08 15:32:26.346,8.030313,-6.398408,0.8111669,0.8374956,-0.8014546,0.4318814,-37.2,22.0125,-30.54375,0.21463451,-0.67308146,0.6585379,1007.86127,37.88838038,127.7398397,151.407470703125,0.32
2025-03-08 15:32:26.366,8.2049885,-6.3696938,0.62452674,0.87475836,-0.6969967,0.33841908,-37.0875,21.825,-30.6375,0.21968155,-0.67014873,0.663318,1007.86664,37.88838038,127.7398397,151.407470703125,0.32
2025-03-08 15:32:26.386,8.370093,-6.3122663,-0.1052842,0.79229164,-0.3836231,0.2809978,-37.36875,21.7875,-30.975,0.22382759,-0.6664954,0.6682635,1007.86664,37.88838038,127.7398397,151.407470703125,0.32
2025-03-08 15:32:26.406,8.271988,-6.0083776,-0.050249275,0.5076286,-0.118507765,0.17837252,-37.575,21.581251,-31.29375,0.22636743,-0.6623757,0.67324513,1007.872,37.88838038,127.7398397,151.407470703125,0.32
2025-03-08 15:32:26.427,8.647661,-6.113662,1.1126626,0.4422661,-0.24495678,0.11300998,-37.6875,21.6,-31.5375,0.22792172,-0.65994793,0.6758902,1007.872,37.88838038,127.7398397,151.407470703125,0.32
2025-03-08 15:32:26.446,9.5665045,-6.2524457,1.2777673,0.5345067,-0.5839867,0.09040799,-37.8375,21.65625,-31.575,0.23034754,-0.65814245,0.6777272,1007.88324,37.88838038,127.7398397,151.407470703125,0.32
2025-03-08 15:32:26.466,10.549955,-6.285945,0.79920274,0.5412262,-0.6542362,-0.056810424,-37.875,21.375,-31.500002,0.23608182,-0.6556918,0.6797995,1007.88324,37.88838038,127.7398397,151.407470703125,0.32
2025-03-08 15:32:26.487,10.777273,-6.204589,0.8422736,0.3347539,-0.2773326,-0.33414304,-38.081253,21.243752,-31.331251,0.243823,-0.6524079,0.6813167,1007.8852,37.88838038,127.7398397,151.407470703125,0.32
2025-03-08 15:32:26.506,10.913664,-6.3218374,1.6821543,0.33780822,-0.09773836,-0.5894845,-38.381252,20.85,-31.143751,0.24923584,-0.64926434,0.6818285,1007.8852,37.88838038,127.7398397,151.407470703125,0.32
2025-03-08 15:32:26.528,11.117054,-6.4558353,1.8041883,0.48808095,-0.21441354,-0.9437861,-38.68125,20.34375,-31.125002,0.2559493,-0.64461726,0.6823948,1007.8923,37.88838038,127.7398397,151.407470703125,0.32
2025-03-08 15:32:26.546,10.892129,-6.4965134,1.4285151,0.60109097,-0.5723803,-1.2156209,-39.1875,19.893751,-30.562502,0.26632252,-0.6387291,0.6824933,1007.8923,37.88838038,127.7398397,151.407470703125,0.32
2025-03-08 15:32:26.566,10.667203,-6.5228343,1.0695918,0.5907062,-0.74220073,-1.4172063,-39.693752,19.25625,-30.6375,0.28044784,-0.6324469,0.681473,1007.89813,37.88838038,127.7398397,151.407470703125,0.32
2025-03-08 15:32:26.586,9.949356,-6.7405815,0.9068798,0.4874701,-0.33780822,-1.5497639,-40.237503,18.393751,-30.675001,0.29884472,-0.6241455,0.6791034,1007.89813,37.88838038,127.7398397,151.407470703125,0.32
2025-03-08 15:32:26.606,9.037691,-7.051648,0.91405827,0.40194902,0.23640467,-1.5711442,-40.893753,17.362501,-30.50625,0.31020164,-0.6166364,0.67769337,1007.89764,37.88838038,127.7398397,151.407470703125,0.32
2025-03-08 15:32:26.626,9.15494,-6.9942207,1.146162,0.38851,0.35796675,-1.6151265,-41.49375,16.2,-30.825,0.31858307,-0.6083872,0.6770153,1007.89764,37.88838038,127.7398397,151.407470703125,0.32
2025-03-08 15:32:26.646,8.958728,-6.9678993,1.1796615,0.45387253,0.12950334,-1.7104213,-42.375,14.7375,-30.900002,0.3274377,-0.5997035,0.6760282,1007.90155,37.88838038,127.7398397,151.407470703125,0.32
2025-03-08 15:32:26.666,8.740981,-7.2670026,1.0073783,0.6029235,-0.30237806,-1.8179336,-43.21875,13.44375,-31.10625,0.33903182,-0.59078056,0.6741806,1007.90155,37.88838038,127.7398397,151.407470703125,0.32
2025-03-08 15:32:26.686,7.793423,-7.850851,0.4354937,0.6878337,-0.6554579,-1.8429791,-44.325,11.775001,-31.312502,0.35384482,-0.581772,0.6712869,1007.8964,37.88838038,127.7398397,151.407470703125,0.32
2025-03-08 15:32:26.706,6.4055862,-8.530413,-0.41635114,0.6334668,-0.74525505,-1.6365068,-45.46875,10.21875,-31.425001,0.3700267,-0.5733867,0.66760993,1007.8964,37.88838038,127.7398397,151.407470703125,0.32
2025-03-08 15:32:26.726,5.6063833,-8.91805,-0.91405827,0.4667007,-0.6334668,-1.2113448,-46.331253,8.512501,-31.031252,0.3871426,-0.56548405,0.66313267,1007.89325,37.88838038,127.7398397,151.407470703125,0.32
2025-03-08 15:32:26.746,5.2019963,-8.999406,-1.4668003,0.20280711,-0.29077163,-0.6713404,-47.04375,7.18125,-30.768751,0.39568242,-0.5618527,0.6606071,1007.89325,37.88838038,127.7398397,151.407470703125,0.32
2025-03-08 15:32:26.766,5.3312087,-8.623733,-1.2729816,-0.07086031,-0.23823726,-0.22113305,-47.23125,6.2625003,-30.300001,0.39956486,-0.5609329,0.65882725,1007.8947,37.88838038,127.7398397,151.407470703125,0.32
2025-03-08 15:32:26.786,4.7569313,-7.908279,-0.85902333,-0.21380267,-0.2602284,0.115453444,-47.41875,5.25,-30.075,0.40087986,-0.56280714,0.65695024,1007.8947,37.88838038,127.7398397,151.407470703125,0.32
2025-03-08 15:32:26.806,4.4985065,-6.7429743,-0.28235307,-0.33353218,0.01527162,0.5259546,-47.643753,4.6312504,-29.85,0.39917433,-0.56669116,0.65580654,1007.8974,37.88838038,127.7398397,151.407470703125,0.32
2025-03-08 15:32:26.826,4.065406,-5.6757755,0.6125626,-0.33964083,0.37934703,0.75747234,-47.737503,4.275,-29.56875,0.3935371,-0.57121414,0.6563615,1007.8974,37.88838038,127.7398397,151.407470703125,0.32
2025-03-08 15:32:26.846,3.940979,-5.343173,1.0935199,-0.20036365,0.5326741,0.86987144,-48.187504,4.3500004,-29.812502,0.38495305,-0.5750463,0.6589289,1007.90643,37.88838038,127.7398397,151.407470703125,0.32
2025-03-08 15:32:26.866,4.278367,-6.2213387,1.1318051,0.077579826,0.3830122,0.95111644,-48.187504,4.96875,-30.0375,0.37395558,-0.57831734,0.66411716,1007.90643,37.88838038,127.7398397,151.407470703125,0.32
2025-03-08 15:32:26.886,4.8598228,-7.3196445,-0.09810573,0.38851,0.007941242,0.9816597,-47.98125,6.05625,-30.581251,0.36739525,-0.57983214,0.66923547,1007.9079,37.88838038,127.7398397,151.407470703125,0.32
2025-03-08 15:32:26.906,5.063213,-7.795816,-1.4189439,0.41416633,-0.36651886,0.9694424,-47.737503,6.8437505,-31.125002,0.3636618,-0.5813944,0.6738037,1007.9079,37.88838038,127.7398397,151.407470703125,0.32
2025-03-08 15:32:26.926,4.398008,-7.456035,-2.7732813,0.10873393,-0.2687805,1.0335832,-47.081253,7.6125,-31.44375,0.36119136,-0.5842666,0.6768079,1007.91693,37.88838038,127.7398397,151.407470703125,0.32
2025-03-08 15:32:26.947,4.2017965,-7.4249287,-3.3427732,-0.48624837,0.30237806,1.1404846,-46.800003,8.212501,-31.331251,0.35552227,-0.58948606,0.67842275,1007.91693,37.88838038,127.7398397,151.407470703125,0.32
2025-03-08 15:32:26.969,3.656233,-7.420143,-2.4933212,-1.3286309,1.1374302,1.3182462,-46.143753,9.056251,-31.48125,0.33926544,-0.6002224,0.6784802,1007.9089,37.88838038,127.7398397,151.407470703125,0.32
2025-03-08 15:32:26.986,3.2925239,-7.3986077,-1.1796615,-1.671326,1.3603959,1.4746276,-45.768753,9.5625,-31.66875,0.3190682,-0.61195415,0.67696,1007.9089,37.88838038,127.7398397,151.407470703125,0.32
2025-03-08 15:32:27.006,3.4432719,-7.2622166,0.5838487,-1.8503094,1.2125666,1.725693,-45.1875,10.5375,-31.7625,0.29597417,-0.62551963,0.6742005,1007.9084,37.88838038,127.7398397,151.407470703125,0.32
2025-03-08 15:32:27.026,3.8141594,-7.759924,1.5146568,-1.7366886,1.0580178,1.9859214,-43.800003,12.1125,-31.968752,0.27237204,-0.6396169,0.6710985,1007.9084,37.88838038,127.7398397,151.407470703125,0.32
2025-03-08 15:32:27.046,4.0438704,-7.783852,1.9381863,-1.5638138,1.0549635,2.2919648,-42.5625,13.762501,-31.95,0.24788897,-0.65301394,0.6689319,1007.9255,37.88838038,127.7398397,151.407470703125,0.32
2025-03-08 15:32:27.066,4.5655055,-7.719246,2.4717858,-1.2803726,1.0659591,2.5460844,-41.11875,15.69375,-31.500002,0.22176506,-0.665007,0.6682618,1007.9255,37.88838038,127.7398397,151.407470703125,0.32
2025-03-08 15:32:27.086,5.4125648,-7.678568,2.3569303,-0.98899007,0.85643244,2.7006333,-39.525,17.550001,-31.44375,0.19535454,-0.675124,0.6692958,1007.93304,37.88838038,127.7398397,151.407470703125,0.32
2025-03-08 15:32:27.106,7.240681,-7.446464,1.7012969,-0.682336,0.46425724,2.6389358,-38.11875,19.35,-31.743752,0.17103074,-0.68343806,0.67141867,1007.93304,37.88838038,127.7398397,151.407470703125,0.32
2025-03-08 15:32:27.126,7.678568,-7.21436,0.8446664,-0.52961975,0.15638138,2.344499,-36.09375,21.581251,-32.04375,0.14619453,-0.69187003,0.67387444,1007.9255,37.88838038,127.7398397,151.407470703125,0.32
2025-03-08 15:32:27.146,7.233503,-7.0205417,0.57188463,-0.5357284,0.017104214,2.2076652,-34.10625,23.550001,-31.781252,0.12987919,-0.69793236,0.67494327,1007.9255,37.88838038,127.7398397,151.407470703125,0.32
2025-03-08 15:32:27.166,7.1952176,-7.219146,0.9667004,-0.5210677,0.028710645,2.2027783,-32.175003,25.368752,-31.500002,0.11442568,-0.7037216,0.6754634,1007.92035,37.88838038,127.7398397,151.407470703125,0.32
2025-03-08 15:32:27.186,8.472985,-7.2693954,1.1988041,-0.39278606,0.12767074,2.1795654,-30.13125,26.906252,-31.0125,0.10264005,-0.7074493,0.6760467,1007.92035,37.88838038,127.7398397,151.407470703125,0.32
2025-03-08 15:32:27.207,9.509077,-7.4943204,0.30867413,-0.28038692,0.24678937,1.9187263,-28.743752,28.0125,-30.562502,0.08377975,-0.71176517,0.67767197,1007.9069,37.88838038,127.7398397,151.407470703125,0.32
2025-03-08 15:32:27.227,10.090533,-8.250452,-0.57188463,-0.43432486,0.2877173,1.6603304,-27.45,28.968752,-30.393751,0.0700141,-0.7145968,0.67833394,1007.9069,37.88838038,127.7398397,151.407470703125,0.32
2025-03-08 15:32:27.246,10.497313,-8.475378,-0.38524446,-0.69149894,0.24617851,1.373224,-26.062502,30.0375,-30.018751,0.057725437,-0.7184506,0.67692715,1007.89105,37.88838038,127.7398397,151.407470703125,0.32
2025-03-08 15:32:27.266,11.672189,-10.222138,0.040677983,-0.8686497,0.04459313,0.98654664,-24.656252,30.88125,-29.5125,0.047926858,-0.72358704,0.67330146,1007.89105,37.88838038,127.7398397,151.407470703125,0.32
2025-03-08 15:32:27.286,11.75833,-11.196017,0.5838487,-1.0311397,-0.29199335,0.51618075,-23.25,31.66875,-29.156252,0.042648785,-0.7297473,0.66779363,1007.8881,37.88838038,127.7398397,151.407470703125,0.32
2025-03-08 15:32:27.306,11.229517,-10.9017,1.7060826,-1.1050544,-0.24251331,0.11117739,-21.806252,32.550003,-28.5375,0.042002127,-0.7384585,0.65882856,1007.8881,37.88838038,127.7398397,151.407470703125,0.32
2025-03-08 15:32:27.326,10.925629,-11.626725,2.5746772,-1.0586287,0.194255,-0.22601996,-20.868752,33.2625,-28.10625,0.04246302,-0.7448423,0.65121615,1007.8947,37.88838038,127.7398397,151.407470703125,0.32
2025-03-08 15:32:27.346,10.059426,-11.499906,4.1754756,-0.72631824,0.35430157,-0.40378162,-20.34375,34.0875,-27.54375,0.042727496,-0.7495306,0.6445387,1007.8947,37.88838038,127.7398397,151.407470703125,0.32
2025-03-08 15:32:27.366,10.377672,-10.595419,4.996214,-0.15760311,0.005497783,-0.51618075,-20.175001,34.706253,-26.475,0.044262324,-0.75133026,0.6408391,1007.90643,37.88838038,127.7398397,151.407470703125,0.32
2025-03-08 15:32:27.386,12.107682,-11.222338,3.735196,0.35430157,-0.56077385,-0.8515455,-20.550001,35.325,-26.212502,0.050838605,-0.75002664,0.64089984,1007.90643,37.88838038,127.7398397,151.407470703125,0.32
2025-03-08 15:32:27.406,12.260823,-11.473584,2.7565317,0.56443906,-0.9156863,-1.3512329,-20.925001,35.7,-25.575,0.064263746,-0.74683154,0.642736,1007.924,37.88838038,127.7398397,151.407470703125,0.32
2025-03-08 15:32:27.426,11.574083,-11.243874,2.8019953,0.70860314,-1.0512983,-1.8228205,-21.825,35.625,-25.312502,0.08849747,-0.7413346,0.64502686,1007.924,37.88838038,127.7398397,151.407470703125,0.32
2025-03-08 15:32:27.446,11.365908,-11.964113,2.7326035,0.93706656,-1.1869103,-2.339612,-23.00625,35.4375,-25.725,0.112486474,-0.73513275,0.64694726,1007.92426,37.88838038,127.7398397,151.407470703125,0.32
2025-03-08 15:32:27.466,10.597812,-11.657832,2.306681,1.1362085,-1.1441498,-2.782489,-24.54375,34.59375,-25.5375,0.14023441,-0.7267407,0.6490451,1007.92426,37.88838038,127.7398397,151.407470703125,0.32
2025-03-08 15:32:27.486,9.202796,-10.628919,1.5984055,1.2565489,-0.8833105,-3.1404557,-26.587502,33.45,-25.893751,0.16985917,-0.7159107,0.651127,1007.92596,37.88838038,127.7398397,151.407470703125,0.32
2025-03-08 15:32:27.506,8.724232,-10.059426,1.012164,1.3023638,-0.51556987,-3.473988,-28.781252,32.15625,-26.156252,0.19955032,-0.70289147,0.65279406,1007.92596,37.88838038,127.7398397,151.407470703125,0.32
2025-03-08 15:32:27.526,8.676374,-10.559526,0.65084773,1.3793327,-0.3933969,-3.7788095,-31.331251,30.13125,-26.400002,0.22931239,-0.6877644,0.6536992,1007.9257,37.88838038,127.7398397,151.407470703125,0.32
2025-03-08 15:32:27.546,7.891529,-10.296316,0.18185452,1.4336996,-0.46792242,-3.9486299,-33.75,28.0125,-26.94375,0.26791224,-0.6660141,0.65356666,1007.9257,37.88838038,127.7398397,151.407470703125,0.32
2025-03-08 15:32:27.566,7.2909307,-10.04507,-0.4977071,1.3726132,-0.5882628,-4.129446,-36.318752,25.556252,-27.281252,0.29196185,-0.6520729,0.6522327,1007.91815,37.88838038,127.7398397,151.407470703125,0.32
2025-03-08 15:32:27.586,6.017949,-10.133604,-0.8350951,1.1282673,-0.70493793,-4.2626143,-38.737503,22.650002,-27.69375,0.33299962,-0.62860113,0.6464964,1007.91815,37.88838038,127.7398397,151.407470703125,0.32
2025-03-08 15:32:27.606,5.3240304,-9.987641,-0.930808,0.90285814,-0.77518743,-4.247954,-41.34375,19.48125,-27.88125,0.36526296,-0.6103378,0.6386918,1007.9162,37.88838038,127.7398397,151.407470703125,0.32
2025-03-08 15:32:27.627,4.575077,-10.147961,-0.69152576,0.673173,-0.83993906,-4.051255,-44.49375,14.2875,-27.675001,0.4036262,-0.58874404,0.6257237,1007.9162,37.88838038,127.7398397,151.407470703125,0.32
2025-03-08 15:32:27.646,3.8333018,-9.789038,-0.24646074,0.54855657,-0.8393282,-3.8337874,-45.5625,12.39375,-27.7875,0.424917,-0.5766434,0.61691356,1007.91034,37.88838038,127.7398397,151.407470703125,0.32
2025-03-08 15:32:27.668,3.574877,-9.068798,0.1363909,0.49846566,-0.8014546,-3.4593272,-47.5875,8.793751,-27.431252,0.45074967,-0.5613679,0.6050785,1007.91034,37.88838038,127.7398397,151.407470703125,0.32
2025-03-08 15:32:27.686,3.2135608,-8.647661,-0.62452674,0.4807506,-0.49724394,-3.130682,-48.881252,5.53125,-26.868752,0.47883385,-0.5429629,0.5914804,1007.90936,37.88838038,127.7398397,151.407470703125,0.32
2025-03-08 15:32:27.707,3.196811,-8.992228,-0.8279166,0.3506364,-0.08429934,-2.8020368,-50.23125,2.25,-26.625002,0.49219975,-0.53210163,0.58481395,1007.90936,37.88838038,127.7398397,151.407470703125,0.32
2025-03-08 15:32:27.728,2.7038896,-9.738789,-0.6125626,0.34941465,0.112399116,-2.3817618,-51.093754,-0.73125005,-26.212502,0.5091915,-0.5149219,0.5761298,1007.9057,37.88838038,127.7398397,151.407470703125,0.32
2025-03-08 15:32:27.746,2.2707887,-9.513863,-0.72023964,0.4147772,-0.03604102,-2.0170755,-51.675003,-3.54375,-26.025002,0.5200881,-0.5027703,0.57103527,1007.9057,37.88838038,127.7398397,151.407470703125,0.32
2025-03-08 15:32:27.766,2.1080768,-9.396614,-1.6534405,0.42088583,-0.49480048,-1.5558726,-51.768753,-6.15,-25.9125,0.5308313,-0.49353078,0.56586957,1007.9067,37.88838038,127.7398397,151.407470703125,0.32
2025-03-08 15:32:27.786,0.8757731,-9.91825,-2.6919255,0.20402883,-0.5503892,-0.9419535,-51.80625,-8.118751,-25.331251,0.5409092,-0.48815864,0.56017506,1007.9067,37.88838038,127.7398397,151.407470703125,0.32
2025-03-08 15:32:27.806,-0.50488555,-9.497113,-2.6009982,-0.06169734,-0.29932374,-0.21135922,-51.787502,-10.106251,-24.675001,0.54635656,-0.48719165,0.55628216,1007.89886,37.88838038,127.7398397,151.407470703125,0.32
2025-03-08 15:32:27.826,-1.3351951,-8.786445,-2.2995026,-0.34636033,0.058032155,0.9694424,-51.525,-11.587501,-24.35625,0.5447109,-0.49140492,0.5561574,1007.89886,37.88838038,127.7398397,151.407470703125,0.32
2025-03-08 15:32:27.846,-0.29671,-9.099904,-1.7994026,-0.5430588,0.21807873,2.0305145,-51.937504,-12.39375,-23.831251,0.5354991,-0.501396,0.56032896,1007.8957,37.88838038,127.7398397,151.407470703125,0.32
2025-03-08 15:32:27.866,0.8446664,-9.142975,-1.1006985,-0.6707295,0.48136145,3.0689847,-52.125004,-12.656251,-23.737501,0.51449674,-0.52119714,0.5706483,1007.8957,37.88838038,127.7398397,151.407470703125,0.32
2025-03-08 15:32:27.886,3.0580273,-9.336794,-0.44745782,-0.7147118,0.7031054,3.6957319,-52.275,-11.625,-23.98125,0.49044168,-0.5404735,0.58261883,1007.892,37.88838038,127.7398397,151.407470703125,0.32
2025-03-08 15:32:27.906,5.209175,-10.064212,-0.2847459,-0.6682861,0.8155045,3.92053,-52.3875,-9.88125,-23.94375,0.46240097,-0.56035936,0.5960913,1007.892,37.88838038,127.7398397,151.407470703125,0.32
2025-03-08 15:32:27.926,6.0107703,-10.856236,-0.50009996,-0.5913171,0.92118406,3.9156432,-51.956253,-7.2375,-24.393751,0.4326186,-0.5789687,0.60978603,1007.89594,37.88838038,127.7398397,151.407470703125,0.32
2025-03-08 15:32:27.946,5.84088,-10.992627,-0.9379865,-0.5833759,0.6627883,3.894263,-51.45,-3.4875002,-25.0125,0.4027759,-0.5963401,0.62235093,1007.89594,37.88838038,127.7398397,151.407470703125,0.32
2025-03-08 15:32:27.966,5.493921,-11.4353,-1.8376877,-0.7287617,0.47036588,4.089129,-50.568752,0.50625,-25.837502,0.37376663,-0.6140565,0.6325299,1007.9023,37.88838038,127.7398397,151.407470703125,0.32
2025-03-08 15:32:27.986,6.6759753,-11.870793,-2.440679,-1.1288781,0.5229002,4.3676834,-49.350002,4.7250004,-26.6625,0.3345629,-0.6380974,0.6421284,1007.9023,37.88838038,127.7398397,151.407470703125,0.32
2025-03-08 15:32:28.006,7.8556366,-11.487942,-1.9381863,-1.6358958,0.8045089,4.4898562,-47.756252,8.94375,-27.281252,0.2990777,-0.65914863,0.64631814,1007.9018,37.88838038,127.7398397,151.407470703125,0.32
2025-03-08 15:32:28.026,9.427721,-10.171889,0.086141616,-1.9449935,1.0097594,4.3627963,-46.21875,12.31875,-27.69375,0.26034373,-0.68063307,0.64707834,1007.9018,37.88838038,127.7398397,151.407470703125,0.32
2025-03-08 15:32:28.047,10.63849,-8.985049,1.7252251,-1.8081597,1.1380411,3.98406,-44.0625,15.900001,-27.675001,0.22174186,-0.69978297,0.6458117,1007.89325,37.88838038,127.7398397,151.407470703125,0.32
2025-03-08 15:32:28.067,11.126625,-8.274381,1.6677973,-1.4648538,1.0806198,3.3334892,-41.756252,19.331251,-27.843752,0.18646085,-0.71473336,0.64418924,1007.89325,37.88838038,127.7398397,151.407470703125,0.32
2025-03-08 15:32:28.088,9.454042,-8.018349,0.74177504,-1.2913681,1.0769546,2.8906121,-39.318752,22.59375,-27.6375,0.15577465,-0.7259647,0.6423996,1007.8786,37.88838038,127.7398397,151.407470703125,0.32
2025-03-08 15:32:28.106,8.420342,-7.9513497,0.8327023,-1.2345577,0.61208653,2.8313582,-36.300003,25.781252,-27.4125,0.12801577,-0.7355605,0.6399456,1007.8786,37.88838038,127.7398397,151.407470703125,0.32
2025-03-08 15:32:28.126,10.174282,-7.4177504,1.3591232,-1.048244,-0.11606431,2.8313582,-33.5625,28.143751,-27.187502,0.10403483,-0.7449072,0.6369181,1007.86053,37.88838038,127.7398397,151.407470703125,0.32
2025-03-08 15:32:28.146,11.808579,-6.5682983,1.7874385,-0.7990111,-0.52961975,2.525315,-31.2,29.962502,-26.325,0.08537474,-0.75318795,0.63411015,1007.86053,37.88838038,127.7398397,151.407470703125,0.32
2025-03-08 15:32:28.166,12.559926,-6.0394845,2.1391835,-0.47280934,-0.51801336,2.0818272,-28.706251,31.462502,-25.650002,0.068840235,-0.7604448,0.63189536,1007.85345,37.88838038,127.7398397,151.407470703125,0.32
2025-03-08 15:32:28.187,13.2921295,-6.3481584,1.1629118,-0.06169734,-0.15027274,1.4721841,-26.531252,32.831253,-24.956251,0.05924521,-0.7628191,0.63225347,1007.85345,37.88836642,127.7398175,150.364501953125,2.16
2025-03-08 15:32:28.207,12.409178,-6.812366,-0.5312066,0.010384701,0.23640467,0.9431752,-24.843752,33.956253,-24.093752,0.051687665,-0.7629906,0.6336608,1007.85223,37.88836642,127.7398175,150.364501953125,2.16
2025-03-08 15:32:28.227,10.983056,-7.9776707,-1.2849457,-0.17226386,0.46242464,0.5687151,-23.19375,35.025,-23.737501,0.045406796,-0.76301444,0.6341533,1007.85223,37.88836642,127.7398175,150.364501953125,2.16
2025-03-08 15:32:28.246,10.427921,-8.645268,-1.402194,-0.38728827,0.41355544,0.36407542,-22.06875,35.68125,-23.34375,0.03999428,-0.76406056,0.6328543,1007.8383,37.88836642,127.7398175,150.364501953125,2.16
2025-03-08 15:32:28.266,10.200603,-9.839287,-0.64606214,-0.6664535,0.29932374,0.25656322,-21.16875,35.925003,-23.1,0.035907928,-0.766636,0.62949055,1007.8383,37.88836642,127.7398175,150.364501953125,2.16
2025-03-08 15:32:28.286,11.085947,-10.73181,0.37567315,-0.81061757,0.124616414,0.053145237,-20.53125,36.112503,-23.1,0.033236273,-0.77040666,0.6245436,1007.8288,37.88836642,127.7398175,150.364501953125,2.16
2025-03-08 15:32:28.306,11.667403,-10.674382,2.3545375,-0.7672462,0.005497783,-0.3695732,-20.306252,36.112503,-22.837502,0.03415656,-0.7756451,0.61718637,1007.8288,37.88836642,127.7398175,150.364501953125,2.16
2025-03-08 15:32:28.326,11.954542,-11.73201,2.900101,-0.47769627,0.20586143,-0.81061757,-20.00625,36.318752,-22.63125,0.03830293,-0.7782556,0.6123442,1007.831,37.88836642,127.7398175,150.364501953125,2.16
2025-03-08 15:32:28.346,10.353744,-11.99522,3.4480574,-0.045203995,0.4667007,-1.1349868,-20.25,36.73125,-22.3125,0.044473507,-0.77818066,0.6097089,1007.831,37.88836642,127.7398175,150.364501953125,2.16
2025-03-08 15:32:28.366,9.504292,-11.535798,3.3786657,0.5326741,0.37384924,-1.2388338,-20.362501,37.0125,-22.10625,0.051693927,-0.7746731,0.6106689,1007.84296,37.88836642,127.7398175,150.364501953125,2.16
2025-03-08 15:32:28.386,10.504492,-11.870793,2.0937197,1.0787872,-0.38423395,-1.4837905,-20.8125,37.18125,-21.84375,0.06277076,-0.7682806,0.6151949,1007.84296,37.88836642,127.7398175,150.364501953125,2.16
2025-03-08 15:32:28.406,11.298908,-12.397214,0.5599205,1.3005311,-1.0512983,-1.9144502,-22.03125,36.9,-21.69375,0.080981284,-0.7603691,0.621314,1007.84686,37.88836642,127.7398175,150.364501953125,2.16
2025-03-08 15:32:28.426,11.502298,-13.354343,-0.4019942,1.2357794,-1.44103,-2.4428482,-23.23125,36.1875,-21.9375,0.106291905,-0.7500471,0.6273668,1007.84686,37.88836642,127.7398175,150.364501953125,2.16
2025-03-08 15:32:28.446,10.387243,-14.184652,-0.6029913,0.99815303,-1.536325,-2.9694138,-25.0125,35.2125,-22.10625,0.14491332,-0.7420186,0.62900996,1007.8378,37.88836642,127.7398175,150.364501953125,2.16
2025-03-08 15:32:28.466,9.394221,-13.395021,0.27756742,0.90224725,-1.4330888,-3.2192574,-26.8875,34.03125,-22.725,0.1780122,-0.7338079,0.6280832,1007.8378,37.88836642,127.7398175,150.364501953125,2.16
2025-03-08 15:32:28.486,8.650054,-11.184053,0.0741775,0.9572251,-1.178969,-3.4361143,-29.250002,32.49375,-23.475,0.21101956,-0.72401476,0.62639844,1007.83466,37.88836642,127.7398175,150.364501953125,2.16
2025-03-08 15:32:28.506,8.200203,-10.059426,-0.43070808,0.8930843,-0.77702,-3.6572475,-31.800001,30.993752,-23.6625,0.24366437,-0.71238995,0.62404656,1007.83466,37.88836642,127.7398175,150.364501953125,2.16
2025-03-08 15:32:28.526,7.7072816,-9.865608,-0.66041905,0.7531963,-0.44409868,-3.889987,-34.74375,29.118752,-23.868752,0.27473232,-0.6991065,0.6205839,1007.82587,37.88836642,127.7398175,150.364501953125,2.16
2025-03-08 15:32:28.546,6.778867,-10.260424,-0.0047856453,0.7110466,-0.25717407,-4.0622506,-37.3125,26.906252,-23.831251,0.30467954,-0.6844271,0.6156792,1007.82587,37.88836642,127.7398175,150.364501953125,2.16
2025-03-08 15:32:28.566,6.6759753,-10.437492,0.50009996,0.9101885,-0.38545567,-4.1263914,-39.84375,24.768751,-23.493752,0.33430037,-0.6679655,0.6102973,1007.8271,37.88836642,127.7398175,150.364501953125,2.16
2025-03-08 15:32:28.586,7.1066833,-10.686346,-0.4139583,1.11605,-0.7354812,-4.3029313,-42.506252,21.45,-23.550001,0.37375832,-0.6445379,0.60292774,1007.8271,37.88836642,127.7398175,150.364501953125,2.16
2025-03-08 15:32:28.606,6.4558353,-11.0811615,-1.2394822,1.0231985,-0.92546016,-4.496576,-44.756252,17.85,-23.41875,0.4078355,-0.62434816,0.59459436,1007.8339,37.88836642,127.7398175,150.364501953125,2.16
2025-03-08 15:32:28.627,5.0081778,-11.006984,-1.282553,0.83505213,-0.9816597,-4.5210104,-47.175003,14.025001,-23.19375,0.44203326,-0.6038521,0.5834349,1007.8339,37.88836642,127.7398175,150.364501953125,2.16
2025-03-08 15:32:28.648,3.7280176,-10.750952,-1.1318051,0.5852085,-0.9462295,-4.2803297,-49.18125,9.75,-23.04375,0.47438496,-0.5839574,0.57016,1007.8359,37.88836642,127.7398175,150.364501953125,2.16
2025-03-08 15:32:28.666,3.4432719,-10.279566,-0.8709874,0.3970621,-0.6829468,-3.9730644,-50.756252,5.83125,-22.5,0.503023,-0.5650836,0.5562169,1007.8359,37.88836642,127.7398175,150.364501953125,2.16
2025-03-08 15:32:28.686,3.278167,-9.88475,-0.9738788,0.2950477,-0.2516763,-3.6804602,-52.0125,1.95,-21.900002,0.5270424,-0.5466625,0.5431959,1007.8371,37.88836642,127.7398175,150.364501953125,2.16
2025-03-08 15:32:28.706,2.524428,-10.1288185,-1.0839486,0.19914192,0.15210533,-3.3084435,-52.800003,-1.9312501,-21.28125,0.546177,-0.5282077,0.5323158,1007.8371,37.88836642,127.7398175,150.364501953125,2.16
2025-03-08 15:32:28.726,1.3591232,-10.107283,-0.73459655,0.21991132,0.47708538,-2.6963573,-53.175003,-5.71875,-20.6625,0.56329465,-0.50637394,0.5225725,1007.84076,37.88836642,127.7398175,150.364501953125,2.16
2025-03-08 15:32:28.747,0.6795616,-10.183853,-0.64845496,0.35796675,0.54489136,-2.091601,-53.325,-9.168751,-20.41875,0.5703374,-0.4945695,0.51940954,1007.84076,37.88836642,127.7398175,150.364501953125,2.16
2025-03-08 15:32:28.767,-0.07178468,-10.167104,-1.3974084,0.5338958,0.21258095,-1.2211187,-53.1375,-12.168751,-20.6625,0.5789578,-0.47915408,0.5177312,1007.84955,37.88836642,127.7398175,150.364501953125,2.16
2025-03-08 15:32:28.786,-0.9451649,-9.238688,-2.2947168,0.5009091,0.09224058,-0.29810202,-52.85625,-14.250001,-20.94375,0.58343786,-0.47273025,0.5185836,1007.84955,37.88836642,127.7398175,150.364501953125,2.16
2025-03-08 15:32:28.806,-0.92602235,-7.786245,-2.524428,0.29016078,0.16371176,0.64446235,-52.74375,-15.900001,-21.487501,0.5833248,-0.47225818,0.5222422,1007.8464,37.88836642,127.7398175,150.364501953125,2.16
2025-03-08 15:32:28.826,0.83748794,-8.059027,-2.2085752,0.11911863,0.25228715,1.5192207,-52.36875,-16.6875,-21.768751,0.578083,-0.4773369,0.5287707,1007.8464,37.88836642,127.7398175,150.364501953125,2.16
2025-03-08 15:32:28.846,1.8520447,-7.5086775,-2.210968,-0.021991132,0.5668825,2.1673481,-52.3875,-16.96875,-21.84375,0.5650282,-0.48903698,0.540783,1007.84784,37.88836642,127.7398175,150.364501953125,2.16
2025-03-08 15:32:28.867,3.3140593,-7.735996,-2.4095724,-0.20586143,0.98776835,2.5741842,-52.55625,-16.5375,-21.956251,0.548815,-0.5005895,0.5536098,1007.84784,37.88836642,127.7398175,150.364501953125,2.16
2025-03-08 15:32:28.887,4.1898327,-8.327023,-2.455036,-0.3988947,1.2113448,2.7989824,-52.500004,-14.306251,-22.368752,0.5280323,-0.5132703,0.568045,1007.8542,37.88836642,127.7398175,150.364501953125,2.16
2025-03-08 15:32:28.906,3.711268,-9.628718,-2.6273193,-0.56627166,1.0867285,3.0555456,-52.66875,-13.387501,-22.66875,0.5046045,-0.52720433,0.5822301,1007.8542,37.88836642,127.7398175,150.364501953125,2.16
2025-03-08 15:32:28.926,2.8666015,-10.293923,-2.6392834,-0.71043575,0.80695236,3.4501643,-52.85625,-10.9125,-23.362501,0.479608,-0.54375213,0.5950746,1007.8593,37.88836642,127.7398175,150.364501953125,2.16
2025-03-08 15:32:28.946,2.7972097,-10.99502,-2.778067,-0.9327905,0.7299834,4.05492,-52.55625,-8.175,-24.54375,0.45190912,-0.56393516,0.60678965,1007.8593,37.88836642,127.7398175,150.364501953125,2.16
2025-03-08 15:32:28.968,4.4243293,-11.207981,-2.5292134,-1.3213005,0.92057323,4.715876,-52.275,-5.2125,-25.2,0.4188624,-0.58734876,0.61791366,1007.8608,37.88836642,127.7398175,150.364501953125,2.16
2025-03-08 15:32:28.986,6.245267,-11.674582,-2.1008983,-1.6823215,1.0818415,5.095223,-51.881252,-1.6875001,-26.2875,0.379761,-0.61280024,0.62786883,1007.8608,37.88836642,127.7398175,150.364501953125,2.16
2025-03-08 15:32:29.006,8.233703,-12.21536,-0.6125626,-1.9529347,0.8142828,5.2516046,-50.60625,2.25,-27.187502,0.33676654,-0.6394831,0.63489014,1007.85394,37.88836642,127.7398175,150.364501953125,2.16
2025-03-08 15:32:29.026,10.30828,-12.306287,0.66999036,-1.9376631,0.7055488,5.164251,-49.406254,6.3750005,-27.525002,0.28282762,-0.671986,0.63893783,1007.85394,37.88836642,127.7398175,150.364501953125,2.16
2025-03-08 15:32:29.046,11.97847,-11.097912,2.0410776,-1.797775,0.5876519,4.734202,-47.287502,10.668751,-27.91875,0.2412044,-0.6943332,0.6399884,1007.8566,37.88836642,127.7398175,150.364501953125,2.16
2025-03-08 15:32:29.066,12.0023985,-9.74836,2.926422,-1.3542873,0.35979936,4.1251698,-44.550003,15.20625,-27.862501,0.20502833,-0.71199244,0.63986844,1007.8566,37.88836642,127.7398175,150.364501953125,2.16
2025-03-08 15:32:29.087,11.676974,-9.042477,2.3665016,-0.89125174,0.3848448,3.6150978,-41.775,19.5,-27.487501,0.17439689,-0.724591,0.6404066,1007.8586,37.88836642,127.7398175,150.364501953125,2.16
2025-03-08 15:32:29.108,11.473584,-8.200203,0.66041905,-0.6872229,0.8045089,3.0848672,-38.68125,23.2875,-27.056252,0.14656922,-0.7329894,0.64193255,1007.8586,37.88836642,127.7398175,150.364501953125,2.16
2025-03-08 15:32:29.127,10.339387,-7.8556366,-0.4211368,-0.85582155,1.0616829,2.583958,-34.29375,27.50625,-26.625002,0.113632865,-0.7407726,0.6425456,1007.8647,37.88836642,127.7398175,150.364501953125,2.16
2025-03-08 15:32:29.147,9.0233345,-6.984649,0.14117654,-1.043357,1.0262529,2.3524404,-32.9625,28.725,-26.550001,0.09496689,-0.7455215,0.6410947,1007.8647,37.88836642,127.7398175,150.364501953125,2.16
2025-03-08 15:32:29.168,8.927621,-7.920243,1.1102697,-1.0201442,0.77274394,2.2437062,-30.525002,30.35625,-26.343752,0.066194646,-0.75364965,0.6367719,1007.86444,37.88836642,127.7398175,150.364501953125,2.16
2025-03-08 15:32:29.187,10.49492,-8.9013,1.4069797,-0.85948676,0.32192573,2.213774,-28.0125,31.66875,-26.1,0.04591072,-0.75936663,0.63348985,1007.86444,37.88836048,127.73980377,149.83331298828125,2.19
2025-03-08 15:32:29.206,12.406785,-9.080762,1.1509477,-0.7073814,0.023823727,1.933387,-25.687502,32.7,-25.331251,0.029567545,-0.76408774,0.63083094,1007.86566,37.88836048,127.73980377,149.83331298828125,2.19
2025-03-08 15:32:29.226,13.03849,-8.82473,1.18684,-0.650571,-0.16004658,1.4691298,-23.56875,33.862503,-24.73125,0.017787,-0.76810634,0.6281282,1007.86566,37.88836048,127.73980377,149.83331298828125,2.19
2025-03-08 15:32:29.247,13.3639145,-9.765109,1.5577276,-0.51190466,-0.51373726,0.94928384,-21.46875,35.11875,-23.60625,0.011132694,-0.77168185,0.62528974,1007.86395,37.88836048,127.73980377,149.83331298828125,2.19
2025-03-08 15:32:29.266,13.576876,-10.396814,1.6749759,-0.3591885,-0.67622733,0.5540544,-20.1,35.98125,-22.96875,0.010058966,-0.77507454,0.6226172,1007.86395,37.88836048,127.73980377,149.83331298828125,2.19
2025-03-08 15:32:29.287,13.756337,-11.064412,2.0003998,-0.25961754,-0.50029826,0.13377939,-19.21875,36.7125,-22.5,0.012699819,-0.7768032,0.6210719,1007.86786,37.88836048,127.73980377,149.83331298828125,2.19
2025-03-08 15:32:29.306,13.684553,-12.172289,2.7086751,-0.06169734,-0.239459,-0.27183482,-18.2625,37.050003,-22.06875,0.015836831,-0.7772993,0.62039036,1007.86786,37.88836048,127.73980377,149.83331298828125,2.19
2025-03-08 15:32:29.326,12.9547415,-10.777273,3.2733815,0.33231044,-0.023823727,-0.6524036,-17.90625,37.10625,-21.9375,0.023153156,-0.7755765,0.62151724,1007.8754,37.88836048,127.73980377,149.83331298828125,2.19
2025-03-08 15:32:29.347,13.464413,-10.403993,2.3665016,0.6316342,0.05864302,-1.0965023,-18.0,37.237503,-21.65625,0.031197475,-0.7714981,0.62489784,1007.8754,37.88836048,127.73980377,149.83331298828125,2.19
2025-03-08 15:32:29.366,13.550554,-11.655439,1.7994026,0.85582155,-0.18264857,-1.7226387,-18.018751,37.48125,-21.69375,0.043908704,-0.7657664,0.6292195,1007.88153,37.88836048,127.73980377,149.83331298828125,2.19
2025-03-08 15:32:29.387,12.789637,-13.416556,0.95473623,1.0231985,-0.718377,-2.4495678,-18.956251,37.21875,-22.0125,0.06356814,-0.7587056,0.6337701,1007.88153,37.88836048,127.73980377,149.83331298828125,2.19
2025-03-08 15:32:29.406,11.373086,-14.222938,0.27996024,1.0054834,-1.1258237,-3.026835,-20.19375,36.675003,-22.66875,0.09814731,-0.7489317,0.6379568,1007.88007,37.88836048,127.73980377,149.83331298828125,2.19
2025-03-08 15:32:29.426,10.0163555,-14.390435,0.13160525,0.87109315,-1.2235621,-3.3585346,-21.975,35.71875,-23.2875,0.13038445,-0.74083096,0.63893574,1007.88007,37.88836048,127.73980377,149.83331298828125,2.19
2025-03-08 15:32:29.446,8.867801,-13.861622,0.5479564,0.8155045,-1.265101,-3.5198028,-24.525002,34.40625,-23.925001,0.15567374,-0.7344987,0.6383061,1007.87787,37.88836048,127.73980377,149.83331298828125,2.19
2025-03-08 15:32:29.467,7.728817,-11.942577,1.6893328,0.92057323,-1.4911209,-3.6224282,-27.4125,33.225002,-24.243752,0.19031304,-0.7252596,0.6363223,1007.87787,37.88836048,127.73980377,149.83331298828125,2.19
2025-03-08 15:32:29.487,8.056634,-10.822737,0.94755775,1.0848958,-1.2596031,-3.7702575,-30.31875,31.518751,-24.431252,0.23514685,-0.7109339,0.63357264,1007.882,37.88836048,127.73980377,149.83331298828125,2.19
2025-03-08 15:32:29.507,7.2095747,-10.57149,0.29910284,1.0732894,-0.59620404,-3.9999425,-33.525,29.475,-24.6375,0.26971194,-0.6964889,0.6313672,1007.882,37.88836048,127.73980377,149.83331298828125,2.19
2025-03-08 15:32:29.526,6.903293,-10.30828,0.10049855,1.0965023,-0.041538805,-4.1392198,-36.787502,27.0375,-24.187502,0.30092093,-0.679465,0.62934,1007.8942,37.88836048,127.73980377,149.83331298828125,2.19
2025-03-08 15:32:29.547,6.381658,-10.310673,-0.22013968,1.1355976,-0.07941242,-4.2980447,-39.600002,24.206251,-24.281252,0.3301444,-0.65993446,0.6272746,1007.8942,37.88836048,127.73980377,149.83331298828125,2.19
2025-03-08 15:32:29.567,6.13759,-10.18146,-1.2394822,1.0109812,-0.76907873,-4.417774,-42.318752,21.13125,-24.431252,0.36938444,-0.63470685,0.62116146,1007.8896,37.88836048,127.73980377,149.83331298828125,2.19
2025-03-08 15:32:29.586,5.953343,-10.526027,-1.4691931,0.77396566,-1.2394446,-4.539947,-44.362503,17.90625,-24.393751,0.40415934,-0.6157512,0.6111068,1007.8896,37.88836048,127.73980377,149.83331298828125,2.19
2025-03-08 15:32:29.606,4.575077,-10.750952,-1.253839,0.51801336,-1.1527019,-4.467865,-46.29375,14.343751,-24.712502,0.4391441,-0.59768754,0.59735614,1007.88495,37.88836048,127.73980377,149.83331298828125,2.19
2025-03-08 15:32:29.626,3.6323047,-10.595419,-0.53359944,0.29688028,-0.72937256,-4.186867,-48.35625,10.44375,-24.093752,0.46978867,-0.57998097,0.5829155,1007.88495,37.88836048,127.73980377,149.83331298828125,2.19
2025-03-08 15:32:29.646,2.9240294,-10.114461,-0.31345975,0.2046397,-0.17653993,-3.8252354,-50.2125,6.58125,-23.2875,0.49448028,-0.56213975,0.57009333,1007.8759,37.88836048,127.73980377,149.83331298828125,2.19
2025-03-08 15:32:29.666,3.0269206,-9.65504,-0.42592242,0.17898338,0.16187917,-3.4501643,-51.7125,2.53125,-22.556252,0.5135939,-0.54415596,0.5598378,1007.8759,37.88836048,127.73980377,149.83331298828125,2.19
2025-03-08 15:32:29.686,2.7708886,-9.600004,-0.7752745,0.15393792,0.2999346,-3.062876,-52.612503,-1.2,-21.993752,0.52899086,-0.5268446,0.5512561,1007.87836,37.88836048,127.73980377,149.83331298828125,2.19
2025-03-08 15:32:29.706,2.5674987,-9.798609,-0.8470592,0.10995566,0.28527385,-2.5589125,-53.04375,-4.4625,-21.88125,0.5440198,-0.5074693,0.54227626,1007.87836,37.88836048,127.73980377,149.83331298828125,2.19
2025-03-08 15:32:29.726,2.5028925,-9.652647,-0.7537391,0.16859868,0.14966187,-2.1306963,-52.893753,-7.6312504,-21.993752,0.55387026,-0.49450484,0.5360267,1007.88495,37.88836048,127.73980377,149.83331298828125,2.19
2025-03-08 15:32:29.746,2.469393,-9.700503,-1.6079768,0.18814635,-0.020769402,-1.7427973,-52.518753,-9.993751,-22.59375,0.56255615,-0.4838765,0.5306743,1007.88495,37.88836048,127.73980377,149.83331298828125,2.19
2025-03-08 15:32:29.767,0.7752745,-9.506684,-2.5387847,0.07208204,-0.02932151,-1.1856885,-52.575,-12.225,-22.800001,0.5696825,-0.4763163,0.52594036,1007.8825,37.88836048,127.73980377,149.83331298828125,2.19
2025-03-08 15:32:29.787,-1.2299109,-8.630911,-3.1489546,-0.216857,0.23273948,-0.22174391,-52.3875,-14.400001,-22.800001,0.57220423,-0.4733107,0.5236623,1007.8825,37.88836048,127.73980377,149.83331298828125,2.19
2025-03-08 15:32:29.808,-1.3304094,-7.5469627,-2.4023938,-0.6725621,0.54550225,1.2327251,-52.162502,-16.2,-22.706251,0.56452197,-0.4787841,0.52669805,1007.8754,37.88836048,127.73980377,149.83331298828125,2.19
2025-03-08 15:32:29.826,0.66041905,-7.7001033,-0.88295156,-0.7562506,0.68050337,2.1111486,-52.218754,-16.462502,-22.59375,0.5541216,-0.4870315,0.53175586,1007.8754,37.88836048,127.73980377,149.83331298828125,2.19
2025-03-08 15:32:29.846,3.455236,-8.702696,-0.4139583,-0.5064069,0.9456187,2.7818782,-52.125004,-16.40625,-22.893751,0.535411,-0.5010063,0.5426521,1007.882,37.88836048,127.73980377,149.83331298828125,2.19
2025-03-08 15:32:29.866,5.197211,-9.710074,-1.2777673,-0.20891576,1.0005965,3.0824237,-51.91875,-15.168751,-23.60625,0.5133803,-0.5149986,0.557899,1007.882,37.88836048,127.73980377,149.83331298828125,2.19
2025-03-08 15:32:29.886,4.800002,-10.226924,-2.6919255,-0.07880156,0.54611313,3.3408196,-52.050003,-13.33125,-24.093752,0.48569632,-0.53252023,0.57809204,1007.88055,37.88836048,127.73980377,149.83331298828125,2.19
2025-03-08 15:32:29.906,4.3238306,-10.595419,-3.117848,-0.1404989,0.056199558,3.6792386,-52.10625,-10.762501,-25.2,0.46980637,-0.5448608,0.588787,1007.88055,37.88836048,127.73980377,149.83331298828125,2.19
2025-03-08 15:32:29.926,4.208975,-10.006784,-2.9359934,-0.3158171,-0.058032155,4.1764827,-51.693752,-7.6125,-25.875002,0.44231912,-0.5695524,0.6040539,1007.87616,37.88836048,127.73980377,149.83331298828125,2.19
2025-03-08 15:32:29.946,5.845666,-9.7196455,-2.7182465,-0.5888736,0.42943794,4.4525933,-51.393753,-4.18125,-26.212502,0.41533133,-0.59065247,0.6160472,1007.87616,37.88836048,127.73980377,149.83331298828125,2.19
2025-03-08 15:32:29.966,7.042077,-8.953942,-1.6319051,-0.87536925,1.0922263,4.424494,-50.625004,-0.39375,-26.437502,0.38245106,-0.61088055,0.6277768,1007.873,37.88836048,127.73980377,149.83331298828125,2.19
2025-03-08 15:32:29.986,7.4344997,-7.987242,-0.124426775,-0.8478803,1.5204425,4.2351255,-49.875004,3.2062502,-26.643751,0.34542742,-0.62847173,0.6391498,1007.873,37.88836048,127.73980377,149.83331298828125,2.19
2025-03-08 15:32:30.006,7.6259255,-7.4273214,-0.5024927,-0.64201885,1.3274091,4.0091057,-48.656254,6.8812504,-27.075,0.29955724,-0.64584017,0.6525372,1007.88153,37.88836048,127.73980377,149.83331298828125,2.19
2025-03-08 15:32:30.027,7.685746,-7.891529,-2.158326,-0.65790135,0.87475836,3.798968,-46.725002,10.387501,-27.768751,0.26662964,-0.6577974,0.6610095,1007.88153,37.88836048,127.73980377,149.83331298828125,2.19
2025-03-08 15:32:30.047,8.532805,-8.123632,-2.2660031,-0.8998038,0.3103193,3.6615236,-44.662502,13.593751,-28.706251,0.23706712,-0.6706324,0.66571695,1007.8759,37.88836048,127.73980377,149.83331298828125,2.19
2025-03-08 15:32:30.066,9.891929,-8.492127,-1.6486548,-0.9798271,-0.12767074,3.6205955,-42.28125,16.612501,-29.456251,0.21119347,-0.6845558,0.6668779,1007.8759,37.88836048,127.73980377,149.83331298828125,2.19
2025-03-08 15:32:30.086,11.722438,-8.788837,-1.820938,-1.133765,0.089797124,3.4776533,-39.768753,19.5375,-29.775002,0.18695816,-0.69823587,0.666118,1007.8647,37.88836048,127.73980377,149.83331298828125,2.19
2025-03-08 15:32:30.107,12.691531,-8.078169,-1.416551,-1.4984514,0.64262974,3.1819947,-37.706253,22.125,-29.7,0.16107821,-0.7114297,0.66332823,1007.8647,37.88836048,127.73980377,149.83331298828125,2.19
2025-03-08 15:32:30.126,13.521841,-7.2957163,0.3182454,-1.698204,0.7703005,2.7122395,-35.30625,24.45,-29.437502,0.13434719,-0.72450423,0.6577023,1007.8525,37.88836048,127.73980377,149.83331298828125,2.19
2025-03-08 15:32:30.147,13.971691,-7.4919276,2.0745773,-1.522275,0.5772672,2.0995421,-33.018753,27.000002,-28.9125,0.10575363,-0.7390784,0.6485814,1007.8525,37.88836048,127.73980377,149.83331298828125,2.19
2025-03-08 15:32:30.167,13.856836,-8.819944,1.5744773,-1.2968659,0.29749113,1.6255112,-30.843752,29.04375,-27.993752,0.09288251,-0.74604607,0.643419,1007.84174,37.8883556,127.73978696,149.44720458984375,1.74
2025-03-08 15:32:30.186,12.825529,-9.812965,1.39023,-1.2486076,-0.008552107,1.1801908,-28.556252,30.806252,-27.431252,0.07844575,-0.756134,0.6347724,1007.84174,37.8883556,127.73978696,149.44720458984375,1.74
2025-03-08 15:32:30.207,13.07199,-10.734202,1.8089739,-1.3023638,-0.11911863,0.8998038,-26.306252,32.79375,-25.650002,0.07061578,-0.76393306,0.6271864,1007.8486,37.8883556,127.73978696,149.44720458984375,1.74
2025-03-08 15:32:30.227,13.825729,-11.059627,2.8833513,-1.2834269,-0.2535089,0.5772672,-25.612501,33.1875,-25.181252,0.065481745,-0.77163124,0.61891264,1007.8486,37.8883556,127.73978696,149.44720458984375,1.74
2025-03-08 15:32:30.246,14.189438,-12.143575,4.5152564,-0.95294905,-0.3677406,0.074525505,-24.843752,33.9,-24.2625,0.06449775,-0.778171,0.61112565,1007.8586,37.8883556,127.73978696,149.44720458984375,1.74
2025-03-08 15:32:30.267,13.351951,-11.909079,5.259424,-0.39828384,-0.22113305,-0.30726498,-24.056252,34.78125,-23.081251,0.06730672,-0.7817829,0.6060638,1007.8586,37.8883556,127.73978696,149.44720458984375,1.74
2025-03-08 15:32:30.286,12.646068,-10.693524,4.9698925,0.24434592,0.09957096,-0.5888736,-23.75625,35.381252,-22.050001,0.071987845,-0.7813405,0.6052888,1007.8835,37.8883556,127.73978696,149.44720458984375,1.74
2025-03-08 15:32:30.308,12.849458,-11.277373,3.0532417,0.7299834,0.25228715,-1.0488548,-23.60625,35.9625,-21.225,0.07983016,-0.7753357,0.6098178,1007.8835,37.8883556,127.73978696,149.44720458984375,1.74
2025-03-08 15:32:30.326,12.593426,-12.000006,1.6917256,0.94256437,-0.05986475,-1.5198315,-23.8875,36.1875,-21.018751,0.08761411,-0.7699909,0.613766,1007.90985,37.8883556,127.73978696,149.44720458984375,1.74
2025-03-08 15:32:30.346,11.655439,-12.677175,0.5312066,0.9456187,-0.6359102,-2.0580034,-24.73125,35.8875,-20.90625,0.10394629,-0.7622401,0.61857235,1007.90985,37.8883556,127.73978696,149.44720458984375,1.74
2025-03-08 15:32:30.367,10.47817,-13.342379,1.0743774,0.9120211,-1.147204,-2.476446,-25.81875,35.04375,-21.581251,0.13355252,-0.7530471,0.62177396,1007.9145,37.8883556,127.73978696,149.44720458984375,1.74
2025-03-08 15:32:30.386,9.525827,-12.162718,1.3950156,1.0060943,-0.916908,-2.583958,-27.393751,33.84375,-22.03125,0.16025025,-0.74490756,0.6234074,1007.9145,37.8883556,127.73978696,149.44720458984375,1.74
2025-03-08 15:32:30.407,9.0233345,-9.879965,1.2729816,1.2101232,-0.19486587,-2.7818782,-29.8875,32.0625,-22.59375,0.19117896,-0.7314131,0.62680054,1007.9128,37.8883556,127.73978696,149.44720458984375,1.74
2025-03-08 15:32:30.427,9.410972,-9.040084,0.9212367,1.3548981,0.15821397,-3.12213,-32.025,31.0125,-22.800001,0.21414971,-0.7175344,0.63048345,1007.9128,37.8883556,127.73978696,149.44720458984375,1.74
2025-03-08 15:32:30.446,10.167104,-9.188439,0.37567315,1.495397,0.021991132,-3.495979,-33.3375,30.16875,-22.725,0.23876505,-0.701101,0.6339494,1007.92255,37.8883556,127.73978696,149.44720458984375,1.74
2025-03-08 15:32:30.466,9.62154,-9.571291,-0.15314065,1.5998548,-0.43554658,-3.9944448,-35.30625,28.556252,-23.456251,0.26823622,-0.6825579,0.635707,1007.92255,37.8883556,127.73978696,149.44720458984375,1.74
2025-03-08 15:32:30.486,7.9633136,-9.925428,-0.62931234,1.576642,-0.8173371,-4.341416,-37.7625,26.156252,-24.243752,0.30298975,-0.66269565,0.6344286,1007.9172,37.8883556,127.73978696,149.44720458984375,1.74
2025-03-08 15:32:30.506,6.3960147,-10.013963,-1.3710874,1.373224,-0.7843504,-4.4141088,-40.237503,23.56875,-24.900002,0.33923966,-0.64221776,0.63021356,1007.9172,37.8883556,127.73978696,149.44720458984375,1.74
2025-03-08 15:32:30.526,5.800202,-10.236495,-1.5337993,1.047633,-0.56321734,-4.265669,-42.54375,20.19375,-25.556252,0.37304214,-0.6220463,0.6236712,1007.9128,37.8883556,127.73978696,149.44720458984375,1.74
2025-03-08 15:32:30.546,6.570691,-9.939785,-1.2490535,0.763581,-0.5100721,-4.1777043,-44.925003,16.40625,-25.81875,0.40325072,-0.60266596,0.6153902,1007.9128,37.8883556,127.73978696,149.44720458984375,1.74
2025-03-08 15:32:30.566,6.613762,-9.757931,-0.57188463,0.61330825,-0.59620404,-4.255895,-47.25,12.31875,-25.66875,0.4319551,-0.5838533,0.6047705,1007.90106,37.8883556,127.73978696,149.44720458984375,1.74
2025-03-08 15:32:30.586,5.1756754,-9.817751,-0.93320084,0.478918,-0.42210758,-4.2387905,-48.956253,7.8,-25.706251,0.45997176,-0.56462044,0.5922962,1007.90106,37.8883556,127.73978696,149.44720458984375,1.74
2025-03-08 15:32:30.606,3.548556,-10.176675,-1.0193424,0.26572618,0.037873615,-3.9602363,-50.362503,3.7687502,-25.3875,0.4898682,-0.54017425,0.5766325,1007.90594,37.8883556,127.73978696,149.44720458984375,1.74
2025-03-08 15:32:30.626,2.658426,-10.427921,-0.63170516,0.17837252,0.2516763,-3.573559,-51.375004,-0.16875,-24.843752,0.50824326,-0.52121603,0.5654943,1007.90594,37.8883556,127.73978696,149.44720458984375,1.74
2025-03-08 15:32:30.646,2.4717858,-10.217353,-0.28235307,0.27183482,0.15699224,-3.158171,-51.6375,-3.7125,-24.975,0.523454,-0.50348425,0.5557362,1007.9101,37.8883556,127.73978696,149.44720458984375,1.74
2025-03-08 15:32:30.666,2.0865414,-9.722038,-0.8470592,0.4905244,-0.21074834,-2.6945245,-51.843754,-7.1062503,-25.125002,0.5379415,-0.4872897,0.546834,1007.9101,37.8883556,127.73978696,149.44720458984375,1.74
2025-03-08 15:32:30.686,1.1533405,-10.0881405,-1.2801601,0.6646209,-0.53511757,-2.1025965,-51.562504,-10.200001,-25.181252,0.5526335,-0.47375876,0.5383509,1007.92084,37.8883556,127.73978696,149.44720458984375,1.74
2025-03-08 15:32:30.707,-0.2847459,-9.080762,-2.5411777,0.731816,-0.6591231,-1.2534945,-51.037502,-12.712501,-25.3875,0.5661077,-0.46395868,0.5317075,1007.92084,37.8883556,127.73978696,149.44720458984375,1.74
2025-03-08 15:32:30.726,0.5886344,-8.013563,-3.830909,0.5247328,-0.64385146,-0.32864526,-51.075,-15.225,-25.0125,0.5759741,-0.459342,0.5278695,1007.9211,37.8883556,127.73978696,149.44720458984375,1.74
2025-03-08 15:32:30.746,2.1367905,-7.1808605,-4.65404,0.13377939,-0.6035344,0.37934703,-50.98125,-16.78125,-24.468752,0.5810579,-0.46071845,0.5261007,1007.9211,37.8883556,127.73978696,149.44720458984375,1.74
2025-03-08 15:32:30.767,3.3284163,-5.5202417,-4.54397,-0.49235702,-0.30054548,0.9120211,-51.05625,-18.4125,-23.75625,0.58055764,-0.46955028,0.525117,1007.9235,37.8883556,127.73978696,149.44720458984375,1.74
2025-03-08 15:32:30.786,3.2973096,-6.113662,-4.2592244,-0.880867,0.09773836,1.2101232,-51.675003,-18.6375,-23.2875,0.5762045,-0.4773913,0.52515227,1007.9235,37.8883556,127.73978696,149.44720458984375,1.74
2025-03-08 15:32:30.806,2.7493532,-8.159525,-2.3186452,-1.368948,0.88758653,1.8979568,-52.0125,-18.018751,-22.81875,0.55977803,-0.49376965,0.5286673,1007.9223,37.8883556,127.73978696,149.44720458984375,1.74
2025-03-08 15:32:30.826,2.0985055,-9.049655,-0.57188463,-1.3817761,1.097724,2.4715588,-51.675003,-16.931252,-23.175001,0.538312,-0.5093003,0.5361729,1007.9223,37.8883556,127.73978696,149.44720458984375,1.74
2025-03-08 15:32:30.847,0.9164511,-9.982856,0.9020941,-1.0403028,0.74220073,3.4269514,-52.125004,-14.906251,-23.71875,0.5129889,-0.5275109,0.5467882,1007.92865,37.8883556,127.73978696,149.44720458984375,1.74
2025-03-08 15:32:30.866,2.268396,-11.19841,0.63888365,-0.57665634,0.36224282,4.531395,-52.18125,-12.450001,-24.656252,0.47793803,-0.55483836,0.56466544,1007.92865,37.8883556,127.73978696,149.44720458984375,1.74
2025-03-08 15:32:30.886,5.151747,-11.069198,-0.8039884,-0.36468628,0.18692462,5.0976667,-52.068752,-9.525001,-25.368752,0.4471492,-0.5789016,0.58157533,1007.9489,37.8883556,127.73978696,149.44720458984375,1.74
2025-03-08 15:32:30.906,6.556334,-10.794023,-1.5696917,-0.4331031,0.42088583,5.3383474,-52.218754,-6.20625,-25.85625,0.4135562,-0.60275227,0.5984564,1007.9489,37.8883556,127.73978696,149.44720458984375,1.74
2025-03-08 15:32:30.927,7.001399,-10.490134,-1.2227324,-0.6261364,0.64568406,5.389049,-51.05625,-0.16875,-26.343752,0.37632325,-0.6252982,0.6140902,1007.9567,37.8883556,127.73978696,149.44720458984375,1.74
2025-03-08 15:32:30.946,7.3052874,-11.229517,-1.1557333,-0.7825178,0.7330377,5.449525,-50.49375,1.95,-26.5125,0.3364162,-0.646535,0.62759006,1007.9567,37.8883556,127.73978696,149.44720458984375,1.74
2025-03-08 15:32:30.966,8.408379,-11.574083,-0.5694918,-0.9908227,0.51801336,5.3927145,-49.218754,6.15,-26.94375,0.29514006,-0.6670572,0.6380009,1007.9628,37.8883556,127.73978696,149.44720458984375,1.74
2025-03-08 15:32:30.987,9.475577,-11.387443,1.1174482,-1.0488548,0.30787584,5.199681,-47.5125,10.81875,-27.093752,0.24500075,-0.6911225,0.64597976,1007.9628,37.8883556,127.73978696,149.44720458984375,1.74
2025-03-08 15:32:31.007,10.904093,-10.760524,2.4430718,-0.86131936,0.29749113,5.0378017,-45.206253,14.85,-27.056252,0.21627101,-0.7036165,0.6492209,1007.9604,37.8883556,127.73978696,149.44720458984375,1.74
2025-03-08 15:32:31.026,14.553147,-8.88455,1.9884356,-0.55100006,0.68905544,4.4031134,-42.61875,18.65625,-27.018751,0.17065132,-0.718729,0.6547197,1007.9604,37.8883556,127.73978696,149.44720458984375,1.74
2025-03-08 15:32:31.046,15.347565,-7.8053875,1.119841,-0.5064069,1.1319324,3.324326,-39.412502,22.5375,-26.7,0.13824616,-0.72572327,0.65834135,1007.95917,37.8883556,127.73978696,149.44720458984375,1.74
2025-03-08 15:32:31.067,13.196417,-7.2119675,1.4835501,-0.433714,1.0952805,2.2382085,-34.40625,26.962502,-26.625002,0.10566655,-0.7310266,0.6602738,1007.95917,37.8883556,127.73978696,149.44720458984375,1.74
2025-03-08 15:32:31.086,12.335001,-7.109076,1.2969099,-0.17592905,0.8527672,1.8802418,-32.943752,28.10625,-26.625002,0.090737104,-0.73263806,0.66130716,1007.94745,37.8883556,127.73978696,149.44720458984375,1.74
2025-03-08 15:32:31.107,12.059826,-7.6331043,-1.1796615,-0.06475167,0.48624837,1.4025456,-29.868752,29.925001,-26.79375,0.07568669,-0.7331601,0.66340727,1007.94745,37.8883556,127.73978696,149.44720458984375,1.74
2025-03-08 15:32:31.126,11.653047,-8.872586,-2.8570302,-0.5112938,0.4721985,1.0012074,-26.8875,31.087502,-27.581251,0.065114185,-0.734566,0.6629392,1007.9372,37.8883556,127.73978696,149.44720458984375,1.74
2025-03-08 15:32:31.146,10.834701,-10.054641,-2.5339992,-1.1563671,0.72753996,0.75869405,-25.312502,31.968752,-27.993752,0.05569855,-0.7391838,0.65925974,1007.9372,37.8883556,127.73978696,149.44720458984375,1.74
2025-03-08 15:32:31.167,10.126426,-10.8682,-0.3469593,-1.5955788,0.76419187,0.67561644,-24.093752,32.4375,-28.1625,0.04530713,-0.74698967,0.65062225,1007.9179,37.8883556,127.73978696,149.44720458984375,1.74
2025-03-08 15:32:31.186,10.281959,-10.985449,2.0003998,-1.626122,0.64751667,0.6646209,-22.893751,33.318752,-27.900002,0.032530285,-0.758333,0.63736284,1007.9179,37.88834588,127.73977056,149.51422119140625,1.64
2025-03-08 15:32:31.207,11.676974,-11.289337,3.3906298,-1.3469568,0.56627166,0.52961975,-22.10625,34.0875,-27.187502,0.023501396,-0.76608324,0.62782836,1007.91327,37.88834588,127.73977056,149.51422119140625,1.64
2025-03-08 15:32:31.226,12.710674,-11.550155,4.213761,-0.80878496,0.44715303,0.16004658,-20.90625,35.100002,-25.95,0.017132673,-0.77140087,0.62064236,1007.91327,37.88834588,127.73977056,149.51422119140625,1.64
2025-03-08 15:32:31.246,12.229716,-10.676775,4.45065,-0.19730933,0.07880156,-0.21624613,-19.575,36.018753,-24.73125,0.015279321,-0.7734565,0.6170529,1007.92035,37.88834588,127.73977056,149.51422119140625,1.64
2025-03-08 15:32:31.266,11.830115,-10.07139,3.9696927,0.37018406,-0.46914417,-0.6139191,-18.9375,36.7125,-23.737501,0.019682884,-0.7724842,0.6173313,1007.92035,37.88834588,127.73977056,149.51422119140625,1.64
2025-03-08 15:32:31.286,11.696117,-10.688739,3.050849,0.903469,-1.1398736,-1.1123848,-18.84375,37.143753,-23.175001,0.03526838,-0.7678408,0.62204385,1007.9316,37.88834588,127.73977056,149.51422119140625,1.64
2025-03-08 15:32:31.307,11.430513,-10.99502,2.2492533,1.2162318,-1.5375466,-1.5216641,-18.956251,37.350002,-23.25,0.050132483,-0.7635352,0.62642455,1007.9316,37.88834588,127.73977056,149.51422119140625,1.64
2025-03-08 15:32:31.327,11.282159,-11.708081,1.0480564,1.3854413,-1.7269148,-2.09099,-20.23125,37.0875,-23.475,0.082148194,-0.7541853,0.6344891,1007.9362,37.88834588,127.73977056,149.51422119140625,1.64
2025-03-08 15:32:31.346,10.447063,-12.112468,0.41874397,1.3530655,-1.7085888,-2.547306,-22.143751,36.2625,-23.962502,0.11235022,-0.745382,0.6398545,1007.9362,37.88834588,127.73977056,149.51422119140625,1.64
2025-03-08 15:32:31.366,8.88455,-11.834901,0.22492532,1.2345577,-1.6297872,-2.8063128,-24.525002,35.100002,-23.90625,0.14438258,-0.73593235,0.6434311,1007.9299,37.88834588,127.73977056,149.51422119140625,1.64
2025-03-08 15:32:31.388,7.8317084,-10.502099,0.56470615,1.0879502,-1.6065744,-2.9278748,-26.962502,33.7125,-24.243752,0.17666674,-0.7261859,0.6451878,1007.9299,37.88834588,127.73977056,149.51422119140625,1.64
2025-03-08 15:32:31.406,8.233703,-9.891929,1.0001999,1.05252,-1.6120721,-3.0744824,-29.456251,32.0625,-24.393751,0.20925315,-0.7160893,0.6452978,1007.9206,37.88834588,127.73977056,149.51422119140625,1.64
2025-03-08 15:32:31.426,8.7266245,-9.619147,1.4691931,1.0861176,-1.6511675,-3.3469281,-32.0625,30.4125,-24.35625,0.24274543,-0.70473516,0.6443231,1007.9206,37.88834588,127.73977056,149.51422119140625,1.64
2025-03-08 15:32:31.446,8.681161,-9.707682,1.6223338,1.2205079,-1.8558072,-3.798968,-36.581253,27.35625,-24.375002,0.2882392,-0.68755805,0.64149165,1007.9235,37.88834588,127.73977056,149.51422119140625,1.64
2025-03-08 15:32:31.467,8.669196,-10.339387,0.7322037,1.238223,-1.6835433,-4.144107,-38.325,26.1375,-24.2625,0.3274819,-0.67095,0.6376515,1007.9235,37.88834588,127.73977056,149.51422119140625,1.64
2025-03-08 15:32:31.487,8.312666,-10.849058,-0.26081768,1.1404846,-1.2125666,-4.409222,-41.456253,23.60625,-23.868752,0.36587238,-0.6518804,0.6327145,1007.93256,37.88834588,127.73977056,149.51422119140625,1.64
2025-03-08 15:32:31.507,7.793423,-11.519048,-1.4859428,0.8967495,-0.67622733,-4.558273,-44.25,20.550001,-23.34375,0.40118387,-0.6309144,0.6269278,1007.93256,37.88834588,127.73977056,149.51422119140625,1.64
2025-03-08 15:32:31.526,7.1473613,-11.643475,-2.0027926,0.49846566,-0.31093016,-4.600423,-46.66875,17.0625,-22.706251,0.43263918,-0.6096262,0.61944973,1007.93304,37.88834588,127.73977056,149.51422119140625,1.64
2025-03-08 15:32:31.547,6.3481584,-11.289337,-1.5481563,0.09773836,-0.09468404,-4.62669,-48.693752,13.387501,-21.9375,0.46063605,-0.58890545,0.6096494,1007.93304,37.88834588,127.73977056,149.51422119140625,1.64
2025-03-08 15:32:31.566,5.0368915,-10.966306,-0.60059845,-0.049480047,-0.037262753,-4.5332274,-50.325,9.31875,-21.487501,0.49197873,-0.563471,0.5947391,1007.9235,37.88834588,127.73977056,149.51422119140625,1.64
2025-03-08 15:32:31.586,3.9170506,-10.394422,-0.31345975,-0.04214967,-0.13439025,-4.3102617,-51.750004,5.26875,-21.28125,0.5149644,-0.54333985,0.58176625,1007.9235,37.88834588,127.73977056,149.51422119140625,1.64
2025-03-08 15:32:31.606,2.8187451,-11.059627,-0.7896315,-0.043982264,-0.06169734,-3.9865036,-52.875004,0.975,-20.925001,0.53600615,-0.5236309,0.56862634,1007.92255,37.88834588,127.73977056,149.51422119140625,1.64
2025-03-08 15:32:31.626,1.727618,-11.475977,-0.98584294,-0.092851445,-0.12828161,-3.4410014,-53.568752,-3.0375001,-21.13125,0.5537021,-0.50555974,0.5563959,1007.92255,37.88834588,127.73977056,149.51422119140625,1.64
2025-03-08 15:32:31.646,1.7994026,-10.21496,-0.96909314,-0.12339468,-0.47952884,-2.7678282,-54.05625,-6.7125,-21.337502,0.5688665,-0.4914293,0.54434526,1007.9306,37.88834588,127.73977056,149.51422119140625,1.64
2025-03-08 15:32:31.666,2.4382863,-9.327223,-1.5888343,-0.23823726,-0.74281156,-2.1612396,-53.98125,-10.03125,-21.225,0.5824653,-0.48167357,0.5319985,1007.9306,37.88834588,127.73977056,149.51422119140625,1.64
2025-03-08 15:32:31.686,1.2490535,-8.891729,-1.4548361,-0.44409868,-0.4392118,-1.5589269,-53.775,-12.76875,-21.150002,0.5932786,-0.47568235,0.52017987,1007.9333,37.88834588,127.73977056,149.51422119140625,1.64
2025-03-08 15:32:31.706,0.22731815,-8.02792,-0.65084773,-0.46547896,0.44104436,-0.6725621,-53.60625,-15.01875,-20.6625,0.5973786,-0.47186613,0.51248896,1007.9333,37.88834588,127.73977056,149.51422119140625,1.64
2025-03-08 15:32:31.726,0.1268196,-7.6331043,-0.56470615,-0.29688028,1.1740822,0.24617851,-53.287502,-16.5,-20.306252,0.59356207,-0.47062746,0.5145272,1007.93524,37.88834588,127.73977056,149.51422119140625,1.64
2025-03-08 15:32:31.746,0.02632105,-7.200003,-0.9667004,-0.032986697,1.3665045,1.2925899,-52.875004,-17.53125,-20.15625,0.58006585,-0.47146687,0.5266679,1007.93524,37.88834588,127.73977056,149.51422119140625,1.64
2025-03-08 15:32:31.766,1.1964114,-7.5732837,-2.239682,0.043371398,1.2608249,2.127031,-52.537502,-17.7,-20.8875,0.56502366,-0.47647744,0.54134184,1007.9367,37.88834588,127.73977056,149.51422119140625,1.64
2025-03-08 15:32:31.787,2.4765713,-8.458628,-3.0795627,-0.1508836,1.0879502,2.7250679,-52.237503,-17.41875,-21.4125,0.5469432,-0.4862529,0.5573018,1007.9367,37.88834588,127.73977056,149.51422119140625,1.64
2025-03-08 15:32:31.808,3.050849,-9.444471,-2.5842485,-0.4575377,0.944397,3.3011134,-51.9,-16.743752,-22.48125,0.5255537,-0.5005224,0.57292014,1007.9438,37.88834588,127.73977056,149.51422119140625,1.64
2025-03-08 15:32:31.827,4.2592244,-9.887143,-1.5864414,-0.61208653,0.6157517,3.67313,-51.693752,-14.94375,-23.90625,0.5012563,-0.51869386,0.587541,1007.9438,37.88834588,127.73977056,149.51422119140625,1.64
2025-03-08 15:32:31.847,4.955536,-9.968499,-0.5072784,-0.53023064,0.3280344,3.9290822,-51.093754,-10.556251,-25.63125,0.46982673,-0.5444003,0.60359275,1007.93353,37.88834588,127.73977056,149.51422119140625,1.64
2025-03-08 15:32:31.868,5.123033,-10.028319,-0.7369894,-0.3988947,0.54916745,4.175872,-50.943752,-8.6625,-26.1,0.4434659,-0.564552,0.61647254,1007.93353,37.88834588,127.73977056,149.51422119140625,1.64
2025-03-08 15:32:31.886,5.197211,-9.647861,-1.2011969,-0.4648681,0.98776835,4.399448,-50.775,-4.6875,-26.306252,0.41324213,-0.5833087,0.63057876,1007.9372,37.88834588,127.73977056,149.51422119140625,1.64
2025-03-08 15:32:31.906,6.1567326,-9.446864,-1.3878372,-0.66706437,1.3121376,4.525897,-50.437504,-0.80625004,-26.75625,0.3782679,-0.60120404,0.6447415,1007.9372,37.88834588,127.73977056,149.51422119140625,1.64
2025-03-08 15:32:31.926,6.9726853,-8.793623,-1.1533405,-0.87475836,1.2113448,4.4403763,-49.893753,2.9625,-27.31875,0.34118754,-0.6187477,0.656667,1007.9372,37.88834588,127.73977056,149.51422119140625,1.64
2025-03-08 15:32:31.946,7.759924,-8.606983,-0.99302137,-1.0861176,1.0781764,4.219854,-48.61875,6.6562505,-28.10625,0.30496103,-0.6359932,0.6650678,1007.9372,37.88834588,127.73977056,149.51422119140625,1.64
2025-03-08 15:32:31.966,8.085348,-9.042477,-0.49292147,-1.2174535,1.1533127,4.006051,-46.66875,10.2375,-29.118752,0.26954556,-0.65251607,0.6703654,1007.9299,37.88834588,127.73977056,149.51422119140625,1.64
2025-03-08 15:32:31.986,8.4347,-9.377472,-0.23688944,-1.2522728,1.1392628,3.831344,-44.5875,13.856251,-29.79375,0.23425636,-0.66769445,0.6736578,1007.9299,37.88834588,127.73977056,149.51422119140625,1.64
2025-03-08 15:32:32.006,9.037691,-9.408579,-0.5407779,-1.2986985,0.8857539,3.600437,-41.9625,16.987501,-30.112501,0.20052798,-0.68162143,0.6750526,1007.91595,37.88834588,127.73977056,149.51422119140625,1.64
2025-03-08 15:32:32.026,8.941978,-9.394221,-0.9834501,-1.4605777,0.5907062,3.3224936,-39.318752,19.81875,-30.16875,0.16276804,-0.69838,0.6732054,1007.91595,37.88834588,127.73977056,149.51422119140625,1.64
2025-03-08 15:32:32.046,9.157332,-9.509077,-0.4977071,-1.6688826,0.25411975,3.1325145,-36.975002,22.59375,-30.000002,0.13584661,-0.71232295,0.6684079,1007.90814,37.88834588,127.73977056,149.51422119140625,1.64
2025-03-08 15:32:32.067,9.710074,-9.848858,0.54317075,-1.7366886,-0.017715078,2.9132142,-34.03125,25.087502,-29.6625,0.11221359,-0.7265186,0.66117954,1007.90814,37.88834588,127.73977056,149.51422119140625,1.64
2025-03-08 15:32:32.086,9.79143,-10.222138,1.3040884,-1.631009,0.033597562,2.7659957,-31.63125,27.468752,-28.743752,0.09073903,-0.73961073,0.65319157,1007.8869,37.88834588,127.73977056,149.51422119140625,1.64
2025-03-08 15:32:32.108,10.380065,-10.305887,1.7371893,-1.4453061,0.17226386,2.598008,-29.250002,29.400002,-27.843752,0.06977897,-0.75077665,0.64568543,1007.8869,37.88834588,127.73977056,149.51422119140625,1.64
2025-03-08 15:32:32.127,11.351551,-10.238888,2.3665016,-1.237612,0.1838703,2.3194535,-26.531252,31.5375,-27.093752,0.04986777,-0.75992155,0.63890314,1007.8835,37.88834588,127.73977056,149.51422119140625,1.64
2025-03-08 15:32:32.146,12.382857,-10.817951,2.4263222,-0.90224725,0.13439025,1.8191553,-23.15625,33.862503,-25.706251,0.029144766,-0.76830053,0.6320498,1007.8835,37.88834588,127.73977056,149.51422119140625,1.64
2025-03-08 15:32:32.166,12.842279,-11.41855,2.1272194,-0.7232639,0.035430156,1.4898992,-22.125,34.48125,-25.48125,0.019535387,-0.7718162,0.6289503,1007.88104,37.88834588,127.73977056,149.51422119140625,1.64
2025-03-08 15:32:32.186,13.203595,-11.944971,1.9286151,-0.560163,-0.1472184,1.0012074,-20.2875,35.71875,-24.487501,0.010776224,-0.775264,0.625734,1007.88104,37.88833717,127.73975467,149.24609375,1.76
2025-03-08 15:32:32.207,13.354343,-12.069397,2.2444677,-0.4166098,-0.13194679,0.4386009,-18.581251,36.525,-23.7,0.006423296,-0.7783256,0.6225697,1007.88226,37.88833717,127.73975467,149.24609375,1.76
2025-03-08 15:32:32.227,13.052848,-11.533405,2.7230322,-0.25900668,0.26511532,-0.011606431,-17.71875,37.03125,-23.00625,0.0059875054,-0.779601,0.6208184,1007.88226,37.88833717,127.73975467,149.24609375,1.76
2025-03-08 15:32:32.246,12.894921,-11.02852,3.2757742,0.04703659,0.6041453,-0.49724394,-16.78125,37.59375,-22.425001,0.0064907144,-0.779134,0.6204207,1007.8796,37.88833717,127.73975467,149.24609375,1.76
2025-03-08 15:32:32.267,12.05504,-11.392229,2.7732813,0.505796,0.36285368,-1.1435388,-16.5375,37.7625,-21.993752,0.010541498,-0.7762539,0.62227595,1007.8796,37.88833717,127.73975467,149.24609375,1.76
2025-03-08 15:32:32.287,11.210374,-12.01197,1.7204394,0.77824175,-0.19364414,-1.689652,-16.931252,37.59375,-21.581251,0.02127599,-0.77135104,0.626147,1007.8864,37.88833717,127.73975467,149.24609375,1.76
2025-03-08 15:32:32.308,10.222138,-12.674782,1.0648061,0.8955278,-0.700051,-2.245539,-17.85,37.0125,-21.65625,0.044567578,-0.76398367,0.63156,1007.8864,37.88833717,127.73975467,149.24609375,1.76
2025-03-08 15:32:32.327,9.202796,-12.758531,1.052842,0.9144646,-0.916908,-2.4831653,-18.31875,36.693752,-21.975,0.06850334,-0.75751656,0.6352717,1007.87787,37.88833717,127.73975467,149.24609375,1.76
2025-03-08 15:32:32.347,8.283952,-12.447463,1.7324036,0.9944879,-1.210734,-2.6725335,-20.681252,36.037502,-23.081251,0.09536806,-0.75046533,0.6383053,1007.87787,37.88833717,127.73975467,149.24609375,1.76
2025-03-08 15:32:32.367,7.9274216,-11.581262,2.2301106,1.16553,-1.4288127,-2.7629414,-21.900002,35.5125,-23.550001,0.12470061,-0.7422274,0.64125645,1007.8813,37.88833717,127.73975467,149.24609375,1.76
2025-03-08 15:32:32.388,8.516056,-10.348958,2.050649,1.4697406,-1.6499457,-2.9938483,-25.5375,34.18125,-24.393751,0.1649292,-0.7289968,0.64570636,1007.8813,37.88833717,127.73975467,149.24609375,1.76
2025-03-08 15:32:32.406,9.066405,-9.961321,1.0313065,1.5986332,-1.6297872,-3.2632396,-27.056252,33.412502,-24.35625,0.19094984,-0.7191433,0.6485026,1007.8935,37.88833717,127.73975467,149.24609375,1.76
2025-03-08 15:32:32.430,8.506484,-10.222138,-0.28953153,1.4544691,-1.241888,-3.8148506,-31.406252,30.843752,-24.91875,0.23632878,-0.70032376,0.6512701,1007.8935,37.88833717,127.73975467,149.24609375,1.76
2025-03-08 15:32:32.446,7.7503524,-10.514063,-0.35653058,1.301142,-0.9615012,-3.9962773,-32.8875,29.8875,-24.956251,0.2631724,-0.68799824,0.65141445,1007.9035,37.88833717,127.73975467,149.24609375,1.76
2025-03-08 15:32:32.466,7.2670026,-10.475778,-0.1268196,1.1417062,-0.7354812,-4.1752605,-35.98125,27.525002,-25.06875,0.29740602,-0.670709,0.649967,1007.9035,37.88833717,127.73975467,149.24609375,1.76
2025-03-08 15:32:32.487,7.3603225,-10.442278,0.5455636,1.1074978,-0.9291253,-4.453204,-40.256252,22.9125,-25.29375,0.33973467,-0.6475514,0.6454177,1007.9123,37.88833717,127.73975467,149.24609375,1.76
2025-03-08 15:32:32.506,6.759724,-10.49492,0.27996024,1.1368194,-1.1417062,-4.657233,-41.643753,21.1875,-25.1625,0.37587488,-0.62723756,0.6391921,1007.9123,37.88833717,127.73975467,149.24609375,1.76
2025-03-08 15:32:32.526,5.4843497,-10.461421,-0.64845496,1.0134246,-1.1527019,-4.8178906,-44.5875,17.212502,-24.843752,0.42234424,-0.59988046,0.62799144,1007.91254,37.88833717,127.73975467,149.24609375,1.76
2025-03-08 15:32:32.546,3.993621,-10.526027,-0.8925229,0.76907873,-1.084285,-4.7635236,-46.912502,13.087501,-24.525002,0.44923288,-0.5831987,0.6193829,1007.91254,37.88833717,127.73975467,149.24609375,1.76
2025-03-08 15:32:32.566,2.2205393,-10.880164,-1.0408778,0.5235111,-0.8955278,-4.3664613,-49.4625,8.793751,-23.79375,0.48201817,-0.5616946,0.60657424,1007.9157,37.88833717,127.73975467,149.24609375,1.76
2025-03-08 15:32:32.586,1.6247265,-10.332209,-1.0169497,0.27977607,-0.7165444,-3.7598727,-51.412502,4.65,-23.025002,0.50949943,-0.5425549,0.5935509,1007.9157,37.88833717,127.73975467,149.24609375,1.76
2025-03-08 15:32:32.606,2.036292,-9.683753,-0.9667004,0.06536253,-0.40500334,-3.1514513,-52.631252,0.63750005,-22.10625,0.53108627,-0.5264043,0.58149725,1007.9196,37.88833717,127.73975467,149.24609375,1.76
2025-03-08 15:32:32.626,3.0987053,-9.882358,-1.0863415,-0.13744457,-0.10079269,-2.7220135,-53.456253,-3.1875002,-21.712502,0.5503849,-0.5094963,0.5687968,1007.9196,37.88833717,127.73975467,149.24609375,1.76
2025-03-08 15:32:32.646,2.8259234,-10.30828,-0.43070808,-0.15577053,0.034208428,-2.375653,-53.60625,-6.3187504,-21.50625,0.5616434,-0.497808,0.5600835,1007.92255,37.88833717,127.73975467,149.24609375,1.76
2025-03-08 15:32:32.666,1.6701902,-9.882358,-0.15792629,0.06108648,0.045203995,-1.8582506,-53.68125,-9.3,-21.225,0.57032675,-0.48729986,0.55371356,1007.92255,37.88833717,127.73975467,149.24609375,1.76
2025-03-08 15:32:32.687,0.47138608,-9.025727,-1.0743774,0.23457208,-0.089797124,-1.1246021,-53.49375,-11.53125,-21.0375,0.577387,-0.4789135,0.5497333,1007.9316,37.88833717,127.73975467,149.24609375,1.76
2025-03-08 15:32:32.708,-0.28713873,-8.573483,-2.120041,0.1924224,0.09407318,-0.18631376,-53.343754,-13.875001,-20.643751,0.58223826,-0.47370246,0.54824704,1007.9316,37.88833717,127.73975467,149.24609375,1.76
2025-03-08 15:32:32.727,-0.5240282,-7.91785,-2.4861426,0.11484258,0.36651886,0.6029235,-53.175003,-14.493751,-20.6625,0.5811682,-0.473903,0.5503026,1007.92426,37.88833717,127.73975467,149.24609375,1.76
2025-03-08 15:32:32.746,-0.2632105,-7.2023964,-3.2398818,-0.06597339,0.6853903,1.5198315,-52.8375,-15.075001,-20.925001,0.57435286,-0.47811404,0.55681413,1007.92426,37.88833717,127.73975467,149.24609375,1.76
2025-03-08 15:32:32.766,1.4404793,-7.6953177,-3.6011982,-0.48991355,0.98410314,2.317621,-52.443752,-15.281251,-21.50625,0.55659705,-0.49034554,0.5693938,1007.92206,37.88833717,127.73975467,149.24609375,1.76
2025-03-08 15:32:32.786,2.6249263,-9.128618,-2.8761728,-0.89125174,1.1636974,2.8423538,-52.218754,-14.700001,-21.862501,0.53573614,-0.50517863,0.58062935,1007.92206,37.88833717,127.73975467,149.24609375,1.76
2025-03-08 15:32:32.806,3.4337006,-10.719846,-1.4620147,-1.0836741,1.0372484,3.175275,-52.256252,-13.087501,-22.575,0.51043487,-0.5233213,0.5918244,1007.91815,37.88833717,127.73975467,149.24609375,1.76
2025-03-08 15:32:32.826,3.8907297,-11.818151,0.09810573,-0.9645555,0.34697118,3.5802784,-52.537502,-11.08125,-23.2875,0.4840473,-0.54404265,0.6017518,1007.91815,37.88833717,127.73975467,149.24609375,1.76
2025-03-08 15:32:32.846,4.476971,-12.473784,-0.016749758,-0.62552553,-0.19547673,4.0622506,-52.406254,-6.5437503,-24.50625,0.45306265,-0.57219267,0.61240137,1007.92816,37.88833717,127.73975467,149.24609375,1.76
2025-03-08 15:32:32.867,4.790431,-12.260823,-0.6053841,-0.4893027,-0.13377939,4.5387254,-52.031254,-3.35625,-24.91875,0.42775416,-0.5950722,0.62100554,1007.92816,37.88833717,127.73975467,149.24609375,1.76
2025-03-08 15:32:32.887,5.4699926,-11.870793,-0.38524446,-0.47769627,0.30482152,4.8948593,-51.956253,-1.7062501,-25.031252,0.39794308,-0.6173066,0.63074434,1007.9306,37.88833717,127.73975467,149.24609375,1.76
2025-03-08 15:32:32.908,6.963114,-11.413764,0.14356937,-0.39645123,0.7031054,5.0988884,-51.075,2.0062501,-25.06875,0.36257952,-0.637712,0.6418124,1007.9306,37.88833717,127.73975467,149.24609375,1.76
2025-03-08 15:32:32.926,8.626125,-10.710274,0.2727818,-0.25900668,0.7984003,4.9657197,-49.987503,5.7000003,-25.1625,0.324895,-0.6551367,0.65293515,1007.9345,37.88833717,127.73975467,149.24609375,1.76
2025-03-08 15:32:32.947,9.403793,-9.611969,-0.021535404,-0.16554436,0.71410096,4.580264,-48.3375,9.69375,-25.368752,0.28884286,-0.66917646,0.66263735,1007.9345,37.88833717,127.73975467,149.24609375,1.76
2025-03-08 15:32:32.966,9.635897,-9.241081,-0.5982057,-0.23884813,0.68905544,4.0671377,-46.2,13.762501,-25.48125,0.25580043,-0.68048906,0.6701569,1007.92206,37.88833717,127.73975467,149.24609375,1.76
2025-03-08 15:32:32.987,9.267402,-9.473185,0.3278167,-0.2944368,0.5668825,3.7641487,-43.912502,17.325,-25.687502,0.22551744,-0.6903388,0.6751209,1007.92206,37.88833717,127.73975467,149.24609375,1.76
2025-03-08 15:32:33.007,9.79143,-9.059227,0.4881358,-0.12950334,0.4477639,3.5295768,-40.40625,21.825,-26.2875,0.1909848,-0.70024717,0.67977065,1007.9162,37.88833717,127.73975467,149.24609375,1.76
2025-03-08 15:32:33.026,10.119247,-9.068798,-0.031106694,-0.13133593,0.60597783,3.2418594,-39.318752,23.1375,-26.268751,0.1653465,-0.70598906,0.68305826,1007.9162,37.88833717,127.73975467,149.24609375,1.76
2025-03-08 15:32:33.046,10.1599245,-8.733803,-0.32063824,-0.23884813,0.844826,2.918101,-36.54375,25.25625,-26.681252,0.14052601,-0.710927,0.68515736,1007.90594,37.88833717,127.73975467,149.24609375,1.76
2025-03-08 15:32:33.066,10.145568,-8.941978,-0.40677986,-0.42943794,1.0140356,2.6346598,-33.862503,27.13125,-26.925001,0.122154854,-0.71454275,0.6857188,1007.90594,37.88833717,127.73975467,149.24609375,1.76
2025-03-08 15:32:33.086,9.930214,-8.867801,0.04546363,-0.560163,0.9162972,2.2999058,-30.993752,28.893751,-27.31875,0.09340478,-0.72081584,0.68451166,1007.90424,37.88833717,127.73975467,149.24609375,1.76
2025-03-08 15:32:33.106,10.301102,-9.020942,0.14117654,-0.6090322,0.6218603,1.9773693,-28.462502,30.093752,-27.000002,0.07420404,-0.7257155,0.68220305,1007.90424,37.88833717,127.73975467,149.24609375,1.76
2025-03-08 15:32:33.126,9.946963,-9.334401,0.36370903,-0.7440333,0.5571087,1.6646066,-26.268751,31.425001,-26.812502,0.058502164,-0.73065007,0.67885673,1007.9067,37.88833717,127.73975467,149.24609375,1.76
2025-03-08 15:32:33.146,10.600204,-10.473385,0.7920243,-0.82650006,0.41050112,1.3878847,-24.16875,32.49375,-26.6625,0.044973884,-0.73595023,0.6744217,1007.9067,37.88833717,127.73975467,149.24609375,1.76
2025-03-08 15:32:33.167,11.55494,-11.4903345,1.0360922,-0.9364557,-0.037873615,0.9364557,-21.956251,33.5625,-26.362501,0.033672158,-0.7429045,0.667686,1007.8991,37.8883299,127.73973864,148.70233154296875,1.77
2025-03-08 15:32:33.186,12.038291,-12.016755,1.294517,-1.0238093,-0.34636033,0.5406153,-20.04375,34.425003,-26.531252,0.031208172,-0.7474208,0.66289055,1007.8991,37.8883299,127.73973864,148.70233154296875,1.77
2025-03-08 15:32:33.206,12.346965,-12.847065,2.2588246,-1.111163,-0.478918,0.09346231,-18.65625,35.100002,-26.1375,0.03234811,-0.7537949,0.6557097,1007.8908,37.8883299,127.73973864,148.70233154296875,1.77
2025-03-08 15:32:33.227,11.782259,-11.552547,4.273581,-0.8277218,-0.41172287,-0.29871288,-17.90625,35.831253,-25.5375,0.0383995,-0.76097494,0.64705676,1007.8908,37.8883299,127.73973864,148.70233154296875,1.77
2025-03-08 15:32:33.246,11.667403,-10.851451,4.965107,-0.31703883,-0.3744601,-0.72631824,-17.8875,36.1875,-24.50625,0.04560992,-0.76355875,0.6434182,1007.8964,37.8883299,127.73973864,148.70233154296875,1.77
2025-03-08 15:32:33.266,11.406586,-11.877972,4.462614,0.3488038,-0.79290247,-1.3347396,-18.13125,36.693752,-23.2875,0.05713569,-0.76234394,0.64370924,1007.8964,37.8883299,127.73973864,148.70233154296875,1.77
2025-03-08 15:32:33.286,10.648061,-12.47857,2.8307092,0.7373138,-1.5418227,-1.8802418,-18.73125,36.693752,-22.800001,0.07616159,-0.75750834,0.6472376,1007.904,37.8883299,127.73973864,148.70233154296875,1.77
2025-03-08 15:32:33.306,9.683753,-12.540784,1.6797615,0.8063415,-2.0983205,-2.2834125,-20.025002,36.45,-22.5375,0.10317125,-0.7506221,0.6514473,1007.904,37.8883299,127.73973864,148.70233154296875,1.77
2025-03-08 15:32:33.327,9.403793,-12.969099,1.1485549,0.64568406,-2.421468,-2.6719224,-21.73125,36.300003,-22.3875,0.14428766,-0.7411419,0.65451485,1007.9008,37.8883299,127.73973864,148.70233154296875,1.77
2025-03-08 15:32:33.347,9.073584,-13.380664,1.2705889,0.39522952,-2.5075998,-3.026835,-24.056252,35.4,-22.66875,0.18090452,-0.7335076,0.6539826,1007.9008,37.8883299,127.73973864,148.70233154296875,1.77
2025-03-08 15:32:33.367,8.10449,-12.3708935,2.3545375,0.27488914,-2.4947717,-3.220479,-26.79375,34.612503,-22.5375,0.21937157,-0.7256202,0.6508684,1007.90375,37.8883299,127.73973864,148.70233154296875,1.77
2025-03-08 15:32:33.387,8.3174515,-11.514262,3.735196,0.38056874,-2.3237295,-3.3652542,-29.306252,33.375,-22.25625,0.25778583,-0.71637136,0.6467924,1007.90375,37.8883299,127.73973864,148.70233154296875,1.77
2025-03-08 15:32:33.407,8.635697,-10.856236,4.347759,0.67744905,-2.046397,-3.6150978,-32.737503,31.556252,-21.431252,0.2954881,-0.7041293,0.64369625,1007.91156,37.8883299,127.73973864,148.70233154296875,1.77
2025-03-08 15:32:33.426,8.262417,-11.157732,3.6466618,1.0739002,-1.7696753,-4.1050115,-36.037502,29.775002,-20.23125,0.33343208,-0.68727976,0.6426498,1007.91156,37.8883299,127.73973864,148.70233154296875,1.77
2025-03-08 15:32:33.446,7.1018977,-11.624332,1.8640088,1.1643083,-1.4135411,-4.305986,-39.693752,27.243752,-19.21875,0.38083425,-0.66061497,0.64276814,1007.9272,37.8883299,127.73973864,148.70233154296875,1.77
2025-03-08 15:32:33.466,6.9942207,-11.653047,1.0193424,1.0280855,-0.8845322,-4.454426,-42.956253,24.69375,-18.075,0.41579646,-0.637417,0.6425848,1007.9272,37.8883299,127.73973864,148.70233154296875,1.77
2025-03-08 15:32:33.486,7.0612197,-11.736795,0.5383851,0.9266819,-0.505796,-4.6419616,-45.73125,21.65625,-17.325,0.44782153,-0.6129035,0.6419563,1007.9279,37.8883299,127.73973864,148.70233154296875,1.77
2025-03-08 15:32:33.506,6.4295144,-12.105289,0.3469593,0.8014546,-0.40133816,-4.837438,-49.3875,16.29375,-16.575,0.47820166,-0.5869096,0.6402356,1007.9279,37.8883299,127.73973864,148.70233154296875,1.77
2025-03-08 15:32:33.527,5.2331033,-11.583654,0.28953153,0.7354812,-0.48502663,-4.8227773,-50.156254,14.475,-16.5375,0.50780356,-0.5599189,0.6365698,1007.9406,37.8883299,127.73973864,148.70233154296875,1.77
2025-03-08 15:32:33.546,4.546363,-11.172089,0.04546363,0.65851223,-0.6499601,-4.689609,-52.162502,10.25625,-16.06875,0.53649414,-0.53285223,0.6307037,1007.9406,37.8883299,127.73973864,148.70233154296875,1.77
2025-03-08 15:32:33.567,3.8763726,-10.870593,-0.22253251,0.5210677,-0.8295544,-4.4251046,-53.5125,5.90625,-15.50625,0.5641935,-0.5068062,0.62226504,1007.945,37.8883299,127.73973864,148.70233154296875,1.77
2025-03-08 15:32:33.586,3.1609187,-10.377672,-0.715454,0.35796675,-0.7855721,-4.106844,-54.7125,1.5,-14.962501,0.5898059,-0.4823527,0.6121052,1007.945,37.8883299,127.73973864,148.70233154296875,1.77
2025-03-08 15:32:33.607,2.589034,-10.535598,-1.0743774,0.14416409,-0.7153227,-3.668243,-55.518753,-3.0937502,-14.156251,0.6173185,-0.4548931,0.59841603,1007.94794,37.8883299,127.73973864,148.70233154296875,1.77
2025-03-08 15:32:33.626,1.9764715,-10.490134,-0.89730847,0.016493348,-0.7147118,-3.2247553,-55.7625,-7.2375,-13.668751,0.6313208,-0.44067633,0.58998674,1007.94794,37.8883299,127.73973864,148.70233154296875,1.77
2025-03-08 15:32:33.646,0.9906286,-9.896714,-1.1629118,-0.07574723,-0.49418962,-2.4831653,-55.95,-11.0625,-13.14375,0.65031207,-0.42151472,0.576775,1007.9455,37.8883299,127.73973864,148.70233154296875,1.77
2025-03-08 15:32:33.666,0.18424734,-9.052048,-1.5720844,-0.3121519,-0.022601997,-1.6249003,-55.406254,-14.325001,-12.50625,0.6597125,-0.4108154,0.56928694,1007.9455,37.8883299,127.73973864,148.70233154296875,1.77
2025-03-08 15:32:33.686,-0.19142582,-8.492127,-1.3471591,-0.5094612,0.35307986,-0.9138537,-55.0125,-17.1,-12.01875,0.66296834,-0.40507898,0.565426,1007.9416,37.8883299,127.73973864,148.70233154296875,1.77
2025-03-08 15:32:33.706,-0.1794617,-8.276773,-0.70348984,-0.57482374,0.72448564,-0.08307761,-54.768753,-19.40625,-11.4375,0.6602146,-0.40432042,0.56572145,1007.9416,37.8883299,127.73973864,148.70233154296875,1.77
2025-03-08 15:32:33.726,0.71306115,-7.726424,-0.11724831,-0.41355544,0.8307761,1.0366375,-54.45,-21.206251,-11.64375,0.6500589,-0.40955314,0.57184076,1007.9465,37.8883299,127.73973864,148.70233154296875,1.77
2025-03-08 15:32:33.748,2.1128623,-8.054241,-0.5288138,-0.2687805,0.6853903,1.6041309,-54.412502,-21.28125,-11.981251,0.63910466,-0.4180524,0.57939893,1007.9465,37.8883299,127.73973864,148.70233154296875,1.77
2025-03-08 15:32:33.766,2.9431717,-8.602198,-0.83988076,-0.21807873,0.5705477,1.8997895,-54.506252,-21.075,-12.31875,0.6301558,-0.42627576,0.58560395,1007.94305,37.8883299,127.73973864,148.70233154296875,1.77
2025-03-08 15:32:33.787,3.2183464,-8.863015,-0.55034924,-0.14538582,0.26572618,2.2852452,-54.412502,-19.987501,-13.35,0.6145385,-0.44286698,0.59568584,1007.94305,37.8883299,127.73973864,148.70233154296875,1.77
2025-03-08 15:32:33.806,3.2685957,-8.927621,-0.11246266,0.048258316,-0.06597339,2.733009,-54.45,-18.581251,-13.875001,0.6021718,-0.4584234,0.6028958,1007.9367,37.8883299,127.73973864,148.70233154296875,1.77
2025-03-08 15:32:33.826,3.591627,-9.18126,-0.4354937,0.2131918,-0.056199558,3.130682,-54.787502,-16.3875,-14.325001,0.5890976,-0.4753944,0.61037034,1007.9367,37.8883299,127.73973864,148.70233154296875,1.77
2025-03-08 15:32:33.847,4.125226,-9.439685,-1.1629118,0.2480111,0.41172287,3.7055058,-55.18125,-13.81875,-14.793751,0.5725621,-0.49345556,0.619802,1007.9428,37.8883299,127.73973864,148.70233154296875,1.77
2025-03-08 15:32:33.866,5.3216376,-9.217153,-0.94277215,0.17104214,0.8045089,4.112342,-55.55625,-11.0625,-15.056251,0.55023736,-0.51277006,0.6316549,1007.9428,37.8883299,127.73973864,148.70233154296875,1.77
2025-03-08 15:32:33.888,6.991828,-8.23131,-0.3684947,0.2376264,0.8045089,4.2717776,-55.800003,-6.3,-15.975,0.5167317,-0.537357,0.64738786,1007.94525,37.8883299,127.73973864,148.70233154296875,1.77
2025-03-08 15:32:33.906,7.5637126,-8.420342,-0.8327023,0.32314748,0.7385355,4.1978626,-55.55625,-4.65,-16.35,0.4893799,-0.55541456,0.65883857,1007.94525,37.8883299,127.73973864,148.70233154296875,1.77
2025-03-08 15:32:33.927,7.432107,-9.047262,-1.2777673,0.31703883,0.67744905,4.1141744,-54.43125,0.73125005,-17.4375,0.4622524,-0.5717547,0.6689271,1007.9465,37.8883299,127.73973864,148.70233154296875,1.77
2025-03-08 15:32:33.947,7.092326,-9.446864,-1.5050855,0.23640467,0.6487384,4.1447177,-54.093754,2.6437502,-17.75625,0.4350229,-0.58729094,0.6772506,1007.9465,37.8883299,127.73973864,148.70233154296875,1.77
2025-03-08 15:32:33.967,7.2670026,-9.836894,-1.3184453,0.05253437,0.831387,4.2839947,-52.93125,6.2250004,-18.337502,0.40643367,-0.60293406,0.6838556,1007.9401,37.8883299,127.73973864,148.70233154296875,1.77
2025-03-08 15:32:33.987,8.13799,-9.760324,-0.66999036,-0.12339468,0.9987639,4.3127055,-51.61875,9.712501,-19.0125,0.37508765,-0.6188999,0.68912977,1007.9401,37.8883299,127.73973864,148.70233154296875,1.77
2025-03-08 15:32:34.007,9.250652,-10.076176,0.2321038,-0.14172062,0.8008437,4.1233373,-49.725002,12.825001,-19.95,0.33533993,-0.63782907,0.69327086,1007.93475,37.8883299,127.73973864,148.70233154296875,1.77
2025-03-08 15:32:34.026,9.382257,-10.30828,0.41635114,-0.02932151,0.6328559,3.9339693,-47.568752,16.03125,-20.6625,-0.313134,0.64755666,-0.69467795,1007.93475,37.8883299,127.73973864,148.70233154296875,1.77
2025-03-08 15:32:34.048,9.7196455,-10.683953,0.29671,0.14110976,0.28405213,3.6932886,-45.16875,19.10625,-21.46875,-0.2794055,0.6605083,-0.69608563,1007.9362,37.8883299,127.73973864,148.70233154296875,1.77
2025-03-08 15:32:34.066,10.200603,-10.269995,-0.19381863,0.20036365,-0.06963859,3.4623816,-42.9375,21.993752,-22.2,-0.2618606,0.66640776,-0.69625527,1007.9362,37.8883299,127.73973864,148.70233154296875,1.77
2025-03-08 15:32:34.086,11.581262,-9.678967,-0.4977071,0.08185588,-0.26755878,2.8961098,-40.65,24.50625,-22.5,-0.2380854,0.67549926,-0.6942412,1007.9323,37.8883299,127.73973864,148.70233154296875,1.77
2025-03-08 15:32:34.107,12.14836,-9.600004,-0.40917268,-0.08796453,-0.23396121,2.2828016,-38.568752,26.587502,-22.66875,-0.22363576,0.67925876,-0.69232273,1007.9323,37.8883299,127.73973864,148.70233154296875,1.77
2025-03-08 15:32:34.126,12.303894,-9.592826,0.18185452,-0.2357938,-0.35674503,1.6285655,-36.2625,28.5375,-22.800001,-0.21351588,0.6838051,-0.6890571,1007.92694,37.8883299,127.73973864,148.70233154296875,1.77
2025-03-08 15:32:34.147,12.476177,-10.183853,0.4235296,-0.29688028,-0.64201885,0.8668171,-33.3375,30.562502,-23.1375,-0.20908369,0.68782306,-0.68442845,1007.92694,37.8883299,127.73973864,148.70233154296875,1.77
2025-03-08 15:32:34.166,11.538191,-10.6815605,0.0023928226,-0.478918,-0.59498227,0.40989026,-32.4375,31.237501,-23.04375,-0.21048242,0.68949866,-0.68147874,1007.92303,37.8883299,127.73973864,148.70233154296875,1.77
2025-03-08 15:32:34.186,10.820344,-11.612369,0.4426722,-0.8118393,-0.3970621,0.058032155,-31.312502,31.968752,-23.118752,-0.21435979,0.69266856,-0.6765949,1007.92303,37.88832128,127.7397228,148.19085693359375,1.77
2025-03-08 15:32:34.207,10.760524,-11.765509,2.6344976,-0.8826996,-0.23029602,-0.24312419,-30.73125,32.53125,-22.725,-0.22056238,0.69823134,-0.6692328,1007.9162,37.88832128,127.7397228,148.19085693359375,1.77
2025-03-08 15:32:34.227,10.437492,-11.133803,3.6634114,-0.64324063,-0.21624613,-0.47403106,-30.300001,32.7,-21.75,-0.22639598,0.70135325,-0.66474,1007.9162,37.88832128,127.7397228,148.19085693359375,1.77
2025-03-08 15:32:34.247,10.176675,-11.10509,3.9050865,-0.23273948,-0.5009091,-0.8124502,-30.562502,32.90625,-20.625,-0.23392391,0.7015856,-0.66269773,1007.92645,37.88832128,127.7397228,148.19085693359375,1.77
2025-03-08 15:32:34.267,9.925428,-11.6339035,3.5509489,0.07696896,-1.2980876,-1.1869103,-30.562502,32.943752,-19.650002,-0.24597421,0.6982039,-0.66238886,1007.92645,37.88832128,127.7397228,148.19085693359375,1.77
2025-03-08 15:32:34.286,9.30808,-11.586047,3.0173492,0.27183482,-2.1306963,-1.5247185,-31.35,32.71875,-18.84375,-0.26544875,0.69112366,-0.66205674,1007.93866,37.88832128,127.7397228,148.19085693359375,1.77
2025-03-08 15:32:34.306,9.233903,-11.9019,2.495714,0.2932151,-2.7812674,-1.8869613,-32.643753,32.60625,-17.90625,-0.29897395,0.6782967,-0.65989786,1007.93866,37.88832128,127.7397228,148.19085693359375,1.77
2025-03-08 15:32:34.326,9.415757,-12.337394,2.3856442,0.17592905,-2.9767442,-2.1942263,-34.40625,31.987501,-17.00625,-0.33079615,0.6660343,-0.6561025,1007.94305,37.88832128,127.7397228,148.19085693359375,1.77
2025-03-08 15:32:34.346,9.018549,-12.057433,2.7637103,0.05742129,-2.8930557,-2.443459,-36.43125,31.143751,-15.675,-0.35600924,0.6561637,-0.65224946,1007.94305,37.88832128,127.7397228,148.19085693359375,1.77
2025-03-08 15:32:34.367,8.874979,-10.652846,3.9984066,0.055588696,-2.7201807,-2.728733,-39.506252,29.681252,-13.500001,-0.39835173,0.63843817,-0.644992,1007.9394,37.88832128,127.7397228,148.19085693359375,1.77
2025-03-08 15:32:34.386,9.499506,-10.064212,5.0440702,0.41233373,-2.5723517,-3.1832163,-40.48125,28.95,-12.918751,-0.43210778,0.6214244,-0.64016527,1007.9394,37.88832128,127.7397228,148.19085693359375,1.77
2025-03-08 15:32:34.406,8.611769,-9.8632145,4.1371903,0.7476985,-2.1856742,-3.5863872,-42.45,27.35625,-11.118751,-0.4665008,0.5992348,-0.63793766,1007.9438,37.88832128,127.7397228,148.19085693359375,1.77
2025-03-08 15:32:34.427,7.853244,-10.425529,2.2707887,0.73792464,-1.309694,-3.8515024,-44.7,25.706251,-9.31875,-0.49802208,0.5739749,-0.6389775,1007.9438,37.88832128,127.7397228,148.19085693359375,1.77
2025-03-08 15:32:34.446,7.893922,-11.102697,2.0961127,0.6084213,-0.45692685,-4.043314,-46.875,22.931252,-7.5937505,-0.5243955,0.54866344,-0.6427667,1007.94696,37.88832128,127.7397228,148.19085693359375,1.77
2025-03-08 15:32:34.466,7.4416785,-11.535798,2.376073,0.6902772,-0.08002329,-4.2497864,-49.4625,19.85625,-6.0375004,-0.54657584,0.52277446,-0.6488323,1007.94696,37.88832128,127.7397228,148.19085693359375,1.77
2025-03-08 15:32:34.487,6.977471,-11.964113,1.9645073,0.8692606,-0.20158538,-4.4745846,-51.61875,16.40625,-5.4375,-0.57221425,0.48712662,-0.6573898,1007.9499,37.88832128,127.7397228,148.19085693359375,1.77
2025-03-08 15:32:34.506,5.869594,-11.818151,1.6031911,0.98715746,-0.6493493,-4.6236353,-53.49375,12.262501,-5.1000004,-0.59414655,0.45554882,-0.6620151,1007.9499,37.88832128,127.7397228,148.19085693359375,1.77
2025-03-08 15:32:34.526,4.962714,-11.655439,0.930808,0.9969313,-1.2449424,-4.6059203,-54.787502,8.26875,-5.25,-0.6184249,0.42223954,-0.6625785,1007.95404,37.88832128,127.7397228,148.19085693359375,1.77
2025-03-08 15:32:34.546,4.4339004,-11.169696,0.36610186,0.8326087,-1.7806709,-4.462978,-55.593754,4.05,-4.8562503,0.6449233,-0.38911065,0.65777415,1007.95404,37.88832128,127.7397228,148.19085693359375,1.77
2025-03-08 15:32:34.566,3.9649072,-11.349157,0.1363909,0.5760455,-1.9321653,-4.2094693,-56.30625,-0.4875,-3.6937501,0.67191446,-0.3576468,0.64838547,1007.94916,37.88832128,127.7397228,148.19085693359375,1.77
2025-03-08 15:32:34.587,2.9120653,-10.947164,0.09332009,0.3188714,-1.631009,-3.7971354,-56.7,-4.70625,-2.4,0.70190036,-0.32211685,0.634443,1007.94916,37.88832128,127.7397228,148.19085693359375,1.77
2025-03-08 15:32:34.606,2.2851455,-10.473385,0.0741775,0.15638138,-1.2400556,-3.3567019,-56.943752,-8.700001,-0.41250002,0.71654814,-0.30347365,0.6265834,1007.95355,37.88832128,127.7397228,148.19085693359375,1.77
2025-03-08 15:32:34.626,1.8831514,-10.334601,-0.18664017,0.020158539,-0.6206386,-2.7476697,-56.831253,-12.675,1.2375001,0.73125947,-0.2823134,0.6183611,1007.95355,37.88832128,127.7397228,148.19085693359375,1.77
2025-03-08 15:32:34.647,1.9286151,-10.083355,-0.37088752,-0.11300998,0.20525056,-1.9236132,-55.706253,-17.681252,2.79375,0.740907,-0.26255313,0.6139915,1007.9504,37.88832128,127.7397228,148.19085693359375,1.77
2025-03-08 15:32:34.666,1.8424734,-10.07139,-0.3589234,-0.126449,0.5839867,-1.4141519,-55.10625,-19.2,2.7375002,0.7425003,-0.25182247,0.61529326,1007.9504,37.88832128,127.7397228,148.19085693359375,1.77
2025-03-08 15:32:34.686,1.0719845,-9.456435,0.08135597,-0.036651887,0.84421515,-0.77457654,-54.093754,-21.65625,2.775,0.74045134,-0.24498272,0.61949366,1007.95526,37.88832128,127.7397228,148.19085693359375,1.77
2025-03-08 15:32:34.707,-0.043070808,-7.4823565,-0.2847459,0.1472184,1.1001675,0.082466744,-53.475002,-23.306252,2.49375,0.73530716,-0.24189278,0.62636936,1007.95526,37.88832128,127.7397228,148.19085693359375,1.77
2025-03-08 15:32:34.726,0.26081768,-6.546763,-0.7704889,0.17348559,1.1679734,0.8271109,-53.23125,-24.225,1.725,0.7275065,-0.2432535,0.63516486,1007.96136,37.88832128,127.7397228,148.19085693359375,1.77
2025-03-08 15:32:34.747,1.8448663,-7.109076,-1.2634103,0.10690133,1.2198969,1.4532473,-53.250004,-24.393751,1.7625,0.7148812,-0.25155598,0.6472147,1007.96136,37.88832128,127.7397228,148.19085693359375,1.77
2025-03-08 15:32:34.766,2.952743,-8.145168,-1.1030912,0.03604102,1.2021819,1.8234314,-53.625004,-24.281252,1.0875001,0.7029726,-0.26242313,0.65695584,1007.96014,37.88832128,127.7397228,148.19085693359375,1.77
2025-03-08 15:32:34.786,3.4169507,-8.669196,-1.0552348,0.045814857,1.0189224,2.095266,-53.737503,-23.41875,0.31875002,0.6902577,-0.27570167,0.66608584,1007.96014,37.88832128,127.7397228,148.19085693359375,1.77
2025-03-08 15:32:34.806,3.2590244,-9.18126,-0.9092726,0.10690133,0.5717694,2.421468,-54.3375,-22.237501,-0.6,0.67837936,-0.2907206,0.6730248,1007.9589,37.88832128,127.7397228,148.19085693359375,1.77
2025-03-08 15:32:34.826,2.9958138,-9.51147,-0.95712906,0.21868959,0.23518294,2.968803,-55.237503,-20.56875,-1.66875,0.6677966,-0.30775833,0.67708683,1007.9589,37.88832128,127.7397228,148.19085693359375,1.77
2025-03-08 15:32:34.846,3.7591243,-9.377472,-1.713261,0.20525056,0.49846566,3.532631,-56.11875,-18.431252,-2.1750002,0.65583414,-0.32749853,0.68012995,1007.9611,37.88832128,127.7397228,148.19085693359375,1.77
2025-03-08 15:32:34.866,5.3910294,-9.020942,-1.8520447,0.020769402,0.9834923,3.8881543,-56.98125,-15.918751,-2.7375002,-0.63929206,0.35052463,-0.68421113,1007.9611,37.88832128,127.7397228,148.19085693359375,1.77
2025-03-08 15:32:34.886,6.8075805,-8.719446,-1.5960127,-0.21930045,1.3500111,3.9748971,-57.825,-13.087501,-3.24375,-0.6119711,0.3823727,-0.6908284,1007.9504,37.88832128,127.7397228,148.19085693359375,1.77
2025-03-08 15:32:34.907,7.1784678,-8.377272,-0.99302137,-0.36651886,1.1685843,3.875937,-58.256252,-9.88125,-3.3750002,-0.5882873,0.40833545,-0.6949225,1007.9504,37.88832128,127.7397228,148.19085693359375,1.77
2025-03-08 15:32:34.926,7.1688967,-8.549556,-0.6939186,-0.37751442,0.87231493,3.7824748,-58.256252,-6.15,-4.2937503,-0.5715139,0.42712042,-0.69608545,1007.946,37.88832128,127.7397228,148.19085693359375,1.77
2025-03-08 15:32:34.946,7.4105716,-8.422736,-0.6053841,-0.42760533,0.65667963,3.6761842,-58.068752,-2.5687501,-5.3625,-0.545317,0.4567559,-0.6949854,1007.946,37.88832128,127.7397228,148.19085693359375,1.77
2025-03-08 15:32:34.966,7.891529,-8.384451,-0.38524446,-0.44532043,0.56077385,3.5222464,-57.375004,1.1437501,-6.2250004,-0.5253231,0.47913763,-0.69215155,1007.9428,37.88832128,127.7397228,148.19085693359375,1.77
2025-03-08 15:32:34.986,8.513663,-8.439486,-0.34217364,-0.46547896,0.39095345,3.2846198,-56.625004,4.59375,-7.5000005,-0.5064883,0.49979365,-0.68809235,1007.9428,37.88832128,127.7397228,148.19085693359375,1.77
2025-03-08 15:32:35.006,8.286345,-8.76491,-0.552742,-0.48991355,0.32986698,3.0500479,-55.7625,7.9125004,-8.325001,-0.48933104,0.5185489,-0.6829703,1007.94354,37.88832128,127.7397228,148.19085693359375,1.77
2025-03-08 15:32:35.026,8.2456665,-9.140582,-0.6197411,-0.55955213,0.12095123,2.8973317,-54.600002,11.1,-8.85,-0.47350475,0.53595597,-0.67692715,1007.94354,37.88832128,127.7397228,148.19085693359375,1.77
2025-03-08 15:32:35.046,8.688339,-9.38465,-0.634098,-0.68905544,-0.17592905,2.750724,-53.193752,13.837501,-9.09375,-0.45686233,0.55629545,-0.66675687,1007.9445,37.88832128,127.7397228,148.19085693359375,1.77
2025-03-08 15:32:35.066,8.975478,-9.212367,-0.4426722,-0.8930843,-0.19547673,2.5827363,-51.43125,16.5375,-9.31875,-0.44566798,0.57200545,-0.65676767,1007.9445,37.88832128,127.7397228,148.19085693359375,1.77
2025-03-08 15:32:35.086,9.521041,-9.753145,0.2943172,-1.0592395,-0.09407318,2.3701553,-49.725002,19.03125,-9.056251,-0.43539622,0.58780515,-0.6459287,1007.9516,37.88832128,127.7397228,148.19085693359375,1.77
2025-03-08 15:32:35.106,9.757931,-10.619347,1.7706888,-0.98899007,-0.16126831,2.172846,-48.131252,21.393751,-8.38125,-0.42592174,0.60271704,-0.63522744,1007.9516,37.88832128,127.7397228,148.19085693359375,1.77
2025-03-08 15:32:35.127,10.5284195,-10.827522,2.8833513,-0.5051852,-0.41905323,2.0305145,-46.425003,24.056252,-7.8,-0.41559404,0.6169679,-0.6235298,1007.9594,37.88832128,127.7397228,148.19085693359375,1.77
2025-03-08 15:32:35.146,12.203396,-11.765509,1.7563318,-0.05253437,-0.5705477,1.784336,-44.925003,26.250002,-6.95625,-0.41025063,0.62211585,-0.61828786,1007.9594,37.88832128,127.7397228,148.19085693359375,1.77
2025-03-08 15:32:35.166,13.036098,-11.586047,0.39720857,-0.0036651888,-0.3903426,1.3408482,-43.443752,27.91875,-6.1687503,-0.40341783,0.6268199,-0.6121895,1007.9589,37.88830835,127.73971299,148.14495849609375,1.8
