Time,Accel_X,Accel_Y,Accel_Z,Gyro_X,Gyro_Y,Gyro_Z,Mag_X,Mag_Y,Mag_Z,Orient_X,Orient_Y,Orient_Z,Pressure,Lat,Lng,Alt,Speed
2025-11-24 19:31:11.692,-2.8393831,4.0938206,10.878669,-0.02183779,-0.29648998,-0.519831,-14.343751,-5.26875,-47.8875,0.19635762,0.13680817,0.055102628,1001.94995,37.88749854,127.74031847,140.69189453125,0.6
2025-11-24 19:31:11.712,-3.114857,4.718646,7.6827555,0.24021569,0.2850366,-0.33046836,-15.31875,-6.0,-47.737503,0.1970474,0.1406094,0.045655504,1001.9487, , , , 
2025-11-24 19:31:11.732,-2.8202405,5.496912,6.4618177,0.16385978,-0.04421007,-0.44530764,-15.76875,-6.24375,-47.68125,0.19890139,0.14325047,0.042555653,1001.9375, , , , 
2025-11-24 19:31:11.752,-2.9685955,5.671588,6.43759,-0.023059484,-0.44126078,-0.6291727,-15.50625,-7.1625004,-47.737503,0.19950393,0.14249009,0.037578546,1001.9375, , , , 
2025-11-24 19:31:11.772,-3.1746774,5.415556,6.957132,-0.122627586,-0.61901736,-0.68720317,-15.3,-7.6875005,-47.53125,0.19853173,0.13890117,0.030547207,1001.9341, , , , 
2025-11-24 19:31:11.792,-2.9111679,5.2980084,7.1249285,-0.09147438,-0.6703285,-0.6652127,-15.262501,-8.043751,-47.30625,0.19715211,0.13425319,0.022948416,1001.9341, , , , 
2025-11-24 19:31:11.812,-2.6862426,5.1089754,6.8662047,-0.0077883024,-0.7191963,-0.6474981,-15.356251,-8.64375,-47.193752,0.19637907,0.12906252,0.01542817,1001.93677, , , , 
2025-11-24 19:31:11.832,-2.9398818,4.6755753,6.715457,0.04963134,-0.78211355,-0.6181774,-15.8625,-8.4375,-47.175003,0.19629334,0.12330304,0.007839453,1001.93677, , , , 
2025-11-24 19:31:11.852,-2.600101,4.5726843,6.1648083,-0.06765133,-0.90245044,-0.57358557,-16.462502,-8.71875,-47.025,0.19628431,0.11719906,5.272262E-4,1001.93384, , , , 
2025-11-24 19:31:11.872,-2.6742785,4.4195433,6.669993,-0.23868857,-1.2610178,-0.65849334,-17.0625,-9.056251,-46.8375,0.19447424,0.108432606,-0.006923917,1001.93384, , , , 
2025-11-24 19:31:11.892,-2.5208387,4.1727834,7.213463,-0.24846213,-1.4553436,-0.6450547,-17.41875,-9.168751,-46.5,0.19303373,0.10283207,-0.011123555,1001.93384, , , , 
2025-11-24 19:31:11.912,-1.7261224,3.315854,7.4096746,0.039857782,-1.7760384,-0.5131117,-18.825,-9.450001,-46.18125,0.18983696,0.081771195,-0.024100354,1001.93506, , , , 
2025-11-24 19:31:11.932,-1.8314066,3.2871401,6.6939216,0.36788276,-2.0631366,-0.17897825,-19.7625,-9.58125,-45.84375,0.1915474,0.059401106,-0.033560753,1001.9402, , , , 
2025-11-24 19:31:11.952,-1.1706885,2.8106692,6.1289163,0.52242714,-2.422315,0.10384403,-21.31875,-9.618751,-45.0,0.19431347,0.04314629,-0.037484147,1001.9402, , , , 
2025-11-24 19:31:11.972,-0.38793638,2.0685952,5.4370914,0.6219952,-2.8144786,0.2791572,-22.800001,-9.712501,-44.4,0.20025454,0.010412982,-0.041781817,1001.9431, , , , 
2025-11-24 19:31:11.992,0.43818563,1.9438694,5.745765,0.5242597,-2.8682332,0.40499175,-24.581251,-10.06875,-43.237503,0.20452511,-0.0185808,-0.04442133,1001.9431, , , , 
2025-11-24 19:31:12.012,1.6878372,2.487339,5.6931233,0.22860959,-2.2085183,0.459968,-26.643751,-10.293751,-41.71875,0.20680247,-0.044956494,-0.045701835,1001.94653, , , , 
2025-11-24 19:31:12.032,2.2289143,1.7668004,5.3075795,0.12110047,-1.6147747,0.43675578,-28.743752,-10.5,-40.237503,0.20712714,-0.064265214,-0.045452293,1001.94653, , , , 
2025-11-24 19:31:12.052,1.7668004,1.3429717,4.2855453,0.20784079,-1.5402514,0.3683409,-30.6375,-10.875,-38.5875,0.2076164,-0.08004516,-0.044566866,1001.9426, , , , 
2025-11-24 19:31:12.072,2.1667008,1.407877,3.6559339,-0.100637086,-2.181641,0.3683409,-32.568752,-11.137501,-37.18125,0.20724626,-0.09923662,-0.044089958,1001.9426, , , , 
2025-11-24 19:31:12.092,3.1052856,1.8840487,8.254939,-0.8080746,-2.10162,0.39827242,-34.068752,-11.0625,-35.68125,0.20083651,-0.12280364,-0.045365144,1001.9475, , , , 
2025-11-24 19:31:12.112,4.1608195,-0.02632105,7.306783,-1.0310339,-1.3929608,0.42453885,-35.475002,-10.762501,-34.65,0.18958956,-0.13881795,-0.046179336,1001.9475, , , , 
2025-11-24 19:31:12.132,5.130511,-1.5801603,5.195117,-0.8007444,-1.9030946,0.5125008,-36.9375,-10.14375,-33.28125,0.17846584,-0.15547052,-0.045849036,1001.9536, , , , 
2025-11-24 19:31:12.152,6.815955,-2.43709,4.057928,-0.62779826,-3.0264428,0.58648974,-37.875,-9.543751,-31.66875,0.17127311,-0.17412049,-0.04522593,1001.9536, , , , 
2025-11-24 19:31:12.172,8.240582,-3.9478583,5.616553,-0.8386169,-4.3288455,0.72881716,-39.393753,-8.7375,-30.468752,0.15781215,-0.22145313,-0.04552295,1001.9458, , , , 
2025-11-24 19:31:12.192,8.989835,-5.130511,7.8693953,-1.0365314,-4.4045906,1.0501227,-40.800003,-7.9875,-28.44375,0.14254229,-0.2658243,-0.045635108,1001.9458, , , , 
2025-11-24 19:31:12.212,10.060024,-5.9709897,8.329117,-1.1733612,-4.0141826,1.3243933,-42.3375,-7.2375,-25.987501,0.124597795,-0.30720174,-0.04288342,1001.9353, , , , 
2025-11-24 19:31:12.232,10.92174,-6.5647087,8.269296,-1.2979741,-3.8584168,1.7006751,-44.15625,-6.01875,-22.9125,0.10412689,-0.34545687,-0.03699564,1001.9353, , , , 
2025-11-24 19:31:12.252,12.068799,-6.629315,8.161619,-1.3108019,-4.0166264,1.9346297,-45.7125,-4.96875,-19.087502,0.081994504,-0.3834486,-0.028092692,1001.9309, , , , 
2025-11-24 19:31:12.272,12.236297,-6.937989,8.702696,-1.1922975,-4.072824,2.1679733,-47.325,-3.525,-15.31875,0.059138007,-0.42197764,-0.017255936,1001.9309, , , , 
2025-11-24 19:31:12.292,12.533007,-7.5532436,9.111869,-1.0059891,-4.177966,2.4740078,-48.24375,-1.66875,-11.493751,0.036328297,-0.4597293,-0.0032707597,1001.91943, , , , 
2025-11-24 19:31:12.313,12.820445,-7.325926,9.47827,-0.644902,-4.100923,2.8606741,-49.0875,0.46875003,-7.4437504,0.014339998,-0.49660626,0.015099932,1001.91943, , , , 
2025-11-24 19:31:12.332,12.944871,-6.823134,9.150154,-0.60458606,-3.7154784,3.0818007,-49.406254,3.3187501,-2.8500001,-0.0066683344,-0.5298433,0.037679993,1001.91943, , , , 
2025-11-24 19:31:12.352,13.117155,-6.1648083,8.846265,-0.9320766,-2.9354265,3.3885224,-48.937504,6.1125,1.9125,-0.029618708,-0.5567187,0.062288247,1001.91943, , , , 
2025-11-24 19:31:12.373,13.63191,-5.226224,8.692825,-1.158701,-2.3539,3.5540621,-48.61875,9.337501,6.2250004,-0.05606632,-0.5769418,0.08678164,1001.91895, , , , 
2025-11-24 19:31:12.392,13.828422,-4.74736,8.510971,-1.1709179,-2.105896,3.598043,-47.475002,12.4125,9.84375,-0.07007334,-0.58500534,0.09872005,1001.91895, , , , 
2025-11-24 19:31:12.412,14.11556,-2.9111679,7.5149584,-1.0133193,-1.4308333,3.5491753,-46.125,15.262501,12.431251,-0.1117404,-0.60190123,0.13391973,1001.9238, , , , 
2025-11-24 19:31:12.432,13.627125,-1.8840487,6.748956,-0.8355627,-1.1864945,3.2901762,-44.60625,18.300001,14.493751,-0.13700822,-0.6083818,0.15598239,1001.9238, , , , 
2025-11-24 19:31:12.452,12.95205,-1.1491531,6.2174506,-0.6497888,-1.0594382,2.9871194,-42.318752,20.7,16.35,-0.15903565,-0.6129447,0.17623176,1001.92505, , , , 
2025-11-24 19:31:12.472,12.700804,-0.58654064,5.64766,-0.5196783,-0.82853794,2.6658137,-40.5,23.362501,17.868752,-0.1777015,-0.6160579,0.1948507,1001.92505, , , , 
2025-11-24 19:31:12.492,12.154941,-0.019142581,4.963013,-0.6345176,-0.4388174,2.273039,-38.4375,25.312502,19.6875,-0.19378595,-0.6172842,0.21071847,1001.93384, , , , 
2025-11-24 19:31:12.512,11.438889,0.2536392,4.7282176,-0.95834297,0.09994988,1.8808751,-36.2625,27.31875,20.85,-0.20935374,-0.6163815,0.22177288,1001.93384, , , , 
2025-11-24 19:31:12.532,10.802098,0.4214359,4.7162533,-1.2967523,0.67658967,1.5656779,-35.04375,29.025002,21.675001,-0.22618774,-0.61283016,0.22695073,1001.94214, , , , 
2025-11-24 19:31:12.552,10.040882,0.51475596,4.80748,-1.534372,1.20314,1.3561573,-33.600002,30.018751,22.5375,-0.24488166,-0.6061992,0.22685085,1001.94214, , , , 
2025-11-24 19:31:12.572,9.897313,0.85244304,5.0994043,-1.5569733,1.4701567,1.1961153,-32.53125,30.825,22.518751,-0.2648409,-0.5968671,0.22294007,1001.94824, , , , 
2025-11-24 19:31:12.592,10.024133,1.2616158,5.2549376,-1.3841035,1.5434583,1.0067526,-31.9125,31.312502,22.725,-0.28385323,-0.58605564,0.21712238,1001.94824, , , , 
2025-11-24 19:31:12.612,10.107881,1.625624,5.128118,-1.1452622,1.4499987,0.77524155,-31.406252,31.462502,22.837502,-0.3000908,-0.5750342,0.21055084,1001.9546, , , , 
2025-11-24 19:31:12.633,10.093524,1.9247267,5.2310095,-0.84472543,1.1732085,0.49417543,-31.143751,31.85625,22.5,-0.31540856,-0.5629121,0.20215486,1001.9546, , , , 
2025-11-24 19:31:12.652,10.486246,1.6351951,5.425127,-0.4964661,0.8537354,0.20707722,-30.825,32.100002,22.331251,-0.3227347,-0.5556593,0.1958915,1001.9651, , , , 
2025-11-24 19:31:12.672,11.288141,0.8452646,5.5591254,-0.14339639,0.49638975,-0.04459185,-30.88125,31.837502,22.425001,-0.3250512,-0.5518828,0.19182882,1001.9651, , , , 
2025-11-24 19:31:12.692,11.84836,0.37836507,6.1911297,0.17790927,0.16042376,-0.21501824,-30.975,31.931252,22.462502,-0.32344967,-0.5489913,0.18679428,1001.9675,37.88749854,127.74031847,140.69189453125,0.6
2025-11-24 19:31:12.713,12.300903,0.45972106,6.930811,0.56518644,0.003436016,-0.42759308,-31.368752,31.462502,22.44375,-0.3174141,-0.5486665,0.18458122,1001.9675, , , , 
2025-11-24 19:31:12.733,12.971192,-0.581755,6.9355965,0.89260054,-0.06436803,-0.84724516,-31.9125,31.25625,22.29375,-0.3063232,-0.5494004,0.18245092,1001.97144, , , , 
2025-11-24 19:31:12.753,13.07887,-2.015953,6.396912,1.058751,0.050471254,-1.1019684,-32.175003,31.218752,21.65625,-0.29139608,-0.55085033,0.17922537,1001.97144, , , , 
2025-11-24 19:31:12.772,12.8467655,-2.2025933,5.877371,1.1919158,0.36627927,-1.0451597,-32.68125,30.843752,21.2625,-0.27560267,-0.55027175,0.17590219,1001.98267, , , , 
2025-11-24 19:31:12.792,12.477972,-1.4003994,5.8103714,1.4356438,0.44996536,-1.0347753,-32.98125,30.69375,20.550001,-0.25945112,-0.5473222,0.17299235,1001.98267, , , , 
2025-11-24 19:31:12.812,12.629019,-1.1515459,5.8223357,1.8607935,0.19096613,-1.3230952,-33.84375,30.468752,19.7625,-0.23981331,-0.5446817,0.17053995,1001.9822, , , , 
2025-11-24 19:31:12.832,13.086048,-2.2624137,5.4466624,2.1901164,-0.1816507,-1.8325418,-34.575,30.206251,18.825,-0.21406308,-0.5449317,0.16770598,1001.9822, , , , 
2025-11-24 19:31:12.853,13.054941,-3.818646,5.128118,2.2377627,-0.38384116,-2.2834234,-35.362503,30.018751,17.400002,-0.18358703,-0.5479551,0.16317794,1001.9807, , , , 
2025-11-24 19:31:12.872,12.676875,-5.317151,5.6237316,2.1351402,-0.63612103,-2.5234864,-36.61875,29.625002,16.425001,-0.1515947,-0.55261785,0.15626872,1001.9807, , , , 
2025-11-24 19:31:12.893,13.009478,-6.4208403,6.835098,2.1430812,-1.1852727,-2.5436444,-37.65,28.931252,15.468751,-0.12755857,-0.55783045,0.15030715,1001.9768, , , , 
2025-11-24 19:31:12.912,13.857135,-6.2988067,7.0025954,2.2872412,-1.2585744,-2.5619698,-38.943752,27.91875,14.700001,-0.08623914,-0.5690175,0.14161535,1001.9768, , , , 
2025-11-24 19:31:12.932,13.782957,-5.721837,6.387341,2.2524228,-0.9055047,-2.8680043,-40.0125,26.718752,14.475,-0.051054798,-0.5761883,0.13476126,1001.9717, , , , 
2025-11-24 19:31:12.952,12.592828,-5.2980084,5.7194443,1.8589609,-0.4272113,-3.1825905,-40.912502,25.425001,14.118751,-0.015746111,-0.57991624,0.12449502,1001.9717, , , , 
2025-11-24 19:31:12.972,11.202,-5.2812586,5.415556,1.4099882,0.08101362,-3.2815478,-41.8875,23.831251,13.875001,0.016459242,-0.57915545,0.10980118,1001.9739, , , , 
2025-11-24 19:31:12.992,10.256236,-4.941478,5.1999025,0.96468055,0.7242358,-3.1923642,-42.881252,21.88125,13.743751,0.04359529,-0.57324594,0.092108615,1001.9739, , , , 
2025-11-24 19:31:13.013,9.23151,-4.6492543,5.18076,0.727061,1.3376027,-3.0317113,-44.04375,19.875,12.975,0.06611305,-0.56197166,0.07323031,1001.96704, , , , 
2025-11-24 19:31:13.032,8.601898,-4.3357944,4.788337,0.80830365,1.4842061,-2.864339,-45.24375,17.19375,12.281251,0.08648938,-0.54744834,0.05473966,1001.96704, , , , 
2025-11-24 19:31:13.052,8.024929,-4.199105,4.4721856,0.9463551,1.4426686,-2.652986,-46.4625,14.306251,11.4375,0.10643077,-0.5321235,0.038106978,1001.97144, , , , 
2025-11-24 19:31:13.072,7.6923265,-4.1703906,4.108177,1.1357177,1.2917893,-2.4098687,-47.53125,11.925,10.14375,0.12632993,-0.5174362,0.023930177,1001.97144, , , , 
2025-11-24 19:31:13.092,7.450352,-4.2424746,3.6918263,1.318361,1.0608126,-2.1581998,-48.375004,9.056251,9.01875,0.14644472,-0.50430405,0.012590428,1001.9761, , , , 
2025-11-24 19:31:13.112,6.808777,-4.2975097,3.3732817,1.4222051,0.827469,-1.9095086,-49.125004,6.6375003,7.425,0.16658816,-0.49326473,0.0039279596,1001.9761, , , , 
2025-11-24 19:31:13.132,5.982954,-4.331009,3.016452,1.426481,0.65765345,-1.6425682,-49.275,4.5,6.0375004,0.18596663,-0.4841584,-0.0024653592,1001.9729, , , , 
2025-11-24 19:31:13.152,5.7314086,-4.4721856,2.4251258,1.3366865,0.5922928,-1.3322579,-49.425003,2.1000001,4.9875,0.20360821,-0.47641435,-0.0067755273,1001.9729, , , , 
2025-11-24 19:31:13.173,5.6644096,-4.6971107,2.0015962,1.2658283,0.5684697,-1.183822,-49.593754,1.29375,4.6312504,0.21152236,-0.4728996,-0.008130943,1001.9729, , , , 
2025-11-24 19:31:13.192,5.0754757,-5.1329036,0.8138588,0.89748734,0.42492062,-0.6126798,-49.350002,-1.1812501,3.525,0.23052856,-0.46429935,-0.009420777,1001.96826, , , , 
2025-11-24 19:31:13.212,5.6189456,-5.4873405,0.9936196,0.5841227,0.13660072,-0.061084725,-49.575,-2.1750002,2.8312502,0.23738691,-0.4615497,-0.0073407246,1001.9756, , , , 
2025-11-24 19:31:13.232,6.035596,-5.391628,1.2879368,0.42163733,-0.14072394,0.40682426,-49.687504,-2.7,2.23125,0.23925066,-0.46213582,-0.004036158,1001.9756, , , , 
2025-11-24 19:31:13.252,6.396912,-5.0994043,1.7213368,0.2854184,-0.35452047,0.83754796,-49.74375,-3.1875002,1.9312501,0.23787087,-0.4674784,0.004813295,1001.9756, , , , 
2025-11-24 19:31:13.272,6.4184475,-5.3700924,1.7763717,0.14431266,-0.36856997,1.0434035,-50.081253,-3.075,2.11875,0.23392844,-0.47343817,0.013950358,1001.9756, , , , 
2025-11-24 19:31:13.292,8.010572,-7.342675,1.9295124,-0.2753394,-0.54815906,1.4349566,-50.081253,-2.8125,2.34375,0.22426054,-0.48257178,0.027133591,1001.9712, , , , 
2025-11-24 19:31:13.312,8.987442,-8.010572,2.6599214,-0.61191624,-0.7295807,1.9236344,-50.156254,-2.2875001,2.49375,0.2141974,-0.4900792,0.036189847,1001.9712, , , , 
2025-11-24 19:31:13.332,9.361021,-7.1799636,3.8665023,-0.77386713,-0.7454627,2.6480992,-50.287502,-0.95625,2.86875,0.19007929,-0.5053098,0.055228315,1001.9702, , , , 
2025-11-24 19:31:13.352,9.490233,-5.7338014,4.453043,-0.57282203,-0.6251258,3.0842443,-50.287502,0.63750005,3.3000002,0.16767856,-0.5171612,0.07529673,1001.9702, , , , 
2025-11-24 19:31:13.372,10.117453,-5.2070813,4.124927,-0.37124243,-0.6287909,3.2015269,-50.025,2.7,3.9,0.15151206,-0.525403,0.09274806,1001.9702, , , , 
2025-11-24 19:31:13.392,11.158929,-5.2429733,3.5886357,-0.26678753,-0.70331424,3.185034,-49.800003,3.91875,4.18125,0.13641281,-0.53350884,0.111112595,1001.9685, , , , 
2025-11-24 19:31:13.412,12.626626,-5.8103714,2.7652056,-0.40606073,-0.75462544,3.1001263,-49.29375,7.8562503,5.1937504,0.11212572,-0.5471627,0.1413555,1001.9685, , , , 
2025-11-24 19:31:13.432,12.956836,-5.9638114,2.7149563,-0.72255594,-0.7851678,3.0243812,-48.300003,10.293751,5.7375,0.09137736,-0.55787504,0.16370066,1001.9663, , , , 
2025-11-24 19:31:13.452,12.736696,-5.29083,3.777968,-1.2576581,-0.7289699,2.8936598,-47.756252,13.1625,6.525,0.061725803,-0.57115775,0.18705751,1001.97363, , , , 
2025-11-24 19:31:13.472,12.219547,-4.776373,4.5655055,-1.4769523,-0.5579326,2.745224,-46.725002,16.0125,7.6687503,0.04230959,-0.57821184,0.19839606,1001.97363, , , , 
2025-11-24 19:31:13.492,11.450852,-4.3334017,4.953442,-1.6993008,-0.19936527,2.5833495,-45.131252,18.69375,8.6625,0.008650629,-0.5868097,0.2137216,1001.98413, , , , 
2025-11-24 19:31:13.512,11.161322,-3.938287,5.0826545,-1.7909278,0.1622563,2.5430336,-44.025,21.618752,10.05,-0.012604482,-0.58958834,0.22131656,1001.98413, , , , 
2025-11-24 19:31:13.532,10.885847,-3.5647075,4.857729,-1.8110858,0.44568944,2.5076044,-42.375,24.018751,10.9125,-0.04176243,-0.5902821,0.23040773,1001.98413, , , , 
2025-11-24 19:31:13.552,10.289736,-3.167499,4.7569313,-1.677921,0.37360945,2.4880571,-41.0625,26.1,11.681251,-0.07786731,-0.588974,0.24065015,1001.98804, , , , 
2025-11-24 19:31:13.572,10.091131,-3.071487,4.8792644,-1.5313177,0.2679329,2.5021067,-39.61875,28.0125,12.450001,-0.09845681,-0.5882207,0.24719019,1001.98804, , , , 
2025-11-24 19:31:13.592,9.700802,-2.6982067,5.111368,-1.1916866,0.120107844,2.5466986,-38.2125,29.5125,13.06875,-0.13033405,-0.5866686,0.2595831,1001.98047, , , , 
2025-11-24 19:31:13.612,9.442377,-2.4993033,5.061119,-0.99804807,0.070018366,2.6071725,-37.03125,30.900002,13.762501,-0.14771661,-0.58533734,0.26842517,1001.98047, , , , 
2025-11-24 19:31:13.632,9.404092,-2.2863421,4.9031925,-0.82090235,0.0626882,2.733007,-35.5125,32.23125,14.83125,-0.16958056,-0.5827445,0.28205568,1001.979, , , , 
2025-11-24 19:31:13.652,10.112667,-1.6399808,4.587041,-0.5703786,0.04253024,2.8600633,-33.84375,33.487503,15.6,-0.1953565,-0.57806045,0.3018325,1001.979, , , , 
2025-11-24 19:31:13.672,10.491032,-0.8955139,4.338187,-0.47508645,0.12621632,2.761106,-32.100002,34.95,15.843751,-0.20951481,-0.57450974,0.31431115,1001.979, , , , 
2025-11-24 19:31:13.692,11.065608,-0.36161533,4.402794,-0.4512634,0.1518719,2.389711,-29.98125,36.24375,16.5375,-0.2307359,-0.5681086,0.3331026,1001.98145,37.88749982,127.74033606,140.2757568359375,0.76
2025-11-24 19:31:13.712,11.376676,-0.2321038,4.615755,-0.3981197,0.22578442,2.140485,-28.06875,37.3875,16.425001,-0.2417358,-0.56443244,0.34250364,1001.98145, , , , 
2025-11-24 19:31:13.732,12.209976,-0.25124636,4.6372905,-0.17149536,0.3522298,1.69701,-26.38125,38.625,16.425001,-0.25686187,-0.5574646,0.35543612,1001.99365, , , , 
2025-11-24 19:31:13.752,12.592828,-0.4956134,4.4004006,0.0056503373,0.31924406,1.3897538,-24.337502,39.525,16.575,-0.2652083,-0.5517298,0.3636357,1001.99365, , , , 
2025-11-24 19:31:13.772,13.232309,-0.6367899,4.1225343,0.13331741,0.30397287,1.1179268,-22.85625,40.537502,16.3875,-0.26930755,-0.5477806,0.3689502,1001.99365, , , , 
2025-11-24 19:31:13.792,13.919349,-0.59611195,4.019643,0.25426516,0.26732203,0.6671216,-21.6375,41.4375,16.650002,-0.2726463,-0.54200375,0.3757171,1001.99756, , , , 
2025-11-24 19:31:13.812,14.280664,-0.6774679,4.199105,0.34711397,0.14209834,0.2211267,-20.831251,42.018753,16.66875,-0.27163348,-0.5389009,0.37846878,1001.99756, , , , 
2025-11-24 19:31:13.832,14.951253,-1.8337995,4.409972,0.45156884,-0.10346226,-0.5015056,-20.362501,42.506252,16.59375,-0.2660301,-0.53831315,0.37816277,1001.9978, , , , 
2025-11-24 19:31:13.852,14.7044935,-2.5929224,4.398008,0.49799323,-0.1272853,-0.9852966,-20.1375,42.73125,16.368752,-0.25589067,-0.54022,0.37454987,1001.9978, , , , 
2025-11-24 19:31:13.872,13.749458,-2.827419,4.2687955,0.5395308,0.008933641,-1.3615786,-20.081251,43.125,15.731251,-0.24043359,-0.54279417,0.3662586,1001.9973, , , , 
2025-11-24 19:31:13.892,12.820445,-2.695814,4.354937,0.6445966,-0.060702946,-1.5283399,-20.625,43.050003,15.168751,-0.23364945,-0.5437355,0.36213908,1001.9973, , , , 
2025-11-24 19:31:13.912,12.595221,-2.9614172,4.240082,0.99216866,-0.35268793,-2.0133526,-21.6,42.825,14.55,-0.21238063,-0.54698557,0.35085276,1001.9912, , , , 
2025-11-24 19:31:13.932,12.786945,-3.8066816,3.7707894,1.1088405,-0.5854207,-2.5021067,-22.575,42.375,14.137501,-0.18973018,-0.5514439,0.34029725,1001.99097, , , , 
2025-11-24 19:31:13.952,12.863516,-4.699504,3.828217,0.9585721,-0.76134473,-2.9364192,-24.0375,41.4375,13.650001,-0.16365911,-0.558058,0.3268149,1001.99097, , , , 
2025-11-24 19:31:13.972,13.069298,-5.695516,4.7138605,0.7288935,-0.8419766,-3.252838,-25.85625,40.5,13.031251,-0.13651592,-0.5662649,0.309698,1001.9824, , , , 
2025-11-24 19:31:13.992,13.10519,-6.4256263,5.860621,0.6152759,-0.86763215,-3.456861,-27.750002,39.375,12.843751,-0.10929885,-0.57494515,0.28940302,1001.9824, , , , 
2025-11-24 19:31:14.012,12.837194,-6.658029,6.6245294,0.6641437,-0.8126559,-3.5674243,-30.000002,38.04375,12.431251,-0.08176232,-0.58269167,0.26739177,1001.9824, , , , 
2025-11-24 19:31:14.032,12.138191,-6.6077795,6.8518476,0.85472804,-0.6159631,-3.681042,-32.006252,36.375,12.618751,-0.045959093,-0.5894296,0.23928198,1001.9763, , , , 
2025-11-24 19:31:14.052,11.508579,-6.3849483,6.322735,0.98056257,-0.38506284,-3.709141,-33.65625,34.48125,12.731251,-0.023823246,-0.59135205,0.22249876,1001.9763, , , , 
2025-11-24 19:31:14.072,11.156535,-5.8821564,4.8625145,0.99461204,-0.01305686,-3.648667,-35.9625,32.268753,12.618751,0.012874465,-0.5904372,0.19519268,1001.9807, , , , 
2025-11-24 19:31:14.092,10.962717,-5.465805,4.479364,0.7777613,0.28442577,-3.6785986,-38.04375,29.7,12.562501,0.04041702,-0.58643275,0.1728869,1001.98804, , , , 
2025-11-24 19:31:14.112,10.706386,-5.389235,4.5798626,0.6879667,0.41636875,-3.7390723,-40.29375,26.94375,12.056251,0.059896745,-0.58193415,0.15496844,1001.98804, , , , 
2025-11-24 19:31:14.132,9.770194,-5.5591254,4.4817567,0.6928535,0.55136603,-3.7311313,-42.5625,23.925001,11.90625,0.09143432,-0.57219845,0.12393845,1001.98804, , , , 
2025-11-24 19:31:14.152,8.932407,-5.539983,4.237689,0.7276718,0.5849626,-3.5723112,-43.96875,21.0,11.400001,0.109683484,-0.56544393,0.10585511,1001.98804, , , , 
2025-11-24 19:31:14.172,8.211868,-5.425127,4.1201415,0.7905891,0.5721348,-3.3609579,-45.375,18.13125,10.950001,0.1329812,-0.55595326,0.083375335,1001.98804, , , , 
2025-11-24 19:31:14.192,7.158428,-5.1999025,3.9670007,0.94452256,0.42797485,-2.9938388,-46.725002,14.962501,10.35,0.16097617,-0.5445283,0.05875761,1001.9851, , , , 
2025-11-24 19:31:14.212,6.602994,-5.111368,3.9071803,1.0104941,0.3729986,-2.7385046,-47.34375,12.243751,9.58125,0.17703876,-0.53830606,0.046199027,1001.9851, , , , 
2025-11-24 19:31:14.232,5.709873,-5.0012984,3.4474592,1.066692,0.35100812,-2.2999163,-48.15,9.356251,8.962501,0.20201182,-0.52847844,0.029233009,1001.9829, , , , 
2025-11-24 19:31:14.252,5.1161537,-4.970192,3.0523443,1.0721897,0.2990861,-1.9742583,-48.656254,6.4875,8.400001,0.21569285,-0.5231,0.021296915,1001.9829, , , , 
2025-11-24 19:31:14.272,4.76411,-5.374878,2.2504497,1.0037748,0.2306712,-1.475807,-48.768753,4.3125,7.9875,0.2357883,-0.5156101,0.011817665,1001.98096, , , , 
2025-11-24 19:31:14.292,4.4889355,-5.860621,1.6160526,0.82785076,0.18730104,-1.0989143,-49.406254,2.1000001,7.4812503,0.24848413,-0.51110435,0.007482093,1001.98096, , , , 
2025-11-24 19:31:14.312,4.3334017,-6.3131633,1.2257234,0.43629766,0.14759597,-0.5015056,-49.612503,0.50625,7.3875003,0.25648162,-0.50812846,0.005767458,1001.97656, , , , 
2025-11-24 19:31:14.332,4.321438,-6.1504517,1.4198412,0.16447063,0.13171394,0.05803049,-49.7625,-0.71250004,7.05,0.25856343,-0.5069538,0.0069200657,1001.978, , , , 
2025-11-24 19:31:14.352,5.144868,-5.925526,1.7213368,0.020310672,0.10483666,0.6170321,-49.818752,-1.5187501,6.8812504,0.25653484,-0.5072726,0.010276324,1001.978, , , , 
2025-11-24 19:31:14.372,7.495816,-6.7298136,1.7117655,-0.12995775,-0.14561072,1.141139,-49.66875,-1.85625,6.8625,0.24869363,-0.5108444,0.02034171,1001.979, , , , 
2025-11-24 19:31:14.392,8.142476,-7.0675006,1.623231,-0.2625116,-0.19936527,1.3274474,-49.631252,-1.8937501,6.58125,0.24410576,-0.51340103,0.025390722,1001.979, , , , 
2025-11-24 19:31:14.412,8.815159,-7.345068,2.1164517,-0.75126576,-0.27694288,1.8252879,-49.48125,-1.06875,6.4125004,0.22739205,-0.52160376,0.039764438,1001.979, , , , 
2025-11-24 19:31:14.432,9.219545,-7.004988,3.626921,-1.0908968,-0.2757212,2.2913644,-49.218754,-0.20625001,6.61875,0.20255391,-0.531314,0.055786602,1001.9873, , , , 
2025-11-24 19:31:14.452,9.935597,-6.789634,4.249653,-1.1122766,-0.2152473,2.5552504,-48.768753,1.2,6.6562505,0.18480508,-0.53720504,0.066578165,1001.9873, , , , 
2025-11-24 19:31:14.472,11.407782,-6.550352,4.098606,-0.9907179,-0.13522631,2.8307426,-48.693752,3.2812502,7.2562504,0.15346493,-0.54623127,0.087671466,1001.98584, , , , 
2025-11-24 19:31:14.492,12.181262,-6.5838513,3.6053855,-1.0078217,-0.14377818,2.90099,-48.7125,5.25,7.4812503,0.12824011,-0.55271155,0.10647251,1001.98584, , , , 
2025-11-24 19:31:14.512,12.367902,-6.303592,3.4833515,-1.2228398,-0.19997612,2.9797893,-48.787502,7.5750003,7.8187504,0.10209373,-0.5592297,0.12524775,1001.9878, , , , 
2025-11-24 19:31:14.532,11.810075,-5.4586267,4.1057844,-1.390212,-0.2036412,3.076914,-48.7125,9.95625,8.418751,0.0739225,-0.56560516,0.14326428,1001.9839, , , , 
2025-11-24 19:31:14.552,11.374283,-4.8242297,4.503292,-1.4091482,-0.18348324,3.0891309,-48.075,12.243751,9.075001,0.05201353,-0.56993806,0.1563137,1001.9839, , , , 
2025-11-24 19:31:14.572,10.945967,-4.005286,4.395615,-1.3798276,-0.047264308,3.0622537,-47.1375,14.7375,9.65625,0.015822997,-0.57542515,0.17752913,1001.9888, , , , 
2025-11-24 19:31:14.592,10.82842,-3.559922,4.1632123,-1.4549618,0.07551599,3.0084991,-46.068752,17.19375,9.95625,-0.012843515,-0.5778938,0.19382481,1001.9888, , , , 
2025-11-24 19:31:14.612,10.770992,-3.1196425,4.158427,-1.5881265,0.19951798,2.893049,-44.850002,19.743752,10.63125,-0.04179612,-0.57896435,0.20854528,1001.98706, , , , 
2025-11-24 19:31:14.632,10.359127,-2.8848467,4.398008,-1.6333293,0.21112408,2.75683,-43.3875,22.087502,10.875,-0.07073295,-0.5791056,0.22127697,1001.98706, , , , 
2025-11-24 19:31:14.652,10.150951,-2.679064,4.6803613,-1.5991218,0.13537902,2.6603162,-41.90625,24.300001,11.4375,-0.091940545,-0.5790611,0.22976612,1001.98706, , , , 
2025-11-24 19:31:14.672,9.942777,-2.300699,4.8361936,-1.465957,0.21478917,2.5937338,-40.21875,26.306252,12.262501,-0.13206537,-0.57799,0.2457628,1001.98804, , , , 
2025-11-24 19:31:14.692,10.0576315,-1.9558334,4.761717,-1.3999856,0.30152947,2.57663,-38.60625,28.2,13.106251,-0.1512208,-0.5762569,0.2537247,1001.98804,37.88750609,127.74034587,140.764404296875,1.02
2025-11-24 19:31:14.712,10.493424,-1.3956138,4.658826,-1.3120235,0.43347248,2.4776728,-37.0125,29.8875,14.137501,-0.181922,-0.57167345,0.26650578,1001.99146, , , , 
2025-11-24 19:31:14.732,10.79492,-1.0055838,4.7114677,-1.2417761,0.49211383,2.3671095,-35.287502,31.44375,14.962501,-0.19938277,-0.5681983,0.27347162,1001.99146, , , , 
2025-11-24 19:31:14.752,11.027323,-0.57936215,4.845765,-1.1110548,0.49638975,2.248605,-33.600002,32.90625,15.675,-0.22120206,-0.5629436,0.2820061,1001.99634, , , , 
2025-11-24 19:31:14.772,11.577971,0.009571291,4.831408,-0.7879166,0.44324604,2.017094,-31.800001,34.2,16.368752,-0.24458474,-0.55583364,0.29216507,1002.0049, , , , 
2025-11-24 19:31:14.792,12.008679,0.14117654,4.625326,-0.5630485,0.36994436,1.7886372,-30.187502,35.4,16.5375,-0.25585997,-0.5516089,0.29806122,1002.0049, , , , 
2025-11-24 19:31:14.812,13.074084,0.03589234,4.1632123,-0.3400892,0.17874917,1.4312915,-28.837502,36.3375,17.15625,-0.26986957,-0.545792,0.30696762,1002.0005, , , , 
2025-11-24 19:31:14.832,13.852349,-0.021535404,3.8641095,-0.25518143,-0.03260397,1.084941,-27.675001,37.48125,17.4375,-0.27539137,-0.54386127,0.31127587,1002.0005, , , , 
2025-11-24 19:31:14.853,14.263915,-0.09810573,3.9837506,-0.28083703,-0.41865945,0.5718294,-26.681252,38.1375,17.53125,-0.28023008,-0.54456466,0.3158655,1002.00146, , , , 
2025-11-24 19:31:14.872,14.161023,0.33290145,4.776373,-0.32726142,-0.5298336,0.21440738,-25.95,38.737503,17.925001,-0.28088227,-0.54864794,0.31695935,1002.00146, , , , 
2025-11-24 19:31:14.892,13.916956,0.581755,5.580661,-0.31504446,-0.49012858,-0.12522368,-25.593752,38.86875,17.79375,-0.2801455,-0.5512569,0.3163978,1002.00146, , , , 
2025-11-24 19:31:14.912,14.094025,-1.2735798,7.1129646,-0.027946262,-0.36246148,-1.0671501,-24.7875,39.131252,18.2625,-0.2716704,-0.55975944,0.30853093,1001.99634, , , , 
2025-11-24 19:31:14.932,13.473985,-2.7101707,6.832705,0.32023668,0.048638713,-1.3267603,-24.975,39.24375,18.16875,-0.26347083,-0.56305736,0.3022545,1001.99634, , , , 
2025-11-24 19:31:14.952,12.6625185,-3.004488,5.508876,0.55663455,0.5104392,-1.2106993,-25.406252,39.037502,18.45,-0.25189963,-0.5628881,0.29431593,1001.99854, , , , 
2025-11-24 19:31:14.972,12.609577,-1.9295124,4.9677987,0.7624901,0.28870168,-1.1202939,-26.1,38.53125,18.16875,-0.23829228,-0.55974257,0.28550735,1002.0012, , , , 
2025-11-24 19:31:14.992,13.430914,-1.6016957,5.6261244,1.1833638,-0.2543415,-1.3884559,-26.79375,38.1375,18.0,-0.22748472,-0.5595799,0.2810231,1002.0012, , , , 
2025-11-24 19:31:15.012,14.331213,-2.882454,5.489733,1.746565,-0.9012288,-2.034732,-27.7875,37.537502,17.4375,-0.19903648,-0.5640899,0.27479056,1001.99976, , , , 
2025-11-24 19:31:15.032,14.697315,-4.273581,5.3796635,1.7538952,-1.1076951,-2.4685102,-28.29375,37.068752,17.00625,-0.16910765,-0.57113606,0.26879007,1001.99976, , , , 
2025-11-24 19:31:15.052,14.608781,-5.4729834,5.5854464,1.4606885,-1.0679901,-2.9193153,-29.250002,36.581253,16.462502,-0.13708466,-0.5796185,0.2594138,1001.9966, , , , 
2025-11-24 19:31:15.072,13.893027,-5.81755,5.9638114,1.1619842,-0.8315922,-3.1923642,-30.54375,35.643753,15.918751,-0.10578711,-0.5872866,0.24570502,1001.9966, , , , 
2025-11-24 19:31:15.092,12.894622,-5.985347,6.3107705,0.8559497,-0.42110282,-3.4574718,-32.11875,34.4625,15.4875,-0.07630107,-0.59260285,0.2276969,1001.99976, , , , 
2025-11-24 19:31:15.112,11.891431,-5.872585,6.3801622,0.7783721,-0.05092939,-3.568646,-34.21875,32.71875,14.56875,-0.04852696,-0.5945814,0.2064846,1001.99976, , , , 
2025-11-24 19:31:15.132,11.221142,-5.616553,5.994918,0.8632799,0.18852274,-3.5820847,-36.525,30.675001,14.156251,-0.021568269,-0.5931832,0.18410505,1001.99976, , , , 
2025-11-24 19:31:15.152,10.569995,-5.389235,5.309973,1.0337063,0.4169796,-3.5564291,-38.7,28.462502,13.8,0.00557263,-0.5890337,0.16206536,1002.0, , , , 
2025-11-24 19:31:15.172,9.983455,-5.3075795,4.6755753,1.1680927,0.49333552,-3.5142806,-40.55625,25.837502,13.63125,0.033186503,-0.582779,0.14098328,1002.0, , , , 
2025-11-24 19:31:15.192,9.310772,-5.5950174,4.041178,1.2615523,0.46034977,-3.4373138,-42.525,23.1375,13.06875,0.061223097,-0.57559794,0.12094782,1002.0051, , , , 
2025-11-24 19:31:15.212,8.5014,-5.7601223,3.7707894,1.2817103,0.40048674,-3.2754393,-43.912502,20.38125,12.618751,0.08889061,-0.5682149,0.10200941,1001.99585, , , , 
2025-11-24 19:31:15.232,7.9244304,-5.843871,3.818646,1.2835428,0.32962844,-3.0524802,-45.487503,17.737501,11.90625,0.115173884,-0.56098527,0.084694274,1001.99585, , , , 
2025-11-24 19:31:15.252,7.3163543,-5.642874,3.8736808,1.3537903,0.23189288,-2.721401,-46.4625,15.075001,11.1,0.1399671,-0.5541415,0.069582,1001.9844, , , , 
2025-11-24 19:31:15.272,7.0097737,-5.563911,3.7564325,1.4051014,0.17630579,-2.445298,-47.025,12.543751,10.5,0.16357234,-0.5478554,0.057014976,1001.9844, , , , 
2025-11-24 19:31:15.292,6.6077795,-5.29083,3.1627133,1.4020472,0.22456272,-2.13682,-47.831253,10.21875,9.84375,0.19121103,-0.5402522,0.044696447,1001.98584, , , , 
2025-11-24 19:31:15.312,6.2461643,-5.1616178,2.6742785,1.2975923,0.26671118,-1.9211147,-48.43125,7.6125,9.09375,0.206401,-0.53549993,0.03889613,1001.98584, , , , 
2025-11-24 19:31:15.332,5.9973106,-5.3772707,2.2145574,1.1424371,0.26915458,-1.7225893,-48.975002,5.9812503,8.868751,0.22453527,-0.5292952,0.03227081,1001.98584, , , , 
2025-11-24 19:31:15.352,5.4705906,-5.915955,1.7572291,0.88710296,0.27098712,-1.3169867,-49.331253,4.0687504,8.6625,0.24274476,-0.52236897,0.025752002,1001.98096, , , , 
2025-11-24 19:31:15.372,5.063512,-6.1241302,1.5442679,0.7172874,0.25144,-0.9266553,-49.406254,2.4375,8.2875,0.25082836,-0.51891744,0.023321405,1001.98096, , , , 
2025-11-24 19:31:15.392,4.915157,-6.1528444,1.3286148,0.5981722,0.21051323,-0.6096256,-49.350002,1.8000001,8.175,0.2566318,-0.5163709,0.022459507,1001.9768, , , , 
2025-11-24 19:31:15.412,5.1664033,-5.6117673,1.2831511,0.31107396,0.14209834,0.10628742,-49.29375,0.20625001,7.9500003,0.26113287,-0.5144653,0.024685523,1001.97534, , , , 
2025-11-24 19:31:15.432,5.4705906,-5.2334023,1.2903296,0.17729841,0.17936003,0.35123718,-49.500004,-0.61875004,7.7812505,0.26070818,-0.51427704,0.029201616,1001.97534, , , , 
2025-11-24 19:31:15.452,6.928418,-6.093024,0.8955139,-0.21730891,0.123162076,0.65673715,-49.55625,-1.03125,7.74375,0.25572255,-0.51497966,0.03678252,1001.978, , , , 
2025-11-24 19:31:15.472,7.5364943,-7.1153574,0.85244304,-0.6876613,0.06818583,1.0324082,-49.593754,-0.7875,7.2375,0.24897458,-0.5166181,0.041715894,1001.978, , , , 
2025-11-24 19:31:15.492,7.969894,-7.038787,2.2863421,-1.2161205,-0.060702946,1.73305,-49.575,-0.675,7.425,0.22830963,-0.5221632,0.05180889,1001.97876, , , , 
2025-11-24 19:31:15.512,8.412866,-5.752944,4.0387855,-1.2338351,-0.12545276,2.2669306,-49.706253,0.35625002,6.9375005,0.20539516,-0.5287719,0.06275994,1001.97876, , , , 
2025-11-24 19:31:15.532,9.174082,-4.989334,4.634897,-1.0206494,-0.16699037,2.4905007,-49.706253,1.9312501,6.6375003,0.18756756,-0.5340802,0.07315189,1001.97876, , , , 
2025-11-24 19:31:15.552,10.81167,-5.4705906,3.6655052,-0.78180814,-0.1932568,2.6444342,-49.612503,3.5812502,6.95625,0.15959659,-0.54287237,0.09410412,1001.97876, , , , 
2025-11-24 19:31:15.572,11.673684,-5.999704,3.1292138,-0.9174162,-0.22502086,2.7311745,-49.406254,5.68125,6.7875004,0.14279315,-0.5481283,0.10774287,1001.97876, , , , 
2025-11-24 19:31:15.592,12.422937,-6.059524,3.3756745,-1.2802595,-0.23784865,2.8655608,-48.862503,7.9500003,7.0687504,0.111756735,-0.5570737,0.13002701,1001.98096, , , , 
2025-11-24 19:31:15.612,12.238689,-5.4753766,4.1847477,-1.4836717,-0.23112933,2.9504685,-48.375004,10.1625,7.74375,0.08382176,-0.5640984,0.14669922,1001.98096, , , , 
2025-11-24 19:31:15.632,11.697613,-4.503292,5.034798,-1.6174471,-0.1376697,2.9382517,-47.775,12.39375,7.9875,0.05424757,-0.57016903,0.16228728,1001.9846, , , , 
2025-11-24 19:31:15.652,11.252249,-3.926323,5.2884374,-1.6345509,0.026037365,2.8698368,-47.175003,14.793751,8.681251,0.024441313,-0.5745614,0.17665626,1001.9885, , , , 
2025-11-24 19:31:15.672,10.962717,-3.5886357,5.2022953,-1.6345509,0.19279866,2.8496788,-46.10625,17.1375,9.4875,0.0021773595,-0.57632136,0.18687747,1001.9885, , , , 
2025-11-24 19:31:15.692,11.082358,-3.1866415,4.888836,-1.6040086,0.31374642,2.7940917,-45.1875,19.21875,9.7875,-0.034783136,-0.5768163,0.20320556,1001.9929,37.8875123,127.74035592,141.0355224609375,1.05
2025-11-24 19:31:15.712,11.106286,-3.0068808,4.682754,-1.5374262,0.25999185,2.7140708,-44.04375,21.375,10.51875,-0.06332805,-0.57627344,0.21542522,1001.9929, , , , 
2025-11-24 19:31:15.732,11.192428,-2.6336005,4.4841495,-1.4958886,0.18913358,2.6517644,-42.45,23.456251,11.15625,-0.08378458,-0.575926,0.22422232,1001.9929, , , , 
2025-11-24 19:31:15.752,10.782956,-1.8026928,4.5487556,-1.5496432,0.2062373,2.49722,-41.30625,25.44375,11.868751,-0.116542265,-0.5751909,0.23784068,1001.99, , , , 
2025-11-24 19:31:15.772,10.629815,-1.4605191,4.896014,-1.5594167,0.26243526,2.3719962,-39.65625,27.393751,12.7875,-0.13564162,-0.57436097,0.24477226,1001.99, , , , 
2025-11-24 19:31:15.792,10.770992,-0.98644114,5.211867,-1.3932662,0.35894912,2.1899638,-38.362503,28.85625,13.481251,-0.16580798,-0.571674,0.25452912,1001.99243, , , , 
2025-11-24 19:31:15.812,11.146964,-0.55304116,4.9773703,-1.2014602,0.46767992,2.0476363,-37.10625,30.150002,13.9125,-0.1874757,-0.5680326,0.26161328,1001.99243, , , , 
2025-11-24 19:31:15.832,11.29532,-0.22492532,4.5008993,-1.04997,0.50066566,1.8442242,-35.756252,31.44375,14.418751,-0.20195779,-0.56464857,0.26645145,1001.98, , , , 
2025-11-24 19:31:15.852,11.434103,0.014356935,3.9023945,-0.96933824,0.54281414,1.497263,-34.55625,32.625,14.906251,-0.22293209,-0.558884,0.27282867,1001.9851, , , , 
2025-11-24 19:31:15.872,11.857932,0.038285162,3.5288153,-1.002324,0.6130616,1.153356,-33.1875,33.99375,15.431251,-0.23730291,-0.5547464,0.2752424,1001.9851, , , , 
2025-11-24 19:31:15.892,11.759826,-0.09810573,3.1986058,-1.1428188,0.7224032,0.7905127,-32.081253,34.875,15.993751,-0.24706918,-0.5519138,0.2745996,1001.9851, , , , 
2025-11-24 19:31:15.912,11.520544,-0.8572287,3.6029928,-1.3651673,0.60267717,0.45691374,-31.275002,35.625,16.48125,-0.26296383,-0.5487266,0.26845086,1001.99097, , , , 
2025-11-24 19:31:15.932,12.054143,-1.2903296,5.1879387,-1.3108019,0.37360945,0.37689275,-30.69375,35.8125,16.6875,-0.27530122,-0.5479081,0.26131555,1001.9929, , , , 
2025-11-24 19:31:15.952,12.746267,-1.0223335,6.6963143,-0.9235247,0.022372281,0.39216393,-30.281252,35.850002,17.4375,-0.285475,-0.54793817,0.2553374,1001.9929, , , , 
2025-11-24 19:31:15.972,13.828422,-0.6511469,8.060822,-0.4378248,-0.39789063,0.30542362,-30.018751,35.90625,18.018751,-0.29093575,-0.54954875,0.25245664,1001.9929, , , , 
2025-11-24 19:31:15.992,14.936896,-0.41665024,9.569197,0.21089502,-0.79799557,0.023212196,-30.018751,35.4,18.5625,-0.28934902,-0.55338794,0.25269714,1001.9968, , , , 
2025-11-24 19:31:16.012,14.402998,0.17228323,9.827921,0.8803836,-0.7216397,-0.32252735,-29.7,35.625,19.275002,-0.2799447,-0.5577597,0.2552173,1001.9968, , , , 
2025-11-24 19:31:16.032,12.449258,0.7492526,7.50778,1.4215943,-0.017943637,-0.91688174,-29.6625,35.625,19.21875,-0.25983617,-0.5588023,0.2582312,1001.9995, , , , 
2025-11-24 19:31:16.052,11.886645,0.16271193,5.5184474,1.426481,0.3186332,-1.4379344,-29.681252,35.60625,18.975,-0.24525733,-0.55737203,0.2571973,1001.9995, , , , 
2025-11-24 19:31:16.072,11.934502,-1.0534402,4.4721856,1.3037008,0.40048674,-1.9180604,-29.7,35.625,18.46875,-0.22451732,-0.55534035,0.25087127,1002.0005, , , , 
2025-11-24 19:31:16.092,12.492329,-3.3230324,4.3740797,1.1778662,0.082235314,-2.3866565,-30.093752,35.175003,17.587502,-0.19691153,-0.5552705,0.23671715,1001.9968, , , , 
2025-11-24 19:31:16.112,12.9592285,-4.493721,5.1879387,1.2096303,-0.25311983,-2.5479202,-30.862501,34.59375,16.743752,-0.17923869,-0.5573142,0.22670431,1001.9968, , , , 
2025-11-24 19:31:16.132,13.610375,-5.0802617,5.8821564,1.4313679,-0.4736357,-2.6456559,-32.1375,33.65625,16.0125,-0.14703406,-0.5626304,0.21038693,1001.99023, , , , 
2025-11-24 19:31:16.152,14.034204,-5.2046885,5.508876,1.5315468,-0.47852248,-2.7745447,-33.54375,32.79375,15.150001,-0.12590936,-0.5659186,0.2010199,1001.99023, , , , 
2025-11-24 19:31:16.173,13.907384,-5.259723,4.6205406,1.3415732,-0.2928249,-3.0475934,-35.49375,31.5375,14.625001,-0.08939996,-0.57029706,0.18393846,1001.98364, , , , 
2025-11-24 19:31:16.192,13.256237,-5.2645087,4.5966125,1.091126,-0.12423106,-3.245508,-37.425003,29.98125,13.8,-0.061091818,-0.57237256,0.16684206,1001.98364, , , , 
2025-11-24 19:31:16.212,11.84836,-5.063512,5.0587263,0.99583375,-0.027106347,-3.376229,-39.112503,28.425001,13.087501,-0.03405017,-0.57281554,0.14669259,1001.9866, , , , 
2025-11-24 19:31:16.232,10.687243,-5.2142596,5.317151,1.0996778,-0.0051158457,-3.4110475,-40.706253,26.268751,12.618751,-0.006994634,-0.5721838,0.12552723,1001.9866, , , , 
2025-11-24 19:31:16.252,9.736694,-5.408377,4.776373,1.2621632,0.12377293,-3.2784936,-42.300003,23.6625,12.056251,0.02045291,-0.5700334,0.10534241,1001.98535, , , , 
2025-11-24 19:31:16.272,8.482257,-5.1089754,3.8904305,1.218793,0.08040277,-3.0872984,-43.425003,20.94375,11.83125,0.047530476,-0.56642,0.08713992,1001.98535, , , , 
2025-11-24 19:31:16.292,7.778468,-5.046762,2.9685955,0.954907,0.13354649,-2.956577,-44.68125,18.0375,11.55,0.072572276,-0.56323415,0.06995825,1001.9802, , , , 
2025-11-24 19:31:16.313,7.065108,-4.426722,3.49053,0.68552333,0.3601708,-2.7904267,-45.73125,15.262501,11.08125,0.09440601,-0.5584073,0.05240878,1001.9802, , , , 
2025-11-24 19:31:16.333,6.3131633,-3.9622152,3.7181473,0.6293254,0.52448875,-2.589458,-46.800003,12.50625,10.6875,0.113270305,-0.55179673,0.03505232,1001.97485, , , , 
2025-11-24 19:31:16.352,5.752944,-3.7253258,3.4522448,0.6952969,0.61794835,-2.364666,-47.9625,10.06875,10.03125,0.13077304,-0.54383415,0.019249106,1001.97485, , , , 
2025-11-24 19:31:16.373,5.599803,-3.6317065,3.083451,0.81624466,0.56236124,-2.1092556,-48.693752,7.4625,9.7875,0.1475828,-0.5357073,0.005801202,1001.97534, , , , 
2025-11-24 19:31:16.393,5.6261244,-3.72054,2.844169,0.86694497,0.47684264,-1.9870862,-49.068752,6.3187504,9.543751,0.15583175,-0.5320044,7.3836316E-5,1001.97534, , , , 
2025-11-24 19:31:16.412,5.764908,-4.4554358,2.477768,0.9390249,0.15309359,-1.5827053,-49.331253,3.3937502,9.13125,0.17939919,-0.5239023,-0.013626152,1001.978, , , , 
2025-11-24 19:31:16.432,5.8920264,-5.0922256,2.4155545,0.90970427,-0.021608721,-1.2235271,-49.537502,1.5375,8.7375,0.19312267,-0.5210803,-0.01973978,1001.978, , , , 
2025-11-24 19:31:16.452,6.3801622,-5.7577295,2.43709,0.7905891,-0.19264595,-0.7824953,-49.725002,-0.01875,8.2875,0.20407808,-0.5204407,-0.023086214,1001.97363, , , , 
2025-11-24 19:31:16.472,6.9044895,-5.8797636,2.3102703,0.63909894,-0.22990763,-0.27060533,-49.687504,-1.03125,7.9687505,0.21118784,-0.5217433,-0.023351235,1001.97363, , , , 
2025-11-24 19:31:16.492,6.890133,-5.456234,2.3318057,0.4576773,-0.19936527,0.18203248,-49.8375,-1.9875001,7.9875,0.2143966,-0.5240385,-0.020358102,1001.97705, , , , 
2025-11-24 19:31:16.513,7.029216,-4.9677987,2.4275186,0.3013004,-0.2140256,0.53388053,-49.65,-2.4,8.26875,0.21415608,-0.52694285,-0.014826771,1001.97705, , , , 
2025-11-24 19:31:16.532,8.060822,-5.6356955,1.8409779,0.07162184,-0.30382016,0.76302457,-49.425003,-2.4375,8.53125,0.21119443,-0.5307568,-0.007695615,1001.9778, , , , 
2025-11-24 19:31:16.552,8.666505,-6.4761744,1.311865,-0.40300646,-0.3636832,1.0415709,-49.74375,-2.4750001,8.64375,0.20435807,-0.53587186,-4.2341824E-5,1001.9778, , , , 
2025-11-24 19:31:16.572,9.006584,-6.320342,1.6615162,-0.9449043,-0.24334627,1.4624447,-49.706253,-2.34375,8.925,0.18738878,-0.5429813,0.009626904,1001.97217, , , , 
2025-11-24 19:31:16.592,9.0544405,-5.3772707,2.5064816,-1.1971843,-0.121176824,1.7947456,-49.74375,-1.7625,9.356251,0.17297518,-0.5468425,0.016065933,1001.97217, , , , 
2025-11-24 19:31:16.612,9.334701,-4.510471,3.638885,-1.2307808,-0.10712734,1.9841082,-49.687504,-1.10625,9.525001,0.14558798,-0.5524988,0.028112313,1001.9729, , , , 
2025-11-24 19:31:16.632,9.691231,-4.558327,3.9358943,-1.1391538,-0.14866495,2.076957,-49.068752,0.01875,9.675,0.12889358,-0.555798,0.03599274,1001.9729, , , , 
2025-11-24 19:31:16.653,10.112667,-5.35095,4.23051,-1.0047674,-0.25067645,2.240664,-49.10625,2.1375,9.806251,0.10131304,-0.5616542,0.050911676,1001.97485, , , , 
2025-11-24 19:31:16.672,10.596316,-5.853442,4.74736,-0.8465579,-0.36856997,2.4856138,-48.61875,4.0875,9.9375,0.0846062,-0.56561995,0.061495204,1001.97485, , , , 
2025-11-24 19:31:16.692,11.154142,-5.374878,4.213761,-0.57282203,-0.36979166,2.9156504,-48.206253,6.4875,10.125,0.05655435,-0.57270044,0.08370818,1001.97656,37.8875123,127.74035592,141.0355224609375,1.05
2025-11-24 19:31:16.713,11.664113,-4.4602213,2.6982067,-0.5636593,-0.025273805,3.180758,-48.037502,8.8125,10.481251,0.033676766,-0.5763182,0.105826065,1001.97656, , , , 
2025-11-24 19:31:16.732,11.405389,-3.3445678,1.8601205,-0.9644515,0.31130302,3.1941967,-47.15625,11.0625,10.89375,0.0089369835,-0.57678175,0.12838489,1001.9822, , , , 
2025-11-24 19:31:16.752,11.118251,-2.487339,2.4466612,-1.4873368,0.3326827,3.0115533,-46.443752,13.500001,11.118751,-0.018761966,-0.5761154,0.14708625,1001.9822, , , , 
2025-11-24 19:31:16.772,11.0608225,-2.2552354,3.5551362,-1.7347299,0.31680065,2.837462,-45.73125,15.937501,11.418751,-0.04099433,-0.5756398,0.15792097,1001.98413, , , , 
2025-11-24 19:31:16.792,10.7016,-1.8696918,5.0276194,-1.5490323,0.26915458,2.693302,-44.60625,18.50625,11.981251,-0.0776897,-0.57406807,0.17266336,1001.98413, , , , 
2025-11-24 19:31:16.813,10.332807,-1.7356937,5.030012,-1.190465,0.2398339,2.6309955,-43.5,20.53125,12.31875,-0.10380332,-0.5718501,0.18484767,1001.9878, , , , 
2025-11-24 19:31:16.832,10.107881,-1.3740784,4.45065,-0.94979113,0.2422773,2.5619698,-42.61875,22.59375,12.712501,-0.1267379,-0.5687236,0.19832495,1001.9878, , , , 
2025-11-24 19:31:16.852,10.110274,-1.041476,4.043571,-0.9534562,0.26243526,2.4257507,-41.268753,24.50625,13.087501,-0.14771155,-0.56524867,0.21171643,1001.9885, , , , 
2025-11-24 19:31:16.872,10.375877,-0.5937191,4.0794635,-1.0230927,0.33695862,2.2412748,-40.068752,26.19375,13.387501,-0.16787107,-0.56162417,0.223368,1001.9885, , , , 
2025-11-24 19:31:16.893,10.42164,-0.3281158,4.191926,-1.0511918,0.4786752,2.0458038,-39.037502,27.88125,13.837501,-0.18735328,-0.5571097,0.23283535,1001.9885, , , , 
2025-11-24 19:31:16.912,10.366306,0.35204405,4.56072,-0.9803335,0.54403585,1.8106276,-37.800003,29.343752,13.9875,-0.20558833,-0.5518411,0.24017262,1001.9885, , , , 
2025-11-24 19:31:16.932,10.558031,0.58893347,4.6037908,-0.79463595,0.515326,1.4783267,-36.61875,30.581251,14.418751,-0.22122842,-0.54648376,0.24580362,1001.9878, , , , 
2025-11-24 19:31:16.952,10.897812,0.3592225,4.24726,-0.73110783,0.46157146,1.2156624,-35.662502,31.425001,14.700001,-0.23389082,-0.54181534,0.24989456,1001.9878, , , , 
2025-11-24 19:31:16.972,11.443674,-0.09810573,4.3645086,-0.7836407,0.39071319,0.90718454,-34.3125,32.456253,14.681251,-0.24471784,-0.5382162,0.25200456,1001.99, , , , 
2025-11-24 19:31:16.992,11.905788,-0.33529428,5.0826545,-0.77386713,0.18424681,0.693388,-33.1875,33.112503,15.39375,-0.2541533,-0.536275,0.25198442,1001.99, , , , 
2025-11-24 19:31:17.012,12.602399,-0.37597227,6.1624155,-0.62840915,-0.1144575,0.45813546,-32.756252,33.91875,15.69375,-0.26106113,-0.53656876,0.25097692,1001.98926, , , , 
2025-11-24 19:31:17.032,13.064512,0.05742774,7.744969,-0.32237464,-0.38811707,0.16248538,-32.15625,34.48125,16.237501,-0.26423606,-0.5389228,0.24982558,1001.98926, , , , 
2025-11-24 19:31:17.052,13.229917,0.6655038,8.580363,0.090558104,-0.42537877,-0.21562909,-32.175003,34.8375,16.85625,-0.26248652,-0.5421856,0.24871637,1001.99023, , , , 
2025-11-24 19:31:17.072,13.924134,-0.3400799,8.247761,0.37643462,-0.32153472,-0.8002099,-32.0625,35.0625,16.81875,-0.25496984,-0.54544914,0.24639496,1001.99023, , , , 
2025-11-24 19:31:17.092,13.423735,-1.5681962,7.0097737,0.33672956,0.046195325,-1.1856545,-31.893751,34.96875,17.04375,-0.24364744,-0.54864264,0.2409041,1001.9885, , , , 
2025-11-24 19:31:17.112,11.994323,-1.6974086,5.911169,0.23593976,0.82197136,-1.2210836,-31.9125,34.7625,16.800001,-0.23329718,-0.5482096,0.23253702,1001.9885, , , , 
2025-11-24 19:31:17.133,10.859527,-1.1180464,5.8558354,0.37887803,1.055315,-1.2369657,-32.34375,34.29375,16.6875,-0.22519533,-0.5429314,0.22195959,1001.9944, , , , 
2025-11-24 19:31:17.152,10.756635,-1.2783655,6.1528444,0.87305343,0.68514156,-1.3347013,-33.018753,33.61875,16.10625,-0.21522544,-0.5369568,0.21149254,1001.9944, , , , 
2025-11-24 19:31:17.172,11.056037,-1.9944177,6.0212393,1.3098092,0.19951798,-1.4354911,-33.9375,32.756252,15.4125,-0.20409165,-0.5342273,0.20525187,1001.9944, , , , 
2025-11-24 19:31:17.193,11.841182,-3.6340995,5.796015,1.7966545,-0.5328879,-1.5497195,-35.081253,31.743752,14.512501,-0.17817663,-0.53508085,0.1989011,1001.99194, , , , 
2025-11-24 19:31:17.212,12.25544,-4.2038903,5.8821564,1.9524969,-0.7967739,-1.5906463,-36.206253,30.843752,13.556251,-0.15331204,-0.53914815,0.19660094,1001.9966, , , , 
2025-11-24 19:31:17.232,12.40858,-4.2592244,6.15763,1.9524969,-0.81326675,-1.6468443,-37.275,30.206251,13.012501,-0.12703067,-0.5440037,0.19506188,1001.9966, , , , 
2025-11-24 19:31:17.252,12.138191,-4.194319,6.3801622,1.8717887,-0.6611658,-1.8539214,-38.081253,29.643751,12.262501,-0.100214325,-0.54826313,0.19255403,1001.98584, , , , 
2025-11-24 19:31:17.272,11.333605,-4.1632123,6.049953,1.7300721,-0.3740676,-2.04756,-38.7,29.19375,11.700001,-0.073439635,-0.550731,0.18789825,1001.98584, , , , 
2025-11-24 19:31:17.292,10.60828,-4.1297126,5.654838,1.5614783,-0.10224056,-2.176525,-39.35625,28.425001,10.6875,-0.04777744,-0.5507274,0.18078083,1001.98584, , , , 
2025-11-24 19:31:17.312,9.926026,-3.8641095,5.171189,1.3232479,0.101782426,-2.268763,-40.4625,27.375002,9.8625,-0.017979417,-0.54805106,0.16880396,1001.98193, , , , 
2025-11-24 19:31:17.332,9.887741,-3.7540395,5.1568317,1.2163496,0.17019732,-2.3524492,-41.60625,26.04375,9.20625,-0.0011397635,-0.54573673,0.16028823,1001.98193, , , , 
2025-11-24 19:31:17.352,9.492626,-3.4474592,5.089833,1.2023001,0.24044475,-2.4624016,-42.99375,24.69375,8.26875,0.026590152,-0.54081875,0.1443407,1001.978, , , , 
2025-11-24 19:31:17.372,9.083155,-3.4737802,5.1616178,1.2493354,0.25327253,-2.537536,-44.1375,23.1375,7.7625003,0.04350322,-0.53729427,0.13410139,1001.978, , , , 
2025-11-24 19:31:17.392,8.743374,-3.5336008,5.1735816,1.4057122,0.2398339,-2.5595264,-44.831253,21.31875,7.2000003,0.06673124,-0.53206414,0.120271236,1001.9778, , , , 
2025-11-24 19:31:17.412,8.202297,-3.8234315,4.570291,1.5272709,0.21295662,-2.5253189,-45.768753,19.21875,6.3,0.097057454,-0.5250399,0.10395851,1001.9773, , , , 
2025-11-24 19:31:17.432,8.008179,-3.964608,4.1632123,1.5517048,0.1543153,-2.4636233,-46.612503,16.9125,5.7562504,0.11549566,-0.5207926,0.09488312,1001.9773, , , , 
2025-11-24 19:31:17.452,7.8000035,-3.9981074,3.9598224,1.5419312,0.07673769,-2.3597794,-47.362503,14.475,5.30625,0.14559962,-0.51426226,0.0805985,1001.9756, , , , 
2025-11-24 19:31:17.472,7.550851,-4.098606,3.7875392,1.5168865,0.04253024,-2.2883103,-48.075,12.4125,4.9125004,0.16312666,-0.51048577,0.07248904,1001.9756, , , , 
2025-11-24 19:31:17.492,7.0986075,-4.4339004,3.4594233,1.4435848,-0.00633754,-2.1942396,-48.54375,9.9375,4.6312504,0.1856128,-0.50571203,0.06213348,1001.9756, , , , 
2025-11-24 19:31:17.512,6.43759,-4.9749775,2.8082764,1.1931374,0.04253024,-1.9461594,-49.10625,7.89375,4.5375004,0.21065828,-0.5000458,0.050097995,1001.9751, , , , 
2025-11-24 19:31:17.532,6.241379,-5.2884374,2.5354948,0.9420792,0.08040277,-1.7048748,-49.55625,5.7937503,4.275,0.22314738,-0.49660128,0.0436594,1001.9751, , , , 
2025-11-24 19:31:17.552,5.7170515,-6.195915,1.745265,0.5633539,0.30275118,-1.2192512,-49.93125,3.525,3.99375,0.23809011,-0.49097854,0.034843624,1001.98535, , , , 
2025-11-24 19:31:17.572,5.4442697,-6.0451674,1.5753746,0.25670856,0.4285857,-0.7495096,-50.1375,2.1375,3.91875,0.24299583,-0.4871508,0.031692497,1001.98535, , , , 
2025-11-24 19:31:17.593,5.4203415,-5.7433724,1.1826526,-0.1757713,0.375442,-0.10445488,-50.175003,0.82500005,3.6000001,0.2443475,-0.48227963,0.030138964,1001.98804, , , , 
2025-11-24 19:31:17.612,5.985347,-5.8920264,1.2161521,-0.5056288,0.2190651,0.26694027,-49.968754,-0.16875,3.43125,0.23979087,-0.48064038,0.03138313,1001.98584, , , , 
2025-11-24 19:31:17.632,6.7609205,-6.4642105,1.8361923,-0.8587749,-0.06192464,0.63719004,-50.11875,-0.41250002,3.1875002,0.23295686,-0.4815594,0.033121955,1001.98584, , , , 
2025-11-24 19:31:17.652,7.50778,-6.8015985,3.8066816,-1.1538141,-0.39056048,1.3329451,-50.081253,-0.675,2.9625,0.21456903,-0.48783347,0.037909836,1001.9834, , , , 
2025-11-24 19:31:17.672,7.416853,-5.899205,4.874479,-1.0780691,-0.33986014,1.8759882,-50.287502,-0.75,3.0937502,0.20011726,-0.49346712,0.04334829,1001.9834, , , , 
2025-11-24 19:31:17.692,8.503793,-4.249653,5.3676996,-0.60702944,-0.1040731,2.465456,-50.23125,0.0375,2.9625,0.17442134,-0.5018696,0.060155343,1001.98706,37.88752281,127.74037663,141.026611328125,1.11
2025-11-24 19:31:17.712,9.887741,-4.2352962,4.493721,-0.3932329,-0.23479441,2.5521963,-49.93125,1.0500001,2.8875,0.15613744,-0.50786734,0.07891118,1001.98706, , , , 
2025-11-24 19:31:17.732,11.304891,-4.848158,3.4426737,-0.5013529,-0.37590012,2.5033283,-49.85625,3.15,3.4125001,0.14326982,-0.5132427,0.093669,1001.98706, , , , 
2025-11-24 19:31:17.752,12.212369,-5.293223,3.7325041,-0.9846094,-0.41865945,2.448352,-49.725002,5.4375,3.4125001,0.11955112,-0.52307695,0.11616781,1001.99023, , , , 
2025-11-24 19:31:17.772,11.95843,-5.2549376,4.4985065,-1.3010283,-0.40705335,2.4459088,-49.612503,7.9687505,4.0875,0.097034596,-0.5310446,0.13144964,1001.99023, , , , 
2025-11-24 19:31:17.792,11.185249,-4.5966125,5.4179487,-1.5386479,-0.29465744,2.4587367,-49.143753,10.25625,4.9875,0.07188458,-0.53829324,0.14477603,1001.99805, , , , 
2025-11-24 19:31:17.812,10.646565,-3.8880377,5.6189456,-1.594235,-0.09857547,2.448352,-48.675003,12.39375,5.025,0.04548594,-0.54373246,0.15699244,1001.99805, , , , 
2025-11-24 19:31:17.832,10.093524,-3.2201412,5.3147583,-1.6534872,0.1750841,2.4074254,-47.625,14.7375,6.01875,0.02541495,-0.5460055,0.16568902,1001.9983, , , , 
2025-11-24 19:31:17.852,9.727123,-2.5642085,5.077869,-1.7878736,0.43958095,2.3365672,-46.65,16.96875,6.7500005,-0.008890491,-0.54656976,0.17883553,1002.00146, , , , 
2025-11-24 19:31:17.872,9.655338,-2.1547368,4.927121,-1.7994797,0.4890596,2.2791474,-45.975002,19.29375,6.99375,-0.036708113,-0.545396,0.1878179,1002.00146, , , , 
2025-11-24 19:31:17.892,9.382557,-1.8409779,4.725825,-1.70602,0.45790637,2.1679733,-44.60625,21.50625,7.8187504,-0.06377379,-0.54358584,0.19587636,1002.0115, , , , 
2025-11-24 19:31:17.912,9.178867,-1.6160526,4.436293,-1.6376052,0.33695862,2.0830655,-43.6875,23.2875,7.9875,-0.08932749,-0.54182607,0.20337212,1002.0115, , , , 
2025-11-24 19:31:17.932,9.052048,-1.5993029,4.331009,-1.6412703,0.27037627,2.017705,-42.9,24.806252,8.19375,-0.10753613,-0.5409821,0.20866586,1002.0115, , , , 
2025-11-24 19:31:17.952,9.111869,-1.4003994,4.5152564,-1.7176261,0.26671118,1.9407381,-41.90625,26.400002,8.775001,-0.13733205,-0.5398534,0.2165143,1002.0056, , , , 
2025-11-24 19:31:17.972,9.123833,-1.2999009,4.886443,-1.7054092,0.2917559,1.8937029,-41.081253,27.431252,9.4125,-0.1610137,-0.5385091,0.22172609,1002.0056, , , , 
2025-11-24 19:31:17.993,9.370592,-0.907478,5.4179487,-1.5111598,0.22639526,1.8686581,-39.7125,28.687502,10.200001,-0.18913415,-0.53616905,0.22789317,1002.00586, , , , 
2025-11-24 19:31:18.012,9.810872,-0.7588239,5.4873405,-1.3389008,0.22639526,1.8472785,-38.287502,29.737501,10.950001,-0.2045659,-0.5344514,0.23213412,1002.00586, , , , 
2025-11-24 19:31:18.032,10.191629,-0.5937191,5.6739807,-1.1977952,0.20257223,1.7916914,-36.975002,30.73125,11.7375,-0.21885543,-0.53243864,0.23665988,1002.00244, , , , 
2025-11-24 19:31:18.052,11.166107,-0.4214359,6.1384873,-0.89298236,0.07490514,1.6640242,-35.831253,31.800001,12.375001,-0.24341105,-0.5284064,0.24624266,1002.0005, , , , 
2025-11-24 19:31:18.072,11.850753,-0.2656033,6.4761744,-0.67910945,-0.080860905,1.5424657,-34.912502,32.662502,12.900001,-0.25308955,-0.5268823,0.25134358,1002.0005, , , , 
2025-11-24 19:31:18.092,13.246666,0.43579283,6.8614187,-0.34131092,-0.32397813,1.2272685,-34.068752,33.65625,13.556251,-0.2640891,-0.52601594,0.2601981,1002.00366, , , , 
2025-11-24 19:31:18.112,13.86192,1.0175478,7.1895347,-0.1446181,-0.44492587,0.861371,-33.0,34.537502,14.437501,-0.26724356,-0.5267482,0.26490703,1002.00366, , , , 
2025-11-24 19:31:18.132,13.845171,1.8098712,7.6923265,0.047798797,-0.33069745,0.3048128,-32.175003,35.23125,14.887501,-0.26704583,-0.5291024,0.27009112,1001.9983, , , , 
2025-11-24 19:31:18.152,14.326427,1.0869397,8.096714,0.2121167,-0.19631104,-0.40499175,-31.0125,35.925003,15.39375,-0.26377052,-0.5305105,0.27044153,1001.9983, , , , 
2025-11-24 19:31:18.172,14.4795685,-0.019142581,7.919645,0.3141282,-0.055205323,-0.8686248,-30.35625,36.131252,15.543751,-0.25546142,-0.5327318,0.26668945,1001.9983, , , , 
2025-11-24 19:31:18.192,12.992728,-0.6439684,6.5288167,0.3837648,0.62955445,-1.1899304,-29.925001,36.206253,15.431251,-0.24246012,-0.5325975,0.25744772,1001.9956, , , , 
2025-11-24 19:31:18.212,11.843575,-0.31615168,6.133702,0.494939,0.91115505,-1.3151542,-29.94375,36.0,15.262501,-0.2350909,-0.52949744,0.25011793,1001.9956, , , , 
2025-11-24 19:31:18.232,11.690434,-0.70378894,6.4351974,1.0563077,0.3302393,-1.6999879,-31.031252,35.362503,14.906251,-0.21926263,-0.5244037,0.23634577,1001.9927, , , , 
2025-11-24 19:31:18.252,12.5019,-2.4323041,6.2700925,1.4637427,-0.2384595,-2.002968,-32.362503,35.025,14.250001,-0.19907452,-0.524779,0.22630054,1001.9927, , , , 
2025-11-24 19:31:18.272,13.229917,-4.031607,6.2988067,1.638445,-0.68804306,-2.2162302,-33.881252,34.125,13.406251,-0.1801864,-0.52792996,0.21948464,1001.9949, , , , 
2025-11-24 19:31:18.292,13.339986,-5.0419765,6.6891356,1.5565915,-0.8639671,-2.340843,-35.41875,33.300003,12.50625,-0.14600475,-0.5365573,0.20847428,1001.9905, , , , 
2025-11-24 19:31:18.312,12.851551,-5.030012,6.9738817,1.4881766,-0.748517,-2.4031494,-36.581253,32.325,11.4375,-0.12562189,-0.54146993,0.20136519,1001.9905, , , , 
2025-11-24 19:31:18.332,12.162119,-4.821837,7.1392856,1.4087665,-0.5951943,-2.593123,-37.65,30.712502,11.08125,-0.09214512,-0.5480113,0.18750136,1001.9895, , , , 
2025-11-24 19:31:18.352,11.75504,-4.761717,6.6101727,1.3892194,-0.38628453,-2.709184,-38.831253,29.437502,10.51875,-0.06526073,-0.55128336,0.17459428,1001.9895, , , , 
2025-11-24 19:31:18.372,10.747064,-4.5224347,5.992525,1.334854,-0.07108735,-2.7947025,-39.9375,27.900002,10.1625,-0.03881051,-0.55198014,0.16041219,1001.98706, , , , 
2025-11-24 19:31:18.392,10.249058,-4.319045,5.860621,1.3330214,-2.2906772E-4,-2.8014219,-40.5,27.16875,10.106251,-0.02583361,-0.55143964,0.15292387,1001.98706, , , , 
2025-11-24 19:31:18.412,9.573982,-3.9670007,5.3796635,1.4130424,0.048638713,-2.8081412,-42.54375,24.393751,9.618751,0.0065025827,-0.54880947,0.13395993,1001.98706, , , , 
2025-11-24 19:31:18.432,9.037691,-3.9981074,4.7835517,1.5376552,0.07857023,-2.7714903,-43.59375,22.25625,9.168751,0.03957023,-0.5449644,0.11548568,1001.98584, , , , 
2025-11-24 19:31:18.452,8.556435,-4.019643,4.338187,1.5950749,0.17264071,-2.6652029,-44.71875,20.025002,8.512501,0.066114716,-0.54078186,0.101883344,1001.98584, , , , 
2025-11-24 19:31:18.472,7.9100733,-4.0268216,4.0627136,1.5920206,0.25082916,-2.536925,-45.787502,17.8125,7.8375,0.085551925,-0.53683877,0.09264424,1001.9939, , , , 
2025-11-24 19:31:18.492,7.0842505,-3.8521454,3.8832521,1.514443,0.26915458,-2.3903217,-46.59375,15.69375,7.2562504,0.11651676,-0.529405,0.07848678,1001.99316, , , , 
2025-11-24 19:31:18.512,6.68435,-3.801896,3.9311085,1.4661862,0.2862583,-2.27365,-47.5875,13.425,6.675,0.13982062,-0.52311814,0.0678895,1001.99316, , , , 
2025-11-24 19:31:18.532,6.2318077,-3.950251,3.8114674,1.4093773,0.31557897,-2.051836,-48.412502,11.19375,6.24375,0.16158673,-0.5165012,0.058341097,1001.9873, , , , 
2025-11-24 19:31:18.552,6.1360946,-4.007679,3.4522448,1.3519577,0.25754848,-1.8911831,-48.99375,9.31875,5.86875,0.18176012,-0.5100905,0.050203566,1001.9873, , , , 
2025-11-24 19:31:18.572,5.858228,-4.1751766,2.9973094,1.23101,0.1543153,-1.671889,-49.29375,7.3125005,5.30625,0.20026504,-0.5046096,0.043075066,1001.98267, , , , 
2025-11-24 19:31:18.592,5.7266226,-4.3669014,2.6599214,1.0282086,0.11766446,-1.4312152,-49.593754,5.45625,4.9125004,0.2164456,-0.5000383,0.03701581,1001.98267, , , , 
2025-11-24 19:31:18.612,5.8151574,-4.735396,2.5929224,0.7795938,0.08773294,-1.2223054,-49.706253,3.8625002,4.9500003,0.22937846,-0.49622312,0.031854317,1001.98267, , , , 
2025-11-24 19:31:18.632,5.6596236,-5.252545,2.882454,0.45401222,0.0846787,-0.7660025,-50.04375,1.9687501,4.6875,0.23992802,-0.49275514,0.026736727,1001.97876, , , , 
2025-11-24 19:31:18.652,5.63091,-5.2238307,2.951846,0.30618718,0.12621632,-0.3048128,-50.062504,0.46875003,4.65,0.24301532,-0.49138933,0.025564764,1001.97876, , , , 
2025-11-24 19:31:18.672,5.1759744,-4.314259,3.1100712,0.23105298,0.1982963,0.33046836,-50.11875,-0.58125,4.65,0.24344695,-0.49024197,0.02849121,1001.9751, , , , 
2025-11-24 19:31:18.692,5.561518,-3.679862,2.8082764,0.21883602,0.24716407,0.7367582,-50.193752,-1.25625,4.2937503,0.24165212,-0.49009946,0.033425976,1001.9751,37.88752879,127.74039103,141.32177734375,1.49
2025-11-24 19:31:18.712,6.928418,-3.667898,2.1044874,0.11743539,0.30641624,0.9517764,-49.893753,-1.03125,4.18125,0.23761687,-0.49017277,0.04277061,1001.9751, , , , 
2025-11-24 19:31:18.732,8.381759,-4.7210393,1.2616158,-0.4262187,0.33451524,1.0886061,-50.062504,-0.58125,4.2000003,0.22863539,-0.49064404,0.055357523,1001.97925, , , , 
2025-11-24 19:31:18.752,8.652147,-5.0682974,1.6998014,-0.91863793,0.30091864,1.2706387,-49.912502,0.24375,3.9375002,0.21928556,-0.49135408,0.06220832,1001.97925, , , , 
2025-11-24 19:31:18.772,8.968299,-5.539983,2.9973094,-1.3688323,-0.013667707,1.5345247,-49.893753,1.125,3.6562502,0.19716856,-0.49515188,0.07230768,1001.9812, , , , 
2025-11-24 19:31:18.793,9.413663,-5.8630137,4.0292144,-1.5667468,-0.28305134,1.797189,-50.4,2.325,3.3187501,0.18076704,-0.49970135,0.078118525,1001.9812, , , , 
2025-11-24 19:31:18.812,10.265807,-6.1456656,5.1233325,-1.6205014,-0.43026555,2.2034025,-50.23125,3.5625002,2.7562501,0.14968626,-0.51003796,0.08935272,1001.989, , , , 
2025-11-24 19:31:18.832,11.199606,-6.148059,5.3629136,-1.5520865,-0.37895438,2.5998423,-49.893753,4.9875,2.90625,0.12253827,-0.51854384,0.10159057,1001.989, , , , 
2025-11-24 19:31:18.852,11.97518,-6.0547385,5.209474,-1.5490323,-0.3612398,2.8582306,-49.537502,6.8625,3.1875002,0.10128072,-0.52457005,0.112894356,1001.989, , , , 
2025-11-24 19:31:18.872,12.34876,-5.7577295,5.532804,-1.5905699,-0.44187164,3.077525,-48.825,8.45625,3.73125,0.06441321,-0.53449774,0.13387085,1001.9866, , , , 
2025-11-24 19:31:18.892,12.159726,-5.341378,5.939883,-1.5630817,-0.4791333,3.1905315,-48.581253,9.525001,4.05,0.04928023,-0.53845835,0.14267823,1001.9866, , , , 
2025-11-24 19:31:18.912,11.580364,-3.8258243,6.195915,-1.3254622,-0.38261944,3.3665318,-47.71875,13.031251,5.11875,0.00445204,-0.54861283,0.17114265,1001.99146, , , , 
2025-11-24 19:31:18.932,11.259427,-2.5040889,5.6763735,-1.1776371,-0.09185616,3.3207185,-46.912502,15.618751,6.0937505,-0.023670517,-0.55220735,0.19150746,1001.99976, , , , 
2025-11-24 19:31:18.952,10.864312,-1.5323038,5.1329036,-1.1721395,0.18119256,3.1025696,-45.693752,18.46875,7.1625004,-0.043683708,-0.5527199,0.20623894,1001.99976, , , , 
2025-11-24 19:31:18.972,10.261022,-0.7468598,4.618148,-1.2894222,0.45363045,2.613281,-44.5875,21.243752,8.231251,-0.075121716,-0.5506871,0.22649376,1001.9988, , , , 
2025-11-24 19:31:18.992,9.516555,-0.7492526,4.476971,-1.4134243,0.6008446,2.1581998,-43.0875,23.925001,9.1125,-0.09871707,-0.54754096,0.23738779,1001.9988, , , , 
2025-11-24 19:31:19.012,8.819944,-1.0606186,4.508078,-1.473898,0.62833273,1.8301747,-41.4375,26.343752,9.4875,-0.12128102,-0.5439315,0.24426877,1001.9995, , , , 
2025-11-24 19:31:19.032,8.585149,-1.3190435,4.5655055,-1.458016,0.5696914,1.7110596,-40.10625,28.500002,9.825001,-0.14298196,-0.5404432,0.2490318,1001.9995, , , , 
2025-11-24 19:31:19.052,8.551649,-1.3621143,4.651647,-1.3773842,0.49577892,1.6664677,-38.79375,30.075,10.275001,-0.15857276,-0.5380011,0.25216058,1001.9995, , , , 
2025-11-24 19:31:19.072,8.587542,-1.1419746,4.6061835,-1.2411653,0.44080266,1.6487532,-37.800003,31.406252,10.14375,-0.18293728,-0.53401124,0.25774384,1002.00024, , , , 
2025-11-24 19:31:19.092,8.772088,-0.9553344,4.7042894,-1.1562575,0.455463,1.6536399,-36.80625,32.362503,10.556251,-0.20120077,-0.53045416,0.26269758,1002.00024, , , , 
2025-11-24 19:31:19.112,9.233903,-0.8883354,4.9773703,-1.0078217,0.43286163,1.6151565,-35.8125,33.225002,10.856251,-0.21837704,-0.52639765,0.2678927,1002.0027, , , , 
2025-11-24 19:31:19.132,10.14138,-1.1539388,5.0682974,-0.81357217,0.3406237,1.5589585,-34.706253,34.068752,11.212501,-0.2337767,-0.522249,0.2734352,1002.0027, , , , 
2025-11-24 19:31:19.152,11.4699955,-1.4676976,5.003691,-0.68216366,0.19218782,1.4648881,-33.300003,34.893753,12.1125,-0.2499861,-0.5177774,0.28099087,1001.9968, , , , 
2025-11-24 19:31:19.172,12.4014015,-1.4365909,5.616553,-0.6308525,-0.042988375,1.3476055,-32.362503,35.7,12.50625,-0.25832972,-0.51623327,0.2853996,1001.9961, , , , 
2025-11-24 19:31:19.192,13.13869,-1.1371889,6.538388,-0.50623965,-0.23051849,1.2040563,-31.1625,36.1875,13.125001,-0.26726556,-0.51586354,0.2911212,1001.9961, , , , 
2025-11-24 19:31:19.212,13.596018,-0.1268196,7.5942206,-0.1757713,-0.25067645,0.8864157,-29.98125,36.9,13.425,-0.27268037,-0.51629597,0.29667708,1001.9988, , , , 
2025-11-24 19:31:19.232,14.275879,0.021535404,7.878967,0.18340689,-0.14255647,0.31947312,-29.343752,37.66875,13.89375,-0.27326614,-0.51618767,0.3009927,1001.9988, , , , 
2025-11-24 19:31:19.252,14.824135,-1.3022938,7.292426,0.4301892,-0.07597413,-0.57297474,-28.725,38.025,14.212501,-0.26563478,-0.5170376,0.3010012,1002.0032, , , , 
2025-11-24 19:31:19.272,13.840385,-1.9728823,6.370591,0.4265241,0.2770956,-0.9779665,-28.29375,38.550003,14.231251,-0.25816357,-0.5176655,0.29772228,1002.0032, , , , 
2025-11-24 19:31:19.292,12.44208,-1.9582262,5.6907306,0.34711397,0.63077617,-1.1532797,-28.593752,38.625,14.175,-0.2487335,-0.5163238,0.29016724,1002.0032, , , , 
2025-11-24 19:31:19.312,11.570793,-1.730908,5.927919,0.5205946,0.5385382,-1.3866233,-28.968752,38.25,13.63125,-0.23720708,-0.51295507,0.2774258,1002.01294, , , , 
2025-11-24 19:31:19.332,11.69522,-2.2025933,6.1241302,0.9152019,0.18485765,-1.651731,-29.437502,37.912502,13.312501,-0.2274033,-0.51194143,0.2694595,1002.01294, , , , 
2025-11-24 19:31:19.352,11.939288,-3.112464,5.985347,1.3079767,-0.23235102,-1.9198929,-30.54375,37.3125,12.675,-0.20882311,-0.51294446,0.25954226,1002.0054, , , , 
2025-11-24 19:31:19.372,12.226726,-4.5487556,5.752944,1.559035,-0.7698966,-2.2412748,-31.593752,36.693752,12.281251,-0.18493001,-0.5172604,0.2503549,1002.00024, , , , 
2025-11-24 19:31:19.392,12.327224,-4.979763,5.7696934,1.5614783,-0.8987854,-2.3383996,-32.0625,36.412502,11.981251,-0.16491762,-0.5223251,0.24339865,1002.00024, , , , 
2025-11-24 19:31:19.412,12.456436,-6.0308104,6.2988067,1.3061441,-1.036226,-2.5857928,-34.36875,35.025,10.78125,-0.12385298,-0.5346927,0.22737879,1002.0032, , , , 
2025-11-24 19:31:19.432,11.790933,-6.073881,7.036394,1.1528215,-0.9720871,-2.6535969,-35.925003,33.80625,10.387501,-0.104074016,-0.54097414,0.21768324,1002.0032, , , , 
2025-11-24 19:31:19.452,10.754242,-5.535197,7.77129,1.2010784,-0.7057577,-2.6346605,-37.48125,32.04375,9.806251,-0.07241067,-0.54895824,0.20037648,1001.9973, , , , 
2025-11-24 19:31:19.472,10.107881,-4.80748,7.4623165,1.3959388,-0.31909135,-2.557083,-39.131252,30.35625,9.825001,-0.047034115,-0.5514365,0.18724996,1001.9973, , , , 
2025-11-24 19:31:19.492,9.607482,-4.402794,6.792027,1.5156648,0.17569494,-2.5179887,-40.518753,28.425001,9.7875,-0.027890455,-0.55018073,0.17825077,1001.9973, , , , 
2025-11-24 19:31:19.512,8.88455,-3.9478583,5.302794,1.5798037,0.55075514,-2.604118,-41.737503,26.41875,9.525001,0.003997025,-0.5428539,0.16337915,1001.9944, , , , 
2025-11-24 19:31:19.532,8.455936,-4.0268216,4.436293,1.5779712,0.61672664,-2.688415,-43.050003,24.468752,9.0,0.023335954,-0.53691095,0.15386231,1001.9944, , , , 
2025-11-24 19:31:19.552,7.9627156,-4.1225343,3.7827535,1.5199407,0.5849626,-2.7378938,-44.0625,22.3125,8.19375,0.049107805,-0.5286766,0.14039537,1001.99023, , , , 
2025-11-24 19:31:19.572,7.3881392,-4.2999024,3.4019957,1.3324106,0.47073418,-2.689637,-45.28125,20.362501,7.14375,0.07980568,-0.5189123,0.122622214,1001.9888, , , , 
2025-11-24 19:31:19.592,6.9738817,-4.1847477,3.5264223,1.2371184,0.3949891,-2.5900688,-46.068752,18.375,6.1687503,0.10246772,-0.5117501,0.10812689,1001.9888, , , , 
2025-11-24 19:31:19.612,6.3514485,-4.091428,4.115356,1.226734,0.2746522,-2.421475,-46.893753,16.40625,5.025,0.123859,-0.50506705,0.09416375,1001.9863, , , , 
2025-11-24 19:31:19.632,6.0571313,-4.156034,4.3238306,1.286597,0.18852274,-2.3139658,-47.850002,14.19375,4.3500004,0.13955604,-0.5004553,0.08435591,1001.9863, , , , 
2025-11-24 19:31:19.652,5.9374905,-4.74736,4.0292144,1.3372973,0.048638713,-2.1148295,-48.225002,11.775001,3.7125,0.16545437,-0.49378437,0.069851585,1001.9834, , , , 
2025-11-24 19:31:19.672,5.8821564,-5.144868,3.6918263,1.2303991,-0.0045049987,-1.9174496,-48.843754,9.58125,3.05625,0.18482889,-0.48942924,0.059938986,1001.9834, , , , 
2025-11-24 19:31:19.692,5.860621,-5.6620164,3.4737802,1.0214894,0.013820419,-1.6578394,-49.425003,7.3500004,2.8875,0.19741392,-0.48657668,0.053500082,1001.9834,37.88753335,127.74040672,141.64971923828125,1.45
2025-11-24 19:31:19.712,5.3940206,-5.95424,3.4139597,0.6885776,0.073072605,-1.1459495,-49.612503,5.5125003,2.775,0.21327272,-0.48229477,0.04499714,1001.98315, , , , 
2025-11-24 19:31:19.732,4.9749775,-6.026025,3.5144582,0.50226915,0.09200887,-0.7690567,-49.893753,4.0687504,2.79375,0.21939747,-0.48021007,0.041770987,1001.98315, , , , 
2025-11-24 19:31:19.752,4.496114,-5.985347,3.9071803,0.33917293,0.09384141,-0.016492875,-50.30625,2.5687501,2.8875,0.22401875,-0.4782675,0.04066761,1001.98315, , , , 
2025-11-24 19:31:19.772,4.8194437,-5.669195,3.4450665,0.31962582,0.1958529,0.6048151,-50.362503,1.725,2.6437502,0.2232838,-0.47794265,0.045312777,1001.98315, , , , 
2025-11-24 19:31:19.793,6.5072813,-5.6117673,1.9582262,0.12476555,0.207459,1.1912285,-50.156254,0.95625,2.4562502,0.2192179,-0.4783809,0.055563413,1001.98486, , , , 
2025-11-24 19:31:19.813,7.630113,-5.63091,1.3046865,-0.41705596,0.101171575,1.4624447,-50.175003,0.76875,1.95,0.21091747,-0.48051953,0.068259336,1001.9888, , , , 
2025-11-24 19:31:19.832,8.164012,-5.5543394,2.1308086,-0.8966474,-0.042377528,1.6450881,-50.062504,1.4625001,1.725,0.19688873,-0.48453942,0.08016646,1001.9888, , , , 
2025-11-24 19:31:19.852,8.621041,-5.7146587,3.9406798,-1.1971843,-0.32214558,1.8857619,-50.025,2.34375,1.5937501,0.1781874,-0.490934,0.09089489,1001.98926, , , , 
2025-11-24 19:31:19.872,9.150154,-5.959026,5.2573304,-1.1617551,-0.46508384,2.1307116,-50.23125,4.125,1.4250001,0.1569643,-0.49922997,0.10205803,1001.98926, , , , 
2025-11-24 19:31:19.892,10.165309,-6.2868423,5.64766,-0.9449043,-0.50112385,2.448352,-50.11875,5.9625,1.7625,0.13524027,-0.50823027,0.115680374,1001.9929, , , , 
2025-11-24 19:31:19.912,10.797313,-6.1217375,5.034798,-0.8978691,-0.29038152,2.721401,-49.968754,7.8750005,1.9312501,0.11332169,-0.51634264,0.13249853,1001.9929, , , , 
2025-11-24 19:31:19.932,10.989038,-5.671588,4.575077,-1.0285904,-0.090023614,2.896714,-49.406254,10.44375,2.8125,0.08982475,-0.5223663,0.15164183,1001.9929, , , , 
2025-11-24 19:31:19.952,10.7997055,-4.805087,4.7425747,-1.2515497,0.032145835,2.9907846,-48.61875,12.375001,3.2250001,0.06419364,-0.5269129,0.1710007,1001.9988, , , , 
2025-11-24 19:31:19.972,10.457532,-4.043571,5.0994043,-1.2668209,0.034589227,2.9761243,-47.86875,14.700001,3.7687502,0.0374231,-0.53055155,0.18948203,1001.9988, , , , 
2025-11-24 19:31:19.992,10.325628,-3.3230324,4.9773703,-1.1800805,0.037643462,2.8777778,-46.65,17.212502,4.4812503,0.011368735,-0.53350145,0.207158,1002.0034, , , , 
2025-11-24 19:31:20.012,10.0576315,-2.7819555,4.6205406,-1.1758046,0.07551599,2.696967,-45.506252,19.48125,4.59375,-0.013104608,-0.53557634,0.22387445,1002.0049, , , , 
2025-11-24 19:31:20.032,9.87817,-2.4394827,4.4745784,-1.2882005,0.13476817,2.4837813,-44.625,22.2,5.0625,-0.036577918,-0.5370154,0.23852338,1002.0049, , , , 
2025-11-24 19:31:20.052,9.609875,-2.0542383,4.6492543,-1.5331503,0.27037627,2.1398742,-43.3125,24.6,5.3250003,-0.06578772,-0.537908,0.2523638,1002.0066, , , , 
2025-11-24 19:31:20.072,9.006584,-2.0518453,5.219045,-1.6125604,0.32168743,1.8704907,-42.09375,26.587502,5.4375,-0.0889964,-0.53798616,0.2594631,1002.0066, , , , 
2025-11-24 19:31:20.092,8.417651,-2.271985,5.5591254,-1.5636926,0.31924406,1.7354934,-41.04375,28.0125,6.0750003,-0.11128993,-0.537629,0.26446083,1002.0088, , , , 
2025-11-24 19:31:20.112,8.082356,-2.382055,5.72423,-1.4482425,0.35650572,1.7513754,-39.825,29.325,6.61875,-0.12744574,-0.53691304,0.26796466,1002.0088, , , , 
2025-11-24 19:31:20.132,8.197512,-2.3246272,5.6620164,-1.3150778,0.39315656,1.8197904,-38.756252,30.675001,7.6125,-0.148358,-0.53495747,0.27341953,1002.0088, , , , 
2025-11-24 19:31:20.152,8.489435,-1.934298,5.1879387,-1.114109,0.48478365,1.9602852,-37.78125,31.725,8.6625,-0.17330807,-0.53064543,0.28228545,1002.01196, , , , 
2025-11-24 19:31:20.172,8.618649,-1.6686947,4.9749775,-1.0371423,0.5189911,2.012818,-36.91875,32.9625,9.543751,-0.18780033,-0.5271942,0.2885028,1002.01196, , , , 
2025-11-24 19:31:20.192,9.257831,-1.4003994,5.0970116,-0.9259681,0.4401918,2.0317543,-35.5125,34.256252,10.462501,-0.20652682,-0.5222023,0.2972794,1002.0066, , , , 
2025-11-24 19:31:20.212,10.37827,-1.2951152,5.319544,-0.7145386,0.30519456,1.9327971,-33.9375,35.41875,10.89375,-0.22343381,-0.5175397,0.3063789,1002.0066, , , , 
2025-11-24 19:31:20.232,11.381461,-1.1324034,5.2477593,-0.6180247,0.2862583,1.7874154,-32.49375,36.506252,11.56875,-0.23762543,-0.51323444,0.31556398,1002.0051, , , , 
2025-11-24 19:31:20.252,12.556935,-1.0342976,5.451448,-0.6485671,0.20012884,1.3524922,-30.806252,37.7625,11.83125,-0.2520619,-0.5091856,0.32456297,1002.00757, , , , 
2025-11-24 19:31:20.272,13.328022,-1.1108679,6.0690956,-0.68643963,0.13843326,0.98598385,-29.493752,38.662502,12.225,-0.25912434,-0.50809014,0.3276105,1002.00757, , , , 
2025-11-24 19:31:20.292,13.351951,-0.72053874,6.8853474,-0.5551075,0.18913358,0.5620558,-28.462502,39.3375,12.543751,-0.2677861,-0.5073951,0.329041,1002.0039, , , , 
2025-11-24 19:31:20.312,13.770993,-0.70378894,7.3139615,-0.24785128,0.20684816,0.076355904,-27.45,39.9375,12.468751,-0.27070263,-0.50654805,0.3276734,1002.0039, , , , 
2025-11-24 19:31:20.332,14.716457,-1.7811574,7.294819,-0.010231691,0.10972344,-0.45019442,-26.718752,40.331253,12.712501,-0.26912484,-0.50667644,0.32475716,1002.0039, , , , 
2025-11-24 19:31:20.352,14.247165,-2.9877381,6.305985,0.2157818,0.3149681,-1.02378,-26.7,40.575,12.637501,-0.2604357,-0.50791633,0.31632164,1002.01294, , , , 
2025-11-24 19:31:20.372,12.8060875,-2.7412775,5.4634123,0.19012621,0.603288,-1.1141855,-27.056252,40.443752,13.125001,-0.2546422,-0.50730914,0.30974793,1002.01294, , , , 
2025-11-24 19:31:20.392,11.908181,-2.2002003,5.3557353,0.23044212,0.5330406,-1.2369657,-27.581251,40.3125,13.181251,-0.2493795,-0.5059267,0.30215448,1002.0071, , , , 
2025-11-24 19:31:20.412,11.52533,-2.5666013,6.006882,0.6824691,-0.07536328,-1.6163019,-28.425001,39.5625,12.88125,-0.233887,-0.50612366,0.2857207,1002.0071, , , , 
2025-11-24 19:31:20.432,11.836396,-3.9550366,6.1791654,1.1742011,-0.720418,-1.9852536,-29.2875,38.79375,12.6,-0.2157451,-0.5105651,0.2755492,1002.00366, , , , 
2025-11-24 19:31:20.452,11.960823,-5.341378,5.911169,1.3983821,-1.1247989,-2.1875205,-30.50625,38.04375,11.681251,-0.192062,-0.5183855,0.2664348,1002.0051, , , , 
2025-11-24 19:31:20.472,11.884253,-6.018846,5.8486567,1.3996037,-1.3257676,-2.2510486,-31.95,37.143753,11.025001,-0.17245348,-0.52581596,0.25997213,1002.0051, , , , 
2025-11-24 19:31:20.492,11.867503,-6.495317,6.2676997,1.1723686,-1.477945,-2.2724283,-33.375,36.018753,10.44375,-0.13968833,-0.53994113,0.24901496,1002.0005, , , , 
2025-11-24 19:31:20.512,11.6186495,-6.0882382,6.835098,1.0312629,-1.348369,-2.2822018,-34.7625,34.800003,10.35,-0.11489151,-0.55133545,0.23925866,1002.0005, , , , 
2025-11-24 19:31:20.532,10.852348,-5.1161537,7.136893,0.9420792,-0.8578586,-2.38177,-35.775,33.43125,10.462501,-0.0914183,-0.5598786,0.22834074,1001.99414, , , , 
2025-11-24 19:31:20.552,9.897313,-4.409972,7.0411797,0.954907,-0.43454146,-2.5925121,-36.9375,32.1375,10.5,-0.0683094,-0.56450623,0.2153802,1001.99414, , , , 
2025-11-24 19:31:20.572,9.430413,-4.1033916,6.806384,0.97262156,-0.17920731,-2.7391155,-38.1375,30.843752,10.950001,-0.05076354,-0.56567836,0.20429885,1001.99414, , , , 
2025-11-24 19:31:20.592,9.186047,-4.314259,6.224629,1.1021211,0.24288814,-3.0054448,-39.2625,29.156252,10.856251,-0.020737235,-0.5638667,0.18367893,1001.9968, , , , 
2025-11-24 19:31:20.612,8.772088,-4.6564326,5.29083,1.1418263,0.41209283,-3.0940177,-40.818752,27.150002,10.725,0.0043006674,-0.55924296,0.1659893,1001.9968, , , , 
2025-11-24 19:31:20.632,8.207083,-4.8673005,4.615755,1.0343171,0.48722705,-3.1221168,-42.393753,24.6,10.462501,0.03523924,-0.5514958,0.1429951,1001.9944, , , , 
2025-11-24 19:31:20.653,7.713862,-4.9582276,4.5966125,0.94818765,0.50494164,-3.0793574,-43.875,22.21875,9.712501,0.052887324,-0.54634076,0.1287226,1001.98755, , , , 
2025-11-24 19:31:20.672,7.213463,-4.9989057,4.658826,0.934749,0.5330406,-2.9840653,-45.3375,19.66875,8.925,0.06975125,-0.5408298,0.114472955,1001.98755, , , , 
2025-11-24 19:31:20.692,6.444769,-4.912764,4.6875396,1.0398147,0.46890163,-2.7067406,-46.443752,17.23125,8.043751,0.096575126,-0.5311525,0.09224089,1001.9929,37.88753897,127.7404231,142.120361328125,1.56
2025-11-24 19:31:20.712,5.872585,-4.8601217,4.6779685,1.1656493,0.391324,-2.4911115,-47.287502,14.606251,7.1625004,0.11747293,-0.52368194,0.07680463,1001.9929, , , , 
2025-11-24 19:31:20.732,5.523233,-4.8242297,4.469793,1.3293563,0.2746522,-2.226004,-47.943752,11.83125,6.5062504,0.13822277,-0.5169012,0.0640479,1001.9929, , , , 
2025-11-24 19:31:20.752,5.286044,-4.922335,4.0124645,1.4533583,0.19157697,-1.9492136,-48.61875,9.675,6.1125,0.15883844,-0.51104164,0.054198697,1001.9929, , , , 
2025-11-24 19:31:20.772,4.9175496,-4.912764,3.449852,1.438698,0.19768545,-1.6663914,-49.256252,7.3125005,5.6062503,0.17850178,-0.5057631,0.047265403,1001.9929, , , , 
2025-11-24 19:31:20.792,4.7545385,-5.18076,2.8345976,1.2609415,0.16775393,-1.2858335,-49.65,5.45625,5.4375,0.19989058,-0.49989307,0.041994385,1001.99634, , , , 
2025-11-24 19:31:20.812,4.3645086,-5.3051867,2.367698,1.0312629,0.19707459,-0.9736905,-49.781254,4.18125,4.9500003,0.21033254,-0.49686757,0.040160898,1001.99634, , , , 
2025-11-24 19:31:20.832,3.964608,-5.561518,2.1260228,0.6537593,0.243499,-0.44286427,-49.8375,2.71875,4.51875,0.22180837,-0.49259314,0.039779097,1001.9895, , , , 
2025-11-24 19:31:20.852,3.8234315,-5.4634123,2.1212373,0.37643462,0.29603186,0.083686076,-49.875004,1.4625001,4.40625,0.22455503,-0.49070197,0.041612573,1001.9895, , , , 
2025-11-24 19:31:20.872,5.235795,-5.8151574,1.9704895,0.097277425,0.2654895,0.75202936,-49.800003,1.0125,4.0687504,0.22241348,-0.489167,0.04940192,1001.9888, , , , 
2025-11-24 19:31:20.893,6.262914,-6.2676997,1.745265,-0.093917765,0.1622563,1.077,-49.893753,0.7875,4.03125,0.2194546,-0.48951226,0.054073647,1001.9888, , , , 
2025-11-24 19:31:20.912,7.7258263,-6.7848487,1.7739788,-0.5893149,-0.17920731,1.7342718,-49.85625,0.43125,3.80625,0.20606492,-0.49409005,0.06849084,1001.9878, , , , 
2025-11-24 19:31:20.932,8.343473,-6.2437716,3.4450665,-0.92657894,-0.5218926,2.4349136,-49.800003,1.3312501,3.5625002,0.18363614,-0.5042162,0.08601664,1001.9846, , , , 
2025-11-24 19:31:20.952,9.013762,-5.819943,4.546363,-0.83250844,-0.72408307,2.7934809,-49.7625,2.5500002,3.7125,0.16718285,-0.5124312,0.098508924,1001.9846, , , , 
2025-11-24 19:31:20.972,10.299307,-5.5686965,5.0012984,-0.5557183,-0.85602605,3.080579,-49.500004,4.51875,3.9375002,0.14506093,-0.5247973,0.118302636,1001.9846, , , , 
2025-11-24 19:31:20.992,12.085549,-5.587839,4.462614,-0.29061058,-0.66177666,3.2315347,-49.275,7.0687504,4.59375,0.11928019,-0.5390966,0.14762953,1001.98584, , , , 
2025-11-24 19:31:21.012,12.394223,-5.4610195,3.8042889,-0.3932329,-0.43270892,3.2106895,-48.393753,10.087501,5.3812504,0.1041422,-0.54570985,0.16623217,1001.98584, , , , 
2025-11-24 19:31:21.032,11.869896,-4.9917274,3.7037904,-0.80563116,-0.31237203,3.1135647,-47.456253,13.05,6.1687503,0.07700012,-0.554663,0.19532454,1001.98926, , , , 
2025-11-24 19:31:21.052,11.422139,-4.6301117,4.158427,-1.0200386,-0.28427303,3.0439281,-46.612503,16.087502,7.0312505,0.05912303,-0.5596018,0.21069439,1001.98926, , , , 
2025-11-24 19:31:21.072,10.840384,-4.1057844,4.6875396,-1.1379321,-0.09185616,2.9736807,-45.393753,18.73125,7.4062505,0.027824858,-0.5665237,0.23356092,1001.9927, , , , 
2025-11-24 19:31:21.092,10.579566,-3.7660038,4.685147,-1.1648093,0.13476817,2.9199262,-44.362503,21.112501,7.89375,0.0020875412,-0.5695069,0.25041467,1001.9927, , , , 
2025-11-24 19:31:21.112,10.356734,-3.3230324,4.4674,-1.1440406,0.3497864,2.8356292,-43.068752,23.550001,8.175,-0.017229784,-0.5701062,0.2623368,1001.99536, , , , 
2025-11-24 19:31:21.132,9.923634,-2.9398818,3.749254,-1.1690853,0.44935453,2.7378938,-41.8875,25.725,8.587501,-0.048964318,-0.56889987,0.28096995,1001.99634, , , , 
2025-11-24 19:31:21.152,9.657731,-2.8202405,3.6511483,-1.2637666,0.3497864,2.6700897,-40.575,27.956251,9.225,-0.0741472,-0.56767017,0.29435816,1001.99634, , , , 
2025-11-24 19:31:21.172,9.617053,-2.6671,4.304688,-1.2692642,0.088954635,2.6383257,-38.925003,30.31875,9.618751,-0.099019185,-0.567552,0.30648956,1001.9988, , , , 
2025-11-24 19:31:21.192,9.866206,-2.5570302,4.857729,-1.1073897,-0.030160584,2.6578727,-37.5,32.287502,10.44375,-0.122583754,-0.5681215,0.3186647,1001.9988, , , , 
2025-11-24 19:31:21.212,10.189237,-2.0733807,4.898407,-0.8587749,-0.014278554,2.7067406,-35.79375,34.050003,11.15625,-0.1443611,-0.56777847,0.33201396,1002.0017, , , , 
2025-11-24 19:31:21.232,10.306485,-1.7069799,4.855336,-0.70659757,-0.024662958,2.7140708,-34.74375,34.78125,11.45625,-0.15943845,-0.5666285,0.34287944,1002.0017, , , , 
2025-11-24 19:31:21.252,10.7016,-0.87158567,4.7835517,-0.39995223,-0.12239852,2.6786416,-32.23125,36.675003,12.69375,-0.1817568,-0.5637633,0.36219093,1002.0017, , , , 
2025-11-24 19:31:21.272,11.414961,-0.32093734,4.929514,-0.084755056,-0.23051849,2.5363142,-30.018751,37.7625,13.200001,-0.1998074,-0.5602088,0.38247615,1002.00854, , , , 
2025-11-24 19:31:21.292,12.003894,-0.11006984,4.793123,0.21517095,-0.37467843,2.3274045,-27.843752,38.9625,13.650001,-0.20767893,-0.55783945,0.3949073,1002.00854, , , , 
2025-11-24 19:31:21.312,12.786945,-0.04546363,4.409972,0.4912739,-0.6232933,1.8649931,-25.5375,40.125,13.837501,-0.21449575,-0.55486566,0.41508967,1002.011, , , , 
2025-11-24 19:31:21.332,13.083655,-0.22971097,4.1847477,0.5896203,-0.86091286,1.4160203,-23.15625,41.5875,13.81875,-0.21469486,-0.5545586,0.42588603,1002.00684, , , , 
2025-11-24 19:31:21.353,12.9688,-0.3687938,4.153641,0.5352549,-0.9678111,0.89191335,-21.54375,42.61875,13.875001,-0.21117081,-0.5562333,0.43790066,1002.00684, , , , 
2025-11-24 19:31:21.372,12.181262,-0.24885355,4.5296135,0.37643462,-0.96658945,0.32619244,-19.63125,43.706253,13.70625,-0.20317559,-0.56091946,0.44767025,1002.00195, , , , 
2025-11-24 19:31:21.392,11.786147,-0.10049855,4.805087,0.3153499,-0.89084435,0.0891837,-18.806252,44.1375,13.856251,-0.19926178,-0.563228,0.44987163,1002.00195, , , , 
2025-11-24 19:31:21.412,11.324033,-0.3592225,5.439484,0.23471805,-0.6629983,-0.47768256,-17.175001,44.831253,13.70625,-0.19050968,-0.56772286,0.45133236,1002.00195, , , , 
2025-11-24 19:31:21.432,12.339189,-2.6168506,6.2437716,0.25793025,-0.62573665,-1.1807678,-16.25625,45.375,13.406251,-0.17664139,-0.5734089,0.44723484,1002.00244, , , , 
2025-11-24 19:31:21.452,13.521841,-4.965406,6.4256263,0.29274854,-0.6941516,-1.4306043,-16.5375,45.2625,13.33125,-0.1625866,-0.5785429,0.44054067,1002.00244, , , , 
2025-11-24 19:31:21.472,13.375878,-6.133702,7.3043904,0.26342788,-0.9647569,-1.1172396,-17.362501,45.0,13.312501,-0.14493904,-0.5861538,0.43190658,1002.00415, , , , 
2025-11-24 19:31:21.492,12.930514,-4.927121,8.788837,0.54197425,-1.4529002,-0.6963659,-18.075,44.4,13.44375,-0.13525245,-0.59123904,0.42919612,1002.00415, , , , 
2025-11-24 19:31:21.512,13.057334,-3.7827535,10.330414,1.2456703,-2.177976,-0.6377245,-19.0125,43.800003,13.575001,-0.11825474,-0.5991224,0.4303787,1001.9995, , , , 
2025-11-24 19:31:21.532,13.708481,-3.7875392,10.414461,2.463776,-2.7442312,-1.2668972,-19.21875,43.631252,13.743751,-0.08125249,-0.60901994,0.43854886,1001.9995, , , , 
2025-11-24 19:31:21.552,13.371093,-4.79073,8.441579,2.7569828,-2.5921304,-2.124603,-20.0625,44.025,12.937501,-0.029409517,-0.6154945,0.44711122,1002.00366, , , , 
2025-11-24 19:31:21.572,12.753446,-5.4203415,7.0579295,2.3538237,-2.3551216,-2.5387576,-20.19375,44.11875,12.4875,0.0033446397,-0.6184124,0.4484818,1002.0012, , , , 
2025-11-24 19:31:21.592,11.838789,-5.3219366,6.5288167,1.6641006,-1.9556274,-2.857009,-20.8125,44.34375,11.587501,0.034217194,-0.62113154,0.4456541,1002.0012, , , , 
2025-11-24 19:31:21.612,10.754242,-4.6875396,7.7976108,0.9396358,-1.2781216,-3.0280461,-22.2,43.912502,10.200001,0.078099005,-0.62406564,0.4328559,1001.99927, , , , 
2025-11-24 19:31:21.632,10.359127,-4.273581,9.224331,0.9891144,-0.9598701,-3.1416638,-23.38125,42.9,9.28125,0.10807812,-0.62326,0.41864,1001.99927, , , , 
2025-11-24 19:31:21.652,10.00499,-4.151248,9.74148,1.4209834,-0.8352573,-3.3585145,-25.650002,41.456253,8.700001,0.13104357,-0.62006116,0.4076851,1001.99927, , , , 
2025-11-24 19:31:21.672,10.036097,-5.1664033,8.570791,1.9438686,-0.66910684,-3.8019898,-27.91875,39.975002,8.34375,0.17457522,-0.60977685,0.3902643,1002.0017, , , , 
2025-11-24 19:31:21.692,9.710373,-5.8008003,7.5364943,2.031907,-0.5341096,-3.9705834,-30.337502,38.34375,7.9500003,0.20305191,-0.60097736,0.3796334,1002.0017,37.88754266,127.7404384,141.5496826171875,1.51
2025-11-24 19:31:21.713,8.812766,-6.6101727,6.389734,1.7783291,-0.13033953,-3.9748595,-32.8875,36.65625,7.36875,0.24938862,-0.5829958,0.36096036,1002.00415, , , , 
2025-11-24 19:31:21.732,7.8550386,-6.674779,6.148059,1.5413203,0.22517358,-3.7659497,-34.893753,34.818752,6.58125,0.28155005,-0.5662153,0.34564334,1002.00415, , , , 
2025-11-24 19:31:21.752,6.966703,-6.4570317,6.2054863,1.4332004,0.6478799,-3.3542387,-37.03125,32.025,5.4,0.30824468,-0.547593,0.33167565,1001.9929, , , , 
2025-11-24 19:31:21.772,6.586244,-6.1911297,5.9901323,1.6085136,0.7578324,-2.9761243,-39.16875,28.893751,4.275,0.3314506,-0.52768725,0.32044783,1001.9895, , , , 
2025-11-24 19:31:21.792,6.370591,-6.1504517,5.453841,1.7832159,0.73950696,-2.7073514,-41.4,25.95,3.075,0.3481812,-0.51270306,0.3141581,1001.9895, , , , 
2025-11-24 19:31:21.812,5.853442,-5.9709897,4.072285,1.9133264,0.7321768,-2.2333338,-43.40625,22.893751,2.025,0.3752416,-0.48826626,0.30779564,1001.9822, , , , 
2025-11-24 19:31:21.832,5.374878,-5.7433724,3.464209,1.7960436,0.65276664,-1.8814095,-45.09375,20.34375,0.71250004,0.39487472,-0.47012833,0.30573314,1001.9822, , , , 
2025-11-24 19:31:21.852,5.259723,-5.6596236,3.461816,1.6586031,0.50005484,-1.5265073,-46.29375,18.45,-0.6,0.4078129,-0.45833424,0.30518726,1001.9822, , , , 
2025-11-24 19:31:21.872,5.4705906,-5.8271213,3.789932,1.6158437,0.31924406,-1.0170606,-47.193752,16.48125,-1.6875001,0.42640588,-0.44247216,0.3061419,1001.9822, , , , 
2025-11-24 19:31:21.892,5.539983,-5.858228,3.6750765,1.6457752,0.2838149,-0.73240584,-47.662502,14.906251,-2.7562501,0.43922693,-0.4326247,0.30963868,1001.9846, , , , 
2025-11-24 19:31:21.912,5.0922256,-5.2884374,2.774777,1.6329474,0.3601708,-0.04214846,-47.9625,13.5375,-3.24375,0.44992778,-0.42458838,0.31677625,1001.9846, , , , 
2025-11-24 19:31:21.932,5.286044,-4.8768716,2.1332014,1.5010045,0.4285857,0.3310792,-48.075,12.50625,-3.8812501,0.45801362,-0.41821992,0.32733193,1001.9846, , , , 
2025-11-24 19:31:21.952,6.155237,-5.178367,1.1252248,1.0501992,0.56236124,0.6249731,-47.90625,11.962501,-4.6687503,0.46298254,-0.41319808,0.33980623,1001.98755, , , , 
2025-11-24 19:31:21.972,6.847062,-5.8630137,0.6678966,0.5212054,0.7224032,0.83754796,-47.98125,11.71875,-5.45625,0.4634701,-0.40972534,0.35282463,1001.98755, , , , 
2025-11-24 19:31:21.992,7.768897,-6.8805614,0.6200402,-0.10735641,0.7651625,1.1112075,-47.98125,12.093751,-6.3187504,0.45783347,-0.4088243,0.36600304,1001.9834, , , , 
2025-11-24 19:31:22.012,8.398508,-7.876574,1.6734804,-0.9601755,0.69613683,1.7874154,-47.90625,12.525001,-7.1062503,0.4410089,-0.4145164,0.38231453,1001.98364, , , , 
2025-11-24 19:31:22.032,8.724232,-7.630113,2.9159534,-1.2124555,0.6930826,2.5234864,-47.71875,13.312501,-7.7250004,0.42550653,-0.42206848,0.3934046,1001.98364, , , , 
2025-11-24 19:31:22.052,9.684052,-6.2676997,4.395615,-0.9558996,0.67658967,3.362256,-47.25,14.6625,-8.175,0.39411637,-0.43861547,0.4173938,1001.9768, , , , 
2025-11-24 19:31:22.072,10.723136,-5.6213384,4.2999024,-0.56854606,0.60512054,3.7269318,-46.48125,16.556252,-8.587501,0.3749044,-0.4489301,0.43517318,1001.9768, , , , 
2025-11-24 19:31:22.092,12.023036,-5.1735816,3.6774693,-0.19287503,0.463404,3.8362734,-45.862503,19.1625,-8.83125,0.34535044,-0.46472424,0.46776158,1001.9829, , , , 
2025-11-24 19:31:22.112,12.499507,-4.970192,3.0140593,-0.0022906773,0.26915458,3.8161156,-44.30625,21.825,-9.13125,0.32439184,-0.47634754,0.49386686,1001.9829, , , , 
2025-11-24 19:31:22.132,12.353545,-5.111368,2.4442682,-0.026724568,0.22639526,3.8478796,-42.581253,24.806252,-9.675,0.30950654,-0.48480535,0.5129897,1001.9829, , , , 
2025-11-24 19:31:22.152,11.829218,-4.6564326,2.2767708,-0.35719293,0.3442888,3.926679,-40.443752,27.712502,-10.087501,0.2825689,-0.49875265,0.5437909,1001.9934, , , , 
2025-11-24 19:31:22.172,11.496316,-3.9574296,2.7891338,-0.67116845,0.3638359,3.854599,-37.162502,31.06875,-10.1625,0.26440275,-0.50741524,0.56057835,1001.9934, , , , 
2025-11-24 19:31:22.193,11.233106,-3.2177482,4.3788652,-0.8612183,0.14454173,3.5607815,-34.612503,34.125,-10.575001,0.23328674,-0.52255446,0.58375,1001.9927, , , , 
2025-11-24 19:31:22.212,11.587543,-3.0619156,4.8290153,-0.64734536,0.008322794,3.398907,-31.406252,37.03125,-10.462501,0.21048386,-0.5342904,0.5989814,1001.9929, , , , 
2025-11-24 19:31:22.232,11.857932,-3.0284162,4.0770707,-0.43477052,0.09384141,3.3439307,-28.518751,39.45,-10.33125,0.19485258,-0.54141253,0.61042076,1001.9929, , , , 
2025-11-24 19:31:22.252,11.481959,-2.4394827,3.423531,-0.46225867,0.14881766,3.258412,-25.575,40.875,-9.993751,0.16953626,-0.5509822,0.6292985,1002.0017, , , , 
2025-11-24 19:31:22.272,11.637792,-1.9127626,3.816253,-0.4885251,0.03825431,3.1899207,-22.575,42.73125,-9.168751,0.15454827,-0.5565956,0.6394837,1002.0017, , , , 
2025-11-24 19:31:22.292,11.810075,-1.3956138,4.0770707,-0.38712445,0.049860407,3.1105106,-19.743752,44.325,-8.71875,0.13558066,-0.5635165,0.65205574,1002.0017, , , , 
2025-11-24 19:31:22.312,11.841182,-0.5195416,3.9478583,-0.04688253,0.03153499,2.9260347,-16.725,45.600002,-8.19375,0.11417778,-0.5690307,0.66763514,1001.9956, , , , 
2025-11-24 19:31:22.332,11.996716,0.011964113,3.3613176,0.12110047,-0.03993414,2.708573,-13.968751,47.025,-7.9500003,0.103462316,-0.5707376,0.6769589,1001.9956, , , , 
2025-11-24 19:31:22.352,12.437294,0.35204405,3.2201412,0.09239065,-0.24212459,2.2162302,-11.212501,47.643753,-7.93125,0.08968859,-0.57275796,0.6906586,1001.9956, , , , 
2025-11-24 19:31:22.372,12.684053,0.22013968,3.938287,0.004428643,-0.43270892,1.7898588,-8.6625,48.131252,-7.7250004,0.082906894,-0.57514507,0.6984375,1001.9956, , , , 
2025-11-24 19:31:22.392,12.561721,0.17706887,4.6037908,0.014813046,-0.49929127,1.3989166,-6.20625,48.7125,-7.9125004,0.080867656,-0.57652533,0.701357,1001.9927, , , , 
2025-11-24 19:31:22.412,12.279367,0.42622152,5.8271213,0.2041757,-0.49135026,1.0898279,-4.125,48.99375,-8.025001,0.078350365,-0.5790859,0.7085879,1001.9927, , , , 
2025-11-24 19:31:22.432,12.18844,0.8979067,6.2198434,0.46867257,-0.48890686,0.82472014,-2.3812501,49.2,-7.9125004,0.07918543,-0.5785814,0.7122696,1001.99585, , , , 
2025-11-24 19:31:22.452,13.670196,0.124426775,6.820741,0.8437328,-0.80899084,0.11300674,-0.88125,49.0125,-7.9687505,0.08580466,-0.5748453,0.718414,1002.00464, , , , 
2025-11-24 19:31:22.472,14.730814,-1.5538392,6.8662047,0.9671239,-1.1412917,-0.5125008,-0.39375,48.6375,-8.306251,0.09941825,-0.5707138,0.7215095,1002.00464, , , , 
2025-11-24 19:31:22.492,14.661423,-2.9207392,6.734599,0.7777613,-1.0918131,-0.94009393,-0.20625001,48.506252,-8.981251,0.11783715,-0.5667137,0.72231364,1002.00464, , , , 
2025-11-24 19:31:22.512,13.447663,-2.6575286,7.7736826,0.6922427,-0.8896227,-1.0427163,-0.46875003,48.375004,-9.825001,0.13524263,-0.56305164,0.7213345,1002.00464, , , , 
2025-11-24 19:31:22.532,12.224333,-2.3365912,8.898908,1.091126,-0.96170264,-1.3530266,-1.29375,48.375004,-10.668751,0.15708412,-0.55595475,0.719953,1002.0132, , , , 
2025-11-24 19:31:22.552,12.006287,-3.3732817,8.666505,1.4533583,-1.1388483,-1.6951011,-1.7625,48.61875,-11.325001,0.17316484,-0.54926324,0.719472,1002.0132, , , , 
2025-11-24 19:31:22.573,12.171691,-4.685147,8.053643,1.614622,-1.2298646,-1.93944,-3.3000002,48.24375,-12.39375,0.19817884,-0.5383268,0.7185662,1002.0132, , , , 
2025-11-24 19:31:22.592,12.190833,-5.4849477,7.4479594,1.5694193,-1.2194802,-2.015185,-4.74375,47.625,-13.593751,0.21779864,-0.5295596,0.717347,1002.01416, , , , 
2025-11-24 19:31:22.612,11.807682,-5.2692947,7.7760754,1.41854,-1.3556992,-2.0701613,-6.76875,47.175003,-15.0375,0.2501218,-0.5157439,0.713451,1002.01416, , , , 
2025-11-24 19:31:22.632,11.570793,-4.8122654,8.381759,1.4637427,-1.4797775,-2.152702,-9.28125,46.3875,-16.5,0.26984873,-0.5078536,0.70996785,1002.0078, , , , 
2025-11-24 19:31:22.652,11.103893,-4.100999,9.01137,1.722742,-1.5390297,-2.3585577,-11.681251,45.375,-17.60625,0.3044494,-0.4930117,0.7032378,1002.00635, , , , 
2025-11-24 19:31:22.672,10.881062,-3.8521454,8.62822,1.8913358,-1.3966259,-2.6028965,-14.231251,44.9625,-18.618752,0.33374742,-0.47772112,0.6975975,1002.00635, , , , 
2025-11-24 19:31:22.692,10.7016,-4.0100718,7.3522468,1.8302511,-0.9592593,-3.0958502,-16.518751,43.66875,-19.556252,0.37009674,-0.4537784,0.689441,1001.9995,37.88754971,127.74045293,141.6124267578125,1.64
2025-11-24 19:31:22.712,10.634602,-4.520042,6.468996,1.5016153,-0.5151733,-3.433038,-18.9375,41.943752,-20.400002,0.3902175,-0.43763202,0.6832386,1001.9995, , , , 
2025-11-24 19:31:22.732,10.117453,-4.9773703,5.992525,1.1381612,-0.03077143,-3.6700468,-21.1875,40.18125,-21.4125,0.4128718,-0.41504928,0.673247,1001.9995, , , , 
2025-11-24 19:31:22.752,9.0544405,-5.482555,5.547161,0.7081247,0.5257104,-3.7738907,-23.831251,37.85625,-22.331251,0.43367276,-0.38602918,0.6589685,1002.00464, , , , 
2025-11-24 19:31:22.772,8.233403,-5.4873405,5.5710893,0.6073349,0.75905406,-3.6853178,-26.38125,35.4375,-23.1,0.4426826,-0.36856735,0.6499775,1002.00464, , , , 
2025-11-24 19:31:22.792,7.469495,-5.3123655,5.3676996,0.706903,0.89527303,-3.420821,-28.85625,32.9625,-23.94375,0.45418733,-0.33923528,0.6357336,1002.00146, , , , 
2025-11-24 19:31:22.812,7.0148587,-5.178367,5.2549376,0.946966,0.823193,-3.1606002,-31.1625,30.562502,-24.375002,0.46036336,-0.32149914,0.6279816,1002.00146, , , , 
2025-11-24 19:31:22.832,6.856633,-5.1616178,4.831408,1.370894,0.46401486,-2.7360613,-33.600002,26.475,-25.25625,0.47245884,-0.29243734,0.61639065,1002.0027, , , , 
2025-11-24 19:31:22.852,7.036394,-5.3700924,4.342973,1.566976,0.18852274,-2.4550714,-34.425003,25.25625,-25.687502,0.4814738,-0.2758815,0.61008215,1002.0027, , , , 
2025-11-24 19:31:22.872,7.144071,-5.6189456,3.9119658,1.6182871,-0.06620057,-2.2082891,-35.5125,22.575,-26.60625,0.49502498,-0.2555359,0.6021066,1002.00684, , , , 
2025-11-24 19:31:22.892,7.0411797,-6.116952,4.0387855,1.5052804,-0.3148154,-1.8905723,-36.46875,20.1,-27.35625,0.5126458,-0.23398669,0.592294,1002.01025, , , , 
2025-11-24 19:31:22.912,7.069894,-6.6245294,4.3262234,1.4503042,-0.3991123,-1.5460544,-37.050003,17.775002,-28.0125,0.52270794,-0.22349587,0.5867343,1002.01025, , , , 
2025-11-24 19:31:22.932,6.8709903,-6.818348,3.9406798,1.3898302,-0.30809608,-1.0921949,-37.74375,15.375001,-28.35,0.5345631,-0.21203542,0.58134323,1002.01025, , , , 
2025-11-24 19:31:22.952,6.4471617,-6.15763,2.7317061,1.1790879,-0.11934429,-0.46363306,-38.2125,13.368751,-28.2,0.5456041,-0.201202,0.5795078,1002.0054, , , , 
2025-11-24 19:31:22.972,7.5846496,-6.3538413,1.8385851,0.8675558,-0.18409409,-0.25044736,-38.662502,11.25,-28.500002,0.5505803,-0.19683744,0.5800697,1002.0054, , , , 
2025-11-24 19:31:22.992,8.400901,-7.9507513,0.7516454,-0.11224318,-0.20119782,-0.076966755,-39.16875,9.58125,-28.556252,0.55559486,-0.19485317,0.5807113,1002.00195, , , , 
2025-11-24 19:31:23.012,7.5197444,-8.036893,1.3166506,-0.8300651,0.054747187,0.28343314,-39.43125,8.7375,-28.63125,0.5540173,-0.19827032,0.5813318,1002.00195, , , , 
2025-11-24 19:31:23.032,6.114559,-6.6053867,2.9135606,-1.3480636,0.7217924,1.1264787,-39.73125,8.34375,-28.875002,0.5405848,-0.2107303,0.5871383,1001.9961, , , , 
2025-11-24 19:31:23.052,6.212665,-5.482555,2.8226335,-1.286368,0.8079218,1.585225,-39.881252,8.83125,-28.95,0.5244406,-0.2230675,0.59681064,1002.0, , , , 
2025-11-24 19:31:23.072,7.045965,-5.35095,1.9992033,-1.2148988,0.631387,1.8833184,-39.46875,9.637501,-29.081251,0.51233137,-0.23341869,0.6053309,1002.0, , , , 
2025-11-24 19:31:23.092,8.3530445,-5.745765,1.6040884,-1.3474526,0.24594238,2.221117,-39.1875,11.306251,-29.2875,0.49318725,-0.25412828,0.6195401,1002.0039, , , , 
2025-11-24 19:31:23.112,9.049655,-5.9063835,2.1451654,-1.462292,3.8177954E-4,2.440411,-38.381252,13.25625,-29.343752,0.48195145,-0.2694769,0.6273853,1002.0039, , , , 
2025-11-24 19:31:23.132,9.420842,-5.6787663,3.7444685,-1.5606384,-0.23418356,2.8282993,-37.55625,15.150001,-29.175001,0.46257934,-0.29935142,0.6397173,1001.9973, , , , 
2025-11-24 19:31:23.152,8.975478,-5.348557,4.80748,-1.5081055,-0.32458895,3.0653079,-36.787502,17.85,-28.85625,0.4462342,-0.32524446,0.64957374,1001.9973, , , , 
2025-11-24 19:31:23.172,8.599505,-5.0946183,5.532804,-1.3712758,-0.3227564,3.3164425,-35.662502,20.1,-28.687502,0.43350634,-0.34476575,0.65738004,1001.9973, , , , 
2025-11-24 19:31:23.192,9.205189,-4.845765,5.3147583,-1.1617551,-0.15782766,3.7171583,-34.518753,22.96875,-27.825,0.41071472,-0.37613824,0.6723044,1002.0027, , , , 
2025-11-24 19:31:23.212,9.930812,-4.4602213,4.9869413,-1.1006705,-0.013667707,3.8973582,-32.925003,25.800001,-26.98125,0.3904806,-0.39976028,0.68592685,1002.0027, , , , 
2025-11-24 19:31:23.232,10.481461,-4.0387855,4.9079785,-1.1238827,0.043751936,3.9450042,-31.1625,28.218752,-26.2875,0.36889777,-0.4222095,0.69950044,1001.99927, , , , 
2025-11-24 19:31:23.252,10.747064,-3.8665023,5.465805,-1.2161205,0.017485503,3.8759785,-29.062502,31.050001,-25.275002,0.34684741,-0.44411528,0.711475,1001.99927, , , , 
2025-11-24 19:31:23.272,10.797313,-3.7588253,6.4423757,-1.1403755,-0.003283304,3.8521554,-26.85,33.318752,-24.806252,0.33007038,-0.45994577,0.7193611,1002.0012, , , , 
2025-11-24 19:31:23.292,11.113464,-3.5790644,6.9930243,-0.7848624,0.045584477,3.9120185,-24.525002,35.8875,-24.2625,0.30246845,-0.48367032,0.73198646,1002.0054, , , , 
2025-11-24 19:31:23.312,11.594721,-3.0092735,6.715457,-0.5013529,0.1866902,3.9712708,-21.69375,38.0625,-23.268751,0.28010833,-0.49863452,0.7432823,1002.0054, , , , 
2025-11-24 19:31:23.332,12.506686,-2.097309,6.2030935,-0.28999972,0.34612134,3.8240566,-18.6375,39.84375,-22.331251,0.25240222,-0.51265955,0.75789976,1002.00146, , , , 
2025-11-24 19:31:23.352,12.947265,-1.5394822,6.2605214,-0.16783029,0.4285857,3.6334722,-14.75625,41.5125,-21.50625,0.23625202,-0.5190788,0.7661333,1002.00146, , , , 
2025-11-24 19:31:23.372,13.7324095,-1.189831,6.3251276,0.003206948,0.44630027,3.3842466,-10.81875,42.7125,-21.018751,0.21581459,-0.5252123,0.77648246,1002.00146, , , , 
2025-11-24 19:31:23.392,14.474782,-0.8644072,6.1241302,0.19012621,0.43958095,3.1227276,-8.887501,43.4625,-20.90625,0.20204557,-0.52783287,0.7838541,1001.9995, , , , 
2025-11-24 19:31:23.412,15.573687,-0.11964113,5.089833,0.37032616,0.5086067,2.4630125,-3.4125001,44.9625,-21.31875,0.1829988,-0.5283608,0.7953242,1001.9995, , , , 
2025-11-24 19:31:23.432,16.234404,0.023928227,4.7715874,0.1809635,0.47317755,1.5577369,-0.69375,45.225002,-21.5625,0.1695084,-0.5268508,0.80361253,1001.9968, , , , 
2025-11-24 19:31:23.452,15.903895,0.28265217,5.154439,-0.008399149,0.37483114,0.9450571,1.8750001,45.487503,-21.65625,0.1645534,-0.5263318,0.8062848,1001.9968, , , , 
2025-11-24 19:31:23.472,14.886647,0.9625129,5.985347,-0.10430217,0.5415925,0.16004199,3.6562502,44.925003,-21.975,0.1602836,-0.5253276,0.80810267,1001.99805, , , , 
2025-11-24 19:31:23.492,14.589638,0.32333016,6.389734,-0.078035735,0.66864866,-0.7067503,5.11875,44.850002,-21.675001,0.15957591,-0.52264017,0.80809534,1002.0032, , , , 
2025-11-24 19:31:23.512,14.055739,-1.0438689,6.0882382,-0.07131642,0.68880665,-1.291331,5.7375,44.98125,-21.88125,0.1616098,-0.5196162,0.8068513,1002.0032, , , , 
2025-11-24 19:31:23.533,12.039786,-2.3772693,4.3788652,-0.18798824,1.1548831,-1.524064,6.1312504,45.112503,-21.825,0.16457203,-0.51368064,0.80352813,1002.00806, , , , 
2025-11-24 19:31:23.552,11.379068,-2.3892334,4.5942197,-0.17393875,1.0944092,-1.4434321,5.86875,45.5625,-21.50625,0.16394293,-0.5103881,0.8010818,1002.00806, , , , 
2025-11-24 19:31:23.572,11.924931,-2.231307,6.329913,0.45645562,0.04314109,-1.4703094,4.875,45.487503,-21.6375,0.16763613,-0.5040895,0.7968436,1002.01245, , , , 
2025-11-24 19:31:23.592,13.0621195,-2.626422,6.478567,1.3116418,-0.8395332,-1.7305303,4.05,45.375,-21.46875,0.1824287,-0.4948294,0.7950921,1002.01245, , , , 
2025-11-24 19:31:23.612,13.715659,-3.9454653,5.3075795,1.5089455,-1.403956,-2.3078573,2.79375,45.05625,-21.712502,0.20683302,-0.48200625,0.7935685,1002.01074, , , , 
2025-11-24 19:31:23.632,13.945669,-4.6492543,5.2477593,1.311031,-1.5115415,-2.5900688,1.8375001,44.71875,-21.862501,0.22135611,-0.47572243,0.7915986,1002.01074, , , , 
2025-11-24 19:31:23.652,13.854742,-6.5575304,6.4594245,0.59939384,-1.3856306,-3.1893098,-0.975,44.475002,-22.987501,0.25881964,-0.4625855,0.7815418,1002.01074, , , , 
2025-11-24 19:31:23.672,12.703197,-6.995417,8.036893,0.3281777,-1.1351833,-3.4165452,-3.5625002,43.912502,-23.60625,0.2927963,-0.45187435,0.76582754,1002.0051, , , , 
2025-11-24 19:31:23.692,11.563615,-6.5144596,8.673683,0.49371728,-0.93054944,-3.3530169,-6.4687505,43.256252,-24.35625,0.31688884,-0.4420746,0.75242615,1002.0051,37.88756738,127.7404521,143.20782470703125,2.13
2025-11-24 19:31:23.712,10.703993,-5.465805,8.283653,0.8999307,-0.6935407,-3.2552814,-9.618751,42.300003,-24.750002,0.33899516,-0.42913723,0.7404918,1002.0061, , , , 
2025-11-24 19:31:23.732,10.42164,-4.8505507,7.50778,1.1216683,-0.51944923,-3.2803261,-12.900001,41.1375,-24.993752,0.36036074,-0.41262212,0.7299799,1002.0061, , , , 
2025-11-24 19:31:23.752,10.311271,-4.6564326,6.586244,1.2719367,-0.27511033,-3.4238753,-16.087502,39.65625,-25.612501,0.38115048,-0.3932006,0.7197813,1002.00244, , , , 
2025-11-24 19:31:23.772,10.119845,-4.6803613,5.5950174,1.2676607,-0.06253549,-3.5741436,-19.425001,37.706253,-25.800001,0.4007243,-0.37136027,0.7093256,1002.0, , , , 
2025-11-24 19:31:23.792,9.902099,-4.9079785,5.037191,1.1479347,0.08406785,-3.7470133,-22.1625,35.8125,-26.5125,0.41879487,-0.34814322,0.6977528,1002.0, , , , 
2025-11-24 19:31:23.812,9.435199,-5.2429733,5.0132627,1.0489775,0.14820682,-3.8716264,-24.54375,33.768753,-27.468752,0.4312669,-0.3303196,0.6879287,1002.0, , , , 
2025-11-24 19:31:23.832,8.477471,-5.72423,4.817051,1.0001097,0.1830251,-3.8361971,-27.150002,31.3875,-28.050001,0.45041016,-0.30045325,0.66975105,1001.9888, , , , 
2025-11-24 19:31:23.852,7.4359956,-6.076274,4.5918264,0.99461204,0.32840675,-3.5857499,-29.5125,28.725,-28.743752,0.46377698,-0.2768193,0.65495974,1001.9824, , , , 
2025-11-24 19:31:23.872,6.674779,-6.023632,4.4410787,1.0416473,0.40598437,-3.3139226,-31.48125,25.706251,-29.306252,0.474863,-0.25346243,0.6413045,1001.9824, , , , 
2025-11-24 19:31:23.892,6.1504517,-6.0810595,4.2520456,1.0917368,0.37360945,-3.120895,-33.206253,22.706251,-29.737501,0.48237467,-0.2363883,0.63190097,1001.9824, , , , 
2025-11-24 19:31:23.912,5.0252266,-6.4471617,3.559922,1.1369394,0.32718506,-2.7714903,-33.975002,19.81875,-30.150002,0.49199018,-0.21466208,0.620249,1001.9773, , , , 
2025-11-24 19:31:23.932,3.7923248,-7.1345,2.6407788,1.0556967,0.3742203,-2.1746926,-34.66875,17.00625,-30.750002,0.50225776,-0.19003907,0.6080304,1001.9773, , , , 
2025-11-24 19:31:23.952,3.437888,-7.373782,2.0757737,0.89870906,0.33634776,-1.627908,-35.5125,14.3625,-31.312502,0.50695807,-0.17761463,0.60274786,1001.9729, , , , 
2025-11-24 19:31:23.973,3.5431721,-7.416853,1.2352947,0.4460712,0.391324,-0.76844585,-35.8875,11.981251,-31.7625,0.5117423,-0.16295165,0.5978847,1001.9719, , , , 
2025-11-24 19:31:23.992,3.6149569,-7.160821,1.1587243,0.09605573,0.5269321,-0.20890976,-36.581253,10.087501,-32.268753,0.5109704,-0.15736698,0.59841716,1001.9719, , , , 
2025-11-24 19:31:24.012,4.2448673,-6.2605214,1.9534405,-0.31321192,0.6161158,0.6830036,-36.75,8.793751,-32.568752,0.50374067,-0.15794964,0.6050992,1001.9773, , , , 
2025-11-24 19:31:24.032,6.0308104,-6.411269,2.43709,-0.37551835,0.35955995,1.1814549,-36.45,8.118751,-32.775,0.4980969,-0.16196333,0.61136085,1001.9773, , , , 
2025-11-24 19:31:24.052,7.9363947,-7.3307114,2.32702,-0.5636593,-0.17432053,1.7055619,-36.581253,7.9875,-33.1875,0.49026757,-0.17575732,0.62275624,1001.98413, , , , 
2025-11-24 19:31:24.072,8.451151,-6.768099,2.9255247,-0.7695912,-0.26106083,2.2351665,-36.075,8.4375,-33.61875,0.48340094,-0.19322146,0.6327067,1001.98413, , , , 
2025-11-24 19:31:24.092,9.085547,-6.2030935,3.6460636,-0.80257696,-0.31298286,2.5033283,-35.90625,9.525001,-33.91875,0.47716787,-0.20825121,0.6412038,1001.98413, , , , 
2025-11-24 19:31:24.112,10.189237,-5.8920264,4.165605,-0.8593857,-0.5096757,2.652986,-35.41875,11.1,-33.99375,0.4668094,-0.23505992,0.65538114,1001.98584, , , , 
2025-11-24 19:31:24.132,10.967503,-6.4088764,4.3908296,-1.0548569,-0.5298336,2.6383257,-34.875,13.14375,-33.581253,0.46039096,-0.25200018,0.6631197,1001.98584, , , , 
2025-11-24 19:31:24.152,11.292927,-7.345068,5.1640105,-1.4396906,-0.29648998,2.7751555,-34.40625,15.656251,-33.037502,0.4463501,-0.28177258,0.67512393,1001.99, , , , 
2025-11-24 19:31:24.172,11.345569,-7.483852,6.066703,-1.5801855,-0.18042901,3.004834,-33.300003,18.2625,-32.362503,0.43494475,-0.30076063,0.6824931,1001.99, , , , 
2025-11-24 19:31:24.192,11.671291,-6.8422766,6.8853474,-1.4598486,-0.06742226,3.382414,-32.756252,21.16875,-31.612501,0.4171239,-0.32684726,0.69310147,1001.98315, , , , 
2025-11-24 19:31:24.212,11.84836,-5.5136614,6.4184475,-1.1806914,0.098117344,3.6395807,-31.706251,23.962502,-30.88125,0.39278105,-0.35730886,0.7086333,1001.9878, , , , 
2025-11-24 19:31:24.232,11.688042,-4.6037908,5.829514,-1.1000595,0.19707459,3.6267529,-30.243752,26.625002,-29.98125,0.37779483,-0.373634,0.71852154,1001.9878, , , , 
2025-11-24 19:31:24.252,11.254642,-3.6607196,5.4705906,-1.1800805,0.38765895,3.4825928,-28.63125,29.362501,-29.325,0.35219744,-0.39860624,0.7338068,1001.99634, , , , 
2025-11-24 19:31:24.272,10.96511,-3.1387851,5.300401,-1.2356677,0.5757999,3.3891332,-26.1,31.706251,-28.81875,0.33011094,-0.4169205,0.74472326,1001.99634, , , , 
2025-11-24 19:31:24.292,10.708778,-2.7293134,5.226224,-1.2045144,0.6778114,3.262688,-23.325,33.84375,-28.181252,0.312751,-0.42964205,0.7521637,1001.99634, , , , 
2025-11-24 19:31:24.312,10.256236,-2.379662,5.0850472,-1.0469159,0.46829078,3.0952394,-20.475,36.037502,-27.618752,0.2848722,-0.44875255,0.7629195,1001.99634, , , , 
2025-11-24 19:31:24.332,10.150951,-2.1092732,4.9103713,-0.99377215,0.48111856,2.9797893,-17.7,38.006252,-27.056252,0.26470193,-0.4626973,0.77017653,1001.99634, , , , 
2025-11-24 19:31:24.352,9.947562,-1.4126626,4.915157,-0.9675057,0.6038989,2.7995894,-15.056251,39.525,-26.493752,0.24471623,-0.47498465,0.77673584,1001.9939, , , , 
2025-11-24 19:31:24.372,9.631411,-0.8452646,4.9486566,-0.96994907,0.6790331,2.6114483,-12.450001,41.15625,-26.19375,0.22484396,-0.48590302,0.78229326,1001.9961, , , , 
2025-11-24 19:31:24.392,9.619446,-0.66071814,5.063512,-0.9595647,0.66864866,2.4715643,-11.306251,41.68125,-25.893751,0.21512614,-0.49096859,0.7846156,1001.9961, , , , 
2025-11-24 19:31:24.412,9.703195,-0.6942177,5.2453666,-0.7726454,0.6625402,2.1618648,-7.4437504,42.84375,-24.50625,0.18789288,-0.5039891,0.79032534,1001.9961, , , , 
2025-11-24 19:31:24.432,10.251451,-1.0630114,5.302794,-0.6058078,0.5654155,2.049469,-5.11875,43.65,-23.325,0.17157234,-0.5105492,0.7937871,1001.9961, , , , 
2025-11-24 19:31:24.452,11.630613,-1.4318053,5.226224,-0.32603973,0.24777491,1.9376838,-2.8312502,44.1375,-22.63125,0.15798946,-0.515585,0.7972388,1001.99316, , , , 
2025-11-24 19:31:24.472,12.9018,-1.5945172,5.0276194,-0.22769332,0.037643462,1.8014649,-1.0875001,44.381252,-22.10625,0.14803731,-0.519398,0.8006888,1001.99316, , , , 
2025-11-24 19:31:24.492,13.893027,-1.2065809,5.4059844,-0.24540788,-0.15904936,1.5925552,0.73125005,44.9625,-21.65625,0.14285378,-0.52215576,0.8026868,1001.99316, , , , 
2025-11-24 19:31:24.512,15.298212,-0.28983065,6.926025,-0.13789877,-0.43148723,1.0886061,2.5687501,45.131252,-21.6,0.13881029,-0.5263453,0.80463594,1001.9922, , , , 
2025-11-24 19:31:24.532,15.386747,0.8353942,7.8239317,0.07895201,-0.4107184,0.58954394,4.03125,45.075,-20.98125,0.14044255,-0.5273908,0.8057782,1001.9922, , , , 
2025-11-24 19:31:24.552,15.444474,1.2281163,7.5364943,0.36421767,-0.071698196,-0.3683409,5.71875,44.98125,-20.7,0.14528958,-0.5244239,0.80732346,1001.99805, , , , 
2025-11-24 19:31:24.572,15.408282,-0.80907315,6.468996,0.3165716,0.13415733,-1.4177765,6.4875,45.075,-20.775002,0.15372765,-0.5183758,0.8075938,1001.99805, , , , 
2025-11-24 19:31:24.593,13.919349,-2.7101707,4.8673005,0.02275406,0.73278767,-1.9510461,6.43125,45.16875,-20.868752,0.16528079,-0.5103208,0.80437624,1002.0083, , , , 
2025-11-24 19:31:24.612,12.990335,-2.9877381,4.362116,-0.12323844,0.98934346,-2.0585554,6.15,45.225002,-21.056252,0.16908498,-0.5058302,0.80122286,1002.0061, , , , 
2025-11-24 19:31:24.632,13.143476,-3.2297122,5.8654065,0.16202724,0.22395188,-2.2431076,4.78125,45.581253,-21.375,0.17698416,-0.49877682,0.79394186,1002.0061, , , , 
2025-11-24 19:31:24.652,13.485949,-3.9526439,6.7465634,0.69041014,-0.6672743,-2.4666777,3.61875,45.825,-21.6,0.18820404,-0.4934738,0.78902626,1001.9983, , , , 
2025-11-24 19:31:24.672,14.09881,-5.2310095,7.335497,1.1131164,-1.5481924,-2.7989786,2.1750002,45.7125,-21.825,0.2124514,-0.4843806,0.7820553,1001.9983, , , , 
2025-11-24 19:31:24.692,14.869598,-6.5455666,7.9387875,1.1674818,-1.9635686,-3.1758714,0.01875,45.80625,-22.368752,0.25340876,-0.47157893,0.77074254,1002.0022,37.88758259,127.74044254,143.26300048828125,1.39
2025-11-24 19:31:24.712,14.615959,-6.88774,8.060822,1.0196568,-1.809635,-3.5081723,-2.5125,45.018753,-22.725,0.27946487,-0.46311158,0.7622408,1002.0022, , , , 
2025-11-24 19:31:24.732,13.562519,-6.9092755,8.012965,0.742943,-1.4681714,-3.876513,-5.83125,44.0625,-23.550001,0.31267083,-0.45086098,0.7486368,1002.0022, , , , 
2025-11-24 19:31:24.752,12.068799,-6.7058854,7.850253,0.5523586,-0.824262,-4.1074133,-9.543751,42.91875,-24.018751,0.34866956,-0.4334379,0.72899276,1002.01074, , , , 
2025-11-24 19:31:24.772,10.558031,-6.2748785,7.1656065,0.5248705,-0.21219307,-4.073206,-13.312501,41.4375,-24.50625,0.3658444,-0.42095768,0.7173929,1002.01074, , , , 
2025-11-24 19:31:24.792,9.691231,-5.5519466,6.4088764,0.52181625,0.3149681,-3.9937956,-16.556252,40.2,-25.125002,0.3876095,-0.39722326,0.69944364,1002.0078, , , , 
2025-11-24 19:31:24.812,9.157332,-5.2477593,5.599803,0.6617003,0.6484907,-3.952258,-19.837502,38.71875,-25.087502,0.40123045,-0.3755647,0.685867,1002.0, , , , 
2025-11-24 19:31:24.835,8.6090765,-5.2740803,4.8098726,0.8571714,0.7230141,-3.8777347,-24.056252,36.037502,-25.518751,0.41331133,-0.35181433,0.67272556,1002.0, , , , 
2025-11-24 19:31:24.852,8.082356,-5.496912,4.4841495,1.0104941,0.6289436,-3.7189145,-25.48125,34.96875,-25.725,0.425436,-0.32730058,0.65948987,1001.9922, , , , 
2025-11-24 19:31:24.872,7.4718876,-5.712266,4.319045,1.1558757,0.51654774,-3.4880142,-27.768751,32.475002,-26.250002,0.43473524,-0.30908003,0.64972377,1001.9922, , , , 
2025-11-24 19:31:24.892,7.012167,-5.750551,4.2257247,1.2762127,0.44446772,-3.2149656,-29.718752,29.625002,-26.94375,0.4440222,-0.29124,0.64045244,1001.9922, , , , 
2025-11-24 19:31:24.912,6.207879,-5.374878,4.007679,1.4753488,0.2618244,-2.688415,-31.312502,26.475,-27.712502,0.4625473,-0.25740236,0.6242465,1001.9912, , , , 
2025-11-24 19:31:24.932,5.8630137,-5.235795,3.7516468,1.5657543,0.095063105,-2.3799372,-32.737503,23.56875,-28.575,0.4721946,-0.2417737,0.61718506,1001.9912, , , , 
2025-11-24 19:31:24.952,5.3940206,-5.2142596,3.3349965,1.5498722,-0.025273805,-1.9828103,-33.84375,20.737501,-29.306252,0.48842415,-0.21811411,0.60667205,1001.9873, , , , 
2025-11-24 19:31:24.972,5.0754757,-5.4610195,3.1172497,1.4973394,-0.038712446,-1.7183133,-34.78125,17.71875,-30.243752,0.497546,-0.2054488,0.6012817,1001.9873, , , , 
2025-11-24 19:31:24.992,4.781159,-5.640481,2.7101707,1.358677,-0.058870405,-1.2045908,-35.8125,15.187501,-30.862501,0.5109063,-0.18740015,0.5945407,1001.98267, , , , 
2025-11-24 19:31:25.012,5.063512,-6.1265235,2.082952,1.2023001,-0.024662958,-0.79593396,-36.318752,12.900001,-31.3875,0.51971036,-0.17640904,0.5915694,1001.98267, , , , 
2025-11-24 19:31:25.032,5.077869,-6.131309,1.3549358,0.8980982,0.07857023,-0.37078428,-36.9375,10.762501,-31.500002,0.5244942,-0.17040268,0.5912062,1001.9888, , , , 
2025-11-24 19:31:25.052,4.814658,-5.7314086,1.2281163,0.26892552,0.098117344,0.26022094,-37.4625,9.225,-31.66875,0.52788335,-0.16601822,0.5939083,1001.9861, , , , 
2025-11-24 19:31:25.072,4.6301117,-5.3772707,1.7644076,-0.049936764,0.12132954,0.65368295,-37.631252,8.231251,-31.687502,0.5270778,-0.16757609,0.5971002,1001.9861, , , , 
2025-11-24 19:31:25.092,5.6931233,-5.29083,2.585744,-0.23929942,0.08773294,1.2303227,-37.55625,8.025001,-31.837502,0.52205145,-0.17550153,0.60530835,1001.9861, , , , 
2025-11-24 19:31:25.112,6.8111696,-6.3131633,2.4227328,-0.39506546,-0.13705885,1.5369681,-37.6875,8.15625,-32.081253,0.51734763,-0.1859678,0.6134048,1001.9861, , , , 
2025-11-24 19:31:25.132,7.237391,-6.6388865,2.5785656,-0.6833854,-0.14133479,1.9352405,-37.425003,8.887501,-32.04375,0.51281375,-0.19683997,0.62009776,1001.9861, , , , 
2025-11-24 19:31:25.152,8.23819,-6.6364937,4.0148573,-0.97850096,-0.304431,2.4477413,-36.956253,10.14375,-31.875002,0.50190234,-0.2203013,0.6329862,1001.9966, , , , 
2025-11-24 19:31:25.172,8.894122,-6.6771717,5.0659046,-1.0524135,-0.3740676,2.780653,-36.675003,11.26875,-31.66875,0.49156073,-0.24317212,0.6438078,1001.9966, , , , 
2025-11-24 19:31:25.192,9.9140625,-6.5814586,6.1600227,-0.922303,-0.30809608,3.1948075,-36.318752,13.368751,-31.29375,0.47955894,-0.26762044,0.6558463,1001.9971, , , , 
2025-11-24 19:31:25.212,10.93849,-6.5838513,6.090631,-0.69376975,-0.22318831,3.4331143,-35.831253,15.656251,-31.031252,0.46655437,-0.29151532,0.66956437,1001.9971, , , , 
2025-11-24 19:31:25.232,11.812469,-6.631708,5.262116,-0.6143596,-0.04421007,3.6157577,-35.2125,17.775002,-31.06875,0.45266578,-0.3138027,0.68471843,1001.9929, , , , 
2025-11-24 19:31:25.252,12.01825,-6.4232335,5.0539403,-0.7695912,0.0962848,3.7202125,-34.050003,20.56875,-30.6,0.4368942,-0.33550936,0.7001485,1002.0034, , , , 
2025-11-24 19:31:25.272,11.786147,-5.8223357,5.6524453,-0.86060745,0.18241426,3.8069527,-31.725,24.056252,-29.962502,0.41410667,-0.36280897,0.7183287,1002.0034, , , , 
2025-11-24 19:31:25.292,11.455638,-5.183153,6.059524,-0.72744274,0.20684816,3.86254,-30.768751,25.29375,-29.79375,0.39955828,-0.37863028,0.72859395,1002.0093, , , , 
2025-11-24 19:31:25.312,11.575579,-4.723432,6.167201,-0.54227966,0.2502183,3.8998017,-28.25625,28.143751,-29.250002,0.37986934,-0.3978566,0.74215084,1002.0093, , , , 
2025-11-24 19:31:25.332,12.037394,-3.9119658,4.9773703,-0.31076854,0.49211383,3.8631508,-25.968752,30.618752,-28.706251,0.3548742,-0.4175746,0.75948894,1002.011, , , , 
2025-11-24 19:31:25.352,11.872289,-3.1052856,4.0698924,-0.3816268,0.675368,3.71838,-23.306252,33.300003,-28.406252,0.33915067,-0.42745548,0.7696293,1002.011, , , , 
2025-11-24 19:31:25.372,11.8028965,-2.4514468,3.478566,-0.62779826,0.77432525,3.4630458,-19.85625,35.4,-28.275002,0.31769946,-0.44017434,0.7812171,1002.011, , , , 
2025-11-24 19:31:25.393,11.278569,-1.6878372,3.9574296,-0.98949623,1.0174425,2.9425275,-16.987501,37.237503,-27.993752,0.29003167,-0.45608696,0.79159176,1002.00806, , , , 
2025-11-24 19:31:25.412,10.902597,-1.4102699,4.3908296,-1.0566894,1.131671,2.6218328,-13.875001,38.775,-27.768751,0.27308655,-0.46521077,0.7959778,1002.00806, , , , 
2025-11-24 19:31:25.432,10.519746,-1.0989038,4.319045,-0.9094752,1.1652675,2.2907536,-11.118751,39.7125,-27.337502,0.24548456,-0.47811952,0.80179733,1002.0127, , , , 
2025-11-24 19:31:25.452,10.491032,-0.8883354,3.775575,-0.8080746,1.115178,2.089174,-8.512501,41.287502,-26.550001,0.23015855,-0.48435432,0.80477804,1002.0127, , , , 
2025-11-24 19:31:25.472,10.495817,-0.6655038,3.315854,-0.8276217,1.1054045,1.869269,-5.9625,42.131252,-26.025002,0.21119982,-0.49169928,0.80798095,1002.00977, , , , 
2025-11-24 19:31:25.492,10.761421,-0.54346985,3.5240295,-0.9351308,0.91787434,1.469164,-3.8437502,42.600002,-25.500002,0.19013907,-0.50084186,0.80970013,1002.0044, , , , 
2025-11-24 19:31:25.512,11.398211,-0.85483587,4.0124645,-0.9247464,0.6943043,1.1631296,-1.575,43.36875,-24.975,0.17990412,-0.5063899,0.8093831,1002.0044, , , , 
2025-11-24 19:31:25.532,12.119048,-1.4294125,4.6085763,-0.8154047,0.3613925,0.83999133,0.45000002,43.537502,-24.768751,0.16769144,-0.51483995,0.8074879,1002.0095, , , , 
2025-11-24 19:31:25.552,12.73191,-1.6519449,5.3147583,-0.7231668,0.08101362,0.67200834,2.1375,43.78125,-23.94375,0.16329964,-0.51946336,0.80582726,1002.0095, , , , 
2025-11-24 19:31:25.572,13.395021,-1.5083755,6.363413,-0.5740437,-0.22868595,0.51433337,3.4125001,44.325,-23.2875,0.16086645,-0.52495414,0.80335754,1002.0095, , , , 
2025-11-24 19:31:25.592,13.519448,-0.3400799,7.9890366,-0.15622419,-0.47974417,0.21562909,4.05,44.53125,-22.66875,0.16338412,-0.52897334,0.80102867,1002.0105, , , , 
2025-11-24 19:31:25.612,13.320844,0.3281158,8.293224,0.25487602,-0.4272113,-0.22540264,4.6875,44.98125,-21.825,0.16763027,-0.52826715,0.80080706,1002.0105, , , , 
2025-11-24 19:31:25.632,13.995918,-1.5251254,7.1799636,0.5425851,-0.18837002,-1.2449067,5.0625,45.375,-21.73125,0.17930967,-0.5211885,0.8014614,1002.01074, , , , 
2025-11-24 19:31:25.652,13.46202,-3.3804603,5.9063835,0.35994175,0.163478,-1.7348062,4.9500003,45.61875,-21.69375,0.19109859,-0.51322633,0.80048823,1002.01074, , , , 
2025-11-24 19:31:25.672,11.58515,-3.8377883,4.65404,-0.05482354,0.85617876,-1.6963228,4.65,45.54375,-21.862501,0.19855681,-0.5062214,0.7980479,1002.0017, , , , 
2025-11-24 19:31:25.692,10.782956,-2.8345976,5.6787663,-0.048104223,0.7016344,-1.5326158,3.3187501,45.45,-22.518751,0.20066391,-0.5010522,0.7946601,1002.01,37.88759572,127.74043244,143.1715087890625,1.31
2025-11-24 19:31:25.712,11.156535,-2.5642085,6.8685975,0.46317494,0.06574243,-1.5631582,1.7812501,45.131252,-22.725,0.20398955,-0.496748,0.79205066,1002.01, , , , 
2025-11-24 19:31:25.732,12.55215,-3.885645,7.2637124,1.6134003,-1.144346,-1.8704143,0.43125,44.8875,-22.9125,0.22231856,-0.48391908,0.7894656,1002.01074, , , , 
2025-11-24 19:31:25.752,13.708481,-5.29083,6.725028,1.9793742,-1.7790927,-2.1801903,-1.35,44.8875,-23.19375,0.2491828,-0.46903208,0.7878368,1002.01074, , , , 
2025-11-24 19:31:25.772,14.929718,-6.5455666,6.617351,1.8809514,-2.181641,-2.5638022,-2.9250002,44.34375,-23.362501,0.2742391,-0.45734996,0.78492546,1002.01074, , , , 
2025-11-24 19:31:25.792,15.192928,-7.6133633,7.699505,1.4564126,-2.3025887,-3.1215057,-5.2875004,43.95,-24.487501,0.31967866,-0.4389775,0.774872,1002.01, , , , 
2025-11-24 19:31:25.812,14.601602,-7.646863,8.245368,1.2701042,-2.2005773,-3.3939438,-8.175,42.506252,-25.743752,0.34689412,-0.42823812,0.76602244,1002.01, , , , 
2025-11-24 19:31:25.832,13.337593,-7.1656065,8.300403,1.0550859,-1.5720154,-3.7176929,-11.3625,40.893753,-26.718752,0.3887708,-0.40868956,0.7489612,1002.0022, , , , 
2025-11-24 19:31:25.852,12.138191,-6.5048885,7.7665043,0.98789275,-0.88779014,-3.8105416,-14.887501,39.3375,-27.750002,0.41609883,-0.39006782,0.73553085,1002.0022, , , , 
2025-11-24 19:31:25.873,10.708778,-5.685945,6.4256263,0.91336936,0.0962848,-3.940041,-18.35625,37.143753,-28.237501,0.4407862,-0.36229467,0.7210463,1001.9973, , , , 
2025-11-24 19:31:25.892,10.095917,-5.580661,5.8797636,0.9176453,0.37116608,-4.00418,-20.04375,36.206253,-28.406252,0.4483201,-0.34981123,0.71571153,1001.9973, , , , 
2025-11-24 19:31:25.912,8.410473,-5.6500525,4.2424746,0.97934085,0.80242425,-4.0237274,-24.0375,33.0,-29.062502,0.46613583,-0.3090046,0.70008004,1002.00366, , , , 
2025-11-24 19:31:25.934,7.402496,-5.671588,3.1316066,0.9200887,0.8696174,-3.8392513,-26.362501,30.487501,-29.56875,0.4754449,-0.2811875,0.6895326,1002.0039, , , , 
2025-11-24 19:31:25.952,6.5431733,-5.4849477,2.5929224,0.8364026,0.8806127,-3.5973558,-28.312502,28.29375,-30.431252,0.4810228,-0.2612584,0.6816631,1002.0039, , , , 
2025-11-24 19:31:25.972,5.3796635,-4.761717,2.2217357,0.7172874,0.7621083,-3.0989046,-30.31875,25.650002,-31.10625,0.48817408,-0.23118912,0.6690298,1002.0, , , , 
2025-11-24 19:31:25.992,4.9175496,-4.182355,2.3748765,0.7160657,0.5696914,-2.7702687,-31.800001,22.893751,-31.931252,0.49195594,-0.21528123,0.6617105,1002.0, , , , 
2025-11-24 19:31:26.013,4.5559344,-3.885645,2.6312077,0.8180772,0.32962844,-2.4984417,-32.775,20.081251,-32.60625,0.49776372,-0.19617946,0.6519644,1002.0, , , , 
2025-11-24 19:31:26.032,4.3645086,-3.9957147,2.5232315,0.94513345,0.06513159,-2.1514804,-33.225002,17.4375,-32.9625,0.5069334,-0.17486924,0.6400425,1001.99927, , , , 
2025-11-24 19:31:26.052,4.2520456,-4.342973,2.2767708,0.9261972,-0.01977618,-1.9266123,-33.75,15.20625,-33.693752,0.5128186,-0.16348867,0.63335747,1001.99927, , , , 
