Time,Accel_X,Accel_Y,Accel_Z,Gyro_X,Gyro_Y,Gyro_Z,Mag_X,Mag_Y,Mag_Z,Orient_X,Orient_Y,Orient_Z,Pressure,Lat,Lng,Alt,Speed
2025-11-24 19:24:50.948,-2.1714866,4.644469,8.180761,-0.033443887,-0.16149275,-0.03115321,-18.9375,-17.6625,-42.91875,0.2123215,0.16154128,0.21792522,1001.8523,37.88747538,127.74032987,142.70123291015625,0.0
2025-11-24 19:24:50.966,-2.0135603,4.610969,8.197512,-0.26556584,-0.48463094,0.07818845,-18.975,-17.4375,-43.256252,0.2105965,0.15566331,0.21747167,1001.8406, , , , 
2025-11-24 19:24:50.986,-1.8242282,4.56072,8.506186,-0.21791977,-0.6251258,0.117893524,-19.10625,-17.456251,-42.881252,0.20961498,0.14975668,0.2176732,1001.82837, , , , 
2025-11-24 19:24:51.006,-1.6615162,4.4482574,8.429615,-0.15439165,-0.6086329,0.15087928,-19.3875,-17.400002,-43.29375,0.2094707,0.14317462,0.21785572,1001.82837, , , , 
2025-11-24 19:24:51.026,-1.4916258,4.4578285,8.329117,-0.19226417,-0.36307234,0.2339545,-19.893751,-17.38125,-43.2,0.20931384,0.13761878,0.21828979,1001.8203, , , , 
2025-11-24 19:24:51.046,-0.8859426,4.4674,8.877372,-0.20081604,-0.29648998,0.16676131,-20.493752,-17.23125,-42.825,0.20859772,0.13334166,0.22003847,1001.8203, , , , 
2025-11-24 19:24:51.066,-1.1180464,4.805087,8.673683,-0.0865876,-0.252509,0.08490777,-20.775002,-16.9125,-42.693752,0.20824233,0.12839808,0.22132638,1001.82007, , , , 
2025-11-24 19:24:51.086,-1.0630114,5.1089754,8.420044,-0.100637086,-0.37345675,0.09468132,-21.28125,-16.800001,-42.487503,0.20907158,0.124855116,0.22192058,1001.82007, , , , 
2025-11-24 19:24:51.107,-0.79950184,5.5830536,8.180761,-0.18065807,-0.620239,-0.029320668,-21.6,-16.5,-42.131252,0.21007033,0.121039666,0.2220992,1001.82104, , , , 
2025-11-24 19:24:51.126,-0.32333016,5.786443,8.1687975,-0.4317163,-0.8419766,-0.36223242,-22.087502,-16.29375,-42.487503,0.21129464,0.11180998,0.21954793,1001.82104, , , , 
2025-11-24 19:24:51.147,-0.11006984,5.5830536,8.108678,-0.66689247,-0.9726979,-0.5515951,-22.556252,-16.03125,-42.225002,0.21006837,0.10228216,0.21448302,1001.8186, , , , 
2025-11-24 19:24:51.166,0.22013968,5.705087,8.024929,-0.8807654,-1.108306,-0.6615476,-22.893751,-15.843751,-41.9625,0.20704143,0.09129299,0.20793812,1001.8186, , , , 
2025-11-24 19:24:51.186,0.44057846,5.5519466,7.804789,-1.1006705,-1.3703594,-0.8063184,-23.625,-15.637501,-41.8875,0.20049936,0.07874463,0.19981557,1001.82104, , , , 
2025-11-24 19:24:51.206,0.0023928226,5.425127,7.8574314,-1.1941301,-1.6984608,-0.7782194,-24.45,-15.13125,-41.23125,0.19229959,0.06320912,0.19014099,1001.82104, , , , 
2025-11-24 19:24:51.226,-0.20817557,5.382056,7.493423,-1.2130663,-2.289761,-0.6242859,-25.331251,-14.7375,-40.96875,0.1846886,0.04335914,0.1805577,1001.81934, , , , 
2025-11-24 19:24:51.246,0.33529428,4.88405,7.483852,-1.3230188,-2.9116035,-0.43125817,-26.7,-13.9125,-40.350002,0.17795934,0.01645138,0.17127863,1001.81934, , , , 
2025-11-24 19:24:51.268,0.93619186,5.2453666,6.782456,-1.8116966,-2.1963012,-0.10140064,-27.937502,-13.312501,-39.45,0.16759335,-0.013519761,0.16275008,1001.8159, , , , 
2025-11-24 19:24:51.287,1.9510478,4.034,7.740183,-2.0126653,-1.1425134,-0.10384403,-29.475,-12.712501,-38.625,0.15234125,-0.03246579,0.15802057,1001.8159, , , , 
2025-11-24 19:24:51.306,0.9194421,3.1483564,8.494222,-2.0926864,-0.19814359,-0.21807247,-31.0125,-11.775001,-37.818752,0.13348612,-0.04079238,0.15454972,1001.81274, , , , 
2025-11-24 19:24:51.326,-0.29222345,2.5112674,9.7247305,-1.8025339,-0.053372778,-0.10262234,-32.11875,-10.725,-37.3125,0.11474159,-0.0441344,0.15152238,1001.81274, , , , 
2025-11-24 19:24:51.346,-0.13160525,1.8266209,10.82842,-0.8899281,-0.18348324,0.11178505,-33.018753,-9.46875,-37.275,0.10115619,-0.047225934,0.1503016,1001.813, , , , 
2025-11-24 19:24:51.366,0.31375888,1.1132607,11.879467,0.27075803,-0.04176668,0.11972606,-33.3375,-8.475,-37.29375,0.09741154,-0.049032237,0.15080293,1001.813, , , , 
2025-11-24 19:24:51.386,-0.25603202,0.99601245,11.561222,0.93230563,0.026037365,0.08735116,-33.6375,-8.00625,-37.0875,0.101341255,-0.048227955,0.15167226,1001.82324, , , , 
2025-11-24 19:24:51.406,0.25124636,1.3812568,11.079966,1.1900831,0.072461754,0.08429692,-33.84375,-7.4625,-37.2,0.11440576,-0.045409776,0.15318872,1001.82324, , , , 
2025-11-24 19:24:51.427,0.68225354,1.1826526,11.807682,0.81502295,0.17691664,0.06658235,-33.75,-7.6312504,-36.768753,0.124232255,-0.042557735,0.15463379,1001.8252, , , , 
2025-11-24 19:24:51.447,0.47168517,1.5442679,12.861122,0.30557635,0.66192937,0.24067383,-33.7125,-8.25,-36.91875,0.12873532,-0.038490552,0.15616995,1001.8252, , , , 
2025-11-24 19:24:51.467,0.89072824,2.099702,12.777374,0.2597628,1.3522631,0.39094225,-33.600002,-8.775001,-36.956253,0.12886019,-0.028323265,0.1600612,1001.82544, , , , 
2025-11-24 19:24:51.486,-0.5913263,4.1201415,11.726327,0.53830916,1.039433,0.5125008,-33.35625,-8.981251,-37.03125,0.13014325,-0.015557706,0.16566406,1001.82544, , , , 
2025-11-24 19:24:51.507,-1.015155,3.7061832,8.532506,0.60550237,0.23494713,1.4178529,-32.7,-9.150001,-37.537502,0.13509065,-0.008969311,0.17364717,1001.8506, , , , 
2025-11-24 19:24:51.526,0.2440679,2.379662,7.11775,0.2493784,-0.3368059,1.6114914,-32.04375,-8.925,-37.85625,0.13972826,-0.010563192,0.1882831,1001.8506, , , , 
2025-11-24 19:24:51.546,0.9601201,2.4681966,8.532506,0.041079476,-0.41132927,1.3188956,-31.9125,-8.775001,-38.4,0.14160433,-0.016017161,0.20283343,1001.8579, , , , 
2025-11-24 19:24:51.566,0.9720842,2.9422746,9.497412,0.32268006,-0.19753273,1.1295329,-31.743752,-8.25,-38.7,0.14333445,-0.020710664,0.21446852,1001.8579, , , , 
2025-11-24 19:24:51.586,0.61764735,2.748456,8.568398,0.7624901,-0.03993414,0.98476213,-32.34375,-7.2375,-38.71875,0.14839022,-0.021965638,0.22494262,1001.9121, , , , 
2025-11-24 19:24:51.606,0.8739785,2.9973094,7.1799636,0.9940012,-0.3557422,0.25289077,-33.075,-6.3750005,-38.25,0.1570528,-0.022164142,0.23330401,1001.9121, , , , 
2025-11-24 19:24:51.627,0.5769694,4.6325045,6.765706,1.1051754,-0.7369109,-0.36467582,-33.393753,-6.2625003,-37.912502,0.16856308,-0.024050724,0.23363502,1001.98047, , , , 
2025-11-24 19:24:51.647,0.14356937,4.685147,6.035596,1.0037748,-0.9165,-0.3671192,-33.7125,-6.675,-37.612503,0.18147083,-0.028781071,0.22918138,1001.98047, , , , 
2025-11-24 19:24:51.666,0.2536392,4.2281175,5.8968124,0.7466081,-0.28182966,-0.32741413,-34.10625,-7.8,-37.03125,0.19195609,-0.031731732,0.22442934,1001.9873, , , , 
2025-11-24 19:24:51.687,-0.5458627,4.6899323,5.037191,0.57434916,-0.24823305,-0.2907633,-33.975002,-8.887501,-36.693752,0.19946626,-0.03166188,0.22103593,1001.9873, , , , 
2025-11-24 19:24:51.707,-0.3400799,5.195117,4.369294,0.46256408,-0.5530458,-0.2736596,-33.91875,-9.4875,-36.112503,0.20589611,-0.03274456,0.21794522,1001.9133, , , , 
2025-11-24 19:24:51.727,-0.4884349,5.032405,4.369294,0.38315395,-0.9378796,-0.27671382,-34.0875,-9.993751,-35.4,0.21220697,-0.03759397,0.21414688,1001.9133, , , , 
2025-11-24 19:24:51.747,-0.06460621,4.8098726,4.1751766,0.61222166,-1.3532557,-0.080020994,-34.0875,-10.3125,-34.78125,0.22161672,-0.04882001,0.20885473,1001.8435, , , , 
2025-11-24 19:24:51.766,-0.05742774,4.328616,3.2321053,0.8370135,-1.6929631,-0.05986303,-34.818752,-10.762501,-33.975002,0.2296023,-0.057930045,0.20613453,1001.8435, , , , 
2025-11-24 19:24:51.787,-0.10049855,3.7683966,1.204188,0.95246357,-2.3031995,0.11545013,-35.850002,-11.137501,-33.018753,0.24631877,-0.078608476,0.20117736,1001.7993, , , , 
2025-11-24 19:24:51.807,0.9242278,2.9374888,0.54346985,0.5560237,-2.614121,0.3671192,-36.768753,-11.700001,-31.800001,0.25873798,-0.10105053,0.19781163,1001.7993, , , , 
2025-11-24 19:24:51.827,1.8361923,2.1619153,1.2400804,0.10277505,-2.7100239,0.50211644,-38.25,-12.0,-30.525002,0.2668366,-0.12672663,0.19534801,1001.75244, , , , 
2025-11-24 19:24:51.846,2.2528424,0.56500524,2.382055,-0.16355436,-2.5835786,0.6909446,-39.506252,-12.075001,-28.743752,0.27052546,-0.15315908,0.19348677,1001.75244, , , , 
2025-11-24 19:24:51.867,2.4658036,-0.90029955,3.2847474,0.0697893,-2.8963323,1.1283113,-40.93125,-12.31875,-26.868752,0.27307856,-0.18131603,0.19381931,1001.73535, , , , 
2025-11-24 19:24:51.886,2.798705,-2.0733807,2.2504497,0.4705051,-3.7154784,1.6750195,-42.54375,-12.01875,-24.675001,0.27715427,-0.20662852,0.19654283,1001.73535, , , , 
2025-11-24 19:24:51.906,5.5184474,-3.9454653,0.5075775,0.22922044,-4.3960385,2.3958192,-43.912502,-11.512501,-22.03125,0.28528294,-0.26071623,0.20609605,1001.728, , , , 
2025-11-24 19:24:51.926,7.129714,-6.4737816,1.9558334,-0.5557183,-3.8284853,3.1948075,-45.393753,-10.462501,-18.84375,0.28067607,-0.30503488,0.21943827,1001.728, , , , 
2025-11-24 19:24:51.946,9.233903,-8.927621,2.7556343,-0.7970793,-4.342284,3.9315658,-46.78125,-8.45625,-15.075001,0.27017248,-0.3539344,0.23770374,1001.72,37.88747538,127.74032987,142.70123291015625,0.0
2025-11-24 19:24:51.967,11.72872,-10.924132,4.0268216,-0.95040196,-4.534701,4.7354407,-48.05625,-6.0937505,-10.9875,0.2545918,-0.40757737,0.26018786,1001.72, , , , 
2025-11-24 19:24:51.987,14.352749,-11.86511,5.29083,-0.9827769,-4.391152,5.296809,-49.0125,-2.60625,-6.3,0.23383674,-0.46101695,0.28740042,1001.7239, , , , 
2025-11-24 19:24:52.006,15.9999075,-11.936894,5.111368,-1.034088,-3.8675795,5.537483,-49.406254,1.95,-1.6125001,0.20926598,-0.5098539,0.31758237,1001.7239, , , , 
2025-11-24 19:24:52.026,16.670197,-11.6019,3.8712878,-1.2216182,-3.3385856,5.5087733,-48.91875,6.9375005,2.775,0.18185602,-0.55221033,0.34767568,1001.7317, , , , 
2025-11-24 19:24:52.047,17.491234,-11.75504,2.9015965,-1.7616072,-2.6758165,5.3652244,-47.5875,12.618751,7.05,0.15109614,-0.58895624,0.3753686,1001.7317, , , , 
2025-11-24 19:24:52.067,17.603697,-12.195619,3.114857,-2.6711588,-1.4932162,4.946183,-45.54375,17.85,10.63125,0.11446059,-0.6192125,0.39763957,1001.75464, , , , 
2025-11-24 19:24:52.087,16.00948,-12.327224,5.0156555,-3.5258105,-0.30931777,4.38909,-42.75,22.2,13.81875,0.07029402,-0.6420193,0.41077614,1001.75464, , , , 
2025-11-24 19:24:52.106,14.410176,-12.509079,6.8853474,-3.7371635,0.4853945,3.9883745,-39.84375,25.706251,16.96875,0.020428024,-0.6580318,0.4154831,1001.781, , , , 
2025-11-24 19:24:52.127,13.244273,-12.327224,7.699505,-3.419523,0.8042568,3.7434247,-36.768753,27.993752,19.3125,-0.030440623,-0.66781807,0.4163159,1001.781, , , , 
2025-11-24 19:24:52.147,12.458829,-11.185249,8.132606,-2.6491683,0.5086067,3.5998757,-34.3125,29.60625,21.393751,-0.07786876,-0.6730111,0.4172749,1001.80615, , , , 
2025-11-24 19:24:52.167,12.267404,-10.162916,7.6851482,-1.658374,-0.2384595,3.570555,-32.081253,30.7875,23.081251,-0.117484026,-0.6760275,0.42242846,1001.80615, , , , 
2025-11-24 19:24:52.186,12.446865,-8.882157,7.2206416,-0.6406261,-0.964146,3.514357,-30.000002,31.81875,24.112501,-0.1473402,-0.6782127,0.43424988,1001.82983, , , , 
2025-11-24 19:24:52.206,12.367902,-7.673184,6.363413,0.3654394,-1.5885082,3.3390439,-27.900002,32.8875,25.556252,-0.16692665,-0.67919445,0.4528165,1001.82983, , , , 
2025-11-24 19:24:52.227,12.585649,-6.370591,4.759324,1.1180032,-1.677692,3.0054448,-24.862501,34.10625,26.56875,-0.17654972,-0.67842966,0.47696036,1001.85645, , , , 
2025-11-24 19:24:52.246,12.1046915,-5.449055,2.5570302,1.2798777,-1.056384,2.4721751,-22.2,35.362503,26.925001,-0.17974581,-0.67467445,0.5022473,1001.85645, , , , 
2025-11-24 19:24:52.266,10.996217,-5.063512,0.43100718,0.77592874,-8.39915E-4,1.9786106,-19.368752,36.787502,26.925001,-0.18270874,-0.6686552,0.5226203,1001.8684, , , , 
2025-11-24 19:24:52.286,9.564411,-4.8266225,-0.3472584,-0.10491302,0.98873264,1.6927341,-17.04375,38.34375,26.38125,-0.19182226,-0.6619571,0.5340808,1001.8684, , , , 
2025-11-24 19:24:52.306,8.458329,-4.634897,0.2970091,-0.77386713,1.4383926,1.6579158,-14.981251,39.693752,25.931252,-0.2089447,-0.6558266,0.53701234,1001.865, , , , 
2025-11-24 19:24:52.326,8.381759,-4.2185464,1.6016957,-0.8856522,1.2214655,1.7324392,-13.406251,40.612503,26.025002,-0.23049955,-0.6503831,0.5358118,1001.865, , , , 
2025-11-24 19:24:52.346,9.193225,-3.818646,2.2576282,-0.5398363,0.6093965,1.7116704,-12.093751,41.0625,26.00625,-0.25022483,-0.6453968,0.53572327,1001.87427, , , , 
2025-11-24 19:24:52.367,9.856635,-3.5144582,1.8744774,-0.13728791,0.1518719,1.5620128,-10.96875,41.193752,26.475,-0.2667631,-0.6400147,0.5403025,1001.87427, , , , 
2025-11-24 19:24:52.387,10.095917,-3.4977086,1.4700904,-0.058488626,0.044362783,1.4545037,-10.668751,41.15625,26.41875,-0.273505,-0.6372181,0.5443684,1001.88354, , , , 
2025-11-24 19:24:52.406,10.943574,-3.3780673,1.9319052,-0.08903099,-0.0038941512,1.3286692,-8.90625,41.2125,26.718752,-0.28295508,-0.63346505,0.5507054,1001.88354, , , , 
2025-11-24 19:24:52.426,12.384652,-3.301497,2.4418755,0.03130592,-0.042988375,1.0421817,-7.6875005,41.49375,27.0375,-0.28862023,-0.6308432,0.55513304,1001.8884, , , , 
2025-11-24 19:24:52.446,13.600804,-4.223332,2.4035904,0.2493784,-0.17737478,0.5125008,-6.61875,41.5125,27.0375,-0.29003465,-0.62877345,0.55877894,1001.8884, , , , 
2025-11-24 19:24:52.467,14.247165,-5.449055,2.1978076,0.34833565,-0.3636832,-0.029320668,-5.625,41.53125,26.962502,-0.28622752,-0.6282412,0.5612979,1001.89136, , , , 
2025-11-24 19:24:52.486,14.584852,-5.729016,2.396412,0.31473905,-0.5615977,-0.5894676,-4.7250004,41.86875,27.13125,-0.2778184,-0.6300407,0.56200796,1001.89136, , , , 
2025-11-24 19:24:52.506,14.687743,-6.5144596,2.9183464,0.23532891,-0.69231904,-1.3194301,-4.4625,41.71875,26.94375,-0.264482,-0.63473386,0.55985737,1001.896, , , , 
2025-11-24 19:24:52.527,14.211273,-8.494222,3.3086755,0.24388076,-0.6135197,-1.9968597,-4.1625004,42.075,26.681252,-0.24620385,-0.6414918,0.55431575,1001.896, , , , 
2025-11-24 19:24:52.546,12.707982,-8.52772,3.2775688,0.37643462,-0.20425205,-2.2797582,-4.875,42.131252,26.38125,-0.22593223,-0.6472153,0.54676306,1001.89087, , , , 
2025-11-24 19:24:52.566,11.094322,-7.0603223,2.935096,0.43141088,0.14881766,-2.4544606,-6.1875005,42.09375,25.687502,-0.20653379,-0.65023553,0.53784746,1001.89087, , , , 
2025-11-24 19:24:52.586,10.847563,-6.7537417,2.96381,0.4729485,0.19402036,-2.7800422,-7.89375,42.018753,25.331251,-0.18684763,-0.6520616,0.5268994,1001.8855, , , , 
2025-11-24 19:24:52.607,11.513365,-8.233403,2.8800611,0.6659762,-0.061313793,-3.253449,-9.9375,41.662502,24.975,-0.16390762,-0.6538569,0.51410097,1001.8855, , , , 
2025-11-24 19:24:52.626,11.9560375,-9.526126,2.4346972,0.7985301,-0.3300866,-3.5643702,-11.925,41.15625,24.525002,-0.1361985,-0.65612775,0.5001788,1001.8777, , , , 
2025-11-24 19:24:52.646,11.994323,-10.474282,2.1044874,0.72828263,-0.66544175,-3.8978927,-14.2875,40.48125,24.281252,-0.10451789,-0.6595931,0.48455378,1001.8777, , , , 
2025-11-24 19:24:52.667,11.7311125,-11.350354,2.2911277,0.44546035,-0.8835142,-4.225918,-16.59375,39.600002,23.90625,-0.07028602,-0.664812,0.46594697,1001.8777, , , , 
2025-11-24 19:24:52.686,11.489138,-12.07837,2.8992038,0.2560977,-0.91100234,-4.374964,-18.9375,38.53125,23.60625,-0.03554805,-0.6706701,0.4440033,1001.8777, , , , 
2025-11-24 19:24:52.707,10.751849,-12.193226,3.2153554,0.16263808,-0.70820105,-4.305328,-21.73125,37.10625,23.737501,-0.0019468848,-0.67524105,0.42041972,1001.8718, , , , 
2025-11-24 19:24:52.727,10.182058,-11.405389,3.5479577,0.18951537,-0.17798562,-4.051215,-24.13125,35.325,23.71875,0.028440654,-0.6764047,0.39724874,1001.8718, , , , 
2025-11-24 19:24:52.747,9.566804,-10.517353,3.3732817,0.24693501,0.27159795,-3.9040012,-26.587502,33.600002,23.8875,0.055686124,-0.67340124,0.3751549,1001.87085, , , , 
2025-11-24 19:24:52.767,8.956335,-9.909277,3.1076784,0.33917293,0.77004933,-3.7244122,-29.587502,31.312502,24.0,0.080317765,-0.6663873,0.35415304,1001.87085, , , , 
2025-11-24 19:24:52.787,8.697611,-9.597911,2.5112674,0.4888305,1.1695434,-3.5081723,-32.287502,28.81875,23.79375,0.10229808,-0.6552485,0.33495536,1001.86816, , , , 
2025-11-24 19:24:52.806,8.060822,-8.968299,2.056631,0.5969505,1.3137797,-3.2736068,-35.100002,26.081251,23.25,0.122297496,-0.64131695,0.31776977,1001.86816, , , , 
2025-11-24 19:24:52.826,7.3115687,-8.388937,1.8768703,0.7038488,1.1897014,-3.0219378,-37.706253,23.34375,22.63125,0.14105628,-0.62666506,0.30227876,1001.8662, , , , 
2025-11-24 19:24:52.847,6.849455,-7.6827555,1.9680966,0.89504397,0.8885537,-2.7788205,-39.54375,20.625,21.675001,0.15949301,-0.6129344,0.28855377,1001.8662, , , , 
2025-11-24 19:24:52.866,6.4881387,-7.1823564,1.8122641,1.1344961,0.5770216,-2.612059,-41.456253,18.5625,20.56875,0.17897415,-0.60065097,0.27680776,1001.87036, , , , 
2025-11-24 19:24:52.886,5.729016,-6.835098,1.5131612,1.2743801,0.35711658,-2.4709535,-42.24375,17.53125,20.212502,0.19984733,-0.5897522,0.26682097,1001.87036, , , , 
2025-11-24 19:24:52.907,4.793123,-6.3418775,0.97926265,1.3812784,0.18791188,-2.1979048,-43.93125,14.925,18.7875,0.22098798,-0.58000976,0.25853315,1001.86597, , , , 
2025-11-24 19:24:52.926,4.007679,-5.9231334,0.32093734,1.3519577,0.11399937,-1.9046217,-45.037502,13.368751,17.962502,0.24125353,-0.57122874,0.25222942,1001.86597, , , , 
2025-11-24 19:24:52.946,3.3230324,-5.599803,-0.16031912,1.2010784,0.0742943,-1.5692666,-45.5625,11.4375,17.212502,0.2593877,-0.563547,0.24761222,1001.8694,37.88747538,127.74032987,142.70123291015625,0.0
2025-11-24 19:24:52.966,2.9829526,-5.482555,-0.4142574,1.0300412,0.0510821,-1.1899304,-46.21875,10.012501,16.6875,0.2743914,-0.557256,0.24451065,1001.8694, , , , 
2025-11-24 19:24:52.986,2.8537402,-5.599803,-0.6774679,0.8852704,-0.008170082,-0.7495096,-46.256252,8.7375,16.087502,0.28611815,-0.55251145,0.24322857,1001.86206, , , , 
2025-11-24 19:24:53.006,2.7723842,-6.102595,-1.1180464,0.7551599,-0.06192464,-0.3671192,-46.48125,7.89375,15.975,0.29478246,-0.5497017,0.24399003,1001.86206, , , , 
2025-11-24 19:24:53.026,2.9063823,-6.5407805,-1.6471593,0.5438068,-0.10773818,0.17470232,-46.3125,7.2937503,15.806251,0.29965067,-0.54916376,0.24730346,1001.8677, , , , 
2025-11-24 19:24:53.047,3.3110683,-6.6556363,-2.0638096,0.19806722,-0.11384666,0.81433576,-46.78125,6.9,15.675,0.2989501,-0.55210894,0.25538474,1001.8677, , , , 
2025-11-24 19:24:53.067,4.2568316,-7.146464,-2.1044874,-0.19348587,-0.1492758,1.3237823,-47.100002,6.9375005,15.712501,0.29227147,-0.5573278,0.26426378,1001.8684, , , , 
2025-11-24 19:24:53.087,5.616553,-8.369795,-1.7476579,-0.5679352,-0.27022356,1.7910805,-47.11875,7.2375,15.675,0.2801379,-0.5655437,0.27428097,1001.8684, , , , 
2025-11-24 19:24:53.107,6.7011,-9.382557,-1.0606186,-0.8618291,-0.42232454,2.2547135,-46.893753,8.08125,15.806251,0.2629411,-0.57685953,0.285269,1001.8672, , , , 
2025-11-24 19:24:53.127,7.2732835,-9.609875,-0.08135597,-1.0084325,-0.5255577,2.7794313,-46.36875,9.262501,15.95625,0.24113517,-0.5905809,0.2978003,1001.8672, , , , 
2025-11-24 19:24:53.147,8.530113,-9.44477,0.622433,-0.93085486,-0.63428855,3.2938411,-45.65625,10.81875,16.518751,0.21579033,-0.6056322,0.31310368,1001.87085, , , , 
2025-11-24 19:24:53.167,10.380663,-9.404092,0.4334,-0.76531523,-0.7363,3.5809393,-44.5875,12.656251,17.025002,0.18919143,-0.62092924,0.33125612,1001.87085, , , , 
2025-11-24 19:24:53.186,11.855539,-9.432806,-0.30418757,-0.8428929,-0.72408307,3.522298,-43.425003,15.243751,17.8875,0.1629849,-0.635425,0.3500921,1001.87744, , , , 
2025-11-24 19:24:53.206,12.12862,-9.882956,-0.38315073,-1.2008494,-0.64894885,3.3188858,-41.943752,18.16875,18.88125,0.13649686,-0.6492105,0.36610624,1001.87744, , , , 
2025-11-24 19:24:53.226,11.522937,-10.232307,0.43818563,-1.6033977,-0.5108974,3.2248154,-40.21875,20.925001,19.837502,0.10801345,-0.6625585,0.37816608,1001.8679, , , , 
2025-11-24 19:24:53.246,10.383355,-10.074382,1.8361923,-1.801923,-0.39300385,3.3585908,-38.71875,23.71875,20.79375,0.07646979,-0.6750596,0.38778797,1001.8679, , , , 
2025-11-24 19:24:53.266,9.827921,-9.674481,3.3804603,-1.6931922,-0.35268793,3.6273637,-37.0875,25.687502,21.806252,0.042460926,-0.6860239,0.39763227,1001.8799, , , , 
2025-11-24 19:24:53.286,10.833205,-9.174082,4.2975097,-1.1226609,-0.27022356,3.9028559,-35.025,27.431252,22.96875,0.008170703,-0.6939761,0.41055533,1001.8799, , , , 
2025-11-24 19:24:53.307,12.267404,-7.7569327,3.0957143,-0.48486,-0.044820916,3.9224029,-33.018753,29.19375,23.94375,-0.02362355,-0.69705147,0.42811632,1001.88794, , , , 
2025-11-24 19:24:53.326,12.276975,-6.7848487,1.8505492,-0.3516953,0.0290916,3.6004865,-30.750002,30.525002,24.862501,-0.051569648,-0.69690764,0.4464544,1001.88794, , , , 
2025-11-24 19:24:53.346,11.211571,-6.509674,1.1874382,-0.56182677,-0.047264308,3.2651312,-28.237501,32.287502,25.575,-0.07654864,-0.69667566,0.46169925,1001.89795, , , , 
2025-11-24 19:24:53.366,10.562817,-6.509674,2.1164517,-0.8068529,-0.1908134,3.1544917,-25.66875,33.80625,26.23125,-0.101039454,-0.69769293,0.47350678,1001.89795, , , , 
2025-11-24 19:24:53.388,10.945967,-6.253343,3.4307094,-0.6815528,-0.34291437,3.1215057,-24.468752,34.443752,26.550001,-0.11899393,-0.69869405,0.48151284,1001.8999, , , , 
2025-11-24 19:24:53.407,11.905788,-5.508876,3.6990047,-0.3126011,-0.23174018,2.9156504,-20.6625,36.318752,27.4125,-0.14527518,-0.6980548,0.49630818,1001.8999, , , , 
2025-11-24 19:24:53.426,12.073585,-4.5822554,3.2081769,-0.20387027,0.15248275,2.5338707,-19.63125,36.80625,27.88125,-0.15879339,-0.69588745,0.50518,1001.90576, , , , 
2025-11-24 19:24:53.446,11.158929,-3.868895,2.9159534,-0.2533489,0.5464792,2.0726812,-16.0125,37.875,28.44375,-0.17944324,-0.69046986,0.5163146,1001.90576, , , , 
2025-11-24 19:24:53.467,10.852348,-3.789932,2.949453,-0.16783029,0.71140796,1.8265097,-14.025001,38.79375,28.368752,-0.1952815,-0.68500674,0.5223636,1001.9043, , , , 
2025-11-24 19:24:53.486,10.809278,-3.7516468,2.76042,0.08994726,0.69125,1.5791165,-12.468751,39.412502,28.3875,-0.20944026,-0.6784586,0.52785826,1001.9043, , , , 
2025-11-24 19:24:53.506,10.694422,-3.5790644,2.2121646,0.34711397,0.6185592,1.3109546,-11.2875,40.125,27.975,-0.22031891,-0.67112124,0.53384984,1001.9043, , , , 
2025-11-24 19:24:53.526,10.648958,-3.545565,1.5131612,0.47661358,0.5892385,1.0043093,-10.33125,40.4625,27.7875,-0.22790906,-0.6636363,0.53993666,1001.9043, , , , 
2025-11-24 19:24:53.546,10.770992,-4.043571,0.8282157,0.4656183,0.5299864,0.6823927,-9.39375,40.59375,27.73125,-0.23280905,-0.6567436,0.54493785,1001.9021, , , , 
2025-11-24 19:24:53.566,11.472388,-5.168796,0.5315057,0.35200074,0.36444676,0.41048935,-8.71875,41.04375,27.300001,-0.23557453,-0.6514189,0.548174,1001.9021, , , , 
2025-11-24 19:24:53.586,12.547363,-5.805586,0.8979067,0.21150586,0.08162446,0.167983,-8.325001,41.325,27.000002,-0.23621942,-0.64843875,0.5496893,1001.90015, , , , 
2025-11-24 19:24:53.606,13.481163,-5.877371,1.6280167,0.12781979,-0.17981817,-0.24739315,-8.212501,41.71875,26.718752,-0.23376006,-0.64810246,0.54967916,1001.90015, , , , 
2025-11-24 19:24:53.626,13.689339,-6.99781,2.2695923,0.08261709,-0.31298286,-0.86679226,-7.8562503,41.9625,26.41875,-0.226701,-0.65033954,0.54742044,1001.896, , , , 
2025-11-24 19:24:53.646,12.645768,-7.886145,2.7245276,0.18646112,-0.18226156,-1.2467393,-8.15625,42.018753,26.38125,-0.215675,-0.653749,0.54302216,1001.896, , , , 
2025-11-24 19:24:53.666,11.386247,-7.5269227,2.7149563,0.40758783,0.021150587,-1.3707412,-8.56875,42.131252,26.250002,-0.20347396,-0.65557045,0.5382965,1001.8906, , , , 
2025-11-24 19:24:53.687,10.6561365,-6.658029,2.3940191,0.67819315,-0.0381016,-1.5601039,-9.431251,41.8875,25.987501,-0.18688123,-0.6553742,0.5330296,1001.8906, , , , 
2025-11-24 19:24:53.706,10.763814,-6.916454,2.0374885,0.90970427,-0.32336727,-1.9052325,-10.70625,41.7,25.743752,-0.16967025,-0.6550876,0.52899075,1001.8884, , , , 
2025-11-24 19:24:53.726,11.280962,-7.986644,1.4964114,1.0153809,-0.5811448,-2.2357774,-11.8125,41.737503,25.0125,-0.15351254,-0.65548927,0.52568686,1001.8884, , , , 
2025-11-24 19:24:53.747,11.640184,-9.12144,1.0342976,0.9072609,-0.7680641,-2.6835284,-13.125001,41.7,24.13125,-0.121572934,-0.6580246,0.5179933,1001.88965, , , , 
2025-11-24 19:24:53.766,11.589935,-9.906884,1.1347961,0.60916746,-0.83220303,-3.0152185,-14.418751,41.550003,23.41875,-0.09367084,-0.66187215,0.5081308,1001.88965, , , , 
2025-11-24 19:24:53.786,11.386247,-10.4718895,1.6686947,0.24449162,-0.78700036,-3.260168,-16.0125,41.34375,22.85625,-0.0657365,-0.66690457,0.49434394,1001.8887, , , , 
2025-11-24 19:24:53.806,11.340783,-10.888241,2.6551359,0.004428643,-0.67582613,-3.4214318,-17.75625,40.350002,22.95,-0.0388107,-0.67225087,0.47706345,1001.8887, , , , 
2025-11-24 19:24:53.826,11.19482,-10.7590275,3.2727833,-0.04199575,-0.4931828,-3.5497098,-19.63125,39.3375,22.96875,-0.012747658,-0.6762474,0.45776778,1001.8845, , , , 
2025-11-24 19:24:53.846,10.854741,-10.483853,3.6005998,-0.0029015245,-0.28854898,-3.6511104,-21.956251,37.95,23.456251,0.0066027488,-0.6779052,0.44251248,1001.8845, , , , 
2025-11-24 19:24:53.866,10.016953,-9.535697,4.0220356,0.2261662,-0.041155834,-3.7500677,-24.13125,36.16875,23.775002,0.038673412,-0.67691725,0.4167374,1001.8806, , , , 
2025-11-24 19:24:53.886,9.451948,-9.19801,3.6460636,0.44362783,0.14209834,-3.812985,-25.368752,35.41875,23.90625,0.05850926,-0.6739336,0.40172827,1001.8806, , , , 
2025-11-24 19:24:53.907,8.506186,-9.083155,3.1483564,0.7319477,0.38032877,-3.8355863,-28.968752,32.71875,24.112501,0.09230521,-0.66511166,0.37779382,1001.8733, , , , 
2025-11-24 19:24:53.926,7.4216385,-9.047262,2.0757737,0.9891144,0.53548396,-3.7189145,-31.0125,30.900002,23.737501,0.11962227,-0.6547655,0.3604951,1001.8733, , , , 
2025-11-24 19:24:53.946,6.0164533,-8.472686,0.9409775,1.0404255,0.5696914,-3.4000523,-33.393753,29.175001,23.306252,0.14601417,-0.6428595,0.3452745,1001.8728,37.88748479,127.74034543,142.51251220703125,1.19
2025-11-24 19:24:53.967,5.2836514,-7.7593255,0.29940194,0.8932114,0.49883315,-3.068973,-35.25,27.0375,22.725,0.1699427,-0.63126606,0.33163813,1001.8728, , , , 
2025-11-24 19:24:53.986,4.9103713,-6.9906316,0.45254257,0.6336013,0.39437827,-2.709184,-37.537502,24.375002,21.9375,0.1903401,-0.6211832,0.3186435,1001.8667, , , , 
2025-11-24 19:24:54.006,4.749753,-6.370591,1.0319048,0.5041017,0.33146098,-2.4226966,-39.581253,21.9375,21.075,0.20744234,-0.61245644,0.30608976,1001.8667, , , , 
2025-11-24 19:24:54.026,4.409972,-6.006882,1.2855439,0.57618165,0.32779592,-2.1875205,-41.268753,19.59375,20.118752,0.22269629,-0.6041316,0.29464382,1001.8635, , , , 
2025-11-24 19:24:54.049,3.8114674,-5.982954,0.66071814,0.6775823,0.34306708,-1.8783553,-42.9,17.475,19.612501,0.23695959,-0.5957008,0.28544015,1001.8635, , , , 
2025-11-24 19:24:54.067,3.370889,-5.999704,0.16031912,0.6763606,0.2746522,-1.539946,-43.706253,16.03125,18.675001,0.24981853,-0.58787096,0.27859107,1001.8696, , , , 
2025-11-24 19:24:54.086,3.1363924,-6.2270217,-0.14356937,0.61099994,0.13965495,-1.2015365,-44.475002,14.437501,18.46875,0.26066914,-0.58173245,0.27384165,1001.8696, , , , 
2025-11-24 19:24:54.106,3.1555347,-6.930811,-0.31375888,0.5126536,-0.050318543,-0.6523849,-45.0,13.031251,18.50625,0.26874658,-0.5781346,0.2712911,1001.8655, , , , 
2025-11-24 19:24:54.127,3.4809587,-7.1919274,-0.35204405,0.44240612,-0.2048629,-0.092848785,-45.1875,11.962501,18.150002,0.2734954,-0.57741684,0.27165946,1001.8655, , , , 
2025-11-24 19:24:54.146,3.7444685,-6.8374906,-0.29461628,0.34467056,-0.26655847,0.46485478,-45.487503,11.231251,18.35625,0.27476567,-0.5793508,0.27530804,1001.8628, , , , 
2025-11-24 19:24:54.167,4.1297126,-6.3418775,-0.27517462,0.24876754,-0.13461547,0.9713235,-45.45,11.118751,18.375,0.27225938,-0.582737,0.28225574,1001.8628, , , , 
2025-11-24 19:24:54.186,5.171189,-6.672386,-0.6415756,0.15469708,0.019928891,1.3860887,-45.2625,11.493751,18.28125,0.26600274,-0.5864386,0.29237357,1001.8618, , , , 
2025-11-24 19:24:54.206,6.1624155,-7.6588273,-1.3860425,-0.072538115,0.09933904,1.6945666,-45.112503,12.225,18.487501,0.25640187,-0.5906073,0.3046847,1001.8618, , , , 
2025-11-24 19:24:54.226,6.3418775,-7.785647,-1.2927225,-0.3852919,0.023593975,2.0519123,-44.568752,13.425,18.54375,0.2428802,-0.5961543,0.31778586,1001.86865, , , , 
2025-11-24 19:24:54.246,7.342675,-8.443972,-0.62721866,-0.63024163,-0.2280751,2.35306,-44.23125,14.625001,18.35625,0.22564845,-0.6043507,0.33082104,1001.86865, , , , 
2025-11-24 19:24:54.266,8.455936,-9.111869,0.03589234,-0.7194254,-0.39056048,2.6285522,-43.575,16.21875,18.393751,0.20579442,-0.6148717,0.34382653,1001.8782, , , , 
2025-11-24 19:24:54.286,9.475877,-9.296415,0.4549354,-0.76287186,-0.4504235,2.8380728,-42.693752,17.831251,18.431252,0.18411127,-0.62632245,0.3576095,1001.8782, , , , 
2025-11-24 19:24:54.306,9.897313,-9.329915,0.59611195,-0.7885274,-0.35696387,2.9266455,-41.850002,19.556252,18.393751,0.16124986,-0.6373703,0.37188,1001.88525, , , , 
2025-11-24 19:24:54.326,9.961919,-9.31795,0.7372885,-0.914362,-0.268391,3.0268245,-40.65,21.712502,18.75,0.13719049,-0.6473282,0.38611814,1001.88525, , , , 
2025-11-24 19:24:54.346,10.167702,-9.279665,1.4222339,-1.0194278,-0.30748525,3.137388,-39.225002,23.4375,19.35,0.111396916,-0.65691537,0.39971235,1001.8906, , , , 
2025-11-24 19:24:54.366,10.479068,-9.0951185,2.3150558,-0.9571213,-0.44064993,3.2480276,-37.875,25.275002,20.1,0.078122646,-0.6687163,0.41621733,1001.8906, , , , 
2025-11-24 19:24:54.386,10.763814,-8.568398,3.1459637,-0.67483354,-0.54815906,3.302393,-37.050003,26.362501,20.587502,0.058890022,-0.6750951,0.4267703,1001.88965, , , , 
2025-11-24 19:24:54.406,11.125429,-7.349854,2.8393831,-0.08536591,-0.4272113,3.2242045,-33.675003,29.325,22.181252,0.030596573,-0.68208784,0.44733018,1001.88965, , , , 
2025-11-24 19:24:54.426,10.636994,-6.238986,1.4198412,0.08322794,-0.13583715,2.9785676,-31.331251,31.2,22.9125,0.011378909,-0.6837136,0.46519896,1001.89526, , , , 
2025-11-24 19:24:54.446,9.851849,-5.697909,0.622433,-0.1885991,0.059023116,2.7104056,-28.95,33.206253,23.493752,-0.0069155023,-0.684033,0.4806426,1001.89526, , , , 
2025-11-24 19:24:54.466,9.499805,-5.736194,0.68464637,-0.63146335,0.23677967,2.5583048,-26.6625,34.893753,23.8125,-0.02653449,-0.6849169,0.49201286,1001.9043, , , , 
2025-11-24 19:24:54.486,9.552447,-5.7696934,1.6615162,-0.8435037,0.32718506,2.4605691,-24.69375,36.1875,24.13125,-0.042673286,-0.6859372,0.4980227,1001.9043, , , , 
2025-11-24 19:24:54.506,10.060024,-5.7601223,2.32702,-0.77081287,0.3626142,2.3286262,-23.1,37.331253,24.375002,-0.06964942,-0.6869656,0.50603837,1001.89307, , , , 
2025-11-24 19:24:54.526,10.06481,-5.3557353,2.152344,-0.71392775,0.5031091,2.1759143,-21.31875,38.193752,24.6,-0.08983228,-0.68640053,0.511971,1001.89307, , , , 
2025-11-24 19:24:54.546,9.739087,-4.927121,2.260021,-0.7695912,0.60267717,2.0238132,-19.743752,38.775,24.656252,-0.10943724,-0.68516546,0.51657397,1001.89453, , , , 
2025-11-24 19:24:54.566,9.727123,-4.7859445,2.868097,-0.70598674,0.6069531,1.9572309,-18.28125,39.16875,25.050001,-0.12871304,-0.6834506,0.52015316,1001.89453, , , , 
2025-11-24 19:24:54.586,10.253843,-4.510471,3.1962128,-0.3749075,0.5452575,1.885151,-16.96875,39.91875,25.406252,-0.14643545,-0.680489,0.5245608,1001.89844, , , , 
2025-11-24 19:24:54.606,10.440783,-3.8401814,2.7795627,-0.006566608,0.5776324,1.7196114,-15.637501,39.862503,25.968752,-0.16106778,-0.6756043,0.5307787,1001.89844, , , , 
2025-11-24 19:24:54.626,10.447961,-3.5431721,2.0733807,0.1913479,0.62955445,1.4587796,-14.493751,40.050003,26.475,-0.17279992,-0.6693898,0.53755116,1001.9053, , , , 
2025-11-24 19:24:54.646,10.584352,-3.696612,1.5514464,0.2921377,0.6484907,1.2138299,-13.51875,40.331253,26.212502,-0.18226434,-0.6627469,0.5436945,1001.9053, , , , 
2025-11-24 19:24:54.666,11.099108,-4.4602213,0.9026923,0.36116344,0.51288265,0.95116556,-12.1125,40.518753,25.875002,-0.18951865,-0.6563309,0.5490039,1001.9043, , , , 
2025-11-24 19:24:54.686,11.917752,-5.4466624,0.45732823,0.27869907,0.08712209,0.65795887,-11.606251,41.100002,25.275002,-0.1937561,-0.65173787,0.55316955,1001.9043, , , , 
2025-11-24 19:24:54.706,12.770195,-5.836693,0.6750751,0.106440134,-0.21585815,0.41904122,-10.5375,41.662502,24.825,-0.194663,-0.65038687,0.5558778,1001.9009, , , , 
2025-11-24 19:24:54.726,13.229917,-5.4610195,1.6686947,-0.13117945,-0.36979166,0.052532863,-9.84375,41.98125,24.487501,-0.19279289,-0.65212655,0.5563272,1001.9009, , , , 
2025-11-24 19:24:54.746,14.1059885,-6.550352,2.7293134,-0.2521272,-0.33986014,-0.63955706,-9.65625,41.943752,24.468752,-0.18775928,-0.6560412,0.5535857,1001.895, , , , 
2025-11-24 19:24:54.766,13.3687,-7.5774713,3.1004999,-0.12568182,0.037643462,-1.1221265,-9.150001,42.1875,24.806252,-0.1794428,-0.66005653,0.54798156,1001.895, , , , 
2025-11-24 19:24:54.786,11.752647,-7.1656065,2.8776684,0.11071607,0.35039726,-1.3169867,-9.58125,41.943752,24.69375,-0.1705182,-0.6614582,0.5413427,1001.89355, , , , 
2025-11-24 19:24:54.806,10.708778,-6.222236,2.6479573,0.34467056,0.279539,-1.5081819,-10.14375,42.0,24.956251,-0.16092665,-0.6608441,0.53475016,1001.89355, , , , 
2025-11-24 19:24:54.828,10.392926,-6.356234,2.329413,0.6097783,0.019928891,-1.8423153,-11.00625,41.850002,24.7875,-0.14797887,-0.6599413,0.52840006,1001.8972, , , , 
2025-11-24 19:24:54.846,10.215558,-7.426424,1.6639091,0.80036265,-0.30931777,-2.1966832,-12.262501,41.4375,24.206251,-0.13006148,-0.6595152,0.5220084,1001.8972, , , , 
2025-11-24 19:24:54.866,10.455139,-8.7673025,1.0797613,0.7795938,-0.69292986,-2.4104795,-13.8,41.381252,24.075,-0.108004816,-0.6606023,0.51495785,1001.8862, , , , 
2025-11-24 19:24:54.887,10.739885,-9.21476,0.96490574,0.59389627,-0.8554152,-2.5057719,-15.187501,41.0625,23.775002,-0.083688885,-0.663757,0.50667644,1001.8862, , , , 
2025-11-24 19:24:54.906,11.068001,-9.102298,1.7955143,0.22738789,-0.91222405,-2.689637,-16.63125,40.987503,23.2875,-0.05931075,-0.6685225,0.49592364,1001.8816, , , , 
2025-11-24 19:24:54.926,10.897812,-8.975478,2.9374888,0.0801737,-0.83708984,-2.9174829,-18.35625,40.631252,23.04375,-0.034973253,-0.67396367,0.48211008,1001.8816, , , , 
2025-11-24 19:24:54.946,11.027323,-9.174082,3.502494,0.17668757,-0.6440621,-3.1563241,-20.025002,39.675003,23.15625,-0.010191035,-0.6780332,0.4664743,1001.88257,37.88748912,127.74036228,142.4222412109375,1.32
2025-11-24 19:24:54.966,10.847563,-9.372986,3.126821,0.3617743,-0.31542626,-3.3438542,-21.88125,38.5125,23.25,0.015681835,-0.67931134,0.45021006,1001.88257, , , , 
2025-11-24 19:24:54.986,10.205987,-8.908479,2.4035904,0.39781427,0.14209834,-3.4458656,-24.0,37.10625,23.306252,0.041342124,-0.6768488,0.43395796,1001.8887, , , , 
2025-11-24 19:24:55.006,9.159725,-8.372188,2.231307,0.30985227,0.3986542,-3.5558183,-25.9125,35.568752,23.56875,0.06571952,-0.6716309,0.41646612,1001.8887, , , , 
2025-11-24 19:24:55.026,8.376973,-8.17119,2.2695923,0.28847262,0.63321954,-3.5875823,-27.862501,34.143753,23.23125,0.08878248,-0.6645172,0.3976951,1001.8877, , , , 
2025-11-24 19:24:55.046,7.4383883,-8.029715,2.2408783,0.40758783,0.8464052,-3.5594833,-30.281252,32.04375,22.893751,0.11604179,-0.65237296,0.373973,1001.8877, , , , 
2025-11-24 19:24:55.066,6.650851,-7.9052877,1.8768703,0.54869354,0.9942303,-3.4263186,-32.7,29.775002,22.800001,0.13182794,-0.643381,0.36050743,1001.8865, , , , 
2025-11-24 19:24:55.086,5.413163,-7.359425,0.90508515,0.6061132,1.1194539,-3.100737,-35.04375,27.31875,21.9375,0.15632208,-0.6262724,0.3406416,1001.8865, , , , 
2025-11-24 19:24:55.106,4.5942197,-6.7178497,0.3592225,0.4705051,1.0760838,-2.721401,-37.631252,24.768751,21.16875,0.17300823,-0.6125718,0.32676542,1001.87866, , , , 
2025-11-24 19:24:55.126,4.141677,-6.181558,0.5482555,0.28236416,0.9526926,-2.332902,-39.506252,22.800001,20.212502,0.18631828,-0.6003136,0.31405962,1001.87866, , , , 
2025-11-24 19:24:55.146,3.8066816,-5.886942,1.1419746,0.26403874,0.7737144,-1.947381,-41.2125,20.587502,19.10625,0.19675738,-0.5898814,0.3026763,1001.86865, , , , 
2025-11-24 19:24:55.167,3.6245282,-5.7984076,1.3070793,0.41430715,0.5764108,-1.5924788,-42.768753,18.50625,18.243752,0.20359278,-0.5831959,0.29574656,1001.86865, , , , 
2025-11-24 19:24:55.186,3.4666018,-5.5591254,0.88354975,0.6562027,0.22456272,-1.1654966,-43.6875,16.6875,17.268751,0.21487023,-0.5746545,0.28836215,1001.8633, , , , 
2025-11-24 19:24:55.206,3.5072799,-5.523233,0.30418757,0.72217417,-0.081471756,-0.8368607,-44.9625,15.1125,16.40625,0.22411922,-0.57070893,0.28575587,1001.8633, , , , 
2025-11-24 19:24:55.226,3.6317065,-6.0547385,-0.10049855,0.6183301,-0.30259845,-0.52960455,-45.525,13.8,16.0125,0.2323496,-0.5694598,0.28488937,1001.86694, , , , 
2025-11-24 19:24:55.246,3.7540395,-6.789634,-0.26799613,0.4344651,-0.40033403,-0.114228435,-45.975002,13.406251,15.712501,0.237806,-0.5706312,0.2856251,1001.86694, , , , 
2025-11-24 19:24:55.267,4.1727834,-7.268498,-0.05503492,0.23410721,-0.4107184,0.4654656,-46.350002,13.200001,15.806251,0.23916687,-0.57386714,0.28868023,1001.8701, , , , 
2025-11-24 19:24:55.286,4.6468616,-7.184749,0.0071784677,0.14614521,-0.32092386,0.9322293,-45.862503,12.993751,16.21875,0.23618458,-0.5784421,0.29482797,1001.8701, , , , 
2025-11-24 19:24:55.306,5.5447683,-7.6755767,-0.51475596,0.0038177953,-0.19508934,1.3537139,-45.73125,13.743751,16.29375,0.22939649,-0.5834724,0.3040846,1001.8628, , , , 
2025-11-24 19:24:55.326,6.2748785,-8.616255,-0.9912268,-0.28450212,-0.081471756,1.7446561,-45.46875,13.968751,16.6875,0.21852043,-0.5892064,0.31528902,1001.8628, , , , 
2025-11-24 19:24:55.346,6.7465634,-8.937193,-0.74207413,-0.5862607,-0.038712446,2.2040133,-44.8125,14.75625,17.15625,0.20248339,-0.5961303,0.32784754,1001.8677, , , , 
2025-11-24 19:24:55.366,7.402496,-8.360223,0.2656033,-0.7561526,-0.16699037,2.6114483,-44.49375,16.21875,17.1,0.18218061,-0.6045523,0.34144336,1001.8677, , , , 
2025-11-24 19:24:55.386,8.137691,-8.068,1.0342976,-0.7231668,-0.2989334,2.7702687,-44.175003,17.025002,17.23125,0.16566399,-0.61165017,0.35210028,1001.874, , , , 
2025-11-24 19:24:55.406,9.624231,-8.283653,1.5083755,-0.5392254,-0.4608079,2.832575,-42.7125,19.612501,17.7,0.13859893,-0.6236609,0.37082344,1001.874, , , , 
2025-11-24 19:24:55.426,10.651351,-8.5779705,1.5538392,-0.4384356,-0.544494,2.7152925,-41.568752,21.6375,18.056252,0.11869545,-0.6327141,0.38606772,1001.87476, , , , 
2025-11-24 19:24:55.446,10.950753,-8.760123,1.7285153,-0.40300646,-0.6068004,2.5314274,-40.162502,23.53125,18.862501,0.100816496,-0.6412007,0.4003016,1001.87476, , , , 
2025-11-24 19:24:55.467,10.632208,-9.157332,1.989632,-0.46225867,-0.65017056,2.3787155,-38.756252,25.143751,19.237501,0.08850893,-0.647337,0.4099163,1001.8806, , , , 
2025-11-24 19:24:55.486,10.455139,-9.305986,2.679064,-0.36024716,-0.4675272,2.4898899,-37.03125,26.868752,19.95,0.06787145,-0.6566916,0.42511812,1001.8806, , , , 
2025-11-24 19:24:55.506,10.610673,-8.228618,2.1308086,-0.15744588,-0.08635853,2.6028965,-35.53125,28.3875,20.681252,0.050370306,-0.661083,0.43914172,1001.875, , , , 
2025-11-24 19:24:55.526,10.34477,-6.6388865,0.7468598,-0.2600682,0.41148198,2.5259297,-34.0125,29.94375,21.16875,0.03215788,-0.66203666,0.4540838,1001.875, , , , 
2025-11-24 19:24:55.546,9.672089,-5.645267,-0.011964113,-0.75432,0.84518355,2.3457298,-32.49375,31.593752,21.618752,0.011889013,-0.66125685,0.46630606,1001.8816, , , , 
2025-11-24 19:24:55.566,9.078369,-5.441877,0.27517462,-1.3370683,1.1493855,2.2192845,-31.0125,33.037502,21.956251,-0.012220933,-0.660477,0.4735308,1001.8816, , , , 
2025-11-24 19:24:55.586,8.889337,-5.549554,1.462912,-1.6168363,1.1096804,2.13682,-29.156252,34.3875,21.806252,-0.039756726,-0.6604955,0.476065,1001.88184, , , , 
2025-11-24 19:24:55.606,8.867801,-5.4227343,2.3940191,-1.4470208,0.8427402,2.1313224,-27.712502,35.5125,21.75,-0.06742017,-0.6609297,0.47685936,1001.88184, , , , 
2025-11-24 19:24:55.626,8.831908,-4.8673005,2.396412,-1.1434298,0.4621823,2.0940607,-26.38125,36.28125,22.125,-0.09218959,-0.66131705,0.4789011,1001.8862, , , , 
2025-11-24 19:24:55.646,8.848659,-4.503292,2.2002003,-1.0059891,0.1854685,2.0280893,-24.900002,36.80625,22.5,-0.11310749,-0.6622626,0.4823683,1001.8862, , , , 
2025-11-24 19:24:55.666,9.066405,-4.278367,2.5378876,-0.92718977,0.088343784,1.9877733,-24.112501,37.3875,23.19375,-0.13619463,-0.66390073,0.48740017,1001.8845, , , , 
2025-11-24 19:24:55.686,9.559626,-4.0387855,2.7053852,-0.78608406,0.06696413,1.9327971,-22.706251,37.48125,23.98125,-0.14895435,-0.66448677,0.49071828,1001.8845, , , , 
2025-11-24 19:24:55.707,10.019346,-3.4426737,2.7293134,-0.6296308,0.10239327,1.8039083,-21.375,38.1375,24.468752,-0.16450903,-0.6644821,0.49542272,1001.8992, , , , 
2025-11-24 19:24:55.726,10.524531,-3.0933216,2.7053852,-0.51845664,0.15736952,1.5137559,-20.19375,38.9625,25.031252,-0.18104222,-0.6635058,0.5007147,1001.8992, , , , 
2025-11-24 19:24:55.746,10.847563,-3.1555347,2.748456,-0.43354884,0.24472068,1.1863418,-18.5625,39.1875,25.556252,-0.19161944,-0.6623774,0.5035731,1001.9092, , , , 
2025-11-24 19:24:55.766,11.19482,-3.4187453,2.5833511,-0.34131092,0.36200336,0.8460998,-17.456251,39.487503,25.968752,-0.19990975,-0.6608065,0.5050433,1001.9092, , , , 
2025-11-24 19:24:55.786,11.477174,-3.9717865,2.2935205,-0.32359633,0.43286163,0.48623443,-16.556252,39.487503,26.362501,-0.20609564,-0.6591616,0.50477326,1001.90356, , , , 
2025-11-24 19:24:55.806,11.738291,-4.7979083,2.2983062,-0.34925193,0.3638359,0.19852535,-15.712501,39.506252,26.550001,-0.20939346,-0.65840834,0.5032091,1001.90356, , , , 
2025-11-24 19:24:55.826,11.941681,-5.5591254,2.8896325,-0.33031565,0.12132954,-0.09651387,-15.168751,39.35625,26.550001,-0.2118988,-0.6589094,0.49882424,1001.8989, , , , 
2025-11-24 19:24:55.846,12.126227,-5.6237316,3.5144582,-0.21791977,-0.06986566,-0.37139514,-14.700001,39.525,26.681252,-0.210498,-0.66060245,0.4949035,1001.8989, , , , 
2025-11-24 19:24:55.866,12.700804,-6.928418,3.7325041,-0.11224318,-0.17370969,-0.7892147,-14.681251,39.43125,27.000002,-0.20519024,-0.6631894,0.4903177,1001.8904, , , , 
2025-11-24 19:24:55.886,12.2171545,-7.73779,4.01725,0.011147963,-0.017943637,-0.9938485,-14.64375,39.300003,27.150002,-0.19918486,-0.66515243,0.48632386,1001.8904, , , , 
2025-11-24 19:24:55.908,11.180464,-7.373782,3.9693937,0.3208475,0.31191388,-0.99201596,-15.281251,39.2625,27.618752,-0.18885367,-0.6654409,0.4803448,1001.89746, , , , 
2025-11-24 19:24:55.927,10.900205,-6.6101727,3.9406798,0.60061556,0.2746522,-1.0176716,-16.03125,38.98125,27.900002,-0.18034436,-0.6630491,0.4769605,1001.89746, , , , 
2025-11-24 19:24:55.946,11.137393,-6.4570317,3.4354951,1.0422581,-0.022219568,-1.2931637,-16.59375,38.8125,27.73125,-0.16851185,-0.65989745,0.4750759,1001.9021,37.88749312,127.74037665,141.4447021484375,1.22
2025-11-24 19:24:55.966,11.402996,-7.136893,2.7149563,1.311031,-0.3459686,-1.5991981,-17.5125,38.25,27.243752,-0.15118179,-0.65730035,0.47408125,1001.9021, , , , 
2025-11-24 19:24:55.986,11.537293,-7.912466,1.8553349,1.4130424,-0.6275692,-1.9113411,-18.712502,38.381252,26.400002,-0.1288125,-0.65601826,0.4730189,1001.8999, , , , 
2025-11-24 19:24:56.006,11.43171,-8.369795,1.4533406,1.2615523,-0.83770066,-2.168584,-19.25625,38.23125,26.00625,-0.11005313,-0.6561895,0.47127756,1001.8999, , , , 
2025-11-24 19:24:56.026,11.503495,-8.695218,1.9558334,0.99216866,-0.9672003,-2.421475,-21.243752,38.0625,24.656252,-0.07721568,-0.6587954,0.46492928,1001.8948, , , , 
2025-11-24 19:24:56.047,11.462817,-8.772088,2.8657043,0.82662904,-0.90611553,-2.7018538,-22.650002,38.04375,24.112501,-0.050202604,-0.6619487,0.456514,1001.8948, , , , 
2025-11-24 19:24:56.066,11.125429,-8.7984085,3.4426737,0.7942541,-0.67643696,-2.9993365,-23.775002,37.3875,23.85,-0.022627389,-0.66398895,0.44575763,1001.8943, , , , 
2025-11-24 19:24:56.086,10.359127,-8.738588,3.4402807,0.83579177,-0.30504185,-3.2473404,-25.3875,36.6375,23.475,0.0054051843,-0.6635249,0.43312606,1001.8943, , , , 
2025-11-24 19:24:56.106,9.442377,-8.599505,3.083451,0.9200887,0.10361496,-3.3927221,-27.16875,35.25,23.025002,0.033096127,-0.65964144,0.4192647,1001.89404, , , , 
2025-11-24 19:24:56.126,8.784052,-8.477471,2.2097716,0.91581273,0.48478365,-3.409215,-29.00625,33.73125,22.85625,0.059699085,-0.6523258,0.40498388,1001.89404, , , , 
2025-11-24 19:24:56.146,8.113463,-8.099107,1.4772689,0.8021952,0.8036459,-3.38417,-31.06875,32.025,22.275002,0.08424318,-0.642368,0.39021274,1001.8833, , , , 
2025-11-24 19:24:56.166,7.2302127,-7.7569327,1.2257234,0.61588675,1.0058364,-3.3120902,-32.8875,30.206251,21.4125,0.10627022,-0.63069224,0.37448996,1001.8833, , , , 
2025-11-24 19:24:56.186,6.4184475,-7.2900333,1.434198,0.48272204,1.0766946,-3.1392205,-34.912502,28.462502,21.056252,0.12543187,-0.6181531,0.3580724,1001.8823, , , , 
2025-11-24 19:24:56.206,5.9039907,-6.937989,1.7380866,0.54136336,1.0547042,-2.9003792,-37.03125,26.60625,19.6875,0.14233921,-0.60531366,0.34201717,1001.8823, , , , 
2025-11-24 19:24:56.226,5.4466624,-6.579066,1.6567305,0.74233216,0.9282588,-2.637104,-38.86875,24.393751,18.45,0.15840869,-0.59233093,0.32781866,1001.8816, , , , 
2025-11-24 19:24:56.246,4.915157,-6.1648083,1.1324034,0.882827,0.6826982,-2.3921542,-40.537502,22.462502,17.38125,0.17480633,-0.5800866,0.31596324,1001.8816, , , , 
2025-11-24 19:24:56.267,4.45065,-5.8558354,0.72293156,0.8883246,0.45668468,-2.1252139,-42.1875,20.456251,16.10625,0.19122282,-0.5694945,0.3059326,1001.87573, , , , 
2025-11-24 19:24:56.286,4.148855,-5.695516,0.5913263,0.8223531,0.2990861,-1.8215466,-43.631252,18.28125,15.168751,0.20641907,-0.5607273,0.29739782,1001.87573, , , , 
2025-11-24 19:24:56.306,3.8353956,-5.508876,0.44536412,0.7631009,0.1830251,-1.4275501,-44.8875,16.59375,14.718751,0.21968868,-0.5536232,0.2890719,1001.87256, , , , 
2025-11-24 19:24:56.326,3.7923248,-5.4729834,0.27756742,0.67941487,0.013820419,-1.0738695,-45.675003,14.793751,14.343751,0.23330304,-0.54728144,0.28459132,1001.87256, , , , 
2025-11-24 19:24:56.347,3.9311085,-5.8893347,0.04546363,0.57312745,-0.12545276,-0.7134696,-46.237503,13.406251,13.968751,0.24178256,-0.54466397,0.2819316,1001.8701, , , , 
2025-11-24 19:24:56.366,4.031607,-6.3753767,-0.28265217,0.40147936,-0.19386765,-0.28770906,-46.425003,12.431251,13.9125,0.24733391,-0.54414994,0.28136367,1001.8701, , , , 
2025-11-24 19:24:56.387,4.112963,-6.6221366,-0.33290145,0.23349637,-0.23357272,0.086129464,-46.4625,12.1125,14.062501,0.24893695,-0.5452064,0.28245246,1001.87085, , , , 
2025-11-24 19:24:56.406,4.76411,-6.698707,-0.34247273,-0.009620844,-0.23662695,0.7880693,-46.893753,11.45625,13.875001,0.24593048,-0.5496081,0.28784877,1001.87085, , , , 
2025-11-24 19:24:56.427,5.9063835,-7.3977103,-0.7253244,-0.2582357,-0.26472592,1.2223817,-47.04375,11.512501,13.70625,0.23878509,-0.55525506,0.29518914,1001.8723, , , , 
2025-11-24 19:24:56.447,6.832705,-8.573184,-0.87637126,-0.6339067,-0.31420457,1.6145457,-47.025,11.90625,13.743751,0.22726737,-0.5630585,0.30381462,1001.8723, , , , 
2025-11-24 19:24:56.467,7.2589264,-9.066405,-0.1363909,-0.9846094,-0.37101334,2.0885632,-46.893753,12.543751,13.837501,0.21040577,-0.57330984,0.31329465,1001.8716, , , , 
2025-11-24 19:24:56.486,7.4096746,-8.015358,1.2209377,-1.0689063,-0.43331978,2.572965,-46.3125,13.9125,14.212501,0.18885423,-0.5851267,0.32436383,1001.8716, , , , 
2025-11-24 19:24:56.507,8.333902,-7.3402824,2.0590239,-0.886263,-0.5542675,2.8478463,-45.693752,15.20625,15.093751,0.1657692,-0.5973632,0.33758202,1001.8718, , , , 
2025-11-24 19:24:56.526,9.976275,-7.7066836,1.6591234,-0.6229115,-0.59030753,2.8789995,-44.775,16.85625,15.937501,0.1439299,-0.60880464,0.3526629,1001.8718, , , , 
2025-11-24 19:24:56.546,11.19482,-8.355437,0.61764735,-0.5795413,-0.57137126,2.7653818,-43.331253,18.7875,16.706251,0.123947814,-0.6190372,0.36823243,1001.87354, , , , 
2025-11-24 19:24:56.566,11.22832,-8.518149,-0.05742774,-0.84839046,-0.48951772,2.6157243,-42.35625,20.587502,17.306252,0.104236364,-0.628816,0.38210586,1001.87354, , , , 
2025-11-24 19:24:56.586,10.579566,-8.453544,0.3065804,-1.3266839,-0.4608079,2.5045502,-40.612503,22.63125,18.056252,0.08276029,-0.6390188,0.39247134,1001.88086, , , , 
2025-11-24 19:24:56.606,10.038489,-8.29801,1.7763717,-1.6565415,-0.3795652,2.5387576,-38.90625,24.50625,18.487501,0.058351487,-0.64982104,0.39941207,1001.88086, , , , 
2025-11-24 19:24:56.627,9.636196,-7.7473617,3.3852458,-1.6308858,-0.25067645,2.6523752,-37.4625,26.081251,19.087502,0.0316966,-0.65964186,0.4052072,1001.88184, , , , 
2025-11-24 19:24:56.646,9.736694,-7.2397842,4.0627136,-1.3126343,-0.17859647,2.7140708,-35.943752,27.093752,20.2875,0.004950057,-0.6670695,0.41214046,1001.88184, , , , 
2025-11-24 19:24:56.667,9.815658,-6.454639,4.167998,-0.7811973,-0.30076593,2.6994104,-34.66875,28.331251,21.1875,-0.019177388,-0.6718977,0.42151967,1001.8867, , , , 
2025-11-24 19:24:56.686,9.686445,-5.8343,3.6774693,-0.22463907,-0.66544175,2.568689,-33.225002,29.56875,22.48125,-0.038445048,-0.67542666,0.43344826,1001.8867, , , , 
2025-11-24 19:24:56.707,9.456735,-5.5184474,3.2105699,0.12110047,-0.9360471,2.4587367,-31.837502,30.768751,23.56875,-0.052590527,-0.67863613,0.44745475,1001.8884, , , , 
2025-11-24 19:24:56.727,9.432806,-5.2310095,3.071487,0.3422272,-1.0753202,2.3774939,-30.056252,32.456253,24.2625,-0.06303828,-0.68150085,0.46284166,1001.8884, , , , 
2025-11-24 19:24:56.747,9.779765,-4.833801,2.8513472,0.5077668,-0.9989643,2.289532,-27.843752,33.825,24.54375,-0.07109464,-0.6834497,0.47902334,1001.8967, , , , 
2025-11-24 19:24:56.767,10.129416,-4.23051,2.1332014,0.5285356,-0.6239041,2.133766,-25.35,35.25,24.975,-0.07799641,-0.68348616,0.49522778,1001.8967, , , , 
2025-11-24 19:24:56.787,10.34477,-3.6583266,1.2999009,0.31779328,-0.003283304,1.8979788,-22.800001,36.525,24.956251,-0.085518904,-0.6815072,0.509466,1001.897, , , , 
2025-11-24 19:24:56.807,10.217951,-3.1459637,0.64636123,-0.15622419,0.7840988,1.632871,-20.681252,37.78125,24.825,-0.095955,-0.67775726,0.51962906,1001.897, , , , 
2025-11-24 19:24:56.826,9.825528,-2.8465617,1.0486546,-0.6418477,1.4261756,1.3940299,-18.9375,38.7,25.031252,-0.11106199,-0.67309415,0.523969,1001.8884, , , , 
2025-11-24 19:24:56.846,9.602696,-2.7652056,1.8170497,-0.7592068,1.668682,1.2193274,-17.962502,39.46875,24.675001,-0.1297271,-0.6675751,0.5237309,1001.8884, , , , 
2025-11-24 19:24:56.867,9.664909,-2.7053852,2.1595225,-0.53433865,1.5306305,1.0672265,-17.212502,40.0125,24.69375,-0.14820382,-0.6611684,0.5220637,1001.895, , , , 
2025-11-24 19:24:56.886,10.014561,-2.896811,1.9295124,-0.228915,1.2013075,0.9126822,-16.96875,40.275,24.69375,-0.16314393,-0.6543623,0.52137434,1001.895, , , , 
2025-11-24 19:24:56.907,10.464711,-3.4809587,1.3070793,0.009926268,0.6271111,0.6793385,-16.0125,40.66875,24.300001,-0.17294371,-0.6486192,0.5220231,1001.8928, , , , 
2025-11-24 19:24:56.927,11.237891,-4.5726843,0.9696914,0.028251685,0.13721156,0.48256934,-15.825001,40.74375,24.225,-0.17799714,-0.64538807,0.5232038,1001.8928, , , , 
2025-11-24 19:24:56.947,12.231511,-5.556732,1.4581263,-0.062764555,-0.37345675,0.27976805,-15.450001,41.006252,24.243752,-0.17931066,-0.6454194,0.52395034,1001.8928,37.88749312,127.74037665,141.4447021484375,1.22
2025-11-24 19:24:56.966,12.703197,-5.52084,2.707778,-0.049325917,-0.79249793,0.07330167,-15.13125,41.006252,24.337502,-0.1769705,-0.6485824,0.5241801,1001.8928, , , , 
2025-11-24 19:24:56.987,13.311273,-5.604589,3.4689946,0.023364907,-0.96292436,-0.38483378,-15.000001,41.25,24.281252,-0.16824389,-0.6547289,0.5240932,1001.8916, , , , 
2025-11-24 19:24:57.007,13.591232,-7.1919274,3.9119658,0.07406523,-0.71614206,-0.9584193,-14.56875,41.193752,24.50625,-0.1566547,-0.6601584,0.5217495,1001.8916, , , , 
2025-11-24 19:24:57.026,12.291331,-7.6085777,3.9191444,0.32023668,-0.027717194,-1.1551121,-14.55,41.04375,24.487501,-0.1441941,-0.6625091,0.51809186,1001.8887, , , , 
2025-11-24 19:24:57.046,11.0608225,-6.629315,3.1746774,0.50715595,0.34551048,-1.1703833,-14.512501,40.65,24.225,-0.13382354,-0.6605013,0.5146188,1001.8887, , , , 
2025-11-24 19:24:57.067,10.9579315,-5.942276,2.9398818,0.6336013,0.22822781,-1.3285928,-14.962501,40.6875,24.16875,-0.123295724,-0.6573266,0.510863,1001.8928, , , , 
2025-11-24 19:24:57.087,11.446067,-6.34427,2.8704898,0.8284616,-0.005726693,-1.6944903,-15.843751,40.706253,23.868752,-0.10915086,-0.6546987,0.5065776,1001.8928, , , , 
2025-11-24 19:24:57.106,11.518151,-7.402496,2.3078775,1.0049964,-0.13522631,-2.1429286,-17.025002,40.36875,23.456251,-0.09018837,-0.65229046,0.5014167,1001.895, , , , 
2025-11-24 19:24:57.127,11.091929,-8.551649,1.5897316,0.99888796,-0.25556323,-2.5198214,-18.581251,40.18125,23.1,-0.067525424,-0.6502914,0.49442583,1001.895, , , , 
2025-11-24 19:24:57.147,10.385748,-9.492626,1.015155,0.7832589,-0.26106083,-2.6939127,-20.081251,39.7125,22.44375,-0.043625355,-0.6491129,0.48517483,1001.89575, , , , 
2025-11-24 19:24:57.166,9.739087,-9.801301,1.1132607,0.39109495,-0.24884391,-2.656651,-22.275002,38.8875,21.91875,-0.021510959,-0.64898616,0.47352594,1001.89575, , , , 
2025-11-24 19:24:57.186,9.423235,-9.564411,2.2624137,0.12171131,-0.2500656,-2.5711324,-24.093752,38.175003,21.45,-0.0023197688,-0.6498749,0.4597951,1001.896, , , , 
2025-11-24 19:24:57.206,9.219545,-9.109476,3.2847474,0.14248012,-0.28977066,-2.521043,-26.156252,37.29375,21.16875,0.015483964,-0.65077263,0.44540644,1001.896, , , , 
2025-11-24 19:24:57.226,9.138189,-8.597113,3.8377883,0.36849362,-0.24151373,-2.4990525,-28.181252,35.90625,21.1875,0.0336957,-0.6504803,0.43180183,1001.8838, , , , 
2025-11-24 19:24:57.246,8.784052,-7.620542,3.167499,0.57312745,-0.041155834,-2.4837813,-29.41875,34.78125,20.98125,0.05278038,-0.647827,0.41995504,1001.8838, , , , 
2025-11-24 19:24:57.266,8.214261,-6.808777,2.6288147,0.53464407,0.1958529,-2.560748,-31.06875,33.525,20.98125,0.07190149,-0.6432002,0.4083323,1001.88916, , , , 
2025-11-24 19:24:57.286,7.5436726,-6.4761744,2.4394827,0.41308546,0.46645823,-2.6340497,-32.475002,32.100002,20.737501,0.0899,-0.6368856,0.3955802,1001.88916, , , , 
2025-11-24 19:24:57.306,6.98106,-6.2605214,2.3341985,0.40209022,0.70835376,-2.6151135,-33.75,30.7875,20.456251,0.106196895,-0.62871015,0.38211018,1001.88403, , , , 
2025-11-24 19:24:57.326,6.3921266,-5.9757752,2.2025933,0.43263257,0.823193,-2.564413,-35.60625,28.95,19.987501,0.12133181,-0.61898863,0.36876142,1001.88403, , , , 
2025-11-24 19:24:57.346,5.7074804,-5.8510494,2.0015962,0.50715595,0.81708455,-2.4746187,-37.36875,27.243752,19.050001,0.13601084,-0.6085045,0.35583028,1001.8799, , , , 
2025-11-24 19:24:57.366,5.020441,-5.7194443,1.852942,0.5792359,0.7340093,-2.3023596,-39.0,25.050001,18.13125,0.15033875,-0.59793097,0.34375718,1001.8799, , , , 
2025-11-24 19:24:57.386,4.5942197,-5.640481,1.6495521,0.65986776,0.6503233,-2.104369,-39.91875,24.0375,17.550001,0.16072345,-0.5902938,0.33570516,1001.87646, , , , 
2025-11-24 19:24:57.406,4.148855,-5.374878,1.1730813,0.7398887,0.47439924,-1.7665703,-41.71875,21.7875,16.050001,0.17716347,-0.578668,0.3250909,1001.87646, , , , 
2025-11-24 19:24:57.426,3.868895,-5.2286167,0.8859426,0.72461754,0.24960746,-1.487413,-42.24375,21.075,15.731251,0.1894329,-0.57126623,0.31869695,1001.87427, , , , 
2025-11-24 19:24:57.446,3.897609,-5.3219366,0.8066803,0.7075138,0.052303795,-1.1441169,-43.66875,18.825,14.94375,0.20048203,-0.56590396,0.31382525,1001.87427, , , , 
2025-11-24 19:24:57.467,4.01725,-5.449055,0.55782676,0.706903,-0.10834903,-0.8484668,-44.568752,17.38125,14.718751,0.21020548,-0.56226176,0.3108173,1001.8772, , , , 
2025-11-24 19:24:57.486,4.148855,-5.9207406,0.09092726,0.6342122,-0.26228255,-0.5442649,-45.112503,16.462502,14.512501,0.21866405,-0.56052816,0.30954507,1001.8772, , , , 
2025-11-24 19:24:57.506,4.362116,-6.5168524,-0.27517462,0.4772244,-0.35696387,-0.1795891,-45.5625,15.88125,14.2875,0.22487177,-0.5608628,0.30994028,1001.8755, , , , 
2025-11-24 19:24:57.526,4.5822554,-6.88774,-0.55304116,0.26892552,-0.3752893,0.26327518,-45.7125,15.806251,14.475,0.2277134,-0.5631613,0.31220466,1001.8755, , , , 
2025-11-24 19:24:57.546,5.0252266,-6.899704,-0.70378894,0.0056503373,-0.33191913,0.7410341,-45.43125,15.750001,14.45625,0.22624597,-0.5671588,0.31666455,1001.86914, , , , 
2025-11-24 19:24:57.566,6.6388865,-7.8406816,-0.9409775,-0.33764583,-0.3343625,1.133198,-45.300003,15.6,14.6625,0.21817112,-0.5744231,0.32457417,1001.86914, , , , 
2025-11-24 19:24:57.586,7.4479594,-9.195618,-1.0917253,-0.6919372,-0.33863845,1.368985,-44.756252,15.900001,14.7375,0.21028589,-0.5801934,0.3295108,1001.86743, , , , 
2025-11-24 19:24:57.606,7.153642,-9.715159,-0.59611195,-1.1055572,-0.24151373,1.7849721,-44.175003,16.575,14.606251,0.19511238,-0.58926755,0.3361595,1001.86743, , , , 
2025-11-24 19:24:57.626,6.7058854,-9.131011,0.5315057,-1.3138561,-0.25922832,2.2791474,-43.706253,17.53125,15.168751,0.17420442,-0.5996289,0.34372583,1001.87744, , , , 
2025-11-24 19:24:57.646,7.278069,-8.403294,1.6184454,-1.2387218,-0.28915983,2.7440023,-43.068752,18.73125,15.431251,0.14947385,-0.610725,0.35344788,1001.87744, , , , 
2025-11-24 19:24:57.666,8.920443,-8.613862,1.8505492,-0.9766684,-0.36979166,2.9749024,-42.45,19.96875,16.25625,0.1236977,-0.62121856,0.36594945,1001.87476, , , , 
2025-11-24 19:24:57.686,10.589137,-9.368199,1.2783655,-0.77081287,-0.45103434,3.0237703,-41.4,21.431252,17.475,0.09921398,-0.63085395,0.38048977,1001.87476, , , , 
2025-11-24 19:24:57.706,11.58515,-9.798908,0.94337034,-0.75370914,-0.5652628,3.0237703,-39.956253,23.325,18.2625,0.07614318,-0.6400384,0.3955702,1001.8816, , , , 
2025-11-24 19:24:57.726,11.7311125,-9.502198,0.94337034,-0.8874847,-0.5609869,3.0078883,-38.4375,25.10625,19.35,0.053478528,-0.64921427,0.40991548,1001.8816, , , , 
2025-11-24 19:24:57.746,11.362318,-8.137691,1.7380866,-1.0884534,-0.44309333,2.972459,-36.35625,27.243752,20.41875,0.023966175,-0.66003525,0.42558175,1001.8784, , , , 
2025-11-24 19:24:57.766,11.156535,-6.9786673,2.475375,-1.1330453,-0.21158221,2.820969,-34.48125,29.212502,20.8875,0.005788431,-0.6655164,0.43358546,1001.8784, , , , 
2025-11-24 19:24:57.786,10.902597,-5.925526,2.9542387,-1.0371423,0.060855657,2.5332599,-32.71875,30.618752,21.525002,-0.023627765,-0.6715944,0.44474813,1001.8845, , , , 
2025-11-24 19:24:57.806,10.37827,-5.1664033,2.7149563,-0.878322,0.22639526,2.2180626,-30.768751,31.95,22.368752,-0.04501932,-0.67370623,0.45200607,1001.8845, , , , 
2025-11-24 19:24:57.826,9.6529455,-4.6372905,2.0494525,-0.8661051,0.3339044,1.9126391,-29.325,32.86875,23.00625,-0.06404734,-0.67460763,0.45775604,1001.8887, , , , 
2025-11-24 19:24:57.846,8.944371,-4.3525443,1.9824536,-1.0096542,0.42797485,1.7000643,-27.69375,33.75,23.75625,-0.08213862,-0.6752573,0.4612181,1001.8887, , , , 
2025-11-24 19:24:57.866,8.817552,-4.196712,2.4131618,-1.0762365,0.46157146,1.5833925,-26.475,34.5,24.487501,-0.09571037,-0.67581046,0.46243104,1001.89307, , , , 
2025-11-24 19:24:57.886,8.889337,-3.8473597,2.7795627,-0.9913287,0.46401486,1.4404542,-25.931252,34.96875,24.581251,-0.11318018,-0.67620015,0.46311763,1001.89307, , , , 
2025-11-24 19:24:57.906,8.640183,-3.4331024,2.6024938,-0.854499,0.45363045,1.2022238,-23.94375,35.79375,25.44375,-0.13240077,-0.6759633,0.46345684,1001.89575, , , , 
2025-11-24 19:24:57.926,8.376973,-3.4426737,2.4251258,-0.8031878,0.49211383,1.0800543,-23.400002,36.0,25.893751,-0.14579913,-0.67536455,0.46317488,1001.89575, , , , 
2025-11-24 19:24:57.946,8.570791,-3.4737802,2.4035904,-0.75493085,0.49028128,1.0208021,-22.575,36.318752,26.025002,-0.15843686,-0.6744621,0.46254662,1001.8955,37.88750707,127.74039898,140.94158935546875,1.5
2025-11-24 19:24:57.966,9.099904,-3.2440693,2.477768,-0.6485671,0.48234028,0.9444462,-21.993752,36.412502,26.343752,-0.17015687,-0.6732367,0.46198526,1001.8955, , , , 
2025-11-24 19:24:57.986,9.358628,-3.1052856,2.2767708,-0.56060505,0.5086067,0.7153785,-21.5625,36.581253,26.7,-0.18014659,-0.67167854,0.46118453,1001.90063, , , , 
2025-11-24 19:24:58.008,9.483055,-3.6197424,2.1906292,-0.5202891,0.5342623,0.5913765,-20.962502,36.6375,27.093752,-0.18862528,-0.67005354,0.45963472,1001.90063, , , , 
2025-11-24 19:24:58.027,10.0265255,-4.132106,2.3030918,-0.40361732,0.3962108,0.49845135,-20.5125,36.675003,27.6,-0.19608186,-0.6683642,0.4578488,1001.9026, , , , 
2025-11-24 19:24:58.046,10.940883,-4.817051,2.5522444,-0.23991026,0.0626882,0.37078428,-20.15625,36.73125,27.712502,-0.20139751,-0.6673621,0.45653772,1001.9026, , , , 
2025-11-24 19:24:58.067,11.857932,-5.439484,2.9135606,-0.053601846,-0.2952683,0.19608197,-20.04375,36.84375,27.900002,-0.2030867,-0.6678153,0.4561689,1001.907, , , , 
2025-11-24 19:24:58.086,12.231511,-5.2549376,3.2727833,0.07711947,-0.38261944,0.016492875,-19.931252,36.675003,27.825,-0.20108832,-0.66931355,0.45675933,1001.907, , , , 
2025-11-24 19:24:58.106,12.8467655,-5.535197,3.251248,0.11804623,-0.23601611,-0.26510772,-19.6875,36.768753,27.806252,-0.19662887,-0.67071056,0.45702899,1001.9126, , , , 
2025-11-24 19:24:58.126,13.576876,-7.704291,3.382853,0.08872557,0.033367533,-0.7330167,-19.706251,36.73125,27.993752,-0.19020665,-0.6718983,0.45475826,1001.9126, , , , 
2025-11-24 19:24:58.146,12.480365,-7.9244304,3.571886,0.2793099,0.419423,-0.7983774,-19.875,36.506252,27.862501,-0.18317753,-0.6714555,0.45091432,1001.9092, , , , 
2025-11-24 19:24:58.166,11.33839,-6.626922,3.3684962,0.56824064,0.45607382,-0.7977665,-20.1375,36.65625,27.993752,-0.17677556,-0.6681231,0.44796696,1001.9092, , , , 
2025-11-24 19:24:58.186,10.878669,-5.9901323,3.234498,0.92864054,0.16164546,-0.9749122,-20.625,36.506252,27.862501,-0.16807921,-0.66408575,0.4463383,1001.8999, , , , 
2025-11-24 19:24:58.206,10.687243,-6.15763,2.7891338,1.3464601,-0.19508934,-1.2479609,-21.112501,36.54375,27.2625,-0.15432963,-0.6604598,0.4462963,1001.8999, , , , 
2025-11-24 19:24:58.226,10.684851,-7.069894,1.6734804,1.5663651,-0.5695387,-1.4751961,-21.75,36.46875,26.643751,-0.1351801,-0.6577445,0.44753188,1001.8899, , , , 
2025-11-24 19:24:58.246,11.137393,-7.4790664,1.1539388,1.4973394,-0.82914877,-1.6254646,-22.44375,36.581253,25.875002,-0.11256726,-0.6568412,0.44878843,1001.8899, , , , 
2025-11-24 19:24:58.266,11.644971,-7.4527454,1.2903296,1.2756017,-0.89939624,-1.8649167,-23.4375,36.412502,24.825,-0.08848747,-0.65764886,0.448405,1001.88184, , , , 
2025-11-24 19:24:58.286,11.72154,-7.5774713,1.8337995,1.0312629,-0.79799557,-2.2174518,-24.2625,36.24375,24.243752,-0.063575804,-0.6593261,0.44472817,1001.88184, , , , 
2025-11-24 19:24:58.306,11.187642,-7.8693953,2.4825535,0.8638907,-0.54693735,-2.5466986,-25.0125,36.0,23.56875,-0.038404267,-0.66059256,0.43738726,1001.885, , , , 
2025-11-24 19:24:58.326,10.244272,-8.20469,2.6455646,0.8247965,-0.2543415,-2.7714903,-25.875002,35.568752,23.19375,-0.013491974,-0.6600848,0.42734128,1001.885, , , , 
2025-11-24 19:24:58.346,9.305986,-8.252546,2.8345976,0.8681667,0.020539738,-2.8441813,-27.0375,34.987503,23.362501,0.010650243,-0.6572356,0.41590545,1001.8823, , , , 
2025-11-24 19:24:58.367,8.666505,-7.838289,2.1978076,0.9200887,0.2538834,-2.7867615,-28.893751,33.675003,23.025002,0.039517224,-0.6504464,0.40176898,1001.8823, , , , 
2025-11-24 19:24:58.386,8.410473,-7.347461,2.0590239,0.87855107,0.3534515,-2.7763772,-29.643751,33.037502,22.6875,0.05598541,-0.64524627,0.39327627,1001.87573, , , , 
2025-11-24 19:24:58.406,7.9770727,-6.969096,2.0877378,0.8284616,0.4786752,-2.8539548,-33.09375,30.656252,21.993752,0.07736988,-0.63745975,0.38118464,1001.87573, , , , 
2025-11-24 19:24:58.426,7.050751,-7.036394,1.9728823,0.8620582,0.6246677,-2.9223697,-34.93125,28.893751,20.737501,0.10363562,-0.62573487,0.36495912,1001.87085, , , , 
2025-11-24 19:24:58.446,6.0164533,-6.940382,1.7476579,0.93658155,0.65398836,-2.8588414,-36.675003,27.056252,19.7625,0.11913485,-0.6177372,0.35519466,1001.87085, , , , 
2025-11-24 19:24:58.466,4.982156,-6.6676,1.1491531,0.9940012,0.59107107,-2.588236,-38.175003,25.25625,18.6,0.14400895,-0.6039383,0.34044293,1001.8645, , , , 
2025-11-24 19:24:58.486,4.4315076,-6.102595,0.689432,0.9665131,0.45790637,-2.2321122,-39.75,23.71875,17.85,0.16218516,-0.5937453,0.33071354,1001.8645, , , , 
2025-11-24 19:24:58.506,4.2664027,-5.5782676,0.35682967,0.8522846,0.28686914,-1.9241688,-41.49375,22.06875,17.212502,0.17844665,-0.5852121,0.32259724,1001.86597, , , , 
2025-11-24 19:24:58.526,4.098606,-5.226224,0.392722,0.7081247,0.1414875,-1.6761649,-42.825,20.53125,16.5,0.192746,-0.57853353,0.3152442,1001.86597, , , , 
2025-11-24 19:24:58.546,4.0268216,-5.252545,0.44775695,0.58900946,0.0626882,-1.403727,-43.818752,18.91875,16.143751,0.20500578,-0.5732777,0.3085935,1001.8601, , , , 
2025-11-24 19:24:58.566,3.9837506,-5.439484,0.2536392,0.52670306,0.05780142,-1.1545013,-44.71875,17.118752,15.6,0.21517144,-0.56900865,0.3031633,1001.8601, , , , 
2025-11-24 19:24:58.586,3.8234315,-5.499305,-0.05503492,0.42469156,0.040697698,-0.7977665,-45.131252,15.8625,15.150001,0.22284241,-0.56571573,0.29957196,1001.865, , , , 
2025-11-24 19:24:58.606,3.9287157,-5.5160546,-0.3400799,0.26709297,-0.04909685,-0.3927748,-45.3375,15.000001,15.093751,0.22758096,-0.5640972,0.29801798,1001.865, , , , 
2025-11-24 19:24:58.626,4.24726,-5.788836,-0.4142574,0.036803547,-0.14805411,-0.007330167,-45.61875,14.3625,14.681251,0.22904831,-0.56472826,0.29812333,1001.8677, , , , 
2025-11-24 19:24:58.646,4.5559344,-6.1265235,-0.15074782,-0.19959435,-0.21280392,0.4007158,-45.43125,14.043751,14.75625,0.22674853,-0.567582,0.29964006,1001.8677, , , , 
2025-11-24 19:24:58.666,4.915157,-6.3083777,0.33050862,-0.3504736,-0.20425205,0.85709506,-45.73125,14.025001,14.962501,0.22044235,-0.5721307,0.30304134,1001.865, , , , 
2025-11-24 19:24:58.686,5.9757752,-6.710671,0.22492532,-0.4085041,-0.25617406,1.3384427,-45.693752,14.118751,15.056251,0.21073464,-0.57788026,0.3091355,1001.865, , , , 
2025-11-24 19:24:58.707,7.385746,-8.259725,-0.45014977,-0.6229115,-0.4131618,1.6347036,-45.487503,14.418751,15.450001,0.19869743,-0.5854618,0.31713074,1001.85815, , , , 
2025-11-24 19:24:58.726,7.9387875,-9.176475,-0.18664017,-0.95101285,-0.49562618,2.0622966,-45.45,15.1125,15.675,0.18300243,-0.59537727,0.3258849,1001.85815, , , , 
2025-11-24 19:24:58.746,8.458329,-8.946764,0.86201435,-1.1929083,-0.5970268,2.429416,-44.662502,15.806251,16.275002,0.16257234,-0.60738677,0.33546874,1001.8657, , , , 
2025-11-24 19:24:58.766,9.643374,-8.635398,2.547459,-1.2136772,-0.6972058,2.808752,-43.59375,17.34375,16.931252,0.13877717,-0.62048125,0.34596607,1001.8657, , , , 
2025-11-24 19:24:58.786,11.0608225,-8.132606,3.7660038,-0.90458846,-0.7998281,2.920537,-42.84375,19.143751,17.868752,0.114384174,-0.6331573,0.35804233,1001.8723, , , , 
2025-11-24 19:24:58.806,12.14537,-8.108678,4.0363927,-0.42316443,-0.86335623,2.7666037,-40.96875,21.16875,18.75,0.09307144,-0.6440725,0.3718188,1001.8723, , , , 
2025-11-24 19:24:58.826,12.327224,-8.345866,3.7253258,0.003206948,-0.8315922,2.5179887,-39.1875,23.400002,19.59375,0.076573,-0.6525127,0.38686502,1001.8811, , , , 
2025-11-24 19:24:58.846,11.738291,-8.192725,3.016452,0.30740887,-0.720418,2.3915434,-37.725002,25.29375,20.306252,0.06383463,-0.6583558,0.40296164,1001.8811, , , , 
2025-11-24 19:24:58.866,11.07518,-7.2876406,1.9872392,0.45828816,-0.49196112,2.3420649,-35.79375,27.206251,20.831251,0.052957278,-0.6619515,0.4200649,1001.8894, , , , 
2025-11-24 19:24:58.886,10.390533,-6.155237,0.79471624,0.29397026,-0.124841906,2.2828126,-35.2125,28.050001,21.112501,0.04195962,-0.6631847,0.4371934,1001.8894, , , , 
2025-11-24 19:24:58.906,9.475877,-5.037191,-0.03589234,-0.30466008,0.48967043,2.1301007,-32.98125,30.487501,21.46875,0.02812614,-0.66295636,0.4514597,1001.8865, , , , 
2025-11-24 19:24:58.926,8.963513,-4.7715874,0.124426775,-0.9326874,0.995452,1.9999902,-31.312502,32.2125,21.5625,0.009466626,-0.66198194,0.4608102,1001.8865, , , , 
2025-11-24 19:24:58.946,8.436793,-4.601398,0.9936196,-1.3456202,1.2055835,1.885151,-29.906252,33.675003,21.54375,-0.013925191,-0.6608054,0.46518394,1001.8823,37.88751741,127.74041011,141.46392822265625,1.24
2025-11-24 19:24:58.966,8.008179,-4.778766,1.8481563,-1.4067049,1.0418763,1.8020757,-29.2875,34.36875,21.337502,-0.03900245,-0.66012865,0.46622002,1001.8823, , , , 
2025-11-24 19:24:58.986,7.5580297,-4.77398,2.4562325,-1.1727504,0.5965687,1.833229,-27.656252,35.30625,21.768751,-0.062573195,-0.6602167,0.46702892,1001.8828, , , , 
2025-11-24 19:24:59.006,7.5942206,-4.7282176,2.6312077,-0.89053893,0.24960746,1.9401273,-26.8875,35.362503,22.125,-0.083274245,-0.66092354,0.46988818,1001.8828, , , , 
2025-11-24 19:24:59.026,7.9148593,-4.520042,2.5088747,-0.62413317,0.043751936,2.0720704,-25.875002,35.5125,22.612501,-0.10158835,-0.6614858,0.4754193,1001.8833, , , , 
2025-11-24 19:24:59.046,8.616255,-4.395615,2.461018,-0.48302746,-0.074752435,2.1221597,-24.768751,36.16875,23.268751,-0.11823574,-0.6616805,0.4828618,1001.8833, , , , 
2025-11-24 19:24:59.066,9.406485,-4.1201415,2.3748765,-0.30160582,-0.13828056,2.084898,-23.60625,36.9375,23.60625,-0.13675791,-0.6612034,0.49368986,1001.8899, , , , 
2025-11-24 19:24:59.086,9.859028,-3.777968,2.3892334,-0.17760384,-0.17065546,1.9883841,-22.050001,37.74375,24.243752,-0.14648926,-0.6605005,0.50046283,1001.8899, , , , 
2025-11-24 19:24:59.106,10.347163,-3.3445678,2.3318057,-0.045049984,-0.16760121,1.7709225,-20.737501,38.5125,24.768751,-0.16008753,-0.6586597,0.5116355,1001.9004, , , , 
2025-11-24 19:24:59.126,10.732707,-3.1507492,2.152344,0.009926268,-0.08269345,1.4587796,-19.425001,39.318752,25.125002,-0.16839266,-0.6568151,0.5195635,1001.9004, , , , 
2025-11-24 19:24:59.146,10.8714905,-3.0595229,2.0422742,0.0019852535,0.076126836,1.0635614,-17.75625,39.975002,25.143751,-0.17460664,-0.65485495,0.5254593,1001.9072, , , , 
2025-11-24 19:24:59.166,11.017752,-3.3206396,1.907977,-0.020616096,0.2190651,0.6701758,-16.462502,40.725002,24.900002,-0.17801058,-0.65335643,0.5281601,1001.9072, , , , 
2025-11-24 19:24:59.186,10.981859,-4.211368,1.7620147,-0.05971032,0.25693762,0.20768806,-15.13125,41.04375,24.656252,-0.18125276,-0.65135324,0.52919346,1001.9021, , , , 
2025-11-24 19:24:59.206,11.218749,-5.4442697,1.8242282,-0.06704049,0.057190575,-0.08857285,-14.08125,41.268753,24.712502,-0.18137752,-0.6509993,0.52772367,1001.9021, , , , 
2025-11-24 19:24:59.226,11.419746,-6.14088,2.2289143,-0.049936764,-0.23418356,-0.29442838,-14.025001,41.081253,24.618752,-0.17870602,-0.65234077,0.5254403,1001.9092, , , , 
2025-11-24 19:24:59.246,11.616257,-6.0858455,2.882454,-0.024892027,-0.41560522,-0.5247178,-13.81875,40.95,24.675001,-0.1732519,-0.6550454,0.5228953,1001.9092, , , , 
2025-11-24 19:24:59.266,12.312867,-7.2469625,3.2297122,-0.017561859,-0.4064425,-0.92482275,-14.043751,40.875,24.7875,-0.16473882,-0.65859824,0.51918364,1001.9099, , , , 
2025-11-24 19:24:59.286,11.879467,-8.214261,3.4881372,0.046577103,-0.0045049987,-1.1685508,-14.231251,40.3875,24.6,-0.15461369,-0.6613762,0.51390994,1001.9099, , , , 
2025-11-24 19:24:59.306,10.940883,-7.8813596,3.2153554,0.22250111,0.41636875,-1.1777135,-14.475,40.425003,24.937502,-0.1457717,-0.6609563,0.50837404,1001.9011, , , , 
2025-11-24 19:24:59.326,10.407283,-6.983453,2.9159534,0.39903596,0.43163994,-1.2216945,-15.187501,40.275,24.862501,-0.13766892,-0.6583875,0.503109,1001.9011, , , , 
2025-11-24 19:24:59.346,10.569995,-6.818348,2.7245276,0.5957288,0.15553698,-1.4287717,-15.95625,40.10625,24.618752,-0.12727337,-0.65579426,0.49811178,1001.9004, , , , 
2025-11-24 19:24:59.366,10.902597,-7.6588273,2.4107687,0.8040277,-0.2580066,-1.7531316,-17.268751,40.2,24.13125,-0.11249301,-0.6542771,0.49312186,1001.9004, , , , 
2025-11-24 19:24:59.386,10.864312,-8.185547,2.2217357,0.85411716,-0.49868044,-1.923558,-17.75625,39.99375,23.8875,-0.098575346,-0.65412825,0.48921153,1001.897, , , , 
2025-11-24 19:24:59.406,10.763814,-8.479864,2.3892334,0.8156338,-0.7411868,-2.1539237,-19.875,39.600002,23.325,-0.072016954,-0.65555036,0.48178995,1001.897, , , , 
2025-11-24 19:24:59.426,10.814063,-8.666505,2.6144578,0.73072606,-0.8175427,-2.3597794,-21.393751,39.318752,23.025002,-0.04885933,-0.6575885,0.4743863,1001.8967, , , , 
2025-11-24 19:24:59.446,10.469497,-8.532506,2.96381,0.6372664,-0.6984275,-2.5515854,-22.66875,38.737503,22.612501,-0.02478221,-0.65969795,0.46518186,1001.8967, , , , 
2025-11-24 19:24:59.466,9.942777,-8.345866,3.2129626,0.56946236,-0.40216658,-2.720179,-23.962502,37.987503,22.368752,-9.5812924E-4,-0.6604373,0.45431224,1001.90015, , , , 
2025-11-24 19:24:59.486,9.217153,-8.106285,3.1986058,0.5902312,-0.061313793,-2.8380728,-25.218752,37.068752,22.21875,0.02203777,-0.65885323,0.44205973,1001.90015, , , , 
2025-11-24 19:24:59.506,8.479864,-7.6396847,2.935096,0.60794574,0.2911451,-2.8625066,-26.79375,36.131252,21.993752,0.043764863,-0.65438753,0.42934242,1001.90234, , , , 
2025-11-24 19:24:59.526,7.7258263,-7.089036,2.4107687,0.5981722,0.5250996,-2.8588414,-28.5375,34.818752,22.03125,0.06408848,-0.6475848,0.41634157,1001.90234, , , , 
2025-11-24 19:24:59.546,7.2469625,-6.7704916,2.260021,0.5480827,0.65521,-2.8509004,-30.69375,33.1875,21.618752,0.083141044,-0.63931364,0.40289205,1001.896, , , , 
2025-11-24 19:24:59.566,6.906883,-6.9212394,2.1355941,0.5505261,0.6826982,-2.8429594,-33.05625,31.612501,21.0375,0.101324864,-0.6301237,0.38889748,1001.896, , , , 
2025-11-24 19:24:59.586,6.468996,-6.9882383,2.0925233,0.6183301,0.6319978,-2.721401,-35.081253,29.437502,20.2875,0.11901945,-0.6205701,0.37495106,1001.8911, , , , 
2025-11-24 19:24:59.606,6.0427747,-6.626922,1.879263,0.722785,0.49516806,-2.5320382,-36.91875,27.112501,19.462502,0.13630342,-0.6110932,0.36216247,1001.8911, , , , 
2025-11-24 19:24:59.626,5.6739807,-6.171987,1.5418751,0.7740962,0.36566845,-2.340843,-38.362503,25.2,18.6375,0.15345156,-0.6021789,0.35080978,1001.8933, , , , 
2025-11-24 19:24:59.646,5.1472607,-5.9063835,1.1730813,0.75577074,0.24533153,-2.149648,-39.65625,23.268751,18.056252,0.17009571,-0.594054,0.340588,1001.8933, , , , 
2025-11-24 19:24:59.666,4.5535417,-5.7744794,0.98644114,0.6885776,0.1182753,-1.9186713,-40.95,21.487501,17.400002,0.18559015,-0.5870271,0.33128172,1001.8828, , , , 
2025-11-24 19:24:59.686,4.2185464,-5.9231334,1.0582259,0.59939384,-0.03321482,-1.6144693,-42.24375,20.19375,16.5375,0.20259094,-0.58033115,0.32107,1001.8828, , , , 
2025-11-24 19:24:59.706,4.2281175,-6.133702,1.230509,0.6256603,-0.12545276,-1.2992721,-43.36875,18.84375,15.918751,0.2114122,-0.57737386,0.31600216,1001.8823, , , , 
2025-11-24 19:24:59.727,4.290331,-6.3921266,0.7516454,0.68979925,-0.19753273,-1.0048437,-44.2125,17.081251,15.58125,0.22197387,-0.5743921,0.31131485,1001.8823, , , , 
2025-11-24 19:24:59.746,4.1727834,-6.617351,-0.1794617,0.6012264,-0.24273543,-0.58885676,-44.71875,16.125,15.562501,0.23291646,-0.57239276,0.30908883,1001.8777, , , , 
2025-11-24 19:24:59.766,4.0962133,-6.6221366,-0.5769694,0.3660502,-0.2696127,-0.1563769,-44.775,15.31875,15.806251,0.23807485,-0.57268703,0.3096692,1001.8777, , , , 
2025-11-24 19:24:59.787,4.26401,-6.524031,-0.5243273,0.13087402,-0.25189814,0.3310792,-44.98125,14.587501,15.6,0.23886652,-0.5748878,0.31215742,1001.87646, , , , 
2025-11-24 19:24:59.806,5.2716875,-6.751349,-0.5458627,-0.051769305,-0.21585815,0.76241374,-44.850002,14.812501,15.543751,0.23536925,-0.5785636,0.31683335,1001.87646, , , , 
2025-11-24 19:24:59.826,6.413662,-7.838289,-0.9385847,-0.28083703,-0.22746424,1.0843302,-44.68125,15.13125,15.31875,0.2284137,-0.583658,0.3230711,1001.876, , , , 
2025-11-24 19:24:59.846,6.9906316,-8.721839,-1.1467602,-0.63573927,-0.24456798,1.4459518,-44.550003,15.675,15.337501,0.21745722,-0.5905584,0.33010033,1001.876, , , , 
2025-11-24 19:24:59.866,7.0746794,-8.724232,-0.32333016,-1.0206494,-0.23601611,1.8704907,-44.23125,16.48125,16.10625,0.20134896,-0.5994701,0.3376136,1001.8816, , , , 
2025-11-24 19:24:59.886,7.242177,-8.027322,1.1563315,-1.1605334,-0.25983915,2.2400532,-44.025,17.1375,16.06875,0.1859838,-0.6070766,0.34375542,1001.8816, , , , 
2025-11-24 19:24:59.906,8.496614,-7.8239317,2.3772693,-0.9491803,-0.3264215,2.5473094,-43.162502,18.6,16.987501,0.15778252,-0.62001055,0.35605788,1001.87915, , , , 
2025-11-24 19:24:59.927,10.186844,-8.532506,2.0231316,-0.6455128,-0.3184805,2.6316063,-42.393753,19.837502,17.962502,0.13603894,-0.62905973,0.36858794,1001.87915, , , , 
2025-11-24 19:24:59.946,11.137393,-9.080762,1.0773684,-0.5202891,-0.2696127,2.621222,-41.100002,21.431252,18.69375,0.11583948,-0.63664895,0.3825613,1001.88525,37.88752718,127.74042034,142.33074951171875,1.31
2025-11-24 19:24:59.966,11.32164,-8.992228,0.34965122,-0.66383827,-0.21707985,2.6083941,-39.7125,23.23125,19.612501,0.09579609,-0.6435637,0.39630395,1001.88525, , , , 
2025-11-24 19:24:59.986,10.687243,-8.024929,0.5267201,-0.9687274,-0.124841906,2.6218328,-38.381252,25.087502,20.1375,0.07431429,-0.6505563,0.40822673,1001.8911, , , , 
2025-11-24 19:25:00.006,10.349556,-6.799206,1.4222339,-1.206347,0.054747187,2.6163352,-36.881252,26.625002,20.643751,0.05056918,-0.6571323,0.41802958,1001.8911, , , , 
2025-11-24 19:25:00.026,10.294521,-5.791229,2.0518453,-1.2753727,0.34245625,2.516767,-35.49375,28.331251,21.375,0.025450908,-0.66205347,0.4260751,1001.89136, , , , 
2025-11-24 19:25:00.046,10.016953,-4.8026943,2.2456641,-1.2179531,0.6326087,2.2822018,-33.84375,29.737501,21.900002,3.571816E-4,-0.66450024,0.432655,1001.89136, , , , 
2025-11-24 19:25:00.066,9.585947,-4.345366,2.085345,-1.178248,0.7205707,2.0445821,-32.2125,30.862501,22.81875,-0.023555066,-0.6651011,0.43761313,1001.88965, , , , 
2025-11-24 19:25:00.086,8.831908,-4.167998,1.9055841,-1.1574792,0.6118399,1.7770311,-30.956251,32.456253,23.04375,-0.04556786,-0.6653277,0.44071537,1001.88965, , , , 
2025-11-24 19:25:00.106,8.367402,-4.191926,2.0111675,-1.1110548,0.41209283,1.6450881,-29.79375,33.206253,22.9125,-0.06566251,-0.666104,0.44258264,1001.88525, , , , 
2025-11-24 19:25:00.126,8.180761,-4.112963,2.1738794,-1.0524135,0.2538834,1.6004962,-29.2875,33.693752,23.53125,-0.083972536,-0.66750014,0.4442249,1001.88525, , , , 
2025-11-24 19:25:00.146,8.274081,-3.8760736,2.4825535,-0.95406705,0.16714308,1.5943877,-28.575,34.143753,23.493752,-0.10101024,-0.669065,0.4462089,1001.8943, , , , 
2025-11-24 19:25:00.166,8.415258,-3.5838501,2.5208387,-0.8850413,0.15798037,1.5711755,-27.468752,34.3125,24.2625,-0.116935305,-0.6702517,0.44875404,1001.8943, , , , 
2025-11-24 19:25:00.186,8.7577305,-3.3326037,2.691028,-0.8086854,0.22578442,1.4709965,-26.400002,34.443752,25.0125,-0.13195533,-0.67087185,0.45126694,1001.9038, , , , 
2025-11-24 19:25:00.206,8.9108715,-3.1363924,2.8298118,-0.6571189,0.2679329,1.3579898,-25.25625,34.987503,25.462502,-0.14587685,-0.67063963,0.45355526,1001.9038, , , , 
2025-11-24 19:25:00.226,9.29163,-3.1052856,2.5905297,-0.47508645,0.32779592,1.2291011,-24.206251,35.325,26.175001,-0.15809816,-0.6694053,0.45613322,1001.91016, , , , 
2025-11-24 19:25:00.246,9.629018,-3.2368908,2.1188445,-0.40789327,0.37788537,1.0800543,-23.5125,35.737503,26.343752,-0.168742,-0.6674088,0.45869532,1001.91016, , , , 
2025-11-24 19:25:00.266,10.0265255,-3.6173496,2.0518453,-0.396898,0.3974325,0.89557844,-22.63125,36.300003,26.400002,-0.18039557,-0.6648101,0.46062917,1001.905, , , , 
2025-11-24 19:25:00.287,10.5125675,-4.1201415,2.1427727,-0.37307495,0.29969692,0.74592084,-22.0125,36.54375,26.493752,-0.18648097,-0.6635182,0.4610844,1001.905, , , , 
2025-11-24 19:25:00.306,11.223535,-4.886443,2.382055,-0.31565532,0.08040277,0.57427275,-21.375,36.881252,26.5125,-0.19284628,-0.66260403,0.4611954,1001.905, , , , 
2025-11-24 19:25:00.326,12.207582,-5.5926247,2.8345976,-0.24479704,-0.17615308,0.39643988,-20.79375,36.862503,26.831251,-0.19660303,-0.663035,0.46114886,1001.905, , , , 
2025-11-24 19:25:00.346,12.710375,-5.441877,3.5814574,-0.18187977,-0.3160371,0.1783674,-20.34375,36.7125,27.337502,-0.19749294,-0.6646782,0.4610021,1001.90234, , , , 
2025-11-24 19:25:00.366,13.380664,-5.645267,4.158427,-0.09636115,-0.3056527,-0.18569757,-19.81875,36.45,27.487501,-0.19549757,-0.6668657,0.46020398,1001.90234, , , , 
2025-11-24 19:25:00.386,13.8356,-7.007381,4.412365,-0.0022906773,-0.13644801,-0.59924114,-19.725,36.375,27.750002,-0.19021152,-0.66897106,0.45770264,1001.9031, , , , 
2025-11-24 19:25:00.407,12.509079,-7.301997,4.486542,0.31107396,0.35711658,-0.78432786,-19.743752,36.300003,27.6375,-0.18310344,-0.6689469,0.4542575,1001.9031, , , , 
2025-11-24 19:25:00.426,11.508579,-6.093024,3.9813578,0.67025214,0.50921756,-0.8142594,-20.268751,36.506252,27.4125,-0.17421205,-0.66409576,0.45137018,1001.90576, , , , 
2025-11-24 19:25:00.446,11.520544,-5.697909,3.7851462,1.0141592,0.23616882,-1.0109522,-20.962502,36.65625,26.906252,-0.16448537,-0.6592049,0.4502296,1001.90576, , , , 
2025-11-24 19:25:00.466,11.843575,-6.2581286,3.3230324,1.4564126,-0.19203511,-1.3401989,-21.393751,36.7125,26.306252,-0.14916721,-0.6549683,0.45035297,1001.90625, , , , 
2025-11-24 19:25:00.486,12.02543,-7.301997,2.4538395,1.7758857,-0.63428855,-1.7158699,-22.425001,36.65625,25.66875,-0.12718621,-0.6520381,0.45140985,1001.90625, , , , 
2025-11-24 19:25:00.506,12.054143,-8.329117,1.5681962,1.8180342,-0.92383015,-2.0365648,-23.2875,36.65625,24.69375,-0.10004002,-0.6508293,0.45207947,1001.89746, , , , 
2025-11-24 19:25:00.526,11.704791,-8.79123,1.1730813,1.6134003,-1.0179006,-2.2748716,-24.0375,36.6375,24.187502,-0.07068703,-0.6510797,0.45076925,1001.89746, , , , 
2025-11-24 19:25:00.546,11.206785,-9.013762,1.2783655,1.2523896,-0.9134457,-2.4630125,-25.031252,36.506252,23.456251,-0.041648116,-0.6522219,0.44635203,1001.8862, , , , 
2025-11-24 19:25:00.567,10.713564,-8.896515,1.785943,0.9585721,-0.6776587,-2.5619698,-26.1375,36.300003,22.7625,-0.021278331,-0.6529743,0.4408777,1001.8862, , , , 
2025-11-24 19:25:00.586,9.803694,-8.326724,2.5136602,0.750884,-0.28915983,-2.6535969,-27.35625,35.68125,22.40625,0.009480126,-0.6523979,0.4285545,1001.8904, , , , 
2025-11-24 19:25:00.606,9.032906,-7.6348987,2.9111679,0.80341685,0.046195325,-2.7073514,-28.66875,34.5,21.900002,0.03189679,-0.6490702,0.4172662,1001.8904, , , , 
2025-11-24 19:25:00.626,8.410473,-7.050751,2.4155545,0.8840487,0.2838149,-2.7476673,-30.112501,33.43125,21.5625,0.053729102,-0.64306045,0.4059777,1001.8823, , , , 
2025-11-24 19:25:00.646,7.996215,-6.748956,1.8361923,0.88099444,0.46645823,-2.7934809,-31.63125,32.1375,21.056252,0.075166635,-0.635212,0.39441842,1001.8823, , , , 
2025-11-24 19:25:00.667,7.2565336,-6.430412,1.3956138,0.8217423,0.64238226,-2.8111954,-33.45,30.6,20.493752,0.0957578,-0.6259199,0.3822542,1001.8801, , , , 
2025-11-24 19:25:00.687,6.4618177,-6.2174506,1.1204392,0.7288935,0.66437274,-2.769047,-35.381252,29.1,20.081251,0.11521157,-0.61581314,0.3694995,1001.8801, , , , 
2025-11-24 19:25:00.706,5.748158,-6.018846,1.1371889,0.6488725,0.6106182,-2.6743658,-37.21875,27.468752,19.29375,0.13339283,-0.605853,0.3562869,1001.8799, , , , 
2025-11-24 19:25:00.726,5.111368,-5.7744794,1.2640085,0.6232169,0.50066566,-2.464234,-38.925003,25.48125,18.375,0.15024546,-0.5964977,0.34328204,1001.8799, , , , 
2025-11-24 19:25:00.746,4.6396832,-5.508876,1.2496517,0.6647545,0.3791071,-2.2266147,-40.55625,23.6625,17.587502,0.1660277,-0.587802,0.33136287,1001.87573, , , , 
2025-11-24 19:25:00.767,4.314259,-5.2310095,1.0390832,0.6940752,0.22334103,-1.9699824,-42.018753,21.975,16.6875,0.18099882,-0.5800867,0.32104048,1001.87573, , , , 
2025-11-24 19:25:00.786,4.1440697,-5.0659046,0.77796644,0.6562027,0.09933904,-1.6981554,-43.21875,19.837502,16.2,0.19498333,-0.57372105,0.31231993,1001.8721, , , , 
2025-11-24 19:25:00.806,4.156034,-5.195117,0.55064833,0.54502845,0.06513159,-1.4232742,-44.081253,18.225,15.69375,0.20722157,-0.5685625,0.30506885,1001.8721, , , , 
2025-11-24 19:25:00.826,4.1464624,-5.3940206,0.45972106,0.43263257,0.055358034,-1.1123528,-44.8875,16.6875,15.3,0.2169384,-0.56438357,0.29921538,1001.8733, , , , 
2025-11-24 19:25:00.846,4.2711883,-5.7026944,0.2632105,0.35077903,-0.029549737,-0.7635591,-45.54375,15.225,14.7375,0.22408351,-0.5614897,0.29505232,1001.8733, , , , 
2025-11-24 19:25:00.866,4.699504,-6.183951,0.011964113,0.23838314,-0.17370969,-0.40254834,-46.162502,14.175,14.512501,0.22886026,-0.56056833,0.29279718,1001.8718, , , , 
2025-11-24 19:25:00.886,4.872086,-6.552745,-0.086141616,0.122322164,-0.29038152,-0.05986303,-46.331253,13.6125,14.531251,0.23103112,-0.5619633,0.29234827,1001.8718, , , , 
2025-11-24 19:25:00.906,4.9007998,-6.5407805,-0.06699903,-0.0645971,-0.34474692,0.45080528,-46.275,12.731251,14.906251,0.22999685,-0.5655355,0.29400393,1001.8677, , , , 
2025-11-24 19:25:00.926,5.4299126,-6.363413,-0.031106694,-0.1885991,-0.2989334,0.92001235,-46.143753,12.76875,15.243751,0.22512104,-0.5705019,0.29820526,1001.8677, , , , 
2025-11-24 19:25:00.946,6.780063,-7.440781,-0.79950184,-0.37246412,-0.35024455,1.2229925,-45.787502,13.106251,15.075001,0.21708277,-0.57661635,0.30468842,1001.8655,37.88753755,127.74042772,142.37921142578125,1.27
2025-11-24 19:25:00.966,7.2206416,-8.436793,-1.0797613,-0.74698985,-0.3936147,1.5846142,-45.7125,13.387501,15.20625,0.20566837,-0.5846594,0.31194475,1001.8655, , , , 
2025-11-24 19:25:00.986,7.9340014,-8.941978,-0.41904306,-1.166031,-0.49135026,1.9944927,-45.3375,14.26875,15.39375,0.18905509,-0.5950686,0.319663,1001.8696, , , , 
2025-11-24 19:25:01.006,8.0345,-8.530113,1.407877,-1.3981531,-0.5536567,2.4416327,-44.7,15.4875,15.431251,0.16163318,-0.6107849,0.3295332,1001.8696, , , , 
2025-11-24 19:25:01.026,8.779266,-8.180761,2.4586253,-1.2936982,-0.5341096,2.7415588,-43.875,16.7625,16.25625,0.1428184,-0.6202785,0.33666348,1001.8667, , , , 
2025-11-24 19:25:01.046,10.095917,-8.367402,2.5331018,-1.0047674,-0.45347774,2.9150395,-43.03125,18.45,17.23125,0.111119665,-0.63414305,0.35166276,1001.8667, , , , 
2025-11-24 19:25:01.066,10.857134,-8.695218,2.097309,-0.8068529,-0.40155572,2.9504685,-42.018753,20.025002,18.09375,0.092827305,-0.6409807,0.36208704,1001.876, , , , 
2025-11-24 19:25:01.086,11.161322,-8.788837,1.4605191,-0.74576813,-0.45225605,3.0072775,-40.612503,21.6375,19.518751,0.06345114,-0.6509975,0.3803979,1001.876, , , , 
2025-11-24 19:25:01.107,11.22832,-8.087142,1.59691,-0.8074637,-0.5530458,3.093407,-39.3375,23.475,20.456251,0.04002271,-0.6589367,0.3950188,1001.8811, , , , 
2025-11-24 19:25:01.126,11.55165,-7.065108,2.1164517,-0.8276217,-0.57809055,3.0585885,-37.612503,25.3875,21.1875,0.01667846,-0.66672194,0.40893656,1001.8811, , , , 
2025-11-24 19:25:01.146,11.496316,-5.9327044,2.4586253,-0.8587749,-0.41255096,2.8741126,-35.456253,27.768751,22.275002,-0.005736487,-0.67321897,0.42156595,1001.88354, , , , 
2025-11-24 19:25:01.166,11.202,-5.1209397,2.7317061,-0.8966474,-0.13522631,2.5821278,-33.506252,29.531252,23.15625,-0.02725405,-0.6778185,0.4320648,1001.88354, , , , 
2025-11-24 19:25:01.186,10.591531,-4.4243293,2.935096,-0.9168054,0.1414875,2.240664,-31.406252,31.44375,23.94375,-0.04770764,-0.6804218,0.4399722,1001.89453, , , , 
2025-11-24 19:25:01.206,9.947562,-4.034,3.2009985,-0.8935932,0.39010233,1.9364622,-29.362501,32.8125,24.750002,-0.067085415,-0.68129015,0.44551346,1001.89453, , , , 
2025-11-24 19:25:01.226,9.435199,-3.6559339,3.1459637,-0.7157603,0.5531986,1.7055619,-27.806252,33.28125,25.10625,-0.085139185,-0.68030334,0.44976124,1001.8911, , , , 
2025-11-24 19:25:01.246,8.831908,-3.234498,2.4275186,-0.58076304,0.69247174,1.5265837,-26.718752,34.068752,25.25625,-0.10137067,-0.6777492,0.4537407,1001.8911, , , , 
2025-11-24 19:25:01.266,8.266903,-2.7412775,1.8912272,-0.62718743,0.8360208,1.417242,-25.66875,34.3125,25.687502,-0.116940446,-0.67430747,0.45696124,1001.8989, , , , 
2025-11-24 19:25:01.286,8.202297,-2.6455646,1.867299,-0.71759284,0.8818344,1.3457729,-25.031252,34.875,25.5375,-0.13286625,-0.67073596,0.45875883,1001.8989, , , , 
2025-11-24 19:25:01.307,8.743374,-2.8585258,2.1355941,-0.65956235,0.7810446,1.285299,-24.150002,35.25,25.406252,-0.1485285,-0.6672784,0.4597223,1001.8943, , , , 
2025-11-24 19:25:01.326,9.238688,-2.9949167,2.1379871,-0.51112646,0.5269321,1.1631296,-23.362501,35.850002,25.44375,-0.16221395,-0.6641905,0.46087363,1001.8943, , , , 
2025-11-24 19:25:01.346,9.722338,-3.234498,2.111666,-0.381016,0.22883865,1.005531,-22.5375,36.225002,25.500002,-0.17271294,-0.6622545,0.46243876,1001.8972, , , , 
2025-11-24 19:25:01.366,10.071989,-3.4977086,2.152344,-0.31565532,0.038865156,0.86076015,-21.956251,36.487503,25.800001,-0.18027273,-0.66150975,0.46426168,1001.8972, , , , 
2025-11-24 19:25:01.386,10.500603,-3.7277186,2.4131618,-0.26190075,-0.064978875,0.7495859,-21.768751,36.768753,26.118752,-0.18461256,-0.6614501,0.4655979,1001.9016, , , , 
2025-11-24 19:25:01.406,11.345569,-4.24726,2.7891338,-0.11285403,-0.19264595,0.5528931,-21.09375,37.03125,26.531252,-0.18931386,-0.6618609,0.46776375,1001.9016, , , , 
2025-11-24 19:25:01.426,12.231511,-4.936692,2.96381,0.042301174,-0.34902287,0.34085277,-20.8875,37.2,26.531252,-0.19029745,-0.6624491,0.46959883,1001.90137, , , , 
2025-11-24 19:25:01.446,12.660126,-5.3147583,3.3900316,0.22433366,-0.5463265,0.08674031,-20.23125,37.29375,26.6625,-0.18798691,-0.6637178,0.47143033,1001.90137, , , , 
2025-11-24 19:25:01.466,13.016656,-5.372485,3.6894333,0.49066305,-0.6978166,-0.22723518,-19.725,37.275,26.531252,-0.18184324,-0.6653097,0.4736288,1001.897, , , , 
2025-11-24 19:25:01.486,13.509876,-6.468996,3.2129626,0.65864605,-0.7259156,-0.71041536,-19.44375,37.48125,26.531252,-0.17095822,-0.6670849,0.47560665,1001.897, , , , 
2025-11-24 19:25:01.506,12.444472,-6.930811,2.8178477,0.6891884,-0.37223506,-1.0024004,-19.21875,37.612503,26.362501,-0.15679541,-0.6685991,0.47606745,1001.90576, , , , 
2025-11-24 19:25:01.526,11.268998,-6.2294145,2.1619153,0.6281037,0.12377293,-1.0048437,-19.181252,37.65,26.081251,-0.14385365,-0.6676879,0.47538367,1001.90576, , , , 
2025-11-24 19:25:01.546,11.225927,-5.9350977,2.2863421,0.5676298,0.08712209,-1.1416736,-19.556252,37.59375,25.987501,-0.13314459,-0.6655265,0.4729221,1001.90674, , , , 
2025-11-24 19:25:01.566,11.795718,-6.897311,2.5666013,0.6769715,-0.34474692,-1.4342693,-20.1375,37.59375,25.893751,-0.12061456,-0.6645638,0.4690321,1001.90674, , , , 
2025-11-24 19:25:01.586,12.044572,-8.427222,2.7364917,0.838846,-0.9262735,-1.7708462,-20.85,37.331253,25.85625,-0.103100345,-0.66598994,0.46454886,1001.9026, , , , 
2025-11-24 19:25:01.606,11.566008,-9.111869,2.908775,0.9304731,-1.3758571,-1.9748691,-21.88125,37.3125,25.500002,-0.08047196,-0.6698547,0.45998985,1001.9026, , , , 
2025-11-24 19:25:01.626,10.953146,-9.047262,3.1914272,0.8718318,-1.5066547,-2.0445058,-22.7625,36.956253,24.993752,-0.055013344,-0.67512953,0.4554029,1001.9094, , , , 
2025-11-24 19:25:01.647,10.739885,-8.613862,3.7827535,0.750884,-1.3190483,-2.1392634,-23.456251,36.600002,24.73125,-0.023059774,-0.68134373,0.44858694,1001.9094, , , , 
2025-11-24 19:25:01.666,10.675279,-8.319545,4.2448673,0.69468606,-0.9757521,-2.2962513,-24.243752,36.28125,24.656252,-0.0044522616,-0.6837797,0.44342637,1001.90015, , , , 
2025-11-24 19:25:01.686,10.258629,-7.9483585,4.1464624,0.7056813,-0.47668993,-2.5143237,-25.181252,35.41875,24.750002,0.019677058,-0.6843072,0.43527597,1001.90015, , , , 
2025-11-24 19:25:01.706,9.255438,-7.534101,3.8330028,0.7380562,0.028480753,-2.7287312,-26.23125,34.8375,24.900002,0.048651107,-0.6801,0.42318067,1001.90137, , , , 
2025-11-24 19:25:01.726,8.544471,-7.325926,3.3756745,0.7521057,0.34306708,-2.833186,-27.675001,33.54375,24.6,0.07087666,-0.67357934,0.41245845,1001.90137, , , , 
2025-11-24 19:25:01.746,8.084749,-7.184749,3.0403802,0.8156338,0.5678589,-2.8826647,-29.343752,32.325,24.112501,0.08702036,-0.6671782,0.40407434,1001.90234, , , , 
2025-11-24 19:25:01.766,7.4048886,-6.923632,2.449054,0.83945686,0.6820873,-2.9003792,-30.937502,31.406252,23.56875,0.1133449,-0.6543351,0.38997242,1001.90234, , , , 
2025-11-24 19:25:01.787,6.7633133,-6.751349,2.204986,0.80036265,0.7077429,-2.8899946,-32.775,29.8875,23.00625,0.12876989,-0.6459295,0.38124147,1001.90405, , , , 
2025-11-24 19:25:01.806,5.8654065,-6.483353,2.2265215,0.7545491,0.69552594,-2.7714903,-34.575,28.66875,22.425001,0.15321642,-0.6316252,0.366368,1001.90405, , , , 
2025-11-24 19:25:01.826,5.1999025,-6.2724853,2.5546372,0.7857023,0.6277219,-2.585182,-36.225002,27.243752,21.75,0.17140284,-0.6202308,0.35496718,1001.89185, , , , 
2025-11-24 19:25:01.846,4.840979,-6.0212393,2.7556343,0.9616263,0.47317755,-2.3390105,-37.93125,25.237501,21.0,0.18890738,-0.6092243,0.34508008,1001.89185, , , , 
2025-11-24 19:25:01.866,4.761717,-5.8414783,2.4299114,1.1656493,0.27648473,-2.1098664,-39.3375,23.456251,20.081251,0.20682818,-0.5989371,0.3374346,1001.876, , , , 
2025-11-24 19:25:01.886,4.6612186,-5.72423,1.8601205,1.2297883,0.16775393,-1.9333316,-39.9375,22.59375,19.650002,0.2205475,-0.591755,0.33304426,1001.876, , , , 
2025-11-24 19:25:01.906,4.354937,-5.7026944,1.4102699,1.1393828,0.079791926,-1.7042638,-41.90625,20.025002,18.487501,0.24236631,-0.58093536,0.32720554,1001.8718, , , , 
2025-11-24 19:25:01.926,3.9119658,-5.8079786,1.4581263,1.0172133,0.02481567,-1.4409887,-42.9,18.375,17.56875,0.2576203,-0.57362,0.32338,1001.8718, , , , 
2025-11-24 19:25:01.946,3.6317065,-6.0690956,1.6878372,1.0123266,-0.036879905,-1.0463814,-43.537502,17.25,16.743752,0.2703523,-0.5676695,0.32113218,1001.8657,37.88754734,127.74043798,142.3101806640625,1.39
2025-11-24 19:25:01.966,3.8425741,-6.5072813,1.4509479,1.1540432,-0.16271444,-0.5858025,-44.193752,16.3125,16.21875,0.28117013,-0.5633512,0.32190028,1001.8657, , , , 
2025-11-24 19:25:01.986,3.92393,-6.631708,0.6511469,1.2242906,-0.27511033,-0.09773556,-44.325,15.468751,15.731251,0.29055884,-0.56088954,0.3264103,1001.86426, , , , 
2025-11-24 19:25:02.006,4.0148573,-6.495317,-0.014356935,1.1351069,-0.3496337,0.43858832,-44.4375,15.3,15.750001,0.2974672,-0.5605714,0.3343071,1001.86426, , , , 
2025-11-24 19:25:02.026,4.874479,-6.873383,-0.3687938,0.9891144,-0.34719032,0.98231876,-44.9625,15.31875,15.918751,0.3006043,-0.56243396,0.34518766,1001.8574, , , , 
2025-11-24 19:25:02.047,5.7577295,-7.740183,-0.7396813,0.8559497,-0.3172588,1.5314704,-44.98125,15.8625,15.712501,0.29963538,-0.5663047,0.3589238,1001.8574, , , , 
2025-11-24 19:25:02.066,7.144071,-8.314759,-1.3094722,0.735002,-0.34108183,2.1808012,-44.49375,16.59375,15.69375,0.29424432,-0.57207936,0.37593472,1001.86426, , , , 
2025-11-24 19:25:02.086,7.9770727,-8.443972,-1.785943,0.5132644,-0.5188384,2.60534,-43.96875,17.79375,15.4875,0.28544465,-0.5802775,0.39501557,1001.86426, , , , 
2025-11-24 19:25:02.106,8.968299,-8.036893,-1.3908281,0.24265908,-0.7454627,2.9663506,-42.91875,19.518751,15.225,0.27348998,-0.5914484,0.41426173,1001.86523, , , , 
2025-11-24 19:25:02.126,10.320843,-7.6492558,-0.39032918,0.17607673,-0.9262735,3.1416638,-41.850002,21.5625,15.750001,0.2591399,-0.6048543,0.4328583,1001.86523, , , , 
2025-11-24 19:25:02.146,11.345569,-7.550851,0.0741775,0.30435464,-1.0179006,3.1062346,-40.65,24.075,15.937501,0.24474669,-0.6183583,0.45092702,1001.8623, , , , 
2025-11-24 19:25:02.166,11.489138,-7.495816,-0.38315073,0.39048412,-1.004462,3.0036123,-39.075,26.6625,16.5375,0.23174801,-0.630439,0.46869007,1001.8623, , , , 
2025-11-24 19:25:02.186,10.945967,-7.0579295,-0.933799,0.2780882,-0.92688435,2.9742916,-36.99375,29.00625,17.306252,0.21927984,-0.64130974,0.48574573,1001.874, , , , 
2025-11-24 19:25:02.206,10.677672,-6.212665,-0.72053874,0.012980504,-0.8303705,2.960853,-34.65,31.10625,17.625,0.20562755,-0.65183127,0.50127685,1001.874, , , , 
2025-11-24 19:25:02.227,10.639387,-5.4179487,-0.040677983,-0.28022617,-0.612298,2.849068,-32.381252,33.037502,18.150002,0.18630037,-0.664613,0.5174425,1001.87573, , , , 
2025-11-24 19:25:02.246,10.613066,-5.0587263,0.4621139,-0.4640912,-0.36612657,2.6835284,-30.000002,34.987503,18.487501,0.17359062,-0.67149955,0.5254185,1001.87573, , , , 
2025-11-24 19:25:02.266,10.3017,-4.9510493,1.0725827,-0.5667136,-0.17248799,2.464845,-27.7875,36.61875,18.862501,0.15592158,-0.6795971,0.5340127,1001.8872, , , , 
2025-11-24 19:25:02.286,9.753445,-5.037191,1.2903296,-0.5679352,-0.09491039,2.3377888,-25.518751,38.2125,19.3875,0.13814998,-0.6864377,0.54118377,1001.8872, , , , 
2025-11-24 19:25:02.306,9.382557,-5.1999025,1.4796617,-0.55632913,-0.08758023,2.3353455,-23.175001,39.600002,20.00625,0.12056148,-0.69262016,0.54770887,1001.8926, , , , 
2025-11-24 19:25:02.327,9.344272,-5.0132627,1.8146569,-0.47081053,-0.10468395,2.4239182,-20.75625,40.65,20.6625,0.10264301,-0.6982052,0.5543695,1001.8926, , , , 
2025-11-24 19:25:02.347,9.808479,-4.599005,1.9223338,-0.24235365,-0.2060846,2.4996634,-18.54375,41.49375,21.243752,0.08056787,-0.7038872,0.5639294,1001.9031, , , , 
2025-11-24 19:25:02.366,10.244272,-4.1297126,1.8170497,-0.045049984,-0.2812188,2.4984417,-16.237501,41.90625,21.7875,0.06831564,-0.706326,0.5705551,1001.9031, , , , 
2025-11-24 19:25:02.386,10.718349,-3.6655052,1.6160526,0.14309096,-0.34535778,2.4514065,-15.13125,42.018753,22.10625,0.05351879,-0.70840883,0.5802439,1001.9009, , , , 
2025-11-24 19:25:02.406,11.259427,-3.071487,1.352543,0.37521294,-0.51700586,2.252881,-12.075001,42.75,22.275002,0.03833758,-0.7093582,0.59300673,1001.9009, , , , 
2025-11-24 19:25:02.426,11.838789,-2.9135606,1.1491531,0.5315898,-0.68132377,2.013429,-9.88125,43.443752,22.29375,0.029796999,-0.7092649,0.6032049,1001.9055, , , , 
2025-11-24 19:25:02.446,12.446865,-2.6431718,0.74446696,0.5896203,-0.73813254,1.6835715,-7.8187504,44.081253,21.73125,0.024762778,-0.70856446,0.6128962,1001.9055, , , , 
2025-11-24 19:25:02.466,12.906587,-2.3581266,0.6583253,0.4845546,-0.76684237,1.2119973,-5.8125,44.625,21.4125,0.023027088,-0.70795673,0.6207179,1001.90674, , , , 
2025-11-24 19:25:02.486,12.892229,-2.4155545,0.8883354,0.30679804,-0.7527929,0.6457419,-3.9375002,45.45,20.775002,0.024845729,-0.70807374,0.62560284,1001.90674, , , , 
2025-11-24 19:25:02.507,12.626626,-2.5953152,1.4174483,0.13453911,-0.71980715,0.059252184,-2.53125,45.787502,20.212502,0.029921884,-0.7089222,0.62738264,1001.9131, , , , 
2025-11-24 19:25:02.526,12.181262,-3.2368908,2.1164517,0.044744562,-0.7998281,-0.459968,-1.63125,45.881252,20.0625,0.036090888,-0.710001,0.62676644,1001.9131, , , , 
2025-11-24 19:25:02.546,11.331212,-4.1632123,2.896811,0.06490252,-0.90733725,-0.9474241,-1.1812501,46.068752,19.48125,0.051161334,-0.7119661,0.62347233,1001.9126, , , , 
2025-11-24 19:25:02.566,10.972288,-5.061119,3.3206396,0.07345438,-0.89206606,-1.2552911,-0.8625,46.068752,19.5,0.06627116,-0.7130186,0.6198948,1001.9126, , , , 
2025-11-24 19:25:02.587,10.8714905,-6.5431733,3.638885,0.024586603,-0.77905935,-1.5662124,-0.73125005,46.0875,19.462502,0.08307043,-0.71354306,0.6152275,1001.91113, , , , 
2025-11-24 19:25:02.607,10.220344,-7.811968,4.0890346,0.045966256,-0.47668993,-1.6419574,-1.40625,46.425003,19.3125,0.09967662,-0.7129703,0.61005306,1001.91113, , , , 
2025-11-24 19:25:02.627,10.36152,-9.274879,4.28076,0.12598725,-0.45531029,-1.5289507,-2.2687502,46.350002,19.35,0.11417147,-0.71126455,0.6054691,1001.90454, , , , 
2025-11-24 19:25:02.647,10.596316,-10.04806,5.1879387,0.4008685,-0.84136575,-1.2265813,-3.2062502,46.21875,19.368752,0.12815003,-0.7095205,0.60189134,1001.90454, , , , 
2025-11-24 19:25:02.666,11.292927,-9.226724,5.899205,0.8376243,-1.2866734,-1.0304993,-4.5,46.21875,19.181252,0.14327401,-0.7070835,0.6012374,1001.9021, , , , 
2025-11-24 19:25:02.686,12.334402,-8.460722,5.9733825,1.3165286,-1.7589347,-1.1764919,-5.49375,45.956253,18.993752,0.16311263,-0.7031115,0.6032459,1001.9021, , , , 
2025-11-24 19:25:02.706,13.100405,-8.487042,5.465805,1.5853014,-1.8108567,-1.6706673,-6.0750003,46.068752,18.69375,0.1886759,-0.69671637,0.60624874,1001.90283, , , , 
2025-11-24 19:25:02.726,12.751053,-8.937193,4.9342995,1.5168865,-1.4889402,-2.2064567,-6.99375,46.425003,17.925001,0.21778432,-0.68762845,0.6082843,1001.90283, , , , 
2025-11-24 19:25:02.747,11.738291,-8.944371,4.88405,1.3324106,-0.98247147,-2.580906,-7.74375,46.443752,16.612501,0.24717794,-0.67636806,0.60828954,1001.9033, , , , 
2025-11-24 19:25:02.767,10.914561,-8.5349,4.682754,1.2597197,-0.48035502,-2.8026435,-8.90625,46.818752,15.468751,0.27424648,-0.66283745,0.60718566,1001.9033, , , , 
2025-11-24 19:25:02.787,9.863813,-8.008179,4.587041,1.2114629,-0.019165333,-3.0750813,-11.15625,46.65,14.26875,0.29907814,-0.6469112,0.60538244,1001.89404, , , , 
2025-11-24 19:25:02.806,9.284451,-7.9651084,4.4554358,1.2896513,0.2398339,-3.260168,-13.425,45.99375,13.012501,0.3224708,-0.62864184,0.6031427,1001.89404, , , , 
2025-11-24 19:25:02.826,8.999406,-8.367402,4.199105,1.4643536,0.35467318,-3.3994412,-15.918751,45.15,12.20625,0.3453388,-0.6079793,0.60078084,1001.8904, , , , 
2025-11-24 19:25:02.846,8.733803,-8.922835,3.6005998,1.6372234,0.3870481,-3.488625,-18.581251,44.15625,10.743751,0.36841652,-0.5850325,0.5984965,1001.8904, , , , 
2025-11-24 19:25:02.867,7.888538,-9.219545,2.96381,1.7086926,0.38888064,-3.500842,-21.0375,43.350002,9.337501,0.39749977,-0.5541752,0.5952283,1001.89307, , , , 
2025-11-24 19:25:02.887,7.0603223,-9.1669035,2.461018,1.6506621,0.43713757,-3.4067714,-22.48125,42.73125,8.681251,0.41423762,-0.5352542,0.592994,1001.89307, , , , 
2025-11-24 19:25:02.906,5.7984076,-8.542078,2.14038,1.4093773,0.5757999,-3.1056237,-26.98125,41.04375,6.43125,0.43408248,-0.51066273,0.589842,1001.88477, , , , 
2025-11-24 19:25:02.927,5.0802617,-7.8550386,2.1738794,1.2023001,0.7065212,-2.7507215,-29.79375,39.112503,5.1375003,0.45001876,-0.48766023,0.5868762,1001.88477, , , , 
2025-11-24 19:25:02.946,4.8194437,-7.2996044,2.2911277,1.0636377,0.8048676,-2.3823807,-32.025,36.975002,4.0125003,0.4621653,-0.46645638,0.5846286,1001.87256,37.88755369,127.74044975,142.5765380859375,1.27
2025-11-24 19:25:02.967,4.8433723,-6.7585278,2.3844478,1.0514208,0.8537354,-2.0212936,-34.36875,35.11875,2.68125,0.47333434,-0.44205073,0.58331275,1001.87256, , , , 
2025-11-24 19:25:02.987,4.80748,-6.439983,2.3222344,1.1039537,0.80608934,-1.799556,-36.61875,33.16875,1.66875,0.47894195,-0.42821157,0.5833011,1001.8745, , , , 
2025-11-24 19:25:03.006,4.6085763,-6.356234,2.1906292,1.2181821,0.67353547,-1.5546063,-37.987503,31.66875,0.50625,0.48615798,-0.41063341,0.58394146,1001.8745, , , , 
2025-11-24 19:25:03.027,4.436293,-6.818348,1.7237296,1.318361,0.44507858,-1.2406307,-39.525,30.225,-0.82500005,0.49565324,-0.39064366,0.58565855,1001.876, , , , 
2025-11-24 19:25:03.047,4.139284,-7.199106,1.2879368,1.3372973,0.28992337,-0.8374716,-40.3125,29.04375,-2.1375,0.5031523,-0.37718853,0.58802783,1001.876, , , , 
2025-11-24 19:25:03.066,3.8928235,-7.022037,1.0175478,1.3281347,0.13354649,-0.3787253,-40.818752,27.806252,-3.3000002,0.50815016,-0.3691563,0.5907753,1001.875, , , , 
2025-11-24 19:25:03.089,3.8210387,-6.3179493,0.8258229,1.3140851,-0.09918632,0.2895416,-41.30625,27.0375,-4.33125,0.5153803,-0.3604442,0.5971944,1001.875, , , , 
2025-11-24 19:25:03.107,4.057928,-5.951847,0.70618176,1.3336322,-0.15355173,0.6542938,-41.550003,26.587502,-5.2312503,0.51895916,-0.35767123,0.6022527,1001.86743, , , , 
2025-11-24 19:25:03.126,5.2549376,-6.332306,0.02632105,1.3672289,-0.15233004,1.0898279,-41.98125,26.475,-5.925,0.5233242,-0.3556729,0.61309725,1001.86743, , , , 
2025-11-24 19:25:03.146,6.0427747,-7.172785,-0.9912268,1.2737693,-0.14072394,1.4221288,-41.79375,26.625002,-6.7312503,0.52535033,-0.35611826,0.62334543,1001.87134, , , , 
2025-11-24 19:25:03.166,6.815955,-8.072785,-2.2097716,0.902985,-0.19508934,1.7898588,-41.53125,27.000002,-7.4812503,0.5252073,-0.35972205,0.63430935,1001.87134, , , , 
2025-11-24 19:25:03.186,6.914061,-8.673683,-2.1379871,0.24449162,-0.33375168,2.1954615,-40.6875,27.712502,-8.231251,0.52216136,-0.3689481,0.6441773,1001.8723, , , , 
2025-11-24 19:25:03.206,7.1679993,-8.494222,-0.1698904,-0.19592926,-0.38811707,2.7714903,-39.54375,28.575,-8.2875,0.51469505,-0.3849932,0.6529995,1001.8723, , , , 
2025-11-24 19:25:03.226,8.386544,-8.022536,1.5610176,0.019699825,-0.356353,3.266964,-38.268753,30.16875,-8.043751,0.50363475,-0.40443975,0.6626782,1001.876, , , , 
2025-11-24 19:25:03.247,9.597911,-7.656434,1.189831,0.46256408,-0.25495237,3.4929774,-36.975002,31.743752,-7.93125,0.49132732,-0.4220866,0.67481565,1001.876, , , , 
2025-11-24 19:25:03.266,10.220344,-7.6827555,-0.05742774,0.6757498,-0.22868595,3.525963,-35.2125,33.73125,-7.7812505,0.4792543,-0.4368147,0.6881406,1001.88574, , , , 
2025-11-24 19:25:03.286,10.567602,-7.960323,-0.92662054,0.5541912,-0.29465744,3.5558946,-32.8875,35.9625,-7.9687505,0.46725374,-0.4507124,0.70058143,1001.88574, , , , 
2025-11-24 19:25:03.307,10.775778,-7.953144,-0.6798607,0.2921377,-0.472414,3.5760527,-30.4125,37.800003,-8.512501,0.4550167,-0.46591613,0.7105044,1001.8894, , , , 
2025-11-24 19:25:03.326,10.818849,-7.5699935,0.51475596,0.15591876,-0.72408307,3.522909,-27.281252,40.2,-8.793751,0.44314897,-0.4824258,0.71738434,1001.8894, , , , 
2025-11-24 19:25:03.346,10.847563,-7.1560354,1.0606186,0.17485502,-0.7717292,3.446553,-24.4125,42.018753,-9.0375,0.4319792,-0.49838877,0.722397,1001.8894, , , , 
2025-11-24 19:25:03.366,10.814063,-6.710671,1.1922239,0.20173231,-0.55854344,3.2993388,-21.65625,43.443752,-9.262501,0.42061862,-0.51251286,0.7268736,1001.8894, , , , 
2025-11-24 19:25:03.386,10.488639,-6.2365932,1.0055838,0.15286453,-0.35268793,3.1905315,-20.19375,44.381252,-9.46875,0.41130364,-0.5218962,0.7302117,1001.89575, , , , 
2025-11-24 19:25:03.407,10.4001045,-5.915955,0.77318084,-0.06642964,0.020539738,3.0054448,-16.10625,45.975002,-9.46875,0.39381802,-0.5364655,0.73517656,1001.89575, , , , 
2025-11-24 19:25:03.426,10.2682,-5.654838,1.0055838,-0.34925193,0.44996536,2.8686152,-13.312501,46.912502,-9.28125,0.37726676,-0.5482057,0.7383693,1001.8955, , , , 
2025-11-24 19:25:03.446,10.265807,-5.3676996,1.4198412,-0.44698748,0.63321954,2.7818747,-10.40625,47.8875,-9.01875,0.35830858,-0.56032133,0.74092084,1001.8955, , , , 
2025-11-24 19:25:03.467,10.562817,-4.941478,1.6950158,-0.35291702,0.5849626,2.6749766,-7.425,48.35625,-8.775001,0.3386987,-0.5717956,0.7430388,1001.8999, , , , 
2025-11-24 19:25:03.486,10.787742,-4.3334017,1.6447664,-0.20325942,0.41331452,2.5350926,-4.59375,48.787502,-8.1,0.3204101,-0.5815814,0.74491346,1001.8999, , , , 
2025-11-24 19:25:03.507,11.079966,-3.6894333,1.5993029,-0.11346488,0.20257223,2.313355,-2.0812502,48.843754,-7.93125,0.30460644,-0.58957916,0.74636406,1001.90576, , , , 
2025-11-24 19:25:03.526,11.391032,-3.2943187,1.7141583,-0.07925743,0.079791926,1.9902167,0.5625,48.787502,-7.7250004,0.29190117,-0.5959467,0.7471779,1001.90576, , , , 
2025-11-24 19:25:03.547,11.867503,-3.1890345,2.0374885,-0.014507622,-0.06925481,1.5803382,3.0937502,48.862503,-7.1250005,0.28228244,-0.6007175,0.7475391,1001.9075, , , , 
2025-11-24 19:25:03.566,12.257833,-3.5001013,2.0781665,0.10582929,-0.21036053,1.0336299,5.175,49.0875,-7.3125005,0.27669162,-0.6033205,0.74778694,1001.9075, , , , 
2025-11-24 19:25:03.586,12.109477,-3.9000018,1.7261224,0.1473669,-0.2720561,0.4886778,7.14375,49.275,-7.275,0.2753605,-0.60354716,0.7482021,1001.9075, , , , 
2025-11-24 19:25:03.608,11.702398,-4.584648,1.4389837,-0.032222193,-0.30809608,0.010384403,8.4375,49.331253,-7.4062505,0.2776478,-0.6027501,0.7480298,1001.9075, , , , 
2025-11-24 19:25:03.626,11.328819,-5.1903315,1.9872392,-0.2973299,-0.30504185,-0.30847788,9.3,49.237503,-7.8375,0.2824893,-0.60261375,0.74631727,1001.9109, , , , 
2025-11-24 19:25:03.646,11.161322,-5.2836514,2.9853454,-0.4537068,-0.28549474,-0.5589253,9.6,48.881252,-7.8562503,0.28862774,-0.6033162,0.74334913,1001.9109, , , , 
2025-11-24 19:25:03.666,11.625828,-6.332306,3.7061832,-0.476919,-0.24517882,-0.891837,9.712501,48.61875,-7.8187504,0.295979,-0.60374767,0.7399822,1001.90796, , , , 
2025-11-24 19:25:03.686,11.37189,-7.565208,4.304688,-0.29549736,0.01809635,-1.1520579,9.431251,48.750004,-7.65,0.3044899,-0.6026935,0.7371209,1001.90796, , , , 
2025-11-24 19:25:03.707,10.849956,-7.9340014,4.2185464,-0.0132859275,0.20990239,-1.1270132,8.475,48.99375,-7.5937505,0.31281555,-0.59841096,0.73653334,1001.90894, , , , 
2025-11-24 19:25:03.727,11.048859,-8.111071,4.2161536,0.23227467,0.021761434,-1.1209047,7.70625,49.162502,-7.0687504,0.31877053,-0.5932109,0.7375822,1001.90894, , , , 
2025-11-24 19:25:03.747,11.549257,-8.103892,4.4171505,0.56029963,-0.356353,-1.1929847,6.6000004,49.36875,-6.8250003,0.32462153,-0.58800757,0.7387635,1001.9053, , , , 
2025-11-24 19:25:03.766,12.358331,-8.544471,4.261617,1.0178243,-1.0264524,-1.5387243,5.0062504,49.350002,-6.7875004,0.34074876,-0.57513195,0.7410854,1001.9053, , , , 
2025-11-24 19:25:03.786,12.679268,-9.209974,3.6487553,1.2145171,-1.3355411,-1.9308882,3.8625002,49.2,-6.9375005,0.36046782,-0.5607473,0.742477,1001.90845, , , , 
2025-11-24 19:25:03.806,12.449258,-9.334701,3.394817,1.2004676,-1.4045669,-2.3390105,2.1937501,49.3875,-7.8562503,0.37772587,-0.5483884,0.7428419,1001.90845, , , , 
2025-11-24 19:25:03.826,12.032608,-9.456735,3.4019957,1.0532534,-1.2616286,-2.7232335,0.1875,49.331253,-8.8125,0.40860716,-0.52589685,0.7418945,1001.9043, , , , 
2025-11-24 19:25:03.846,11.49871,-9.31795,3.519244,0.93291646,-0.98919076,-3.00911,-1.5937501,49.143753,-9.95625,0.42691845,-0.5115942,0.7406886,1001.9043, , , , 
2025-11-24 19:25:03.866,10.677672,-9.068798,3.4881372,0.8296833,-0.46935976,-3.324918,-3.9750001,48.862503,-10.89375,0.45477724,-0.4861096,0.73882145,1001.9077, , , , 
2025-11-24 19:25:03.886,9.976275,-8.805588,3.394817,0.7844806,-0.03260397,-3.5063396,-5.1937504,48.581253,-11.19375,0.46901223,-0.46970397,0.7383121,1001.9077, , , , 
2025-11-24 19:25:03.907,9.071191,-8.597113,2.7652056,0.82662904,0.39987588,-3.6718793,-9.5625,47.381252,-12.4125,0.48880553,-0.44045138,0.7384124,1001.91675, , , , 
2025-11-24 19:25:03.926,8.549256,-8.510971,2.3078775,0.80769277,0.6857524,-3.7354074,-13.218751,45.862503,-13.218751,0.5014707,-0.4154771,0.7390644,1001.91675, , , , 
2025-11-24 19:25:03.947,7.852646,-8.494222,1.879263,0.75577074,0.8696174,-3.7622845,-16.9125,44.23125,-14.343751,0.509249,-0.396276,0.73952067,1001.91235,37.88756549,127.74044973,143.002197265625,1.4
2025-11-24 19:25:03.966,6.5814586,-8.324331,1.4557334,0.63176876,1.01561,-3.664549,-20.268751,42.675003,-15.262501,0.5193625,-0.36444166,0.73961836,1001.91235, , , , 
2025-11-24 19:25:03.986,5.398806,-7.8143606,1.474876,0.52914643,0.9948411,-3.4141016,-23.325,40.875,-16.575,0.52502245,-0.34049815,0.7388486,1001.8982, , , , 
2025-11-24 19:25:04.006,4.5272202,-7.251748,1.5323038,0.47783527,0.9245937,-3.0237703,-25.556252,39.112503,-17.681252,0.5290826,-0.31874588,0.73745996,1001.8982, , , , 
2025-11-24 19:25:04.026,4.1608195,-6.4423757,1.7715861,0.5358658,0.7804337,-2.5149345,-27.618752,36.975002,-18.431252,0.531851,-0.29941943,0.7360223,1001.8889, , , , 
2025-11-24 19:25:04.047,4.1225343,-5.9470615,1.8290138,0.6336013,0.6210026,-2.229058,-28.556252,35.86875,-19.0125,0.5338006,-0.2861725,0.7349706,1001.8889, , , , 
2025-11-24 19:25:04.066,4.347759,-5.453841,1.8553349,0.83823514,0.31618983,-1.8753011,-30.843752,32.79375,-20.0625,0.53832346,-0.26564667,0.7328828,1001.88794, , , , 
2025-11-24 19:25:04.087,4.426722,-5.3940206,1.5083755,0.97934085,0.13171394,-1.6462333,-32.4,31.125002,-20.8125,0.543419,-0.2500354,0.7309447,1001.88794, , , , 
2025-11-24 19:25:04.107,4.4721856,-5.654838,1.0917253,1.0214894,-0.019165333,-1.4501514,-33.65625,29.475,-21.487501,0.5494711,-0.23524112,0.7288482,1001.8887, , , , 
2025-11-24 19:25:04.126,4.4817567,-6.4423757,0.6128617,0.9848385,-0.124841906,-1.1728268,-34.74375,27.750002,-22.25625,0.5559904,-0.2220527,0.7265675,1001.8887, , , , 
2025-11-24 19:25:04.146,4.412365,-6.942775,0.11485548,0.8645016,-0.1376697,-0.71041536,-35.775,26.362501,-22.48125,0.56178176,-0.21167514,0.7249091,1001.88477, , , , 
2025-11-24 19:25:04.166,4.3788652,-6.9188466,-0.3999005,0.6360447,-0.19386765,-0.17164809,-36.15,25.10625,-22.6875,0.5662263,-0.20538053,0.7243756,1001.88477, , , , 
2025-11-24 19:25:04.186,4.386044,-6.3658056,-0.5027919,0.31901497,-0.20425205,0.39216393,-36.600002,24.31875,-23.175001,0.5690687,-0.2042161,0.7248339,1001.8872, , , , 
2025-11-24 19:25:04.207,4.766503,-5.6524453,-0.14596218,0.05207473,-0.11018158,0.8900808,-36.91875,23.5125,-23.212502,0.5695439,-0.20811749,0.72656226,1001.8872, , , , 
2025-11-24 19:25:04.227,5.6093745,-5.5112686,-0.031106694,-0.068873025,-0.023441264,1.2498698,-37.162502,23.306252,-23.325,0.56756455,-0.21556325,0.72974086,1001.8845, , , , 
2025-11-24 19:25:04.247,6.43759,-6.346663,-0.7492526,-0.22524993,-0.02893889,1.4905437,-37.18125,23.41875,-23.25,0.56428427,-0.22533554,0.7336667,1001.8845, , , , 
2025-11-24 19:25:04.267,6.906883,-6.708278,-1.055833,-0.5599942,-0.1260636,1.7623707,-36.73125,24.056252,-23.118752,0.5600239,-0.23823693,0.73746085,1001.8899, , , , 
2025-11-24 19:25:04.287,7.7665043,-7.5149584,-0.61046886,-0.9436827,-0.32947573,1.9633394,-36.300003,25.1625,-22.81875,0.5552001,-0.25554323,0.739888,1001.8899, , , , 
2025-11-24 19:25:04.307,8.094321,-8.161619,0.37836507,-1.2265049,-0.4259896,2.2229495,-35.550003,26.493752,-22.66875,0.5495724,-0.27706328,0.74074686,1001.89355, , , , 
2025-11-24 19:25:04.327,8.549256,-8.635398,1.462912,-1.3266839,-0.41621605,2.572965,-34.4625,28.06875,-22.10625,0.5421646,-0.30190092,0.7410618,1001.89355, , , , 
2025-11-24 19:25:04.347,9.31795,-8.95155,2.2145574,-1.1593118,-0.3832303,2.9797893,-33.300003,30.243752,-21.150002,0.53001934,-0.33509907,0.7420669,1001.8965, , , , 
2025-11-24 19:25:04.367,10.086346,-8.815159,2.2576282,-0.9119186,-0.36673743,3.257801,-31.968752,32.60625,-20.38125,0.5215581,-0.354842,0.74332774,1001.8965, , , , 
2025-11-24 19:25:04.387,11.135,-8.436793,1.7979071,-0.66994673,-0.39422554,3.4630458,-30.825,33.787502,-19.612501,0.5096084,-0.37996146,0.7455545,1001.90405, , , , 
2025-11-24 19:25:04.407,12.482758,-7.048358,0.8282157,-0.5508315,-0.35818556,3.4441094,-28.0125,37.10625,-17.868752,0.4944453,-0.40868005,0.7482358,1001.90405, , , , 
2025-11-24 19:25:04.427,12.489936,-5.5543394,0.31136605,-0.79097086,-0.25678492,3.1428854,-25.593752,38.79375,-17.118752,0.4856036,-0.42462382,0.7489399,1001.9065, , , , 
2025-11-24 19:25:04.446,12.147762,-4.5726843,0.43100718,-1.2723185,0.03642177,2.7036862,-22.706251,40.5,-16.10625,0.47067896,-0.45065627,0.7476165,1001.9065, , , , 
2025-11-24 19:25:04.467,11.613864,-4.24726,1.0534402,-1.7554986,0.46645823,2.2589896,-20.362501,42.300003,-15.281251,0.46063417,-0.46658567,0.7455274,1001.90576, , , , 
2025-11-24 19:25:04.487,10.854741,-4.261617,2.1834507,-2.0193846,0.7566107,1.8423917,-17.925001,43.74375,-14.7375,0.44150344,-0.49339297,0.74067414,1001.90576, , , , 
2025-11-24 19:25:04.507,10.000204,-4.3238306,2.8513472,-2.0529814,0.9093225,1.5766732,-15.731251,44.90625,-13.650001,0.42520797,-0.5138313,0.73613304,1001.9138, , , , 
2025-11-24 19:25:04.527,9.432806,-4.211368,3.3589249,-1.9705169,0.96185535,1.4709965,-13.70625,45.975002,-12.431251,0.40840995,-0.53292847,0.73158586,1001.9138, , , , 
2025-11-24 19:25:04.547,9.272487,-3.9717865,3.7707894,-1.7597746,0.8616764,1.4355674,-11.587501,46.818752,-10.875,0.39176914,-0.55046105,0.72721964,1001.9177, , , , 
2025-11-24 19:25:04.567,9.274879,-3.5838501,4.2520456,-1.4348038,0.6118399,1.4282372,-9.58125,47.662502,-9.431251,0.37641764,-0.56589156,0.72325903,1001.9177, , , , 
2025-11-24 19:25:04.587,9.660124,-3.2775688,4.4171505,-1.0065999,0.3265742,1.3714285,-8.043751,48.468754,-7.65,0.36344784,-0.5784665,0.72016776,1001.91455, , , , 
2025-11-24 19:25:04.607,10.20838,-2.9781668,4.273581,-0.59542334,0.1298814,1.2205492,-6.5062504,49.031254,-6.1687503,0.353498,-0.5875462,0.718358,1001.91455, , , , 
2025-11-24 19:25:04.627,10.692029,-2.6024938,3.8114674,-0.27228516,0.10361496,0.92795336,-5.45625,49.125004,-5.0062504,0.34642866,-0.59298,0.7179909,1001.9192, , , , 
2025-11-24 19:25:04.647,10.596316,-2.542673,3.0619156,-0.15683503,0.23555797,0.5822138,-4.55625,49.331253,-4.0687504,0.34160474,-0.59546185,0.7186223,1001.9192, , , , 
2025-11-24 19:25:04.667,10.256236,-2.7963123,2.5953152,-0.1885991,0.40048674,0.3243599,-3.43125,49.593754,-3.9,0.33764544,-0.596578,0.7195122,1001.9248, , , , 
2025-11-24 19:25:04.687,10.383355,-3.1579278,2.6359932,-0.21425468,0.4737884,0.1551552,-2.71875,49.593754,-3.8625002,0.33384836,-0.5973364,0.7202301,1001.9248, , , , 
2025-11-24 19:25:04.707,10.902597,-3.72054,2.734099,-0.1446181,0.40415183,-0.047646087,-2.025,49.781254,-3.91875,0.33090806,-0.5973973,0.7208653,1001.92334, , , , 
2025-11-24 19:25:04.727,11.577971,-4.857729,2.8369904,-0.031000499,0.18180342,-0.3286358,-1.63125,49.687504,-3.6562502,0.33035332,-0.59629625,0.72122025,1001.92334, , , , 
2025-11-24 19:25:04.747,11.400603,-5.262116,3.114857,0.066124216,0.07062922,-0.51433337,-1.7812501,49.350002,-3.3375,0.3325785,-0.59392494,0.7212849,1001.91895, , , , 
2025-11-24 19:25:04.767,10.895419,-5.168796,3.4881372,0.18340689,0.11216683,-0.6725428,-2.11875,49.312504,-2.9250002,0.33617967,-0.5902289,0.7216925,1001.91895, , , , 
2025-11-24 19:25:04.787,11.216356,-6.061917,3.3517463,0.27747735,0.2526617,-0.87839836,-2.5687501,49.406254,-2.8125,0.34035864,-0.584854,0.7228795,1001.9221, , , , 
2025-11-24 19:25:04.807,10.916954,-7.574779,3.0116663,0.33795124,0.471345,-0.9614736,-3.2625,49.256252,-3.3187501,0.34441987,-0.5781659,0.72469074,1001.9221, , , , 
2025-11-24 19:25:04.827,9.856635,-7.2326055,2.7915268,0.47233763,0.61000735,-0.71774554,-4.0875,49.275,-3.5625002,0.34638116,-0.5709483,0.7276685,1001.9072, , , , 
2025-11-24 19:25:04.847,9.593125,-6.0379887,2.7005994,0.6452074,0.38155046,-0.44775105,-4.93125,49.275,-4.0687504,0.34641987,-0.56389934,0.73174727,1001.9072, , , , 
2025-11-24 19:25:04.867,10.459925,-5.6093745,3.1770704,0.9695673,-0.21341476,-0.43492326,-5.7375,49.068752,-4.6312504,0.34850433,-0.55665135,0.73567665,1001.9031, , , , 
2025-11-24 19:25:04.887,11.391032,-6.009275,3.1387851,1.3568444,-0.75218207,-0.62245333,-6.0937505,49.425003,-4.89375,0.35629964,-0.54712385,0.73931104,1001.9031, , , , 
2025-11-24 19:25:04.907,11.800504,-6.954739,2.3629124,1.6127895,-1.1822186,-0.90894073,-6.4687505,49.48125,-5.8500004,0.37006497,-0.53463334,0.74251115,1001.90015, , , , 
2025-11-24 19:25:04.927,11.774183,-7.3402824,1.8194425,1.530325,-1.3709704,-1.135565,-7.0687504,49.162502,-7.0875,0.38761774,-0.52080244,0.7443799,1001.90015, , , , 
2025-11-24 19:25:04.947,11.58515,-7.24457,2.097309,1.278656,-1.3306544,-1.3542484,-7.9500003,48.787502,-8.418751,0.4068282,-0.5071168,0.74431986,1001.8943,37.88756549,127.74044973,143.002197265625,1.4
2025-11-24 19:25:04.967,11.5061865,-7.1560354,2.5809584,0.9604046,-1.112582,-1.5985873,-9.09375,48.037502,-9.543751,0.42573935,-0.4939395,0.7427355,1001.8943, , , , 
2025-11-24 19:25:04.987,11.19482,-7.079465,3.330211,0.74782974,-0.6709394,-1.8569757,-10.275001,47.53125,-10.5,0.44282058,-0.4809736,0.74048465,1001.8904, , , , 
2025-11-24 19:25:05.007,10.565209,-6.7465634,3.5096726,0.6959077,-0.13828056,-2.0848217,-11.75625,47.04375,-11.25,0.45676336,-0.46696228,0.739151,1001.8904, , , , 
2025-11-24 19:25:05.027,9.808479,-6.451947,3.3565319,0.722785,0.45363045,-2.3286262,-13.462501,46.5,-11.71875,0.4692569,-0.4468058,0.73994106,1001.89355, , , , 
2025-11-24 19:25:05.047,8.853444,-6.3107705,2.9685955,0.8211314,0.7211816,-2.4966092,-15.450001,45.73125,-12.50625,0.4747745,-0.43308118,0.7414563,1001.89355, , , , 
2025-11-24 19:25:05.067,8.113463,-6.332306,2.3772693,0.9292514,0.86350894,-2.5662458,-17.456251,44.71875,-12.7875,0.4809568,-0.41323256,0.7439929,1001.88574, , , , 
2025-11-24 19:25:05.087,7.49103,-6.262914,1.7668004,1.011105,0.9068791,-2.5619698,-19.3125,43.74375,-13.462501,0.48758492,-0.38690156,0.74728984,1001.88574, , , , 
2025-11-24 19:25:05.107,6.8781686,-6.0523458,1.4916258,1.0728005,0.78226626,-2.5387576,-21.45,42.225002,-14.700001,0.49288064,-0.36541215,0.7492534,1001.8779, , , , 
2025-11-24 19:25:05.127,6.1097736,-5.796015,1.0989038,1.0728005,0.5990121,-2.456904,-23.400002,40.7625,-15.825001,0.49902013,-0.34416234,0.7500366,1001.8779, , , , 
2025-11-24 19:25:05.147,5.506483,-5.532804,1.0175478,1.0477557,0.42797485,-2.2968621,-25.312502,39.037502,-17.456251,0.5056175,-0.32398623,0.74971926,1001.87134, , , , 
2025-11-24 19:25:05.167,5.128118,-5.358128,0.8596215,1.0104941,0.24655323,-2.1025362,-27.093752,37.10625,-18.5625,0.5125886,-0.30527914,0.7484753,1001.87134, , , , 
2025-11-24 19:25:05.186,4.927121,-5.192724,0.7372885,0.94269,0.1622563,-1.9211147,-28.556252,35.456253,-19.29375,0.51789457,-0.2923509,0.747089,1001.8638, , , , 
2025-11-24 19:25:05.206,4.610969,-4.924728,0.57457656,0.82296395,0.16897562,-1.6731106,-29.868752,33.506252,-19.987501,0.5257174,-0.27302942,0.74467224,1001.8638, , , , 
2025-11-24 19:25:05.227,4.223332,-4.709075,0.41904306,0.72095245,0.16897562,-1.4831371,-30.91875,32.0625,-20.737501,0.52952415,-0.26279432,0.7433688,1001.8567, , , , 
2025-11-24 19:25:05.246,3.8784664,-4.79073,0.059820566,0.54869354,0.15309359,-1.1942064,-32.04375,30.581251,-21.75,0.534598,-0.24846718,0.7413979,1001.8567, , , , 
2025-11-24 19:25:05.266,3.7660038,-5.219045,-0.29940194,0.33917293,0.10544751,-0.88328516,-32.79375,29.23125,-22.29375,0.5373985,-0.24028187,0.7400644,1001.8594, , , , 
