Time,Accel_X,Accel_Y,Accel_Z,Gyro_X,Gyro_Y,Gyro_Z,Mag_X,Mag_Y,Mag_Z,Orient_X,Orient_Y,Orient_Z,Pressure,Lat,Lng,Alt,Speed
2025-11-24 19:44:06.474,-5.5256257,5.712266,6.509674,0.039246935,-0.21769069,0.28098974,32.60625,1.5375,-37.3875,-0.2876586,0.31158835,0.90547097,1002.0166,37.88749674,127.74029701,143.7911376953125,0.16
2025-11-24 19:44:06.494,-4.086642,5.9135623,6.930811,0.07101099,-0.12850699,0.14782503,32.60625,1.1625,-37.912502,-0.28088978,0.31393084,0.90685284,1002.02515, , , , 
2025-11-24 19:44:06.514,-4.5942197,5.8223357,6.634101,0.15836215,0.01137703,-0.04031592,32.475002,0.99375004,-37.425003,-0.2788132,0.31526533,0.907039,1002.02295, , , , 
2025-11-24 19:44:06.536,-5.2716875,5.8008003,5.992525,0.11560284,0.05596888,-0.073912516,32.34375,0.63750005,-37.443752,-0.27904156,0.31667754,0.9064661,1002.02295, , , , 
2025-11-24 19:44:06.554,-5.4059844,5.788836,5.9087763,0.023975754,-0.04909685,-0.01343864,32.362503,0.46875003,-37.65,-0.27973425,0.31771633,0.9058793,1002.0156, , , , 
2025-11-24 19:44:06.574,-5.319544,5.8343,6.1360946,-0.053601846,-0.14011309,0.03420745,32.0625,0.4875,-37.21875,-0.27921987,0.3179418,0.9059562,1002.0156, , , , 
2025-11-24 19:44:06.594,-5.063512,5.786443,6.212665,-0.09330692,-0.25556323,0.033596598,31.968752,0.13125001,-37.537502,-0.27734318,0.317343,0.90674216,1002.0044, , , , 
2025-11-24 19:44:06.614,-5.128118,5.7409797,6.1456656,-0.11468657,-0.36551574,0.03298575,31.706251,-0.01875,-37.55625,-0.27452362,0.31654835,0.9078728,1002.0044, , , , 
2025-11-24 19:44:06.634,-5.3342,5.671588,5.9374905,-0.16783029,-0.43270892,0.061084725,31.575,0.112500004,-37.2,-0.27206054,0.31598523,0.908804,1002.00195, , , , 
2025-11-24 19:44:06.654,-5.0754757,6.396912,5.9303117,-0.30282754,-0.4827984,-0.037261683,31.275002,-0.0375,-37.350002,-0.26814222,0.3142962,0.9105426,1002.00195, , , , 
2025-11-24 19:44:06.674,-4.115356,6.8518476,6.3849483,-0.45920444,-0.59336174,-0.519831,31.031252,0.31875002,-37.48125,-0.26430744,0.31025952,0.913004,1001.9783, , , , 
2025-11-24 19:44:06.694,-4.0005,6.0858455,6.954739,-0.69865656,-0.6862105,-0.92115766,30.562502,0.675,-37.800003,-0.26095864,0.30336776,0.91613644,1001.9783, , , , 
2025-11-24 19:44:06.714,-4.4482574,6.06431,7.4192457,-0.8990908,-0.7766159,-1.0439379,29.962502,1.2,-38.625,-0.25736105,0.29344672,0.92010516,1001.9492, , , , 
2025-11-24 19:44:06.734,-4.666004,5.736194,7.713862,-0.9051993,-0.7955522,-0.9138275,29.625002,2.1750002,-39.018753,-0.25326198,0.28254288,0.9242791,1001.9492, , , , 
2025-11-24 19:44:06.754,-4.3070807,4.778766,7.5197444,-1.0707389,-0.96964365,-0.73851436,28.987501,2.9625,-39.7125,-0.24771515,0.27149355,0.9286905,1001.9326, , , , 
2025-11-24 19:44:06.774,-4.54397,1.0606186,4.4674,-1.7475576,-0.75218207,-0.32252735,28.3875,4.2937503,-40.18125,-0.23954849,0.2573483,0.9345083,1001.9326, , , , 
2025-11-24 19:44:06.794,-4.8266225,4.615755,7.689934,-3.0443864,-0.47180316,-0.29809347,27.88125,5.2312503,-40.331253,-0.24027479,0.23541191,0.9400398,1001.9155, , , , 
2025-11-24 19:44:06.814,-5.5926247,2.9853454,5.0276194,-4.27532,-1.5982819,0.27427042,27.468752,6.9,-40.706253,-0.2316792,0.20173112,0.95023674,1001.9155, , , , 
2025-11-24 19:44:06.834,-4.8768716,1.6878372,5.870192,-5.5672617,-2.7088022,1.0311866,26.6625,9.09375,-40.631252,-0.21424411,0.15670422,0.9632601,1001.8889, , , , 
2025-11-24 19:44:06.854,-3.5910287,2.0087745,11.501102,-6.176964,-4.5298142,1.7312175,25.875002,12.150001,-40.66875,-0.18083537,0.10127217,0.97804093,1001.8889, , , , 
2025-11-24 19:44:06.874,-0.37357944,3.950251,16.131514,-3.9289696,-2.5273805,1.8252879,24.45,15.806251,-40.40625,0.1426135,-0.05080112,-0.9884713,1002.0908, , , , 
2025-11-24 19:44:06.894,0.8572287,2.6312077,13.109976,-0.61863554,-1.1009759,1.6744087,22.518751,19.368752,-39.9,0.12275767,-0.029974673,-0.9916784,1002.0908, , , , 
2025-11-24 19:44:06.914,-0.52193445,-1.0223335,7.9387875,1.1528215,0.11949699,1.3421078,21.2625,22.29375,-39.28125,0.11465078,-0.035901655,-0.9919019,1002.12427, , , , 
2025-11-24 19:44:06.934,-1.7548363,-2.8992038,8.575577,0.8651124,1.3284401,0.48806697,20.15625,23.60625,-38.68125,0.1230831,-0.04717153,-0.9899222,1002.12427, , , , 
2025-11-24 19:44:06.954,-3.653541,2.5809584,9.260523,0.33184278,-0.16027105,-0.88633937,19.95,23.681252,-38.850002,0.12851472,-0.05031616,-0.98902315,1002.1133, , , , 
2025-11-24 19:44:06.974,-0.4118646,2.1164517,9.255438,0.9616263,-1.112582,-1.5149012,20.118752,23.1,-38.925003,0.12341378,-0.056971677,-0.98994976,1002.1133, , , , 
2025-11-24 19:44:06.994,-1.3070793,1.8337995,8.867801,1.2896513,-2.1846952,-1.8300984,20.04375,22.3125,-39.206253,0.11211698,-0.06410752,-0.99128735,1002.1133, , , , 
2025-11-24 19:44:07.014,-1.934298,1.8242282,10.069596,2.1021545,-4.530425,-1.8740793,19.63125,22.10625,-39.9375,0.084063984,-0.07809183,-0.9933837,1002.1133, , , , 
2025-11-24 19:44:07.034,-0.84765744,1.5323038,9.294023,2.3941395,-5.045369,-2.0970387,17.79375,22.03125,-40.725002,-0.025220506,0.104401775,0.99389297,1002.0906, , , , 
2025-11-24 19:44:07.054,0.43100718,-0.19381863,8.503793,1.8314728,-2.0283184,-1.6486768,14.812501,21.2625,-42.318752,0.0042211353,0.12449983,0.9909717,1002.0906, , , , 
2025-11-24 19:44:07.075,-0.7468598,2.7029922,8.803194,1.2084086,0.024204822,-0.5045598,10.70625,20.04375,-44.11875,0.009099436,0.13857003,0.9881879,1002.07227, , , , 
2025-11-24 19:44:07.094,-1.0534402,4.290331,7.8167534,0.6152759,0.41636875,0.62924904,7.36875,18.393751,-45.300003,0.008275163,0.14545286,0.9871105,1002.07227, , , , 
2025-11-24 19:44:07.114,1.0319048,3.4761732,7.184749,-0.0053449133,0.13721156,0.5901548,5.1937504,16.800001,-45.9,0.005579304,0.14958455,0.9870863,1001.99194, , , , 
2025-11-24 19:44:07.134,1.07019,3.2105699,7.9627156,-0.13056861,-0.34719032,0.10934166,4.2937503,15.918751,-46.0125,0.0068455,0.14897245,0.98737234,1001.99194, , , , 
2025-11-24 19:44:07.154,0.1698904,3.1339993,9.533304,0.10766183,-0.5689279,0.06230642,4.6312504,15.39375,-45.881252,0.012831146,0.14838125,0.98741496,1001.9453, , , , 
2025-11-24 19:44:07.174,-0.5673981,3.8736808,9.243474,0.4601207,-0.56648445,0.1563769,4.4625,15.093751,-45.6375,0.018820317,0.15117128,0.98690385,1001.9453, , , , 
2025-11-24 19:44:07.194,-0.8787641,4.5535417,8.183154,0.61466503,-0.62940174,0.32558158,4.0875,14.83125,-45.825,0.025114948,0.1567038,0.98596567,1001.93384, , , , 
2025-11-24 19:44:07.214,-1.7931215,5.683552,7.1656065,0.41125292,-0.6379536,0.4123219,3.2062502,14.38125,-45.9,0.032051124,0.16201036,0.98504263,1001.93384, , , , 
2025-11-24 19:44:07.234,-2.4394827,5.64766,7.2469625,0.04718795,-0.6434512,0.51005745,2.4562502,14.118751,-46.03125,0.038477845,0.1643442,0.9845792,1001.9148, , , , 
2025-11-24 19:44:07.254,-2.178665,5.7409797,8.515757,-0.18371232,-0.7436302,0.7953995,1.95,13.762501,-46.143753,0.045749433,0.16352624,0.984613,1001.9148, , , , 
2025-11-24 19:44:07.274,-0.61046886,5.168796,9.693624,-0.23563433,-0.36246148,1.0098069,1.5,13.687501,-46.21875,0.05268351,0.16141729,0.9848791,1001.8887, , , , 
2025-11-24 19:44:07.294,-0.9385847,5.1496534,9.954741,-0.62474406,0.31252474,1.7098378,1.2750001,13.500001,-46.425003,0.05382426,0.1564587,0.98594385,1001.8887, , , , 
2025-11-24 19:44:07.314,0.96729857,5.7816577,10.840384,-0.24785128,-0.047875155,1.6127131,1.25625,13.556251,-46.275,0.054055512,0.15169968,0.9869313,1001.8711, , , , 
2025-11-24 19:44:07.333,1.5275182,5.604589,11.278569,0.7380562,-1.0991433,0.90474117,1.5187501,13.875001,-45.99375,-0.061141476,-0.15368558,-0.98619884,1001.8711, , , , 
2025-11-24 19:44:07.353,1.0390832,5.6117673,8.700303,1.314696,-1.7919204,0.5883223,1.7062501,14.137501,-45.862503,-0.07629165,-0.1643253,-0.98335063,1001.8574, , , , 
2025-11-24 19:44:07.374,0.65353966,5.499305,5.5830536,1.2829319,-1.9324152,0.5351022,1.63125,14.043751,-45.73125,-0.09536612,-0.17814055,-0.97921723,1001.8574, , , , 
2025-11-24 19:44:07.394,0.96490574,5.547161,4.151248,1.0214894,-2.0710776,0.49784052,1.10625,13.500001,-46.0125,-0.11517485,-0.19001913,-0.9747903,1001.855, , , , 
2025-11-24 19:44:07.414,2.03031,4.979763,3.1914272,0.6592569,-2.0417569,0.31397548,-0.45000002,12.58125,-46.706253,-0.13580704,-0.1988747,-0.9703267,1001.855, , , , 
2025-11-24 19:44:07.434,2.0183458,4.2568316,2.868097,0.2622062,-1.9880024,-0.15210097,-2.0812502,11.4375,-47.1375,-0.15515354,-0.20418221,-0.966347,1001.8545, , , , 
2025-11-24 19:44:07.454,1.3645071,2.6144578,2.5618157,0.0801737,-2.121778,-0.027488127,-3.7500002,10.78125,-47.25,-0.1738276,-0.20682214,-0.9626869,1001.8545, , , , 
2025-11-24 19:44:07.474,0.5626124,3.964608,3.5144582,-0.07131642,-2.7197974,0.32252735,-6.15,10.40625,-47.006252,-0.19957003,-0.20663218,-0.9577777,1001.8689,37.88749674,127.74029701,143.7911376953125,0.16
2025-11-24 19:44:07.494,2.4251258,1.3549358,1.9175483,-0.21058959,-2.8389127,0.30420193,-8.212501,10.06875,-46.55625,-0.22709608,-0.2054414,-0.9519152,1001.8689, , , , 
2025-11-24 19:44:07.514,2.477768,0.36400816,2.0518453,-0.38040513,-2.933594,0.2015796,-10.78125,10.275001,-45.675003,-0.2545153,-0.20235899,-0.9456463,1001.8965, , , , 
2025-11-24 19:44:07.534,2.2360928,-0.8811569,2.7388847,-0.28083703,-3.5022929,0.2247918,-13.406251,10.462501,-44.756252,-0.2844213,-0.19834502,-0.9379572,1001.8965, , , , 
2025-11-24 19:44:07.554,1.8290138,-2.2552354,2.8250263,0.00503949,-4.1284876,0.48684525,-15.750001,11.025001,-43.66875,0.32071444,0.19536042,0.9267973,1001.9138, , , , 
2025-11-24 19:44:07.574,2.638386,-3.6990047,2.1427727,-0.10796725,-3.741134,1.0201913,-18.73125,11.38125,-42.09375,0.3589669,0.19138059,0.9134937,1001.9138, , , , 
2025-11-24 19:44:07.594,3.9047875,-4.927121,2.6359932,-0.2625116,-3.3123193,1.5797274,-21.337502,11.868751,-40.29375,0.39348912,0.18317829,0.90089023,1001.9343, , , , 
2025-11-24 19:44:07.614,4.939085,-5.7146587,2.7317061,-0.16721943,-3.3440833,2.3383996,-24.0,12.150001,-38.7,-0.4264958,-0.17152803,-0.888051,1001.9343, , , , 
2025-11-24 19:44:07.634,7.373782,-6.7441707,2.2935205,-0.038330667,-3.481524,2.9358082,-26.343752,12.468751,-36.975002,-0.461379,-0.15729165,-0.87282676,1001.9385, , , , 
2025-11-24 19:44:07.654,10.596316,-8.290832,1.5993029,0.014813046,-3.6036935,3.410513,-28.425001,13.5375,-35.15625,-0.49750063,-0.141143,-0.8546389,1001.9385, , , , 
2025-11-24 19:44:07.674,12.566506,-10.117453,1.2975081,-0.11407573,-3.6910446,3.7446463,-30.31875,14.83125,-33.412502,-0.5339141,-0.122710384,-0.8334275,1001.93604, , , , 
2025-11-24 19:44:07.694,14.146667,-10.861919,2.243271,-0.38468108,-3.3935618,4.178959,-31.687502,16.66875,-31.1625,-0.57731247,-0.09410167,-0.8037934,1001.93604, , , , 
2025-11-24 19:44:07.714,15.362819,-11.111072,3.1316066,-0.49157932,-2.860903,4.3927555,-32.925003,19.143751,-28.837502,-0.5994653,-0.07381949,-0.78610015,1001.926, , , , 
2025-11-24 19:44:07.734,16.330118,-12.5138645,2.3102703,-0.69010466,-2.1590397,4.5137033,-33.131252,21.768751,-26.587502,-0.6280528,-0.036953084,-0.7584396,1001.926, , , , 
2025-11-24 19:44:07.753,16.66302,-13.320844,2.1619153,-1.0487484,-1.7088453,4.7012334,-32.71875,24.675001,-24.093752,-0.6450001,-0.0035553183,-0.73740697,1001.9143, , , , 
2025-11-24 19:44:07.774,17.072191,-12.839587,2.8609185,-1.3413442,-1.332487,4.8673835,-31.81875,27.993752,-21.75,-0.6576578,0.034146156,-0.71675956,1001.9143, , , , 
2025-11-24 19:44:07.794,17.323736,-11.335998,3.5096726,-1.662039,-0.64589465,4.7708697,-30.018751,30.975,-20.0625,-0.66381055,0.0642303,-0.7022444,1001.9114, , , , 
2025-11-24 19:44:07.814,16.586449,-10.122238,4.115356,-1.9491372,0.025426516,4.4526186,-27.6,34.425003,-18.35625,-0.6672653,0.11579345,-0.6819936,1001.9114, , , , 
2025-11-24 19:44:07.834,15.884753,-10.335199,4.7569313,-2.0706959,0.4890596,4.154525,-24.843752,37.331253,-16.9125,-0.6647701,0.15769352,-0.6694787,1001.92114, , , , 
2025-11-24 19:44:07.854,15.157036,-10.766207,5.221438,-1.9772363,0.6081748,3.8930824,-20.75625,40.29375,-15.356251,-0.6593047,0.19856353,-0.658582,1001.92114, , , , 
2025-11-24 19:44:07.874,14.034204,-10.895419,5.829514,-1.6809753,0.4261423,3.7031088,-16.48125,43.10625,-13.275001,-0.6524668,0.2364698,-0.64767313,1001.93286, , , , 
2025-11-24 19:44:07.895,13.2921295,-9.892527,6.5048885,-1.0957836,-0.065589726,3.498475,-12.450001,45.075,-11.400001,-0.6455809,0.26917273,-0.6355925,1001.93286, , , , 
2025-11-24 19:44:07.914,12.595221,-8.152048,6.066703,-0.2985516,-0.56770617,3.1990836,-7.93125,46.875,-9.75,-0.63933533,0.29358414,-0.62247354,1001.95264, , , , 
2025-11-24 19:44:07.934,11.202,-6.937989,4.2257247,0.34100547,-0.7735617,2.9712374,-4.65,47.662502,-8.75625,-0.63336307,0.309372,-0.6093795,1001.95264, , , , 
2025-11-24 19:44:07.954,10.536495,-6.023632,2.111666,0.5199837,-0.5939726,2.9394734,-1.66875,48.187504,-8.25,-0.6264561,0.3210982,-0.596645,1001.96655, , , , 
2025-11-24 19:44:07.974,10.890634,-5.2334023,1.0079765,0.37521294,-0.32153472,2.8936598,1.5375,48.24375,-8.1,-0.6182934,0.33311257,-0.5845144,1001.96655, , , , 
2025-11-24 19:44:07.994,11.805289,-4.493721,0.73489565,0.25915194,-0.21952324,2.7598844,2.2687502,46.74375,-6.2812505,-0.60970086,0.3458923,-0.57299596,1001.9834, , , , 
2025-11-24 19:44:08.014,12.576077,-3.5934215,0.55064833,0.09605573,-0.044820916,2.4953873,4.8562503,46.818752,-6.7125,-0.6015161,0.3582416,-0.56244045,1001.9834, , , , 
2025-11-24 19:44:08.035,13.416556,-2.5136602,0.45732823,-0.14583978,0.30397287,2.117884,7.36875,46.331253,-6.95625,-0.5939909,0.3703029,-0.5537395,1001.99097, , , , 
2025-11-24 19:44:08.054,13.502698,-1.5059828,0.51236314,-0.44637662,0.8390751,1.6365361,9.84375,45.975002,-7.05,-0.5869208,0.38283408,-0.5484333,1001.99097, , , , 
2025-11-24 19:44:08.074,13.064512,-1.082154,0.7492526,-0.6461237,1.2600251,1.1496909,12.0,45.506252,-6.9750004,-0.57992977,0.39620182,-0.54733145,1001.9929, , , , 
2025-11-24 19:44:08.095,12.181262,-1.0773684,0.9409775,-0.5960342,1.3266076,0.6677324,13.875001,45.037502,-6.3562503,-0.5732275,0.40885097,-0.549723,1001.9929, , , , 
2025-11-24 19:44:08.114,11.924931,-1.2807583,1.0390832,-0.31321192,0.9923977,0.3591782,15.337501,44.756252,-5.8500004,-0.5673877,0.4185451,-0.5539235,1001.9961, , , , 
2025-11-24 19:44:08.134,11.97518,-1.3286148,0.61764735,0.0038177953,0.55075514,0.057419643,16.181252,44.643753,-5.55,-0.56325126,0.42313212,-0.5586688,1001.9961, , , , 
2025-11-24 19:44:08.154,12.355938,-1.8505492,0.11724831,0.27747735,0.2386122,-0.26571855,17.1375,44.60625,-4.6875,-0.5614511,0.4223975,-0.56363,1001.9988, , , , 
2025-11-24 19:44:08.174,13.066905,-2.856133,0.09810573,0.41125292,0.04008685,-0.5931327,17.5125,44.53125,-4.1062503,-0.5618661,0.41752535,-0.5690969,1001.9988, , , , 
2025-11-24 19:44:08.194,14.041383,-4.1751766,0.51236314,0.5835118,-0.31359372,-1.0292777,17.681252,44.68125,-3.7687502,-0.56445765,0.40879053,-0.5754572,1002.0027, , , , 
2025-11-24 19:44:08.214,15.401104,-5.858228,0.3999005,0.7808155,-0.63734275,-1.5539954,17.587502,44.90625,-3.7125,-0.570209,0.3945091,-0.5824346,1002.0027, , , , 
2025-11-24 19:44:08.234,15.439688,-7.6683984,-1.0366904,0.5493044,-0.38384116,-2.2412748,16.6875,44.98125,-4.275,-0.5790802,0.3751518,-0.59070826,1002.0093, , , , 
2025-11-24 19:44:08.254,13.304094,-8.676076,-1.0486546,-0.07559235,0.26365694,-2.6719222,15.525001,45.15,-5.2312503,-0.5895514,0.35610715,-0.60118717,1002.0093, , , , 
2025-11-24 19:44:08.274,11.530115,-8.091928,0.30418757,-0.4537068,0.74989134,-2.8020327,13.575001,45.506252,-5.83125,-0.5985559,0.34155807,-0.61381936,1002.00586, , , , 
2025-11-24 19:44:08.294,10.881062,-7.6420774,1.6998014,-0.41705596,0.86350894,-2.9718482,11.2875,45.91875,-5.9437504,-0.60541016,0.32915053,-0.6281999,1002.00586, , , , 
2025-11-24 19:44:08.314,10.93849,-7.8957167,2.5689943,-0.1421747,0.6949151,-3.15327,8.981251,46.55625,-5.9625,-0.6112354,0.3148691,-0.64339083,1002.01294, , , , 
2025-11-24 19:44:08.334,11.671291,-9.250652,2.8776684,0.19012621,0.37238777,-3.349352,6.2250004,46.800003,-5.5125003,-0.6171287,0.29675484,-0.65815645,1002.01294, , , , 
2025-11-24 19:44:08.354,12.231511,-11.280962,2.746063,0.51509696,0.045584477,-3.5161133,3.3937502,47.006252,-5.3812504,-0.62577605,0.26808405,-0.6746006,1002.01685, , , , 
2025-11-24 19:44:08.374,12.109477,-11.963216,2.4825535,0.71789825,-0.16332528,-3.517335,0.01875,47.100002,-5.7375,-0.63124585,0.24858974,-0.683157,1002.01685, , , , 
2025-11-24 19:44:08.394,11.948859,-11.767004,2.082952,0.8131904,-0.39422554,-3.4391465,-3.5625002,47.23125,-5.9812503,-0.6388042,0.22117215,-0.69256705,1002.0205, , , , 
2025-11-24 19:44:08.414,12.09512,-11.32164,1.7500507,0.750884,-0.45347774,-3.3921113,-6.8812504,47.025,-6.3,-0.6465937,0.19325073,-0.6997552,1002.0205, , , , 
2025-11-24 19:44:08.434,12.131013,-10.996217,1.4868401,0.4601207,-0.24029204,-3.348741,-10.462501,46.631252,-6.8812504,-0.6554341,0.15972945,-0.7070799,1002.01294, , , , 
2025-11-24 19:44:08.454,11.616257,-10.605887,1.9582262,0.2597628,-0.017943637,-3.3395784,-13.406251,45.600002,-7.14375,-0.660244,0.13555461,-0.7133675,1002.01294, , , , 
2025-11-24 19:44:08.475,10.747064,-9.727123,2.2911277,0.22311196,0.26365694,-3.248562,-16.40625,44.23125,-7.4437504,-0.6624888,0.11320402,-0.72049993,1002.0061,37.88749674,127.74029701,143.7911376953125,0.16
2025-11-24 19:44:08.494,10.016953,-8.7266245,2.1667008,0.27197975,0.5373165,-3.1679301,-19.650002,43.0125,-7.70625,-0.66208273,0.091768146,-0.72851515,1002.0061, , , , 
2025-11-24 19:44:08.514,9.454341,-7.9387875,1.6351951,0.28114244,0.8048676,-3.0915744,-22.25625,41.4,-7.8562503,-0.6589724,0.07097135,-0.7375144,1001.9995, , , , 
2025-11-24 19:44:08.534,8.7266245,-7.6947193,1.4246268,0.3129065,0.8543463,-3.0598102,-24.937502,39.65625,-8.0625,-0.654015,0.05081614,-0.7468369,1001.9995, , , , 
2025-11-24 19:44:08.554,7.6755767,-7.548458,1.4222339,0.4705051,0.5641938,-2.9761243,-27.187502,37.93125,-8.55,-0.64946353,0.030564895,-0.7544997,1001.99097, , , , 
2025-11-24 19:44:08.574,6.8805614,-7.2086773,1.2137593,0.6952969,0.05780142,-2.824634,-29.306252,36.28125,-9.337501,-0.647372,0.009495026,-0.75872916,1001.99097, , , , 
2025-11-24 19:44:08.594,6.538388,-7.0603223,0.84017986,0.8504521,-0.3459686,-2.7116272,-31.48125,34.068752,-10.03125,-0.6482781,-0.012679215,-0.7591789,1001.98804, , , , 
2025-11-24 19:44:08.614,5.858228,-6.88774,0.7181459,0.8687775,-0.49745873,-2.6462667,-33.91875,31.968752,-10.89375,-0.6506707,-0.035259817,-0.7573203,1001.98804, , , , 
2025-11-24 19:44:08.634,4.6731825,-6.906883,0.663111,0.85778224,-0.4907394,-2.492944,-36.3375,29.625002,-11.4375,-0.6525239,-0.051787443,-0.755262,1001.9856, , , , 
2025-11-24 19:44:08.654,2.935096,-6.835098,0.44775695,0.85472804,-0.3795652,-2.0817676,-38.2125,27.35625,-11.700001,-0.65460885,-0.076828614,-0.7517964,1001.9856, , , , 
2025-11-24 19:44:08.674,1.9920249,-6.576673,-0.059820566,0.8675558,-0.35268793,-1.6059175,-39.7125,25.06875,-11.981251,-0.6557737,-0.09366532,-0.74902135,1001.9895, , , , 
2025-11-24 19:44:08.694,1.4437693,-6.509674,-0.88354975,0.8443436,-0.38933876,-1.0976925,-40.65,23.15625,-11.868751,-0.6573907,-0.107420936,-0.7458009,1001.9895, , , , 
2025-11-24 19:44:08.714,1.3669,-6.832705,-1.7165512,0.6464291,-0.40094486,-0.5503734,-41.625,21.431252,-12.0,-0.6598297,-0.11714978,-0.74217474,1001.98804, , , , 
2025-11-24 19:44:08.734,1.9510478,-7.3881392,-1.3692927,0.3049655,-0.36856997,0.14538164,-42.375,19.96875,-12.4125,-0.66284627,-0.12109298,-0.73880905,1001.98804, , , , 
2025-11-24 19:44:08.754,2.908775,-7.713862,-0.39511484,0.23410721,-0.3496337,0.7807391,-42.825,19.181252,-12.0,-0.66642725,-0.1188415,-0.73583597,1001.99, , , , 
2025-11-24 19:44:08.774,4.4315076,-7.582257,-0.40707895,0.326956,-0.33191913,1.2498698,-43.350002,18.825,-12.1125,-0.6704146,-0.1123947,-0.7329169,1001.99, , , , 
2025-11-24 19:44:08.794,5.705087,-8.106285,-1.556232,0.29763532,-0.3032093,1.6683003,-43.21875,19.1625,-11.868751,-0.67460465,-0.10361998,-0.72970825,1001.98584, , , , 
2025-11-24 19:44:08.814,6.305985,-8.99462,-2.085345,-0.0022906773,-0.28305134,2.0427496,-43.162502,19.78125,-11.4375,-0.6789981,-0.091645755,-0.7261486,1001.98584, , , , 
2025-11-24 19:44:08.834,7.0268226,-8.692825,-0.95054877,-0.32359633,-0.19203511,2.4507957,-42.581253,20.925001,-11.418751,-0.68329394,-0.07448908,-0.7225454,1001.9873, , , , 
2025-11-24 19:44:08.854,8.108678,-8.113463,0.35682967,-0.38040513,-0.011835165,2.7061298,-41.756252,22.3875,-11.0625,-0.68644863,-0.05300836,-0.71944,1001.9873, , , , 
2025-11-24 19:44:08.874,8.755338,-7.804789,0.21774685,-0.30038413,0.21478917,2.7757664,-40.8375,24.093752,-11.1,-0.6873678,-0.030245772,-0.71729094,1001.9905, , , , 
2025-11-24 19:44:08.894,9.162118,-8.262117,-0.65353966,-0.31321192,0.31557897,2.7989786,-39.24375,25.95,-10.8,-0.6864544,-0.0076434817,-0.7156051,1001.9905, , , , 
2025-11-24 19:44:08.914,9.64816,-9.217153,-1.1419746,-0.44820917,0.21356747,2.921759,-37.65,28.0125,-10.856251,-0.6850591,0.015725546,-0.71314937,1001.99194, , , , 
2025-11-24 19:44:08.934,10.3017,-9.739087,-0.76600236,-0.6174139,-0.01305686,3.1196733,-35.5125,30.35625,-10.9875,-0.68448687,0.041098256,-0.7085183,1001.99194, , , , 
2025-11-24 19:44:08.954,11.027323,-9.97149,0.31375888,-0.676666,-0.23357272,3.2901762,-33.61875,32.287502,-10.63125,-0.6849783,0.07520702,-0.6992176,1001.999, , , , 
2025-11-24 19:44:08.975,11.235498,-9.746265,1.4796617,-0.55632913,-0.26472592,3.4294493,-31.706251,34.425003,-10.462501,-0.68484396,0.10290645,-0.6900919,1001.999, , , , 
2025-11-24 19:44:08.994,11.5684,-9.243474,1.7883358,-0.3242072,-0.22441001,3.546732,-29.737501,36.35625,-9.900001,-0.68305916,0.12992036,-0.6803808,1002.0078, , , , 
2025-11-24 19:44:09.014,11.853146,-8.470293,1.2472588,-0.11163234,-0.17065546,3.6175902,-27.4125,38.100002,-9.1125,-0.6793837,0.15554449,-0.6703815,1002.0078, , , , 
2025-11-24 19:44:09.034,12.3607235,-7.5293155,0.43100718,0.00503949,-0.18837002,3.5638356,-24.187502,40.143753,-8.512501,-0.67450714,0.17954649,-0.6598719,1002.01196, , , , 
2025-11-24 19:44:09.054,12.509079,-6.533602,-0.49800622,0.039246935,-0.38933876,3.3011713,-20.79375,41.850002,-8.19375,-0.6700059,0.20097736,-0.6483307,1002.01196, , , , 
2025-11-24 19:44:09.074,12.166905,-5.7146587,-0.8979067,-0.21303298,-0.41194013,2.8924382,-17.400002,43.612503,-7.9875,-0.66706747,0.21968126,-0.63582855,1002.01196, , , , 
2025-11-24 19:44:09.094,11.091929,-5.8390856,-0.20578274,-0.58076304,-0.13950224,2.4825597,-14.19375,44.643753,-8.15625,-0.6647551,0.2374771,-0.62442786,1002.01196, , , , 
2025-11-24 19:44:09.114,10.091131,-5.9781685,0.5027919,-0.8068529,0.2386122,2.424529,-11.3625,45.393753,-8.231251,-0.66140807,0.25660697,-0.61490315,1002.0149, , , , 
2025-11-24 19:44:09.134,10.134202,-4.963013,0.79950184,-0.92718977,0.5220453,2.4312484,-8.925,45.99375,-7.8,-0.6557983,0.27809134,-0.6071236,1002.0149, , , , 
2025-11-24 19:44:09.154,10.407283,-3.8832521,1.1659029,-0.9675057,0.5385382,2.2907536,-6.4500003,46.331253,-7.2375,-0.64940625,0.29996902,-0.60022324,1002.01294, , , , 
2025-11-24 19:44:09.175,10.790134,-3.1722846,1.8074784,-0.8771003,0.42492062,2.0635183,-4.0687504,46.875,-6.1312504,-0.64335686,0.32015985,-0.5937234,1002.01294, , , , 
2025-11-24 19:44:09.193,11.065608,-2.8657043,2.0781665,-0.564881,0.20012884,1.8075734,-1.7625,46.987503,-5.15625,-0.63790345,0.3367937,-0.58779114,1002.02, , , , 
2025-11-24 19:44:09.213,11.58515,-3.0379875,1.2472588,-0.2557923,0.011987877,1.5644562,0.375,47.1375,-4.4625,-0.63319504,0.3488481,-0.58237743,1002.02, , , , 
2025-11-24 19:44:09.233,11.936894,-3.0810583,0.4645067,-0.22036316,0.014431266,1.3512704,2.4375,47.325,-4.0125003,-0.62945175,0.35770243,-0.5774088,1002.02856, , , , 
2025-11-24 19:44:09.253,12.770195,-3.313461,0.8138588,-0.28450212,0.059633963,1.1667947,4.2000003,47.325,-3.61875,-0.62648565,0.36552462,-0.5730541,1002.02856, , , , 
2025-11-24 19:44:09.273,13.983954,-3.3110683,1.4916258,-0.18126893,0.055358034,0.9365052,5.53125,47.53125,-3.2250001,-0.6238973,0.3719541,-0.5699359,1002.02515, , , , 
2025-11-24 19:44:09.293,15.489938,-3.1435707,1.3836497,0.0038177953,0.03397838,0.5436541,6.9,47.643753,-2.86875,-0.6218228,0.375445,-0.568622,1002.02515, , , , 
2025-11-24 19:44:09.313,16.344475,-2.746063,1.311865,0.04902049,0.09323056,0.11056335,7.93125,47.550003,-2.325,-0.6210346,0.37541625,-0.569417,1002.02246, , , , 
2025-11-24 19:44:09.334,16.358831,-3.0643084,1.3645071,0.023364907,0.32168743,-0.63161606,8.793751,47.30625,-2.11875,-0.62181354,0.3718992,-0.57329035,1002.02246, , , , 
2025-11-24 19:44:09.353,14.953646,-4.3669014,1.5681962,0.10277505,0.45118704,-1.1575556,9.225,47.0625,-2.30625,-0.62363976,0.36534595,-0.5806926,1002.031, , , , 
2025-11-24 19:44:09.374,13.519448,-4.88405,1.0869397,0.31962582,0.391324,-1.4525948,9.20625,47.025,-2.4562502,-0.62560415,0.35609055,-0.59031725,1002.031, , , , 
2025-11-24 19:44:09.393,12.55215,-5.020441,0.19621146,0.42102647,0.28809083,-1.7054856,8.587501,46.93125,-2.6437502,-0.62812626,0.34406906,-0.60054123,1002.0303, , , , 
2025-11-24 19:44:09.413,12.449258,-5.101797,-0.8668,0.37521294,0.35406235,-1.9388292,7.14375,47.25,-2.8875,-0.6316059,0.32996142,-0.6108679,1002.0303, , , , 
2025-11-24 19:44:09.433,12.67209,-6.291628,-2.1020947,-0.017561859,0.6087856,-2.3316803,5.4375,47.325,-2.8312502,-0.63589156,0.31525087,-0.621844,1002.02856, , , , 
2025-11-24 19:44:09.454,12.456436,-8.1687975,-1.0869397,-0.4793624,0.73950696,-2.5662458,3.54375,47.53125,-3.15,-0.6409112,0.30197212,-0.63318276,1002.02856, , , , 
2025-11-24 19:44:09.474,12.614363,-9.643374,1.6854445,-0.505018,0.5464792,-2.6572618,1.2750001,47.90625,-3.0,-0.64624214,0.29016846,-0.64398074,1002.0259,37.88750724,127.74029512,142.5980224609375,1.53
2025-11-24 19:44:09.493,13.2921295,-10.507782,3.5072799,-0.12384928,0.31374642,-2.7556083,-0.90000004,47.8125,-3.05625,-0.65160394,0.27640566,-0.65395176,1002.0259, , , , 
2025-11-24 19:44:09.514,13.316058,-10.859527,3.2871401,0.3581092,0.30580541,-2.948636,-3.05625,48.093754,-3.0,-0.656323,0.2581783,-0.66417086,1002.0325, , , , 
2025-11-24 19:44:09.533,12.006287,-10.5436735,1.9558334,0.6244386,0.3846047,-3.0891309,-5.53125,47.68125,-2.98125,-0.6597129,0.23597856,-0.67536277,1002.0325, , , , 
2025-11-24 19:44:09.554,11.280962,-9.755837,1.0175478,0.7368345,0.32718506,-3.180758,-8.0625,47.287502,-3.3375,-0.66230035,0.21200106,-0.6863837,1002.0244, , , , 
2025-11-24 19:44:09.573,10.718349,-9.114262,0.43818563,0.750884,0.24838577,-3.3432434,-10.78125,46.74375,-3.5062501,-0.66507095,0.18646246,-0.6963034,1002.0244, , , , 
2025-11-24 19:44:09.593,9.504591,-8.88455,0.0071784677,0.5981722,0.3522298,-3.4562502,-13.9125,45.7125,-4.2375,-0.66766936,0.15988556,-0.7053945,1002.0127, , , , 
2025-11-24 19:44:09.613,8.496614,-8.803194,0.33050862,0.39353836,0.45057622,-3.4385357,-16.96875,44.86875,-4.6687503,-0.66909695,0.13445945,-0.7141199,1002.0127, , , , 
2025-11-24 19:44:09.634,7.886145,-8.656933,0.9840483,0.38987327,0.43347248,-3.3469086,-19.837502,43.256252,-5.4750004,-0.6693806,0.110726304,-0.7222266,1002.0112, , , , 
2025-11-24 19:44:09.653,7.3307114,-8.245368,0.8883354,0.47783527,0.35039726,-3.188699,-22.7625,41.68125,-6.3,-0.6689,0.08183651,-0.73071766,1002.0112, , , , 
2025-11-24 19:44:09.673,6.559923,-7.998608,0.7372885,0.4705051,0.31557897,-3.0738597,-25.25625,40.068752,-6.4687505,-0.66833264,0.06469375,-0.7349303,1002.0095, , , , 
2025-11-24 19:44:09.693,5.2046885,-7.7617183,0.87637126,0.5004366,0.30091864,-2.864339,-27.900002,38.11875,-6.9375005,-0.6667588,0.037474427,-0.74077535,1002.0095, , , , 
2025-11-24 19:44:09.714,4.278367,-7.373782,1.1180464,0.61466503,0.20257223,-2.5466986,-30.31875,36.206253,-7.1062503,-0.66514164,0.017340286,-0.7443092,1002.00635, , , , 
2025-11-24 19:44:09.733,3.8330028,-6.9188466,1.07019,0.8675558,-0.030160584,-2.2058458,-32.49375,34.350002,-7.425,-0.66422296,-0.0018630201,-0.7461538,1002.00635, , , , 
2025-11-24 19:44:09.754,3.6559339,-6.715457,0.12921242,1.0526426,-0.27388865,-1.8991241,-34.3875,32.625,-8.175,-0.66487527,-0.020949513,-0.74572015,1002.00977, , , , 
2025-11-24 19:44:09.773,3.3373895,-6.88774,-0.7396813,1.0092723,-0.3636832,-1.5894246,-36.131252,30.656252,-8.4375,-0.66663647,-0.038903758,-0.74365354,1002.00977, , , , 
2025-11-24 19:44:09.793,3.2009985,-7.752147,-1.0893325,0.8156338,-0.37773266,-1.1905413,-37.65,29.1375,-8.90625,-0.66878676,-0.053680662,-0.7409169,1002.0029, , , , 
2025-11-24 19:44:09.813,3.2416766,-8.683254,-0.6008976,0.65498096,-0.43331978,-0.67804044,-38.925003,27.16875,-9.056251,-0.6713482,-0.06376256,-0.7378192,1002.0029, , , , 
2025-11-24 19:44:09.833,3.964608,-9.01137,-0.1794617,0.7075138,-0.5182275,-0.08674031,-40.21875,25.518751,-9.01875,-0.67476,-0.06922466,-0.7340827,1002.0027, , , , 
2025-11-24 19:44:09.854,4.3645086,-8.429615,-0.96729857,0.722785,-0.5298336,0.3927748,-40.95,24.50625,-9.243751,-0.67883766,-0.07163053,-0.7297176,1002.0027, , , , 
2025-11-24 19:44:09.873,4.4339004,-7.9316087,-1.5490535,0.5480827,-0.4180486,0.7379798,-41.625,23.85,-9.4125,-0.68277955,-0.07107689,-0.7254764,1002.0071, , , , 
2025-11-24 19:44:09.893,4.8194437,-9.188439,-1.7404794,0.30679804,-0.4180486,1.081276,-41.68125,23.868752,-9.337501,-0.6865348,-0.06682936,-0.7214965,1002.0071, , , , 
2025-11-24 19:44:09.913,5.4035916,-9.916455,-0.90508515,0.17546588,-0.50906485,1.5559043,-41.662502,23.962502,-9.543751,-0.691065,-0.057965018,-0.7167572,1002.0049, , , , 
2025-11-24 19:44:09.933,6.1241302,-10.0265255,-0.61046886,0.23044212,-0.4675272,1.9553984,-40.912502,24.525002,-9.450001,-0.69569075,-0.045568693,-0.7114214,1002.0049, , , , 
2025-11-24 19:44:09.955,5.9901323,-9.791729,-0.92183495,0.17241164,-0.26716933,2.340843,-40.143753,25.500002,-9.1875,-0.6991202,-0.030746797,-0.7063229,1002.0066, , , , 
2025-11-24 19:44:09.973,6.4064837,-10.088738,-0.89312106,0.10827268,-0.18898088,2.7446132,-39.2625,26.812502,-9.337501,-0.70111775,-0.012686695,-0.7015241,1002.0066, , , , 
2025-11-24 19:44:09.993,7.5699935,-10.433604,-0.2656033,0.19623469,-0.35818556,3.1153975,-38.025,28.743752,-9.431251,-0.70293117,0.008076038,-0.695323,1002.0115, , , , 
2025-11-24 19:44:10.014,9.243474,-10.610673,0.35682967,0.43141088,-0.5567109,3.35798,-36.99375,30.525002,-9.50625,-0.70491207,0.029905342,-0.68677896,1002.0115, , , , 
2025-11-24 19:44:10.033,10.562817,-10.916954,0.41904306,0.74111044,-0.6892648,3.4685435,-35.23125,32.193752,-9.525001,-0.70652884,0.05067675,-0.67612386,1002.0166, , , , 
2025-11-24 19:44:10.054,11.063215,-10.6561365,-0.083748795,0.96773475,-0.6629983,3.5094702,-33.112503,34.050003,-9.4875,-0.70699596,0.069462925,-0.6641128,1002.0166, , , , 
2025-11-24 19:44:10.073,11.034502,-9.923634,-0.8572287,1.0043856,-0.5463265,3.5241306,-30.937502,35.5875,-9.20625,-0.70571476,0.08684803,-0.6516487,1002.0166, , , , 
2025-11-24 19:44:10.093,11.07518,-9.097511,-1.4174483,0.83457005,-0.3184805,3.5351257,-28.3875,37.5,-9.337501,-0.7028637,0.10429282,-0.6390465,1002.0166, , , , 
2025-11-24 19:44:10.113,11.273784,-8.113463,-1.3836497,0.56457555,-0.1156792,3.462435,-25.7625,39.112503,-9.88125,-0.69840443,0.12313676,-0.6270019,1002.02075, , , , 
2025-11-24 19:44:10.133,11.300105,-7.3809605,-0.8500503,0.32756683,0.048638713,3.2259607,-23.212502,40.443752,-10.44375,-0.6930858,0.14279187,-0.6157556,1002.02075, , , , 
2025-11-24 19:44:10.153,10.562817,-6.8685975,-0.6439684,0.11132691,0.27648473,2.9981146,-20.212502,41.79375,-11.00625,-0.6870858,0.1622878,-0.60580444,1002.0183, , , , 
2025-11-24 19:44:10.173,9.861421,-6.3658056,-0.069391854,-0.12507097,0.46157146,2.8270774,-17.19375,42.768753,-11.45625,-0.6801605,0.1824852,-0.5974258,1002.0183, , , , 
2025-11-24 19:44:10.194,9.882956,-6.0523458,0.40707895,-0.19226417,0.53914905,2.7757664,-14.325001,43.706253,-11.700001,-0.67284185,0.20335408,-0.5897027,1002.0178, , , , 
2025-11-24 19:44:10.213,10.177273,-5.408377,0.3592225,-0.2325801,0.69125,2.6786416,-11.175,44.475002,-11.8125,-0.664584,0.22418982,-0.5826426,1002.0178, , , , 
2025-11-24 19:44:10.234,10.366306,-4.6707897,0.076570325,-0.30038413,0.8238039,2.5100477,-8.025001,44.9625,-11.94375,-0.6556689,0.24467944,-0.5766164,1002.0254, , , , 
2025-11-24 19:44:10.254,10.548459,-4.0220356,-0.32093734,-0.4653129,0.9838459,2.3182416,-4.9500003,45.300003,-11.606251,-0.6465518,0.26483348,-0.5716406,1002.0254, , , , 
2025-11-24 19:44:10.273,10.672886,-3.5503507,0.23449662,-0.6051969,1.0119449,2.0818439,-1.9687501,45.318752,-11.4375,-0.63784856,0.28492644,-0.567627,1002.021, , , , 
2025-11-24 19:44:10.293,11.091929,-3.4450665,0.9242278,-0.50623965,0.8903862,1.8546087,0.675,45.600002,-11.025001,-0.6275602,0.30815828,-0.56371546,1002.021, , , , 
2025-11-24 19:44:10.313,11.901003,-3.5766716,0.9936196,-0.26495498,0.6717029,1.6200433,3.15,45.80625,-10.387501,-0.62176204,0.3198611,-0.56171215,1002.022, , , , 
2025-11-24 19:44:10.333,12.705589,-3.8521454,-0.0741775,-0.11163234,0.52082366,1.3366102,5.11875,45.7125,-10.06875,-0.613211,0.3343213,-0.5590461,1002.022, , , , 
2025-11-24 19:44:10.354,13.162619,-4.165605,-0.43818563,-0.2093679,0.4065952,1.0886061,7.0875,46.050003,-9.356251,-0.6083469,0.34288612,-0.5571644,1002.03125, , , , 
2025-11-24 19:44:10.373,14.546567,-4.273581,0.35682967,-0.2509055,0.21356747,0.8729771,8.700001,46.068752,-8.887501,-0.60533917,0.3500153,-0.5551575,1002.03125, , , , 
2025-11-24 19:44:10.393,16.299011,-3.8353956,1.1156535,-0.1861557,0.060855657,0.46485478,10.03125,45.956253,-8.587501,-0.6043475,0.35388738,-0.55372477,1002.0298, , , , 
2025-11-24 19:44:10.413,16.725231,-3.0188448,1.5538392,-0.19409671,0.28992337,-0.34696123,10.837501,46.068752,-8.231251,-0.60547364,0.3531433,-0.55532,1002.0298, , , , 
2025-11-24 19:44:10.433,14.68535,-3.7229328,1.785943,-0.2325801,0.89954895,-1.2962179,11.45625,46.18125,-8.043751,-0.6078049,0.34837314,-0.56322956,1002.03394, , , , 
2025-11-24 19:44:10.454,11.594721,-6.102595,1.2376875,-0.06765133,1.3290509,-1.7622943,11.625,46.0875,-7.8375,-0.60843277,0.34211254,-0.5776523,1002.03394, , , , 
2025-11-24 19:44:10.473,8.965906,-6.6388865,-0.009571291,0.3465031,1.0510391,-1.4813046,11.0625,46.03125,-7.51875,-0.6063834,0.33574453,-0.5936345,1002.0393,37.88752587,127.74028461,142.7685546875,1.96
2025-11-24 19:44:10.493,10.052846,-6.2700925,-1.3549358,0.5609105,0.09261972,-1.1685508,10.575001,46.48125,-7.4625,-0.604987,0.33030868,-0.6027627,1002.0393, , , , 
2025-11-24 19:44:10.513,12.590434,-6.155237,-0.54346985,0.5493044,-0.85175014,-1.339588,9.1875,46.331253,-7.4062505,-0.6098495,0.31591424,-0.6099822,1002.03564, , , , 
2025-11-24 19:44:10.533,14.620745,-6.9355965,0.33529428,0.51815116,-1.236584,-1.8899614,7.8375,46.612503,-7.5000005,-0.62001985,0.29758254,-0.6121255,1002.03564, , , , 
2025-11-24 19:44:10.553,15.628721,-8.661719,0.6583253,0.29030517,-1.0686009,-2.565024,6.39375,46.912502,-7.8750005,-0.63297224,0.27461955,-0.6151438,1002.03394, , , , 
2025-11-24 19:44:10.573,16.224833,-10.220344,0.6415756,-0.04688253,-0.45836452,-3.1392205,4.6312504,46.85625,-8.34375,-0.64574534,0.25042838,-0.6213418,1002.03394, , , , 
2025-11-24 19:44:10.593,16.047764,-11.307283,0.040677983,-0.45065257,0.33940202,-3.6584406,2.1937501,47.175003,-8.925,-0.65576154,0.22744365,-0.63240814,1002.03784, , , , 
2025-11-24 19:44:10.613,14.728421,-12.0589285,0.25842485,-0.8819871,1.0143882,-4.0823684,-0.80625004,47.04375,-9.243751,-0.66250706,0.20687348,-0.64796025,1002.03784, , , , 
2025-11-24 19:44:10.633,13.007085,-12.279367,1.4533406,-1.0053782,1.3076713,-4.280894,-4.36875,46.818752,-9.356251,-0.66530645,0.19299681,-0.6615571,1002.031, , , , 
2025-11-24 19:44:10.654,11.079966,-12.07837,2.461018,-0.5801522,1.1829821,-4.2399673,-8.34375,46.537502,-8.6625,-0.6665264,0.16988817,-0.68451303,1002.031, , , , 
2025-11-24 19:44:10.673,10.244272,-11.453245,2.3437698,-0.069483876,0.8280798,-4.0994725,-11.793751,45.506252,-8.118751,-0.66617113,0.14874034,-0.7004272,1002.0276, , , , 
2025-11-24 19:44:10.693,9.12144,-10.165309,1.8744774,0.24021569,0.5605287,-3.9974608,-15.562501,44.662502,-7.7625003,-0.66606814,0.124401554,-0.7130868,1002.0276, , , , 
2025-11-24 19:44:10.713,7.998608,-9.102298,1.5346966,0.41430715,0.3534515,-3.9027796,-18.73125,43.21875,-7.74375,-0.6663789,0.09800897,-0.72289586,1002.0239, , , , 
2025-11-24 19:44:10.733,7.170392,-9.004191,1.3334004,0.5193729,0.26732203,-3.776334,-22.1625,41.23125,-8.118751,-0.66645926,0.071001604,-0.73070455,1002.0239, , , , 
2025-11-24 19:44:10.753,6.315556,-9.008977,1.015155,0.6617003,0.09017633,-3.5271084,-25.35,39.506252,-8.512501,-0.66619194,0.044369858,-0.73664176,1002.0122, , , , 
2025-11-24 19:44:10.773,5.697909,-8.525328,0.41665024,0.750884,-0.07230905,-3.2210739,-28.312502,37.331253,-9.168751,-0.66643304,0.018446065,-0.74008536,1002.0122, , , , 
2025-11-24 19:44:10.794,5.226224,-7.52453,-0.0047856453,0.6372664,-0.06192464,-2.9639072,-31.181252,35.11875,-9.6,-0.6667484,-0.0060085654,-0.7418106,1002.00635, , , , 
2025-11-24 19:44:10.813,4.3932223,-6.849455,0.12921242,0.43874106,0.09994988,-2.7873724,-33.1875,32.925003,-10.125,-0.66604036,-0.028134495,-0.74331886,1002.00635, , , , 
2025-11-24 19:44:10.833,3.2536407,-6.6652074,0.3711866,0.36238512,0.2422773,-2.5625806,-35.49375,30.375002,-10.25625,-0.663721,-0.04761207,-0.7454214,1002.001, , , , 
2025-11-24 19:44:10.853,2.1379871,-6.7465634,0.26799613,0.41369632,0.19951798,-2.221117,-37.18125,27.993752,-10.425,-0.66053355,-0.06488065,-0.7475681,1002.001, , , , 
2025-11-24 19:44:10.873,1.6950158,-6.9595246,0.02632105,0.5273139,-0.021608721,-1.7427472,-38.756252,25.781252,-10.44375,-0.6583574,-0.079927444,-0.7483187,1001.9966, , , , 
2025-11-24 19:44:10.894,1.8361923,-7.2613196,-0.43579283,0.5425851,-0.2280751,-1.2247487,-40.10625,23.7,-10.8,-0.6581417,-0.09240103,-0.7471675,1001.9966, , , , 
2025-11-24 19:44:10.913,1.9824536,-7.728219,-0.4860421,0.44790375,-0.31237203,-0.69819844,-40.96875,22.331251,-11.231251,-0.65950406,-0.10130021,-0.74483234,1001.9907, , , , 
2025-11-24 19:44:10.934,2.03031,-7.926823,-0.24646074,0.38559732,-0.35390964,-0.08674031,-41.8125,21.13125,-11.418751,-0.6617842,-0.10577033,-0.74218076,1001.9907, , , , 
2025-11-24 19:44:10.953,2.4179473,-7.713862,-0.06460621,0.38620818,-0.38811707,0.54915166,-42.581253,20.306252,-11.55,-0.665025,-0.10570937,-0.7392409,1001.9939, , , , 
2025-11-24 19:44:10.973,3.1603205,-7.5532436,-0.26799613,0.42896748,-0.3948364,1.1222028,-43.18125,19.81875,-11.325001,-0.66897094,-0.10171401,-0.73605436,1001.9939, , , , 
2025-11-24 19:44:10.993,4.2855453,-7.8574314,-1.1802598,0.46439663,-0.41194013,1.6835715,-43.2,19.575,-11.00625,-0.67458457,-0.09224003,-0.7315017,1001.9917, , , , 
2025-11-24 19:44:11.014,6.06431,-9.217153,-2.260021,0.30679804,-0.46141875,2.105056,-42.99375,19.931252,-10.70625,-0.67983,-0.08096782,-0.7268523,1001.9917, , , , 
2025-11-24 19:44:11.033,6.916454,-8.913264,-2.1906292,0.0019852535,-0.3227564,2.5576937,-42.3375,20.75625,-10.6125,-0.684991,-0.065003514,-0.72185963,1001.99146, , , , 
2025-11-24 19:44:11.053,8.417651,-8.570791,-1.6734804,-0.27350685,-0.12911785,2.8014219,-41.456253,22.181252,-10.293751,-0.68864584,-0.044380292,-0.7175699,1001.99146, , , , 
2025-11-24 19:44:11.073,8.729017,-8.9348,-0.98883396,-0.5392254,0.032145835,2.8496788,-40.518753,23.85,-10.181251,-0.69064873,-0.02106947,-0.71396154,1001.9878, , , , 
2025-11-24 19:44:11.093,8.786445,-9.7654085,0.09571291,-0.6137488,0.046195325,2.972459,-39.3375,25.875002,-10.05,-0.6914853,0.004519079,-0.7103705,1001.9878, , , , 
2025-11-24 19:44:11.113,8.7266245,-10.601102,0.7588239,-0.40422818,-0.07963921,3.2364216,-37.95,28.125002,-9.675,-0.6916957,0.03128066,-0.70565665,1001.99243, , , , 
2025-11-24 19:44:11.133,9.576375,-11.276176,0.37836507,-0.071927264,-0.27938625,3.6756206,-36.300003,30.337502,-9.75,-0.6916738,0.05845911,-0.6985075,1001.99243, , , , 
2025-11-24 19:44:11.153,11.044073,-11.044073,-0.57936215,0.10521844,-0.41194013,4.0366316,-34.537502,32.5875,-9.618751,-0.691169,0.08583272,-0.6885137,1002.00024, , , , 
2025-11-24 19:44:11.174,12.260225,-10.100702,-1.2137593,-0.053601846,-0.25922832,4.166742,-31.987501,34.8375,-9.6,-0.6895555,0.113628305,-0.67666894,1002.00024, , , , 
2025-11-24 19:44:11.193,12.937693,-9.142975,-0.80189466,-0.4317163,0.038865156,4.0598435,-28.968752,37.050003,-9.543751,-0.68589675,0.14292581,-0.66502416,1002.00977, , , , 
2025-11-24 19:44:11.213,12.906587,-8.513364,0.4764708,-0.6491779,0.17813833,3.7984009,-25.725,39.24375,-9.0375,-0.68065953,0.17313989,-0.654263,1002.00977, , , , 
2025-11-24 19:44:11.233,12.2889385,-7.7760754,1.4003994,-0.5972559,0.16714308,3.5638356,-22.050001,41.100002,-8.606251,-0.67452306,0.202046,-0.6439934,1002.0078, , , , 
2025-11-24 19:44:11.253,11.9153595,-6.966703,1.1443675,-0.45798272,0.29358846,3.3567584,-18.69375,42.675003,-7.7250004,-0.6672062,0.22843832,-0.63433266,1002.0078, , , , 
2025-11-24 19:44:11.273,11.154142,-6.2174506,-0.0071784677,-0.5697678,0.6588751,3.1844232,-15.4125,44.11875,-7.2187505,-0.65839356,0.2531602,-0.62599266,1002.0161, , , , 
2025-11-24 19:44:11.294,10.385748,-5.764908,-0.2009971,-1.0175952,1.1023502,3.0891309,-12.13125,45.131252,-6.8250003,-0.6479544,0.27971813,-0.61913645,1002.0161, , , , 
2025-11-24 19:44:11.313,10.3232355,-5.6093745,1.1036894,-1.4109808,1.3766971,3.0463717,-8.94375,45.956253,-6.3750005,-0.6362624,0.3097169,-0.61302876,1002.0149, , , , 
2025-11-24 19:44:11.334,10.945967,-5.1161537,2.0757737,-1.4451883,1.3400462,2.9388626,-5.71875,46.48125,-5.86875,-0.62359965,0.3409456,-0.6071554,1002.0149, , , , 
2025-11-24 19:44:11.353,11.592328,-4.666004,2.6431718,-1.274151,1.055315,2.6786416,-2.2687502,46.6875,-4.89375,-0.611366,0.3696261,-0.6011262,1002.0178, , , , 
2025-11-24 19:44:11.373,12.2171545,-4.045964,2.8704898,-0.9870528,0.7132405,2.3842132,1.2750001,46.95,-3.5625002,-0.60072005,0.393517,-0.59471315,1002.0178, , , , 
2025-11-24 19:44:11.393,12.798909,-3.3613176,2.5666013,-0.75981766,0.54037076,1.9218018,4.36875,47.193752,-2.41875,-0.59180045,0.41222513,-0.5887122,1002.02466, , , , 
2025-11-24 19:44:11.413,12.667304,-3.3086755,2.691028,-0.64673454,0.5489226,1.4141878,7.2937503,47.49375,-1.0125,-0.5848021,0.4265106,-0.5842674,1002.02466, , , , 
2025-11-24 19:44:11.433,12.660126,-3.9885364,2.827419,-0.45798272,0.5086067,0.9994225,9.3,47.287502,0.28125,-0.57909256,0.437178,-0.58209527,1002.0349, , , , 
2025-11-24 19:44:11.453,12.57847,-4.6875396,2.6671,-0.19470756,0.30030778,0.7153785,10.837501,47.193752,1.0500001,-0.5744683,0.44423038,-0.5817003,1002.0349, , , , 
2025-11-24 19:44:11.473,13.019049,-4.996513,2.5761726,0.042301174,-0.042988375,0.5289937,12.01875,47.025,1.7812501,-0.5713176,0.44768673,-0.58177525,1002.03613,37.88754084,127.74027565,143.0662841796875,1.57
2025-11-24 19:44:11.493,14.304593,-5.415556,2.6024938,0.2121167,-0.3575747,0.27243787,12.825001,46.612503,2.0062501,-0.5704163,0.44738084,-0.5815698,1002.03613, , , , 
2025-11-24 19:44:11.513,15.066109,-5.0563335,2.9662027,0.31229568,-0.436374,-0.19180603,13.593751,46.518753,1.66875,-0.5721211,0.4431421,-0.5818303,1002.03467, , , , 
2025-11-24 19:44:11.533,15.008681,-5.348557,3.0284162,0.44240612,-0.19203511,-0.927877,13.8,46.3875,1.40625,-0.5759724,0.43456227,-0.5849196,1002.03467, , , , 
2025-11-24 19:44:11.553,14.017454,-7.2302127,2.4849463,0.57984674,0.23128204,-1.5857595,14.325001,46.2,1.2375001,-0.5806224,0.42192876,-0.59290576,1002.0305, , , , 
2025-11-24 19:44:11.573,11.9560375,-7.6492558,1.5921243,0.73255855,0.5812975,-1.7378604,13.89375,46.443752,0.8625,-0.5837926,0.40759575,-0.60501015,1002.0305, , , , 
2025-11-24 19:44:11.593,11.001002,-6.643672,0.9026923,0.7808155,0.5134935,-1.6627263,12.825001,46.78125,0.80625004,-0.58482087,0.39393476,-0.618282,1002.021, , , , 
2025-11-24 19:44:11.613,11.343176,-6.2605214,1.1419746,0.7911999,0.110945135,-1.7800089,11.681251,46.912502,0.24375,-0.5867548,0.37985715,-0.6300484,1002.021, , , , 
2025-11-24 19:44:11.633,12.087942,-6.971489,1.8074784,0.9463551,-0.36551574,-2.0567226,9.69375,47.381252,-0.54375005,-0.5917489,0.36253628,-0.63996446,1002.011, , , , 
2025-11-24 19:44:11.653,12.61197,-8.772088,1.9582262,1.2261232,-1.0166789,-2.5418117,7.9500003,47.8125,-1.1625,-0.60309327,0.33311433,-0.65005285,1002.011, , , , 
2025-11-24 19:44:11.674,12.650555,-10.136595,1.7883358,1.3256912,-1.3233242,-2.8985467,6.05625,48.037502,-2.15625,-0.615536,0.3039336,-0.65620947,1002.0132, , , , 
2025-11-24 19:44:11.693,12.542578,-11.204392,1.4509479,1.3208045,-1.3746355,-3.2302368,3.6562502,48.24375,-2.90625,-0.6293091,0.2714685,-0.6613644,1002.0132, , , , 
2025-11-24 19:44:11.713,12.102299,-12.272189,0.89072824,1.146713,-1.3141615,-3.4898467,0.8625,48.2625,-4.03125,-0.6431271,0.2375053,-0.66605216,1002.01587, , , , 
2025-11-24 19:44:11.734,11.280962,-12.736696,0.8138588,0.8125796,-1.0979216,-3.59308,-2.34375,47.775,-5.4,-0.65635425,0.20431267,-0.67013705,1002.01587, , , , 
2025-11-24 19:44:11.753,10.522139,-12.48515,1.1276177,0.4808895,-0.71980715,-3.5264976,-5.49375,47.15625,-6.4875,-0.66738236,0.1741472,-0.67449707,1002.00635, , , , 
2025-11-24 19:44:11.773,9.660124,-11.599507,1.1754742,0.26342788,-0.31664795,-3.3579037,-9.3,46.256252,-7.2375,-0.67519575,0.14760272,-0.67999357,1002.00635, , , , 
2025-11-24 19:44:11.793,9.325129,-10.550853,1.0845468,-0.05054761,0.21356747,-3.2540598,-13.06875,44.943752,-7.8750005,-0.6794771,0.12483236,-0.6871103,1001.99854, , , , 
2025-11-24 19:44:11.813,8.35783,-9.605089,1.570589,-0.19165333,0.5678589,-3.2748284,-16.5,43.575,-7.9500003,-0.6803163,0.10508315,-0.69649583,1001.99854, , , , 
2025-11-24 19:44:11.833,7.266105,-8.700303,2.0901306,-0.13728791,0.615505,-3.2803261,-20.025002,42.54375,-8.34375,-0.679118,0.086298436,-0.70665574,1002.0027, , , , 
2025-11-24 19:44:11.853,6.593423,-8.23819,2.3892334,0.09972081,0.51288265,-3.2839913,-22.743752,41.23125,-8.83125,-0.67724085,0.06665554,-0.7159943,1002.0027, , , , 
2025-11-24 19:44:11.873,5.915955,-8.036893,2.164308,0.4161397,0.42308807,-3.2290149,-24.956251,39.506252,-8.94375,-0.67494386,0.045099802,-0.72409725,1002.001, , , , 
2025-11-24 19:44:11.893,5.037191,-7.7665043,1.623231,0.6690305,0.3974325,-3.177093,-27.50625,37.893753,-9.50625,-0.6720338,0.02178016,-0.7310916,1002.001, , , , 
2025-11-24 19:44:11.913,3.6583266,-7.5293155,1.1443675,0.8571714,0.3339044,-3.096461,-29.75625,35.8125,-9.84375,-0.66870815,-0.0027844468,-0.73692155,1001.9968, , , , 
2025-11-24 19:44:11.934,1.8170497,-7.318747,0.5386842,0.9591829,0.21112408,-2.7867615,-32.04375,33.825,-10.21875,-0.665319,-0.02719529,-0.7412927,1001.9968, , , , 
2025-11-24 19:44:11.953,0.6655038,-7.1153574,0.0071784677,1.0538642,-0.07536328,-2.1673625,-34.29375,31.931252,-10.8,-0.66311383,-0.04930289,-0.7432853,1001.99585, , , , 
2025-11-24 19:44:11.974,0.49322057,-7.077072,-0.7516454,1.1057862,-0.35940725,-1.5448327,-36.15,29.718752,-11.400001,-0.6629266,-0.0682903,-0.7425252,1001.99585, , , , 
2025-11-24 19:44:11.993,0.87637126,-7.285248,-1.4246268,0.96834564,-0.57931226,-0.9859075,-37.7625,27.54375,-12.01875,-0.6649979,-0.08363131,-0.73924655,1001.98755, , , , 
2025-11-24 19:44:12.014,1.6304095,-8.082356,-1.7285153,0.70507044,-0.6465055,-0.51127917,-39.0,25.44375,-12.712501,-0.668787,-0.094132826,-0.73444384,1001.98755, , , , 
2025-11-24 19:44:12.033,2.774777,-8.896515,-1.2951152,0.35138988,-0.60496783,0.15332267,-39.975002,23.98125,-12.843751,-0.6734093,-0.09844421,-0.7293173,1001.9883, , , , 
2025-11-24 19:44:12.053,3.6918263,-8.73141,-0.49082774,0.17546588,-0.43576315,0.6713975,-40.800003,23.0625,-12.8625,-0.67795885,-0.09666605,-0.72474,1001.9883, , , , 
2025-11-24 19:44:12.073,3.777968,-8.072785,-0.04546363,0.16874656,-0.19203511,1.0592855,-41.1375,22.518751,-12.356251,-0.68129,-0.090751626,-0.72144365,1001.98584, , , , 
2025-11-24 19:44:12.093,4.510471,-9.025727,-0.53389853,0.22799873,-0.102851406,1.373261,-41.325,22.706251,-11.8125,-0.6833688,-0.082496904,-0.7190841,1001.98584, , , , 
2025-11-24 19:44:12.113,5.3365927,-10.787742,-1.3764713,0.119267926,-0.118733436,1.7348826,-41.175003,23.04375,-12.01875,-0.68552256,-0.072091,-0.7161905,1001.9866, , , , 
2025-11-24 19:44:12.133,6.009275,-11.441281,-1.3405789,-0.1421747,-0.054594472,2.2828126,-40.425003,23.75625,-11.700001,-0.68790317,-0.057279594,-0.71258736,1001.9866, , , , 
2025-11-24 19:44:12.154,6.7968125,-11.182857,-0.663111,-0.41033664,-0.047264308,2.7525542,-39.487503,25.181252,-11.793751,-0.69012815,-0.036813222,-0.7083682,1001.98584, , , , 
2025-11-24 19:44:12.173,7.646863,-11.187642,0.37836507,-0.51356983,-0.096742935,3.0995154,-38.0625,26.925001,-12.0,-0.69226676,-0.012006078,-0.7030136,1001.98584, , , , 
2025-11-24 19:44:12.193,8.827123,-11.726327,0.9314062,-0.3981197,-0.06925481,3.4135673,-36.487503,29.00625,-11.212501,-0.6936223,0.015252655,-0.6965164,1001.9966, , , , 
2025-11-24 19:44:12.214,10.167702,-12.066406,0.79710907,-0.14767233,-0.05764871,3.6609604,-34.65,31.3875,-10.96875,-0.6933924,0.043398228,-0.6889929,1001.9966, , , , 
2025-11-24 19:44:12.233,11.111072,-11.97518,0.10767702,0.06490252,-0.08025006,3.838717,-32.68125,33.5625,-10.481251,-0.6916081,0.07097132,-0.6801488,1002.0039, , , , 
2025-11-24 19:44:12.254,11.733505,-11.438889,-0.6678966,0.011147963,-0.081471756,3.9285114,-30.2625,35.456253,-10.05,-0.6887729,0.09793913,-0.66967547,1002.0039, , , , 
2025-11-24 19:44:12.273,12.013465,-10.2347,-0.8042875,-0.26678753,0.10300412,3.9443934,-27.35625,37.537502,-10.293751,-0.68498063,0.1255672,-0.6581488,1002.00903, , , , 
2025-11-24 19:44:12.293,12.013465,-8.985049,-0.4764708,-0.6308525,0.39926505,3.8161156,-24.431252,39.318752,-10.21875,-0.6796833,0.15483616,-0.64698434,1002.00903, , , , 
2025-11-24 19:44:12.313,11.767004,-7.6851482,0.56500524,-0.8435037,0.63810635,3.510081,-20.98125,41.04375,-10.462501,-0.67102134,0.19283065,-0.6348633,1002.01636, , , , 
2025-11-24 19:44:12.334,11.221142,-6.8374906,0.80189466,-0.84411454,0.71873814,3.2149656,-17.625,42.54375,-10.368751,-0.6627965,0.2218597,-0.6267972,1002.01636, , , , 
2025-11-24 19:44:12.354,11.068001,-6.4208403,0.6559325,-0.89603657,0.79753745,2.981011,-14.55,43.893753,-9.900001,-0.6562949,0.24244402,-0.6212102,1002.0193, , , , 
2025-11-24 19:44:12.374,10.205987,-5.748158,0.8787641,-0.9998806,0.7175165,2.6865826,-11.3625,44.943752,-9.13125,-0.64597523,0.27475652,-0.61238444,1002.0193, , , , 
2025-11-24 19:44:12.393,10.021739,-5.4777694,0.77318084,-1.1196066,0.8238039,2.529595,-8.08125,45.581253,-8.25,-0.6381721,0.29935768,-0.6052531,1002.0156, , , , 
2025-11-24 19:44:12.413,9.906884,-5.046762,1.2831511,-1.2558256,0.9087117,2.3842132,-5.1937504,46.425003,-7.3500004,-0.6302411,0.32398424,-0.5985367,1002.0156, , , , 
2025-11-24 19:44:12.433,10.06481,-4.570291,1.7117655,-1.2338351,0.9636879,2.268763,-2.2125,46.818752,-6.3750005,-0.621958,0.34811133,-0.5923764,1002.02295, , , , 
2025-11-24 19:44:12.453,10.373485,-3.993322,1.8337995,-1.1177741,0.95513606,2.1227705,0.75,47.15625,-5.7000003,-0.61314493,0.3708543,-0.5869713,1002.02295, , , , 
2025-11-24 19:44:12.473,10.699207,-3.315854,1.867299,-0.93329823,0.8195279,1.9303536,3.0,47.60625,-4.65,-0.6044163,0.39120254,-0.58221734,1002.0254,37.88755361,127.74026932,143.11065673828125,1.44
2025-11-24 19:44:12.493,11.462817,-3.1435707,1.7285153,-0.7078193,0.5929036,1.6921233,5.4,47.71875,-3.24375,-0.59654665,0.40813497,-0.57790154,1002.0254, , , , 
2025-11-24 19:44:12.513,12.131013,-3.2368908,1.4868401,-0.5251759,0.38399386,1.4123552,7.5937505,47.643753,-1.9875001,-0.59022087,0.42116547,-0.57397896,1002.0237, , , , 
2025-11-24 19:44:12.533,12.882658,-3.411567,1.474876,-0.3736858,0.18607935,1.1350305,9.450001,47.662502,-0.91875005,-0.5855192,0.43073994,-0.5705884,1002.0237, , , , 
2025-11-24 19:44:12.553,13.672588,-3.653541,1.7021942,-0.22830416,-0.11995513,0.78623676,11.306251,47.4,-0.0375,-0.58298135,0.4366423,-0.5676818,1002.022, , , , 
2025-11-24 19:44:12.573,14.932111,-4.5487556,2.0231316,-0.06704049,-0.5139516,0.3891097,12.76875,46.987503,0.45000002,-0.5834178,0.43808463,-0.5650027,1002.022, , , , 
2025-11-24 19:44:12.593,15.877575,-4.7688956,2.5953152,0.06368083,-0.7601231,-0.07269082,13.81875,46.6875,0.84375006,-0.5871886,0.43458,-0.5626949,1002.0205, , , , 
2025-11-24 19:44:12.613,16.208084,-4.4554358,3.098107,0.2005106,-0.58175564,-0.860073,14.56875,46.350002,0.99375004,-0.5935286,0.42615265,-0.5626146,1002.0205, , , , 
2025-11-24 19:44:12.633,15.755541,-5.451448,2.9733813,0.2506001,-0.15599512,-1.5100144,14.55,46.2,0.84375006,-0.5991426,0.41676846,-0.5659165,1002.02856, , , , 
2025-11-24 19:44:12.653,13.584054,-7.960323,2.2504497,0.3501682,0.78226626,-2.2021806,13.81875,46.350002,0.375,-0.60716015,0.39792806,-0.5795924,1002.02856, , , , 
2025-11-24 19:44:12.673,11.407782,-7.383353,1.5945172,0.5126536,1.2245197,-2.1905746,12.76875,46.78125,-0.26250002,-0.60914016,0.38356295,-0.59620917,1002.0281, , , , 
2025-11-24 19:44:12.693,11.3575325,-7.184749,0.89312106,0.6641437,1.0479848,-2.1954615,11.043751,47.268753,-0.58125,-0.6084154,0.3699971,-0.61402106,1002.0281, , , , 
2025-11-24 19:44:12.713,12.439687,-8.343473,0.4860421,0.8333484,0.31313556,-2.4752295,9.075001,47.79375,-0.91875005,-0.6097597,0.35368276,-0.62980765,1002.0344, , , , 
2025-11-24 19:44:12.733,13.143476,-10.160523,0.30418757,0.89870906,-0.41194013,-2.8221908,7.0687504,48.16875,-1.0125,-0.6158794,0.33233342,-0.64206284,1002.0344, , , , 
2025-11-24 19:44:12.754,13.519448,-11.972787,0.46929234,0.8138013,-0.9165,-3.105013,4.74375,48.131252,-1.3687501,-0.6268203,0.30656266,-0.6503896,1002.03345, , , , 
2025-11-24 19:44:12.773,13.155439,-12.420544,0.9290134,0.6372664,-1.052108,-3.2479513,2.23125,48.018753,-2.1375,-0.64051193,0.27861795,-0.65567863,1002.03345, , , , 
2025-11-24 19:44:12.794,12.65534,-11.982359,1.2879368,0.4497363,-0.8474742,-3.364623,-0.5625,48.018753,-3.0,-0.6541484,0.25058958,-0.65989757,1002.0222, , , , 
2025-11-24 19:44:12.813,11.783754,-11.273784,1.6040884,0.33917293,-0.4272113,-3.509394,-3.3000002,47.49375,-3.80625,-0.66561335,0.22317083,-0.66524917,1002.0222, , , , 
2025-11-24 19:44:12.833,10.847563,-10.510175,1.3022938,0.30435464,0.085289545,-3.604686,-6.7500005,47.15625,-4.5375004,-0.6734546,0.19649157,-0.6730477,1002.0178, , , , 
2025-11-24 19:44:12.853,9.6122675,-9.823135,0.5386842,0.21272756,0.58801687,-3.6028535,-10.387501,46.4625,-5.175,-0.6772965,0.17086339,-0.6833556,1002.0178, , , , 
2025-11-24 19:44:12.873,8.573184,-9.164511,0.36161533,0.08322794,0.9453625,-3.505118,-13.70625,45.131252,-5.53125,-0.67736185,0.14749491,-0.69548094,1002.01514, , , , 
2025-11-24 19:44:12.893,7.8311105,-8.599505,0.47168517,0.047798797,1.0687536,-3.3786726,-17.04375,43.93125,-6.15,-0.67477363,0.12636164,-0.7081611,1002.01514, , , , 
2025-11-24 19:44:12.913,7.062715,-8.108678,0.8353942,0.19867808,0.931313,-3.2980406,-20.268751,42.600002,-6.2625003,-0.6709663,0.106093995,-0.72011775,1002.00464, , , , 
2025-11-24 19:44:12.933,6.3011994,-7.792825,0.8859426,0.47233763,0.6301653,-3.1893098,-23.38125,41.025,-6.6375003,-0.6670026,0.07928795,-0.73192394,1002.00464, , , , 
2025-11-24 19:44:12.954,5.6500525,-7.5774713,0.6655038,0.65192676,0.38093963,-3.0378199,-26.362501,39.412502,-7.18125,-0.66539603,0.062258393,-0.7370696,1002.00195, , , , 
2025-11-24 19:44:12.973,5.0252266,-7.4120674,0.3592225,0.77226365,0.21112408,-2.8276882,-29.362501,37.93125,-7.5000005,-0.66363853,0.03360614,-0.7429805,1002.00195, , , , 
2025-11-24 19:44:12.994,4.2711883,-7.2708907,0.15553348,0.77715045,0.15614784,-2.5949554,-31.593752,35.90625,-8.19375,-0.66241115,0.011564456,-0.7461083,1002.00073, , , , 
2025-11-24 19:44:13.013,3.342175,-7.079465,0.05503492,0.77348536,0.10544751,-2.3029704,-33.46875,33.9,-8.8125,-0.66111,-0.008727967,-0.748262,1002.00073, , , , 
2025-11-24 19:44:13.034,2.5522444,-7.0268226,-0.18664017,0.7698203,0.08040277,-1.9266123,-35.4,31.781252,-9.4875,-0.6598514,-0.026791753,-0.7495753,1001.99756, , , , 
2025-11-24 19:44:13.053,2.3030918,-7.1273212,-0.69182485,0.7160657,0.1078909,-1.4721419,-36.99375,29.41875,-10.012501,-0.65845317,-0.041899014,-0.7504683,1001.99756, , , , 
2025-11-24 19:44:13.073,2.2624137,-7.342675,-1.0271192,0.5725166,0.088343784,-1.0182824,-38.23125,27.656252,-10.575001,-0.65717167,-0.05332461,-0.7510373,1002.0017, , , , 
2025-11-24 19:44:13.093,2.1834507,-7.6851482,-0.9409775,0.41308546,0.0077119465,-0.55342764,-39.16875,26.19375,-11.025001,-0.6565858,-0.06057064,-0.75105107,1002.0017, , , , 
2025-11-24 19:44:13.113,2.1164517,-7.7497544,-0.5315057,0.29519194,-0.10773818,-0.02687728,-39.65625,25.06875,-11.418751,-0.6570589,-0.06340534,-0.7503281,1001.9978, , , , 
2025-11-24 19:44:13.134,2.6551359,-7.8957167,-0.040677983,0.3092414,-0.2268534,0.47585002,-40.350002,24.337502,-12.056251,-0.6587282,-0.062296163,-0.74870664,1001.9978, , , , 
2025-11-24 19:44:13.153,2.990131,-7.804789,-0.10289137,0.38071054,-0.27694288,0.93833774,-40.6875,23.8875,-12.356251,-0.66118145,-0.058418393,-0.74633265,1002.0027, , , , 
2025-11-24 19:44:13.173,4.1177487,-8.451151,-0.6439684,0.45523393,-0.32703236,1.3586006,-40.66875,23.831251,-12.337501,-0.66403836,-0.052218784,-0.74332416,1002.0027, , , , 
2025-11-24 19:44:13.194,5.547161,-10.0672035,-1.6399808,0.39048412,-0.44614756,1.7446561,-40.59375,24.13125,-12.187501,-0.66784096,-0.04361704,-0.7389877,1002.0027, , , , 
2025-11-24 19:44:13.213,6.509674,-10.213165,-2.070988,0.13453911,-0.47791162,2.2162302,-39.881252,25.06875,-11.925,-0.6722857,-0.030989401,-0.7334383,1002.0027, , , , 
2025-11-24 19:44:13.233,7.711469,-10.708778,-1.7500507,-0.21914145,-0.5060106,2.5106585,-39.112503,26.212502,-11.6625,-0.67707723,-0.0137486225,-0.72681034,1002.01196, , , , 
2025-11-24 19:44:13.253,8.755338,-11.369496,-0.89312106,-0.4909685,-0.46813807,2.7818747,-37.987503,27.73125,-11.7375,-0.6815745,0.007726111,-0.71950424,1002.01196, , , , 
2025-11-24 19:44:13.273,9.7654085,-11.826825,-0.05742774,-0.5557183,-0.37651098,3.084855,-36.581253,29.437502,-11.15625,-0.68500704,0.032561023,-0.71176046,1002.0095, , , , 
2025-11-24 19:44:13.294,10.40489,-11.776576,0.06699903,-0.47203222,-0.2720561,3.3127773,-34.85625,31.087502,-10.556251,-0.6867149,0.05905685,-0.7037373,1002.0095, , , , 
2025-11-24 19:44:13.313,10.962717,-11.405389,0.0047856453,-0.4237753,-0.28671643,3.5296283,-33.075,33.05625,-9.95625,-0.68688935,0.086382315,-0.6949765,1002.011, , , , 
2025-11-24 19:44:13.335,11.575579,-10.692029,0.069391854,-0.38040513,-0.28427303,3.6731772,-30.618752,35.1375,-9.1875,-0.68605924,0.114178754,-0.68489915,1002.011, , , , 
2025-11-24 19:44:13.353,11.860325,-9.559626,0.06699903,-0.3773509,-0.18898088,3.6841726,-27.862501,37.3125,-8.887501,-0.68391407,0.14179653,-0.6740317,1002.0193, , , , 
2025-11-24 19:44:13.374,11.594721,-8.003393,-0.0071784677,-0.44943088,0.030313294,3.5760527,-24.975,39.300003,-8.418751,-0.6788059,0.17555426,-0.6608044,1002.0193, , , , 
2025-11-24 19:44:13.394,11.285748,-7.153642,0.10767702,-0.564881,0.19646375,3.4007394,-21.675001,41.175003,-8.043751,-0.6745743,0.1954591,-0.653481,1002.0193, , , , 
2025-11-24 19:44:13.413,10.967503,-6.600601,0.47886363,-0.61863554,0.24288814,3.200916,-18.9375,42.73125,-7.6687503,-0.66817796,0.22144826,-0.64430225,1002.0193, , , , 
2025-11-24 19:44:13.433,10.648958,-6.0523458,0.55304116,-0.5905366,0.17752749,2.9639072,-16.06875,44.0625,-7.2000003,-0.6614615,0.24596536,-0.63534,1002.0188, , , , 
2025-11-24 19:44:13.453,10.117453,-5.398806,0.13878371,-0.68949383,0.22578442,2.7904267,-13.06875,45.3375,-6.8437505,-0.6551609,0.26844475,-0.6261267,1002.0188, , , , 
2025-11-24 19:44:13.473,9.731909,-4.8098726,0.285045,-0.9766684,0.49272466,2.6517644,-10.106251,46.21875,-6.4687505,-0.64874166,0.29086334,-0.61718506,1002.01855,37.88756441,127.74026348,143.17529296875,1.35
2025-11-24 19:44:13.493,9.46152,-4.273581,1.2735798,-1.1275477,0.68758494,2.553418,-7.0687504,46.7625,-5.71875,-0.6414551,0.3146561,-0.6092713,1002.01855, , , , 
2025-11-24 19:44:13.513,9.810872,-3.9335012,1.7213368,-1.0346988,0.7059104,2.4886682,-4.3500004,47.30625,-4.9875,-0.6329947,0.33865702,-0.602261,1002.0171, , , , 
2025-11-24 19:44:13.533,10.34477,-3.5383866,1.8361923,-0.82517827,0.5409816,2.3603902,-1.7062501,47.737503,-3.9375002,-0.6240826,0.36088088,-0.5956271,1002.0171, , , , 
2025-11-24 19:44:13.553,11.07518,-2.975774,1.7931215,-0.6229115,0.28870168,2.205235,0.65625,47.943752,-2.8875,-0.6157554,0.379968,-0.58883446,1002.0161, , , , 
2025-11-24 19:44:13.573,12.5449705,-2.6551359,2.0494525,-0.42927292,0.03642177,1.968837,3.2625,48.075,-2.15625,-0.60876155,0.39553624,-0.5817231,1002.0161, , , , 
2025-11-24 19:44:13.593,14.287843,-2.3868406,2.2552354,-0.094528615,-0.22013408,1.5681213,5.625,47.86875,-1.6125001,-0.60338044,0.40656003,-0.5752652,1002.0176, , , , 
2025-11-24 19:44:13.613,15.5952215,-2.652743,1.3980067,0.24388076,-0.41988114,0.9322293,7.89375,47.568752,-1.06875,-0.6000224,0.41137382,-0.5707111,1002.0176, , , , 
2025-11-24 19:44:13.634,16.143476,-3.1363924,0.48364928,0.1913479,-0.38628453,0.50272727,9.4875,47.4,-0.90000004,-0.5994921,0.41085926,-0.5680598,1002.02954, , , , 
2025-11-24 19:44:13.653,16.902302,-3.8138602,0.6439684,-0.1653869,-0.14194563,-0.21013145,10.556251,47.23125,-0.7875,-0.60257995,0.40732986,-0.5672928,1002.02954, , , , 
2025-11-24 19:44:13.675,16.509579,-3.9023945,1.5634105,-0.41583428,0.21295662,-0.8765658,11.306251,46.96875,-0.80625004,-0.6074067,0.4030119,-0.56984085,1002.0305, , , , 
2025-11-24 19:44:13.694,15.087644,-4.35733,2.5809584,-0.47447562,0.6826982,-1.5662124,11.325001,47.025,-0.88125,-0.61283374,0.39687812,-0.5768774,1002.0305, , , , 
2025-11-24 19:44:13.713,13.730017,-6.346663,2.7580273,-0.31870955,1.1194539,-2.0921519,11.00625,47.25,-0.7875,-0.6170181,0.38854522,-0.58904195,1002.03613, , , , 
2025-11-24 19:44:13.734,11.7311125,-7.7832537,2.4035904,-0.029167956,1.4414468,-2.2217278,9.58125,47.30625,-0.3375,-0.61866903,0.37851867,-0.6050117,1002.03613, , , , 
2025-11-24 19:44:13.753,10.996217,-7.7425756,1.7213368,0.3165716,1.3021736,-2.0383973,8.118751,47.643753,0.13125001,-0.6172439,0.3682335,-0.62215656,1002.04346, , , , 
2025-11-24 19:44:13.773,11.664113,-8.120642,1.2807583,0.58473355,0.70407784,-2.0066333,6.1687503,47.775,0.54375005,-0.6165075,0.35932863,-0.6335778,1002.04346, , , , 
2025-11-24 19:44:13.793,12.908979,-8.748159,1.1084751,0.90970427,-0.25128728,-2.160643,4.2375,47.756252,0.65625,-0.620309,0.3388916,-0.64753366,1002.0354, , , , 
2025-11-24 19:44:13.813,13.940884,-9.684052,1.0510473,1.0159917,-0.8541935,-2.4434655,2.3625002,47.9625,0.16875,-0.6288564,0.3165943,-0.6541909,1002.0354, , , , 
2025-11-24 19:44:13.833,14.434104,-10.40489,0.9385847,0.9768975,-1.0514972,-2.8111954,0.31875002,48.206253,-0.3,-0.64063066,0.29020578,-0.6585975,1002.03, , , , 
2025-11-24 19:44:13.853,13.703695,-10.692029,0.9529416,0.7783721,-0.8389224,-3.1709845,-2.15625,48.075,-1.2,-0.65312743,0.26169837,-0.6628111,1002.03, , , , 
2025-11-24 19:44:13.874,12.4731865,-10.991431,1.1204392,0.567019,-0.4259896,-3.41288,-5.0437503,47.643753,-1.6875001,-0.663887,0.23323639,-0.66850823,1002.03174, , , , 
2025-11-24 19:44:13.893,11.405389,-10.869098,1.2017952,0.51876205,-0.016111096,-3.4751863,-7.93125,47.006252,-2.11875,-0.67140037,0.20599622,-0.6762491,1002.03174, , , , 
2025-11-24 19:44:13.913,10.280165,-10.270593,0.6056832,0.4796678,0.28992337,-3.428762,-11.38125,46.425003,-3.15,-0.6756534,0.17992438,-0.68547004,1002.0198, , , , 
2025-11-24 19:44:13.933,9.217153,-9.23151,0.5099703,0.41797224,0.48356196,-3.3469086,-14.587501,45.6375,-3.6750002,-0.67749566,0.15530063,-0.6952428,1002.0198, , , , 
2025-11-24 19:44:13.953,8.810373,-8.429615,0.29461628,0.32023668,0.62833273,-3.2027485,-17.60625,44.5125,-4.55625,-0.677556,0.13222294,-0.70486474,1002.0115, , , , 
2025-11-24 19:44:13.974,8.616255,-8.161619,0.5626124,0.33001024,0.72729003,-3.2277932,-20.831251,43.350002,-5.4,-0.67602444,0.11018222,-0.71449584,1002.0115, , , , 
2025-11-24 19:44:13.993,7.467102,-8.1687975,0.43818563,0.49799323,0.64543647,-3.2632225,-23.60625,41.643753,-5.625,-0.67345744,0.08754984,-0.7238177,1002.00024, , , , 
2025-11-24 19:44:14.014,6.2030935,-8.089535,-0.23688944,0.5358658,0.44874367,-3.1239493,-25.968752,39.91875,-6.2250004,-0.6712441,0.064262025,-0.7312839,1002.00024, , , , 
2025-11-24 19:44:14.033,5.360521,-7.663613,-0.3592225,0.41003123,0.29419932,-2.8441813,-28.406252,38.2125,-6.6562505,-0.6697321,0.042284686,-0.7365286,1001.9978, , , , 
2025-11-24 19:44:14.053,5.113761,-7.24457,0.11964113,0.30313295,0.24533153,-2.5796843,-30.4125,36.15,-7.0312505,-0.668535,0.022957494,-0.74017733,1001.9978, , , , 
2025-11-24 19:44:14.073,4.7715874,-6.971489,0.39750767,0.31779328,0.28014982,-2.348784,-32.643753,34.21875,-7.6125,-0.66687036,0.005748526,-0.7432495,1002.00244, , , , 
2025-11-24 19:44:14.093,4.1703906,-6.567102,0.55782676,0.3917058,0.30091864,-2.103147,-34.74375,32.23125,-7.89375,-0.66451436,-0.010086756,-0.7461447,1002.00244, , , , 
2025-11-24 19:44:14.114,3.6631124,-6.2844496,0.29461628,0.51509696,0.2654895,-1.8722469,-36.525,30.206251,-8.400001,-0.6619387,-0.025003007,-0.7485876,1001.99756, , , , 
2025-11-24 19:44:14.133,2.9039893,-6.265307,-0.09810573,0.5841227,0.24166645,-1.6352382,-38.2125,28.312502,-9.0375,-0.6594462,-0.039264016,-0.7504558,1001.99756, , , , 
2025-11-24 19:44:14.153,2.3605196,-6.5718875,-0.51475596,0.6012264,0.15492614,-1.3145432,-39.075,26.456251,-9.31875,-0.6573047,-0.052151494,-0.75169104,1002.0051, , , , 
2025-11-24 19:44:14.173,2.1714866,-7.1416783,-0.95772725,0.58778775,-2.2906772E-4,-0.86618143,-40.125,25.181252,-10.106251,-0.6561775,-0.06256476,-0.7519365,1002.0051, , , , 
2025-11-24 19:44:14.193,2.4801607,-7.3689966,-1.3310076,0.5639647,-0.24701136,-0.3323009,-40.893753,24.056252,-10.51875,-0.6568874,-0.06956082,-0.7506995,1001.9978, , , , 
2025-11-24 19:44:14.214,2.951846,-7.301997,-1.8649062,0.40575528,-0.39056048,0.13744064,-41.175003,23.175001,-10.70625,-0.65962577,-0.07285528,-0.74792135,1001.9978, , , , 
2025-11-24 19:44:14.234,2.6694927,-7.022037,-1.7285153,0.09849912,-0.33619505,0.6597914,-41.71875,22.35,-11.0625,-0.66405046,-0.07075659,-0.7440228,1001.9929, , , , 
2025-11-24 19:44:14.253,3.370889,-6.96431,-1.3142579,0.02275406,-0.31298286,1.1729031,-42.131252,21.900002,-11.0625,-0.6665811,-0.0655472,-0.7420344,1001.9929, , , , 
2025-11-24 19:44:14.274,5.580661,-8.12782,-1.8481563,0.052685577,-0.51272994,1.6560832,-42.05625,21.956251,-10.950001,-0.6707095,-0.052140005,-0.73747045,1001.9861, , , , 
2025-11-24 19:44:14.294,7.66122,-8.827123,-2.178665,-0.12751436,-0.7130878,2.0794005,-41.90625,22.5375,-10.575001,-0.67824775,-0.037867438,-0.73160005,1001.9861, , , , 
2025-11-24 19:44:14.314,8.872586,-9.099904,-1.7739788,-0.4097258,-0.73813254,2.2412748,-41.60625,23.550001,-10.293751,-0.6850032,-0.020378299,-0.72456986,1001.98975, , , , 
2025-11-24 19:44:14.334,9.006584,-9.847063,-0.91226363,-0.6876613,-0.50784314,2.4544606,-40.78125,25.06875,-9.39375,-0.69057083,3.2499013E-4,-0.7179012,1001.98975, , , , 
2025-11-24 19:44:14.354,9.533304,-10.4001045,0.05742774,-0.7695912,-0.24456798,2.796535,-39.506252,26.718752,-8.64375,-0.69362324,0.024932066,-0.7124613,1001.9927, , , , 
2025-11-24 19:44:14.374,10.426426,-10.589137,0.30897322,-0.6113054,-0.18042901,3.0750813,-38.362503,28.800001,-8.118751,-0.69450194,0.051790275,-0.70741016,1001.9927, , , , 
2025-11-24 19:44:14.394,11.087144,-10.3232355,-0.12203395,-0.44759834,-0.25861746,3.2950628,-36.600002,30.975,-7.425,-0.6944954,0.078787595,-0.70121074,1001.9978, , , , 
2025-11-24 19:44:14.414,11.908181,-9.933205,-0.37597227,-0.4164451,-0.3380276,3.3995178,-34.6875,32.71875,-7.0312505,-0.6941502,0.10557472,-0.6933351,1001.9978, , , , 
2025-11-24 19:44:14.434,12.241082,-9.08794,-0.0526421,-0.4445441,-0.34657946,3.398296,-32.737503,34.875,-6.6000004,-0.69321364,0.13209102,-0.684319,1001.9978, , , , 
2025-11-24 19:44:14.454,11.917752,-8.125427,0.3400799,-0.44271156,-0.22074492,3.3213294,-30.16875,36.9375,-6.01875,-0.6911122,0.1578623,-0.67513555,1001.9978, , , , 
2025-11-24 19:44:14.474,11.381461,-7.2206416,0.4022933,-0.43904647,-0.017943637,3.2327564,-27.7875,38.71875,-5.11875,-0.68715537,0.18285736,-0.66672856,1002.01294,37.88756441,127.74026348,143.17529296875,1.35
2025-11-24 19:44:14.494,10.993824,-6.43759,0.48125646,-0.4085041,0.008322794,3.1178408,-24.7875,40.78125,-4.6312504,-0.68183535,0.20704183,-0.65887123,1002.01294, , , , 
2025-11-24 19:44:14.514,10.596316,-5.7984076,0.51236314,-0.33947837,-0.118733436,2.996893,-21.73125,42.3375,-3.99375,-0.6765013,0.22963159,-0.65042263,1002.02563, , , , 
2025-11-24 19:44:14.534,10.924132,-5.449055,0.16510476,-0.47508645,-0.04421007,2.8264666,-18.65625,43.612503,-3.6937501,-0.67118394,0.2508173,-0.6414041,1002.02563, , , , 
2025-11-24 19:44:14.554,10.452746,-4.9462633,0.8596215,-0.5624376,0.04497363,2.637104,-15.375001,45.0,-3.6562502,-0.6659411,0.2712556,-0.6326269,1002.0281, , , , 
2025-11-24 19:44:14.574,10.069596,-4.465007,1.07019,-0.64795625,0.26304612,2.532649,-12.525001,45.75,-3.35625,-0.659853,0.29126638,-0.6247453,1002.0281, , , , 
2025-11-24 19:44:14.594,10.093524,-3.9574296,1.5849459,-0.63573927,0.3729986,2.4147556,-9.731251,46.537502,-2.9625,-0.65262353,0.31137487,-0.61796755,1002.0303, , , , 
2025-11-24 19:44:14.614,10.371092,-3.4761732,1.6543378,-0.476919,0.3418454,2.2620437,-6.7875004,47.15625,-2.34375,-0.644744,0.33020186,-0.61212087,1002.0303, , , , 
2025-11-24 19:44:14.634,10.646565,-3.0909286,1.3046865,-0.34680852,0.30885965,2.1203272,-4.2375,47.4375,-1.6125001,-0.6388029,0.34270483,-0.6081476,1002.03955, , , , 
2025-11-24 19:44:14.654,11.15175,-2.7556343,0.70618176,-0.21547636,0.24594238,1.8240663,-1.725,47.68125,-1.06875,-0.629555,0.360201,-0.6022827,1002.03955, , , , 
2025-11-24 19:44:14.674,12.011072,-3.141178,0.21774685,-0.21242213,0.22028679,1.5656779,0.3375,47.831253,-0.52500004,-0.6231835,0.37157354,-0.59822536,1002.0447, , , , 
2025-11-24 19:44:14.694,13.325629,-3.6870406,0.16031912,-0.220974,0.14332004,1.2529241,2.0625,47.68125,-0.09375,-0.6181217,0.3810207,-0.5947118,1002.0447, , , , 
2025-11-24 19:44:14.714,14.7356,-4.328616,0.29940194,-0.1861557,-0.020997874,0.8070056,3.61875,47.7,0.09375,-0.6149949,0.38770682,-0.5919494,1002.0393, , , , 
2025-11-24 19:44:14.734,14.824135,-4.388437,0.6966105,-0.100026235,-0.09552124,0.3023694,4.74375,47.568752,0.46875003,-0.6144353,0.3903768,-0.59029996,1002.0393, , , , 
2025-11-24 19:44:14.754,14.223237,-4.3812585,0.80907315,-0.021226943,-0.0026724567,-0.092237934,5.86875,47.41875,0.35625002,-0.61542994,0.3894618,-0.59051114,1002.04175, , , , 
2025-11-24 19:44:14.774,13.49552,-3.9430726,0.87158567,0.0697893,0.16042376,-0.40254834,6.4125004,47.7,0.15,-0.6167409,0.38633627,-0.59291005,1002.04175, , , , 
2025-11-24 19:44:14.794,12.80848,-3.6077783,0.6774679,0.13209572,0.29969692,-0.7311842,6.95625,47.7,0.1875,-0.61793274,0.38141203,-0.5976031,1002.0383, , , , 
2025-11-24 19:44:14.814,12.336796,-4.465007,0.65353966,0.16569231,0.3326827,-1.0689827,6.8812504,48.0,-0.09375,-0.6195379,0.37467095,-0.60409695,1002.0383, , , , 
2025-11-24 19:44:14.834,11.429317,-5.2716875,0.770788,0.31351736,0.27037627,-1.1893196,6.24375,48.318752,-0.15,-0.62162423,0.3661199,-0.6115575,1002.03296, , , , 
2025-11-24 19:44:14.854,11.352747,-5.1233325,0.39511484,0.49921492,0.046195325,-1.1257915,5.71875,48.131252,-0.112500004,-0.6235608,0.35634938,-0.61881536,1002.03296, , , , 
2025-11-24 19:44:14.874,12.133406,-4.79073,0.1794617,0.50288,-0.268391,-1.2424634,4.6687503,48.2625,-0.375,-0.6267899,0.34506932,-0.62452775,1002.02344, , , , 
2025-11-24 19:44:14.894,13.196417,-5.343771,0.7325028,0.46073154,-0.47791162,-1.5888137,3.3937502,48.075,-0.82500005,-0.6326335,0.3314103,-0.6288837,1002.02344, , , , 
2025-11-24 19:44:14.914,13.859528,-6.631708,0.9816555,0.42835665,-0.5328879,-2.0084658,2.0062501,47.943752,-1.3312501,-0.64054745,0.31470227,-0.6331846,1002.01904, , , , 
2025-11-24 19:44:14.934,13.473985,-7.996215,1.2017952,0.24998924,-0.3820086,-2.4226966,0.26250002,47.925003,-1.95,-0.65180624,0.2906934,-0.6395064,1002.01904, , , , 
2025-11-24 19:44:14.954,12.609577,-8.829515,2.0087745,0.12720895,-0.22379917,-2.6163352,-1.8000001,47.775,-2.3812501,-0.6603949,0.27114713,-0.64557415,1002.02, , , , 
2025-11-24 19:44:14.974,12.279367,-9.3562355,2.6168506,0.17852011,-0.1700446,-2.6713114,-3.73125,47.775,-2.7,-0.66785747,0.25165334,-0.6521805,1002.02, , , , 
2025-11-24 19:44:14.994,12.564114,-9.329915,2.7029922,0.30191126,-0.09124531,-2.7220118,-5.86875,47.4375,-2.6625001,-0.6741292,0.23148163,-0.65905035,1002.0237, , , , 
2025-11-24 19:44:15.014,12.712768,-8.836694,2.1164517,0.34711397,0.16408885,-2.8838863,-8.606251,47.100002,-2.71875,-0.67888504,0.21003164,-0.6668961,1002.0237, , , , 
2025-11-24 19:44:15.036,12.291331,-8.455936,1.4557334,0.16752486,0.6271111,-3.164876,-11.25,46.65,-2.8125,-0.68153083,0.187932,-0.6765929,1002.0122, , , , 
2025-11-24 19:44:15.056,11.132607,-8.154441,1.7572291,0.036803547,1.0272161,-3.3371348,-14.025001,45.5625,-2.9437501,-0.6814834,0.16632763,-0.68849146,1002.0122, , , , 
2025-11-24 19:44:15.074,10.510175,-8.111071,1.9414765,0.113159455,1.2899567,-3.4666345,-17.00625,44.60625,-3.43125,-0.67824274,0.14506982,-0.7023868,1002.0112, , , , 
2025-11-24 19:44:15.094,9.499805,-8.175976,1.730908,0.3141282,1.3626475,-3.552153,-19.612501,43.612503,-3.9,-0.67276734,0.12264672,-0.71696526,1002.0112, , , , 
2025-11-24 19:44:15.114,8.7673025,-8.23101,1.2161521,0.52670306,1.3400462,-3.5295517,-22.368752,42.206253,-4.6875,-0.66608864,0.09876865,-0.7308191,1002.0176, , , , 
2025-11-24 19:44:15.135,7.852646,-8.096714,0.8330014,0.6647545,1.2208546,-3.4837382,-24.91875,40.7625,-5.4,-0.6589216,0.07391365,-0.74319816,1002.0176, , , , 
2025-11-24 19:44:15.154,6.875776,-7.888538,0.40468612,0.74477553,1.1212865,-3.3408,-27.206251,39.018753,-6.15,-0.65173924,0.048764415,-0.7537401,1002.0144, , , , 
2025-11-24 19:44:15.174,6.059524,-7.5029945,0.11724831,0.7319477,1.0296594,-3.112343,-29.98125,36.693752,-7.1250005,-0.64451456,0.024573036,-0.76256186,1002.0144, , , , 
2025-11-24 19:44:15.194,5.3219366,-6.906883,0.16510476,0.75332737,0.8909971,-2.864339,-32.362503,34.4625,-8.043751,-0.6375176,0.0019030712,-0.76973355,1002.00586, , , , 
2025-11-24 19:44:15.213,4.685147,-6.262914,0.06460621,0.83090496,0.719349,-2.5833495,-34.55625,32.2125,-9.150001,-0.63116306,-0.019503716,-0.775198,1002.00586, , , , 
2025-11-24 19:44:15.233,4.2257247,-6.076274,-0.45014977,0.85472804,0.5568636,-2.3041923,-36.46875,29.94375,-10.481251,-0.625801,-0.03977712,-0.7789485,1002.0029, , , , 
2025-11-24 19:44:15.253,3.6436708,-6.0403814,-0.974477,0.73072606,0.47073418,-1.963263,-37.912502,27.843752,-11.418751,0.621258,0.05786227,0.7814527,1002.0029, , , , 
2025-11-24 19:44:15.273,3.3445678,-6.346663,-1.4461622,0.4888305,0.40476266,-1.4892457,-39.375,25.425001,-12.50625,0.61722404,0.072272256,0.78335553,1002.00024, , , , 
2025-11-24 19:44:15.294,3.0140593,-6.641279,-1.4246268,0.18951537,0.30763796,-0.97918814,-40.237503,23.493752,-13.25625,0.6139665,0.08184602,0.78485,1002.00024, , , , 
2025-11-24 19:44:15.313,2.949453,-6.832705,-0.60807604,0.04291202,0.12621632,-0.38239038,-41.175003,21.806252,-13.856251,0.6120964,0.085843004,0.78578866,1002.0027, , , , 
2025-11-24 19:44:15.333,3.2847474,-6.8422766,-0.17228323,0.084449634,-0.050318543,0.24006297,-41.60625,20.625,-14.606251,0.6120798,0.08523894,0.78587765,1002.0027, , , , 
2025-11-24 19:44:15.353,3.9693937,-7.0842505,-0.62961143,0.16874656,-0.21707985,0.8008971,-41.625,20.118752,-14.6625,0.6138638,0.08144409,0.78501844,1002.0032, , , , 
2025-11-24 19:44:15.373,5.2477593,-8.582756,-1.5370895,0.08994726,-0.39422554,1.3097329,-42.225002,20.1375,-15.075001,0.61746365,0.074656546,0.783017,1002.0032, , , , 
2025-11-24 19:44:15.394,6.102595,-9.859028,-1.7883358,-0.19898349,-0.59091836,1.8228446,-42.225002,20.175001,-14.981251,-0.6229888,-0.0634164,-0.77963156,1002.00903, , , , 
2025-11-24 19:44:15.413,6.3921266,-9.564411,-0.45972106,-0.47019967,-0.71247697,2.3518384,-41.79375,20.681252,-14.437501,-0.62989515,-0.04640119,-0.7749906,1002.00903, , , , 
2025-11-24 19:44:15.433,7.3570323,-9.140582,1.3286148,-0.38956785,-0.7387434,2.7617168,-41.287502,21.806252,-14.26875,-0.63689774,-0.024967564,-0.76953924,1002.0078, , , , 
2025-11-24 19:44:15.453,8.822337,-9.303594,1.3453646,-0.020616096,-0.748517,2.9816217,-39.956253,23.1,-13.556251,-0.64305484,-0.0029258288,-0.7634342,1002.0078, , , , 
2025-11-24 19:44:15.473,9.885348,-9.6529455,-0.17467605,0.18279605,-0.816321,3.0262136,-38.8875,25.125002,-12.88125,-0.6487171,0.017188855,-0.75611645,1002.00977,37.88757951,127.7402546,142.30010986328125,1.0
2025-11-24 19:44:15.493,9.918848,-10.143773,-1.2807583,-0.011453386,-0.8315922,3.0665295,-37.59375,27.468752,-12.637501,-0.6543506,0.036412075,-0.74729866,1002.00977, , , , 
2025-11-24 19:44:15.513,10.136595,-10.198809,-0.88354975,-0.37551835,-0.788222,3.2492492,-35.925003,29.75625,-12.075001,-0.65963984,0.058143944,-0.73725575,1002.0112, , , , 
2025-11-24 19:44:15.533,10.351949,-9.791729,0.14596218,-0.6565081,-0.6159631,3.4202864,-34.425003,31.931252,-11.625,-0.6636151,0.083457544,-0.72665334,1002.0112, , , , 
2025-11-24 19:44:15.553,10.409676,-9.131011,1.3094722,-0.73904884,-0.42537877,3.5271847,-32.381252,33.84375,-10.9875,-0.66530377,0.11128254,-0.716265,1002.01733, , , , 
2025-11-24 19:44:15.573,10.414461,-8.491829,1.8098712,-0.6332959,-0.27144524,3.6175902,-30.206251,35.60625,-10.03125,-0.66447634,0.1397952,-0.7062604,1002.01733, , , , 
2025-11-24 19:44:15.593,10.79492,-8.001,1.5945172,-0.5386146,-0.19508934,3.6872268,-27.862501,37.443752,-9.056251,-0.6614862,0.16785632,-0.6962425,1002.0183, , , , 
2025-11-24 19:44:15.613,11.304891,-7.582257,1.4318053,-0.4873034,-0.19814359,3.6236987,-24.993752,39.506252,-8.212501,-0.65599966,0.2016912,-0.68295354,1002.0183, , , , 
2025-11-24 19:44:15.633,11.534901,-7.251748,1.4676976,-0.44820917,-0.27511033,3.53818,-23.550001,40.4625,-8.0625,-0.6523969,0.22090353,-0.6743935,1002.0171, , , , 
2025-11-24 19:44:15.654,11.692827,-6.3801622,1.4557334,-0.42072105,-0.38628453,3.294452,-18.84375,42.73125,-7.1250005,-0.6467125,0.25024474,-0.65900743,1002.0171, , , , 
2025-11-24 19:44:15.674,11.644971,-5.7984076,1.2735798,-0.52212167,-0.17859647,3.1196733,-14.981251,44.268753,-6.7125,-0.64328593,0.2663548,-0.6497009,1002.0222, , , , 
2025-11-24 19:44:15.693,11.66172,-5.0754757,1.1611172,-0.7329404,0.17691664,2.944971,-11.4375,45.15,-6.20625,-0.63759726,0.2877965,-0.6384394,1002.0222, , , , 
2025-11-24 19:44:15.713,11.767004,-4.5248275,1.7883358,-0.9516237,0.5464792,2.6859717,-7.8375,46.050003,-5.68125,-0.62832636,0.3160225,-0.62722945,1002.02954, , , , 
2025-11-24 19:44:15.733,12.169298,-4.2257247,2.2169502,-0.9027559,0.6442148,2.4636233,-4.6875,46.96875,-5.0062504,-0.61974084,0.33830026,-0.62028146,1002.02954, , , , 
2025-11-24 19:44:15.753,12.430116,-3.6750765,2.367698,-0.71026266,0.52876467,2.1960723,-2.0812502,47.081253,-4.2000003,-0.61105984,0.3581753,-0.61447674,1002.0383, , , , 
2025-11-24 19:44:15.773,12.482758,-3.2991042,2.2169502,-0.46592376,0.3174115,1.9138608,0.4875,47.5125,-3.2625,-0.60340154,0.37414077,-0.60924906,1002.0383, , , , 
2025-11-24 19:44:15.793,12.741482,-2.868097,1.9872392,-0.2313584,0.14820682,1.6756303,2.6437502,47.71875,-2.4,-0.5969033,0.38617834,-0.6044944,1002.04126, , , , 
2025-11-24 19:44:15.813,13.469198,-2.7221348,1.4964114,-0.06398625,0.085289545,1.4007491,4.51875,47.775,-1.7812501,-0.59142786,0.39474428,-0.6005521,1002.04126, , , , 
2025-11-24 19:44:15.833,14.125132,-2.693421,1.1515459,0.023975754,0.030313294,1.0989906,6.20625,47.943752,-1.40625,-0.5871121,0.40048727,-0.59774554,1002.0447, , , , 
2025-11-24 19:44:15.853,15.367604,-2.9949167,1.1276177,0.08872557,-0.14561072,0.7569161,7.4625,47.60625,-1.29375,-0.58445686,0.4035557,-0.595819,1002.0447, , , , 
2025-11-24 19:44:15.873,16.490437,-2.5642085,1.5658033,0.14248012,-0.3575747,0.1808108,8.94375,47.550003,-1.5562501,-0.5845924,0.40288213,-0.59457165,1002.0449, , , , 
2025-11-24 19:44:15.893,16.84248,-2.7221348,1.7141583,0.07406523,-0.24090289,-0.48562357,9.900001,47.60625,-1.7437501,-0.58790445,0.39768627,-0.595284,1002.0449, , , , 
2025-11-24 19:44:15.913,15.89911,-4.979763,2.0135603,-0.1281252,0.3497864,-1.291331,10.387501,47.4375,-1.85625,-0.5931746,0.38945898,-0.5998543,1002.0405, , , , 
2025-11-24 19:44:15.934,14.125132,-5.736194,2.1092732,-0.09941539,0.84029675,-1.53567,10.2375,47.325,-2.0625,-0.59686744,0.38120502,-0.60895896,1002.0405, , , , 
2025-11-24 19:44:15.953,13.179368,-5.358128,1.9657038,0.027640838,0.81830627,-1.6999879,9.450001,47.268753,-1.7437501,-0.59840375,0.37320012,-0.620688,1002.0364, , , , 
2025-11-24 19:44:15.974,13.239488,-6.1121664,2.42034,0.31718245,0.38765895,-2.0603878,8.3625,47.25,-1.7062501,-0.60102665,0.36231273,-0.632516,1002.0364, , , , 
2025-11-24 19:44:15.993,13.27538,-7.4216385,2.3078775,0.68613416,-0.065589726,-2.397652,6.76875,47.475002,-1.8937501,-0.6059742,0.34604576,-0.6437602,1002.04224, , , , 
2025-11-24 19:44:16.014,13.574483,-8.841479,1.4054842,0.8712209,-0.32581067,-2.6755874,5.34375,47.98125,-1.725,-0.61322457,0.32446784,-0.6539106,1002.04224, , , , 
2025-11-24 19:44:16.033,13.531412,-9.52134,0.6942177,0.7710419,-0.29771167,-2.9394734,3.2250001,48.24375,-2.1750002,-0.6219374,0.29994074,-0.6630732,1002.0325, , , , 
2025-11-24 19:44:16.053,13.744373,-9.806087,0.0741775,0.53403324,0.024204822,-3.188699,0.93750006,48.037502,-2.7,-0.6304807,0.27495757,-0.67233044,1002.0325, , , , 
2025-11-24 19:44:16.075,12.779767,-9.923634,-1.2472588,0.13270657,0.48783788,-3.469689,-2.2125,47.925003,-3.3187501,-0.63728774,0.25084272,-0.6830611,1002.0222, , , , 
2025-11-24 19:44:16.093,11.180464,-9.921241,-0.37357944,-0.44087902,0.9013815,-3.5558183,-5.3812504,47.381252,-4.40625,-0.64222914,0.22994305,-0.6947026,1002.0222, , , , 
2025-11-24 19:44:16.113,10.634602,-9.719945,1.6974086,-0.46225867,1.1127347,-3.4672453,-8.793751,46.6875,-4.74375,-0.644139,0.2130624,-0.7071973,1002.0205, , , , 
2025-11-24 19:44:16.134,10.213165,-9.349057,2.3389843,-0.038941514,0.9948411,-3.4397573,-12.431251,46.125,-4.74375,-0.64361995,0.19604957,-0.71994346,1002.0205, , , , 
2025-11-24 19:44:16.153,9.0544405,-8.59472,1.6878372,0.33123192,0.7309551,-3.3927221,-15.225,45.375,-4.4625,-0.6428973,0.17579745,-0.7313395,1002.0232, , , , 
2025-11-24 19:44:16.173,8.558827,-8.259725,1.3669,0.35505497,0.719349,-3.324918,-18.50625,44.568752,-4.4625,-0.64248365,0.15359,-0.7408248,1002.0232, , , , 
2025-11-24 19:44:16.193,7.7736826,-7.953144,1.7931215,0.43751934,0.7028561,-3.2736068,-21.28125,43.331253,-4.96875,-0.6411541,0.13149017,-0.7495207,1002.01514, , , , 
2025-11-24 19:44:16.214,6.9116683,-7.7569327,1.6878372,0.5920637,0.5605287,-3.1355553,-23.79375,41.60625,-5.45625,-0.6394687,0.10909632,-0.7570161,1002.01514, , , , 
2025-11-24 19:44:16.234,6.389734,-7.495816,1.5323038,0.6763606,0.48111856,-2.944971,-26.718752,39.825,-6.3750005,-0.63782996,0.08666781,-0.7629803,1002.0056, , , , 
2025-11-24 19:44:16.255,5.6333027,-7.004988,1.3094722,0.7044596,0.44630027,-2.7189574,-29.025002,37.631252,-6.6937504,-0.63537985,0.059570253,-0.7689343,1002.0056, , , , 
2025-11-24 19:44:16.274,5.006084,-6.6771717,1.2568301,0.6940752,0.42553148,-2.508826,-31.518751,35.8125,-7.1062503,-0.6336272,0.044247117,-0.7718874,1001.99854, , , , 
2025-11-24 19:44:16.294,4.398008,-6.25095,1.462912,0.71667653,0.33451524,-2.2180626,-33.7125,33.99375,-8.15625,-0.6305209,0.020764343,-0.77581584,1001.99854, , , , 
2025-11-24 19:44:16.314,4.165605,-6.241379,1.5203397,0.8571714,0.17569494,-1.987697,-35.2125,31.81875,-8.625,-0.6290899,0.0075518456,-0.7772904,1001.99854, , , , 
2025-11-24 19:44:16.335,4.0531425,-6.519245,0.29940194,0.9243646,-0.03504736,-1.6737214,-37.0125,30.150002,-9.65625,0.62835413,0.013709674,0.7777775,1001.99854, , , , 
2025-11-24 19:44:16.354,3.9406798,-7.036394,-0.5243273,0.70995724,-0.13950224,-1.3615786,-38.006252,28.500002,-10.425,0.62907416,0.028252037,0.77674085,1002.0005, , , , 
2025-11-24 19:44:16.374,3.8090746,-7.538887,-0.33050862,0.38987327,-0.18714833,-0.9510892,-38.90625,26.98125,-10.837501,0.63040584,0.03828666,0.77515996,1002.0005, , , , 
2025-11-24 19:44:16.394,3.8473597,-7.5604224,0.4621139,0.20356485,-0.18898088,-0.4459185,-39.7125,25.650002,-11.475,0.6318521,0.0430982,0.7736826,1001.99414, , , , 
2025-11-24 19:44:16.414,4.1751766,-7.3689966,0.79471624,0.20722993,-0.19386765,-0.0018325418,-40.3875,24.375002,-11.587501,0.63302106,0.04396312,0.7726874,1001.99414, , , , 
2025-11-24 19:44:16.434,4.395615,-6.7704916,0.5099703,0.26403874,-0.18042901,0.4715741,-40.7625,23.493752,-11.775001,0.6350965,0.042116217,0.7711878,1001.99634, , , , 
2025-11-24 19:44:16.454,5.061119,-7.6779695,-0.36161533,0.26037365,-0.25861746,0.8149466,-41.100002,23.4375,-11.775001,0.63721365,0.038426504,0.76971614,1001.99634, , , , 
2025-11-24 19:44:16.474,5.63091,-8.836694,-1.1156535,0.1485886,-0.3795652,1.2553675,-41.30625,23.625,-11.55,-0.6404986,-0.03172925,-0.7672782,1001.999,37.88757951,127.7402546,142.30010986328125,1.0
2025-11-24 19:44:16.494,5.9374905,-8.748159,-1.244866,-0.058488626,-0.47852248,1.7391585,-40.8375,24.16875,-11.306251,-0.6447193,-0.02070331,-0.763885,1001.999, , , , 
2025-11-24 19:44:16.514,6.291628,-8.175976,-0.5267201,-0.27900448,-0.5017347,2.1490371,-40.518753,25.143751,-10.875,-0.64924484,-0.005301554,-0.7597529,1002.0012, , , , 
2025-11-24 19:44:16.534,7.266105,-8.254939,0.16271193,-0.31076854,-0.4107184,2.4398003,-39.862503,25.95,-10.462501,-0.65294665,0.013390147,-0.7555225,1002.0012, , , , 
2025-11-24 19:44:16.554,8.159226,-8.831908,-0.13160525,-0.2405211,-0.40827504,2.6633704,-38.850002,27.243752,-9.88125,-0.65561146,0.03349877,-0.75106585,1002.00366, , , , 
2025-11-24 19:44:16.575,9.08794,-9.576375,-0.689432,-0.22463907,-0.52433604,2.888773,-37.74375,28.875002,-9.69375,-0.6582633,0.054549914,-0.74527967,1002.00366, , , , 
2025-11-24 19:44:16.594,10.172487,-10.14138,-0.5386842,-0.34680852,-0.69964916,3.1160083,-36.24375,30.337502,-9.356251,-0.66138357,0.07702199,-0.73749065,1002.01196, , , , 
2025-11-24 19:44:16.614,10.684851,-9.916455,0.4142574,-0.4164451,-0.7301915,3.2529144,-34.74375,32.25,-8.8125,-0.6644666,0.10112303,-0.7279676,1002.01196, , , , 
2025-11-24 19:44:16.634,10.9121685,-9.4280205,1.4605191,-0.35841462,-0.6978166,3.3243835,-32.775,34.03125,-8.493751,-0.66601545,0.11965684,-0.7203444,1002.01025, , , , 
2025-11-24 19:44:16.654,10.629815,-8.33151,2.0542383,-0.078035735,-0.52067095,3.3427088,-30.6375,35.850002,-7.7250004,-0.6660651,0.1492427,-0.7079098,1002.01025, , , , 
2025-11-24 19:44:16.674,10.414461,-7.6588273,1.6280167,0.14492351,-0.42110282,3.3561475,-28.237501,37.800003,-7.05,-0.66361165,0.17077407,-0.6985962,1002.0156, , , , 
2025-11-24 19:44:16.694,10.684851,-6.8374906,0.30418757,0.24510247,-0.24334627,3.3390439,-25.218752,39.525,-6.6375003,-0.6592105,0.19066994,-0.68963814,1002.0156, , , , 
2025-11-24 19:44:16.714,10.761421,-6.0427747,-0.48125646,0.11682454,-0.10162971,3.2297022,-22.5375,41.362503,-6.43125,-0.65365094,0.20989208,-0.6807955,1002.02637, , , , 
2025-11-24 19:44:16.734,10.440783,-5.35095,-0.7612167,-0.27900448,0.104225814,3.029268,-19.612501,42.975002,-6.4687505,-0.647665,0.22952849,-0.67201895,1002.02637, , , , 
2025-11-24 19:44:16.754,10.172487,-4.9989057,0.5315057,-0.6076403,0.2642678,2.8191364,-17.00625,44.1375,-6.3,-0.64126086,0.25071496,-0.6636448,1002.02686, , , , 
2025-11-24 19:44:16.774,9.609875,-4.766503,1.4964114,-0.5795413,0.2538834,2.7000213,-14.118751,45.131252,-6.15,-0.6344578,0.27217078,-0.65587753,1002.02686, , , , 
2025-11-24 19:44:16.794,9.832706,-4.479364,1.6016957,-0.4005631,0.25999185,2.645045,-11.26875,46.03125,-5.8125,-0.62692004,0.29224202,-0.648402,1002.0249, , , , 
2025-11-24 19:44:16.814,10.342378,-4.314259,1.1587243,-0.2985516,0.2526617,2.5149345,-8.493751,46.612503,-5.0625,-0.61876845,0.31051704,-0.6412814,1002.0249, , , , 
2025-11-24 19:44:16.834,10.634602,-4.156034,0.63918275,-0.29549736,0.25327253,2.3591685,-5.4375,47.11875,-4.5375004,-0.61080945,0.32702452,-0.6343753,1002.0383, , , , 
2025-11-24 19:44:16.854,11.185249,-4.100999,0.60807604,-0.34497598,0.24044475,2.2180626,-2.86875,47.34375,-4.18125,-0.60328245,0.34256598,-0.6275165,1002.0383, , , , 
2025-11-24 19:44:16.874,12.030215,-3.938287,1.055833,-0.27900448,0.12194038,2.0604641,0.01875,47.4,-3.7500002,-0.59636176,0.3569775,-0.62072,1002.0425, , , , 
2025-11-24 19:44:16.894,13.205988,-3.8880377,0.948156,-0.17760384,-0.00633754,1.7916914,2.7375002,47.60625,-3.7687502,-0.59035766,0.36884815,-0.6142541,1002.0425, , , , 
2025-11-24 19:44:16.914,14.012669,-3.885645,1.0630114,-0.15622419,-0.06864396,1.4312915,4.93125,47.568752,-3.9,-0.58601576,0.37766996,-0.60845286,1002.04224, , , , 
2025-11-24 19:44:16.934,14.960824,-3.9717865,1.3549358,-0.1201842,-0.07353074,1.0550096,6.8250003,47.568752,-3.7125,-0.58319265,0.38380057,-0.60390896,1002.04224, , , , 
2025-11-24 19:44:16.954,15.755541,-3.6412778,1.5131612,-0.08719844,-0.024052111,0.6365792,8.19375,47.49375,-3.5812502,-0.5816711,0.3872118,-0.6011407,1002.0432, , , , 
2025-11-24 19:44:16.974,16.193726,-3.0284162,1.6998014,-0.16111097,0.16958646,0.048256934,8.925,47.04375,-3.3000002,-0.58160853,0.38791505,-0.60077393,1002.0432, , , , 
2025-11-24 19:44:16.995,16.413866,-4.8649077,2.1571295,-0.25945738,0.455463,-0.7776086,9.50625,46.85625,-3.2250001,-0.5838769,0.38508987,-0.6052774,1002.04297, , , , 
2025-11-24 19:44:17.015,14.726028,-5.642874,2.3318057,-0.042606596,0.65704256,-1.180157,10.125,46.706253,-3.05625,-0.5859408,0.37989274,-0.6132486,1002.04297, , , , 
2025-11-24 19:44:17.035,13.344772,-5.449055,1.4222339,0.16569231,0.54709005,-1.3945643,9.806251,46.48125,-3.05625,-0.5872505,0.3724897,-0.6232351,1002.04346, , , , 
2025-11-24 19:44:17.054,12.822838,-5.413163,1.5346966,0.26587126,0.17447324,-1.6425682,9.337501,46.875,-3.0937502,-0.59027123,0.3624621,-0.6326561,1002.04346, , , , 
2025-11-24 19:44:17.074,13.016656,-6.1265235,2.0135603,0.46500748,-0.25189814,-2.0102983,8.1,46.987503,-3.05625,-0.5961298,0.34830925,-0.64104176,1002.0376, , , , 
2025-11-24 19:44:17.094,12.947265,-7.534101,1.9175483,0.6232169,-0.5719821,-2.404982,6.4500003,47.41875,-3.16875,-0.6048143,0.3290984,-0.6486796,1002.0376, , , , 
2025-11-24 19:44:17.114,12.940085,-9.12144,1.7787645,0.6360447,-0.6746044,-2.672533,4.6687503,47.90625,-3.4875002,-0.61531436,0.30646935,-0.6555621,1002.0405, , , , 
2025-11-24 19:44:17.134,13.0621195,-10.280165,1.6686947,0.5132644,-0.60191363,-2.8460138,2.53125,47.86875,-3.825,-0.62611187,0.28275537,-0.6620386,1002.0405, , , , 
2025-11-24 19:44:17.154,12.863516,-10.8714905,2.0231316,0.35261157,-0.45531029,-3.028657,0.26250002,47.8875,-4.3500004,-0.6364579,0.2591605,-0.6685689,1002.0342, , , , 
2025-11-24 19:44:17.174,12.28176,-10.682458,2.5208387,0.22922044,-0.19570018,-3.1795363,-2.5687501,47.86875,-4.96875,-0.6455888,0.23595001,-0.67564946,1002.0342, , , , 
2025-11-24 19:44:17.194,11.446067,-9.928419,2.8896325,0.22738789,0.09017633,-3.2858238,-5.4187503,47.568752,-5.5125003,-0.65239143,0.21302119,-0.6841357,1002.03, , , , 
2025-11-24 19:44:17.213,10.452746,-9.159725,2.6168506,0.27075803,0.4206447,-3.4018848,-9.0375,46.59375,-6.0937505,-0.65629333,0.18997213,-0.6944083,1002.03, , , , 
2025-11-24 19:44:17.233,9.083155,-8.539685,2.2073789,0.31779328,0.675368,-3.4721322,-12.58125,45.80625,-6.58125,-0.6574979,0.16669485,-0.7060635,1002.0271, , , , 
2025-11-24 19:44:17.254,8.223832,-8.125427,1.7620147,0.290916,0.8189171,-3.4153235,-16.21875,44.49375,-6.76875,-0.6566842,0.14382064,-0.7179298,1002.0271, , , , 
2025-11-24 19:44:17.273,7.630113,-7.902895,1.9390837,0.39598173,0.807311,-3.37684,-19.331251,43.331253,-7.3125005,-0.6543605,0.121548824,-0.7294593,1002.0198, , , , 
2025-11-24 19:44:17.294,6.9858456,-7.764111,1.6926229,0.5322007,0.6778114,-3.2943757,-21.993752,42.28125,-7.9125004,-0.6515328,0.09881077,-0.73972666,1002.0198, , , , 
2025-11-24 19:44:17.314,6.315556,-7.5029945,1.5586249,0.6562027,0.40598437,-3.133112,-24.50625,40.65,-8.4375,-0.64934987,0.07562389,-0.7477323,1002.0161, , , , 
2025-11-24 19:44:17.333,5.994918,-7.1632137,1.5538392,0.6824691,0.30030778,-2.9791784,-26.962502,39.0,-9.075001,-0.64781857,0.052521527,-0.75359714,1002.0161, , , , 
2025-11-24 19:44:17.354,5.786443,-6.99781,1.5299109,0.6843016,0.3210766,-2.8417377,-29.400002,36.99375,-9.543751,-0.6464961,0.035646576,-0.75725186,1002.00757, , , , 
2025-11-24 19:44:17.373,5.398806,-6.856633,1.244866,0.71667653,0.38888064,-2.6395473,-31.368752,35.025,-9.975,-0.6431521,0.008866,-0.7628107,1002.00757, , , , 
2025-11-24 19:44:17.393,5.0922256,-6.9906316,0.66071814,0.69774026,0.4010976,-2.4715643,-33.5625,33.09375,-10.425,-0.6396759,-0.011286278,-0.76677054,1002.0054, , , , 
2025-11-24 19:44:17.413,4.493721,-7.2565336,0.17228323,0.5700732,0.34795386,-2.216841,-35.0625,31.0125,-11.26875,-0.6361443,-0.029601568,-0.76997185,1002.0054, , , , 
2025-11-24 19:44:17.433,4.0220356,-7.876574,0.11246266,0.45523393,0.23739052,-1.855754,-36.65625,29.1375,-11.56875,-0.6330842,-0.045116264,-0.77223724,1001.9968, , , , 
2025-11-24 19:44:17.454,3.6559339,-8.195119,0.13399807,0.3849865,0.072461754,-1.3401989,-38.025,27.50625,-12.337501,-0.6310969,-0.05695374,-0.77335256,1001.9968, , , , 
2025-11-24 19:44:17.473,3.7181473,-8.065607,0.12921242,0.39720342,-0.12850699,-0.74156857,-38.79375,25.893751,-12.95625,-0.6307441,-0.06481952,-0.77312887,1001.99365,37.88759118,127.7402454,141.21881103515625,1.13
2025-11-24 19:44:17.493,3.9023945,-7.589435,-0.059820566,0.3929275,-0.25739577,-0.2015796,-39.7125,24.45,-13.425,-0.6321641,-0.069227464,-0.7715921,1001.99365, , , , 
2025-11-24 19:44:17.513,3.749254,-6.6077795,-0.36400816,0.35077903,-0.24151373,0.26877278,-40.162502,23.081251,-13.856251,-0.6343976,-0.07049456,-0.7695683,1001.9905, , , , 
2025-11-24 19:44:17.533,4.345366,-6.969096,-1.0462617,0.23716144,-0.1712663,0.66834325,-40.55625,22.275002,-14.137501,-0.6365934,-0.06874009,-0.76773363,1001.9905, , , , 
2025-11-24 19:44:17.553,4.88405,-8.05125,-1.6710875,0.0062611843,-0.17615308,1.077611,-40.96875,22.06875,-13.950001,-0.6389122,-0.06334092,-0.76594394,1001.9956, , , , 
2025-11-24 19:44:17.574,5.532804,-8.286046,-1.5107684,-0.2777828,-0.21463646,1.5809491,-40.96875,22.44375,-13.687501,-0.64170426,-0.052926123,-0.7638559,1001.9956, , , , 
2025-11-24 19:44:17.593,6.552745,-8.623434,-0.89312106,-0.5105156,-0.3032093,1.9163042,-40.612503,23.212502,-13.650001,-0.6452324,-0.037681133,-0.76097196,1001.989, , , , 
2025-11-24 19:44:17.613,7.048358,-8.781659,0.021535404,-0.6760552,-0.28915983,2.205235,-40.068752,24.225,-13.275001,-0.648844,-0.01885746,-0.75750834,1001.989, , , , 
2025-11-24 19:44:17.633,7.6420774,-9.399306,0.7085746,-0.688883,-0.25373068,2.4514065,-39.09375,25.893751,-13.05,-0.6518253,0.0027798042,-0.7537218,1001.98584, , , , 
2025-11-24 19:44:17.653,8.259725,-10.052846,0.7588239,-0.5825956,-0.26778015,2.7818747,-37.66875,27.6375,-12.3,-0.653921,0.026124235,-0.74942255,1001.98584, , , , 
2025-11-24 19:44:17.673,8.807981,-10.179666,0.933799,-0.48241663,-0.44431502,3.136777,-36.300003,29.643751,-11.6625,-0.6563366,0.05695367,-0.74187076,1001.9939, , , , 
2025-11-24 19:44:17.694,9.241081,-9.81805,1.3334004,-0.3425326,-0.6006919,3.4001286,-34.3875,31.556252,-10.70625,-0.65843916,0.082381845,-0.73342395,1001.9939, , , , 
2025-11-24 19:44:17.713,9.870992,-9.29163,1.4294125,-0.18920994,-0.6794912,3.5528405,-32.325,33.506252,-10.14375,-0.66007173,0.10746958,-0.7232169,1002.0078, , , , 
2025-11-24 19:44:17.734,10.033704,-8.65454,1.3214363,-0.09330692,-0.6263475,3.5827718,-30.16875,35.53125,-9.806251,-0.6605631,0.13150108,-0.7120627,1002.0078, , , , 
2025-11-24 19:44:17.753,9.880563,-8.185547,1.2735798,-0.058488626,-0.5212818,3.5803285,-27.91875,37.331253,-9.375,-0.6595241,0.15469174,-0.7005994,1002.00977, , , , 
2025-11-24 19:44:17.773,9.856635,-7.8000035,1.0366904,-0.07437065,-0.38994962,3.6120925,-25.312502,39.28125,-9.1125,-0.65673876,0.17768727,-0.68903124,1002.00977, , , , 
2025-11-24 19:44:17.793,10.076775,-7.3977103,1.1084751,-0.118962504,-0.3184805,3.613925,-22.612501,40.74375,-8.56875,-0.65251195,0.20085886,-0.6771951,1002.02026, , , , 
2025-11-24 19:44:17.813,10.249058,-7.1129646,1.3046865,-0.14583978,-0.2732778,3.5528405,-19.800001,42.375,-8.34375,-0.64734524,0.22368567,-0.66496825,1002.02026, , , , 
2025-11-24 19:44:17.835,10.409676,-6.832705,1.8050855,-0.11957335,-0.31298286,3.3573692,-16.78125,43.8375,-8.043751,-0.6416442,0.24549416,-0.65248924,1002.0193, , , , 
2025-11-24 19:44:17.854,10.409676,-6.6652074,1.8505492,-0.035276428,-0.30198762,3.2797916,-13.781251,44.79375,-8.137501,-0.6355259,0.26536742,-0.6399247,1002.0193, , , , 
2025-11-24 19:44:17.873,10.428819,-5.9207406,1.8146569,0.02275406,-0.118733436,3.204581,-10.481251,45.768753,-8.00625,-0.62815225,0.28398037,-0.627844,1002.0293, , , , 
2025-11-24 19:44:17.893,10.536495,-5.044369,1.8122641,0.10277505,0.06879667,3.0763032,-7.4625,46.125,-8.08125,-0.6191722,0.30175522,-0.61701584,1002.0293, , , , 
2025-11-24 19:44:17.913,11.029716,-4.599005,1.3669,0.20784079,0.21173494,2.9028225,-4.21875,46.575,-8.2875,-0.6088241,0.31821775,-0.60768324,1002.0342, , , , 
2025-11-24 19:44:17.934,11.671291,-4.2664027,0.7492526,0.28847262,0.17752749,2.652986,-1.10625,46.96875,-7.9500003,-0.59815407,0.3328239,-0.599503,1002.0342, , , , 
2025-11-24 19:44:17.954,12.389438,-4.220939,0.2009971,0.31107396,9.926268E-4,2.2986946,1.7625,46.74375,-8.118751,-0.5887062,0.3447307,-0.5917775,1002.02783, , , , 
2025-11-24 19:44:17.974,13.361522,-4.4817567,-0.1268196,0.28847262,-0.23112933,1.9541768,4.3125,46.818752,-8.3625,-0.5813864,0.35368142,-0.5841378,1002.02783, , , , 
2025-11-24 19:44:17.993,14.680565,-4.922335,-0.17228323,0.17913096,-0.37712184,1.5546826,6.6562505,46.425003,-8.306251,-0.57695395,0.35952953,-0.57651484,1002.02637, , , , 
2025-11-24 19:44:18.013,15.549758,-4.924728,-0.069391854,-0.032222193,-0.29587916,1.1118183,8.75625,46.125,-8.868751,-0.57517356,0.3630575,-0.5696887,1002.02637, , , , 
2025-11-24 19:44:18.033,15.896717,-4.273581,0.45732823,-0.32726142,0.032756682,0.613367,10.5375,45.787502,-9.525001,-0.57543457,0.36568394,-0.5649336,1002.0227, , , , 
2025-11-24 19:44:18.053,16.294226,-3.818646,1.0606186,-0.5935908,0.48172942,-0.040926766,12.168751,45.375,-9.337501,-0.576886,0.36823547,-0.5639095,1002.0227, , , , 
2025-11-24 19:44:18.073,16.19612,-5.2645087,1.7739788,-0.69438064,0.8574005,-0.87167907,12.993751,45.600002,-9.28125,-0.57945496,0.36961117,-0.5682092,1002.0254, , , , 
2025-11-24 19:44:18.093,14.764314,-6.619744,2.0183458,-0.46958882,1.0009496,-1.3890667,12.937501,45.35625,-8.887501,-0.5822627,0.36823145,-0.5777955,1002.0254, , , , 
2025-11-24 19:44:18.114,13.196417,-6.2940207,1.4413766,-0.220974,0.88366693,-1.6419574,12.450001,45.825,-7.89375,-0.5843775,0.36400548,-0.5900135,1002.0242, , , , 
2025-11-24 19:44:18.133,12.5138645,-6.006882,1.3884354,-0.07437065,0.5269321,-1.947381,11.75625,46.331253,-7.33125,-0.5874608,0.35659602,-0.6024187,1002.0242, , , , 
2025-11-24 19:44:18.153,12.487543,-6.751349,1.7093726,0.12659809,0.088343784,-2.3402321,10.6125,46.4625,-7.0687504,-0.5930716,0.3446942,-0.61413443,1002.02954, , , , 
2025-11-24 19:44:18.173,12.691232,-8.022536,1.4964114,0.2933594,-0.21769069,-2.6939127,9.31875,47.006252,-6.7125,-0.60135394,0.32740083,-0.6251491,1002.02954, , , , 
2025-11-24 19:44:18.193,12.703197,-9.6529455,0.74207413,0.22311196,-0.26778015,-3.0720272,7.5375004,47.025,-6.95625,-0.611559,0.3061442,-0.6355573,1002.032, , , , 
2025-11-24 19:44:18.213,12.343974,-10.835598,0.53629136,-0.057266932,-0.07230905,-3.3053708,5.08125,46.95,-7.55625,-0.62234443,0.28412637,-0.6457721,1002.032, , , , 
2025-11-24 19:44:18.234,11.72872,-11.790933,1.3070793,-0.28266957,0.163478,-3.4263186,2.5500002,47.15625,-7.6875005,-0.63449836,0.25859863,-0.65904665,1002.0281, , , , 
2025-11-24 19:44:18.253,11.1732855,-11.836396,1.6088741,-0.21914145,0.29603186,-3.3750074,-0.26250002,47.1375,-7.8,-0.64197755,0.23936558,-0.670101,1002.0281, , , , 
2025-11-24 19:44:18.275,10.708778,-11.056037,1.015155,-0.14767233,0.39682165,-3.2797153,-3.24375,47.25,-7.5000005,-0.64748305,0.22039719,-0.68094057,1002.02954, , , , 
2025-11-24 19:44:18.293,10.043275,-9.918848,0.69900334,-0.28266957,0.5977904,-3.2192414,-6.2625003,47.1375,-6.9187503,-0.6505737,0.20662504,-0.68886167,1002.02954, , , , 
2025-11-24 19:44:18.313,9.212367,-8.489435,1.7117655,-0.4445441,0.9368106,-3.1972508,-9.618751,46.3875,-6.80625,-0.65277374,0.18609056,-0.70294493,1002.03174, , , , 
2025-11-24 19:44:18.335,9.277272,-7.888538,2.1140587,-0.31382278,1.1664892,-3.1935859,-12.975,45.9375,-6.8250003,-0.6515783,0.17055807,-0.71530193,1002.03174, , , , 
2025-11-24 19:44:18.353,9.361021,-7.94118,2.2743778,-0.055434387,1.3272184,-3.3432434,-16.125,44.8875,-6.99375,-0.647797,0.15359032,-0.7288057,1002.0298, , , , 
2025-11-24 19:44:18.373,8.355437,-8.115856,1.9199411,0.28786176,1.2068051,-3.4794624,-18.825,43.612503,-7.0687504,-0.64403045,0.13882697,-0.73907584,1002.0298, , , , 
2025-11-24 19:44:18.394,7.004988,-8.118249,1.0725827,0.56579727,0.79020727,-3.4232645,-21.618752,42.35625,-7.275,-0.6389869,0.11058598,-0.75317854,1002.0227, , , , 
2025-11-24 19:44:18.413,6.1887364,-8.1015,0.907478,0.6128325,0.463404,-3.265055,-24.2625,40.331253,-7.6125,-0.63704675,0.08700436,-0.7607025,1002.0227, , , , 
2025-11-24 19:44:18.434,5.6500525,-7.8670025,1.1563315,0.6562027,0.24716407,-3.0866876,-27.187502,38.550003,-8.137501,-0.63631153,0.064003706,-0.7656118,1002.0132, , , , 
2025-11-24 19:44:18.454,4.898407,-7.6851482,1.1467602,0.75332737,0.18913358,-2.937641,-30.112501,36.6375,-8.868751,-0.63582766,0.041304275,-0.7689682,1002.0132, , , , 
2025-11-24 19:44:18.473,3.6436708,-7.3307114,0.72053874,0.8290724,0.22822781,-2.708573,-32.1375,34.575,-9.4125,-0.6346456,0.019063761,-0.77171254,1002.0061,37.88760069,127.74023741,141.44512939453125,1.25
2025-11-24 19:44:18.493,2.7293134,-7.218249,0.1363909,0.84617615,0.23189288,-2.3860457,-34.143753,32.775,-10.03125,-0.63287604,-0.0017323357,-0.77390385,1002.0061, , , , 
2025-11-24 19:44:18.514,2.1427727,-7.5846496,-0.61046886,0.7893674,0.25754848,-1.9907513,-35.643753,30.73125,-10.63125,-0.63074064,-0.020143704,-0.7756269,1002.001, , , , 
2025-11-24 19:44:18.533,1.5227325,-8.068,-1.2376875,0.6250495,0.17325155,-1.4709202,-36.956253,28.425001,-11.512501,-0.628762,-0.03475939,-0.7768019,1002.001, , , , 
2025-11-24 19:44:18.553,1.5777674,-8.506186,-1.3716856,0.422859,-0.09429955,-0.77638686,-38.4375,26.718752,-12.01875,-0.6284771,-0.043948717,-0.7765839,1001.9961, , , , 
2025-11-24 19:44:18.573,2.7580273,-8.625827,-0.81864446,0.2933594,-0.40766418,0.02260135,-39.43125,25.1625,-12.4875,-0.6307253,-0.04706337,-0.7745747,1001.9961, , , , 
2025-11-24 19:44:18.593,4.2185464,-8.606684,-0.7085746,0.24265908,-0.57137126,0.47646087,-40.03125,24.150002,-12.637501,-0.63500875,-0.045702673,-0.77112025,1001.9949, , , , 
2025-11-24 19:44:18.614,5.7409797,-9.806087,-0.6966105,0.10949437,-0.63612103,0.8082273,-40.48125,23.8875,-12.468751,-0.64043766,-0.041123476,-0.7667706,1001.9949, , , , 
2025-11-24 19:44:18.633,6.387341,-10.814063,-0.55782676,-0.034054734,-0.57014954,1.1197594,-40.7625,23.53125,-12.056251,-0.6445171,-0.035451762,-0.7634674,1001.9949, , , , 
2025-11-24 19:44:18.653,6.519245,-10.534102,0.15314065,-0.16477604,-0.35940725,1.6255409,-40.912502,23.60625,-11.775001,-0.6500232,-0.021225978,-0.7587896,1001.9949, , , , 
2025-11-24 19:44:18.673,6.483353,-9.746265,0.6798607,-0.07742489,-0.22013408,1.9572309,-40.706253,24.150002,-11.55,-0.6527549,-0.0066138455,-0.7559301,1002.00195, , , , 
2025-11-24 19:44:18.694,6.856633,-9.736694,0.17706887,0.12781979,-0.1272853,2.229058,-40.256252,25.275002,-11.15625,-0.6541284,0.008856493,-0.7534325,1002.00195, , , , 
2025-11-24 19:44:18.714,7.1632137,-10.292129,-0.85244304,0.15042114,-0.121787675,2.477062,-39.412502,26.775002,-11.400001,-0.6546613,0.024676675,-0.7506151,1002.00586, , , , 
2025-11-24 19:44:18.733,7.1751776,-10.567602,-1.1802598,-0.031000499,-0.15782766,2.805698,-37.912502,28.2,-11.175,-0.6550791,0.042532403,-0.74665076,1002.00586, , , , 
2025-11-24 19:44:18.753,7.5269227,-10.742278,-0.8787641,-0.24785128,-0.25373068,3.204581,-36.65625,29.718752,-11.00625,-0.65542644,0.06409855,-0.7411285,1002.0093, , , , 
2025-11-24 19:44:18.773,8.089535,-10.852348,-0.285045,-0.40239564,-0.3985015,3.570555,-35.2125,31.368752,-10.6875,-0.65588975,0.089380324,-0.7334004,1002.0093, , , , 
2025-11-24 19:44:18.793,8.788837,-10.787742,0.3807579,-0.43599224,-0.45286688,3.9205704,-32.831253,33.28125,-10.14375,-0.65597147,0.11739829,-0.72343934,1002.02344, , , , 
2025-11-24 19:44:18.814,9.303594,-10.292129,0.7372885,-0.3956763,-0.4479801,4.1716285,-30.375002,35.79375,-9.46875,-0.65464646,0.14696036,-0.7117852,1002.02344, , , , 
2025-11-24 19:44:18.833,10.000204,-9.624231,0.9625129,-0.36391225,-0.3716242,4.2876897,-27.093752,38.34375,-8.793751,-0.6515496,0.17683841,-0.69885314,1002.0239, , , , 
2025-11-24 19:44:18.853,10.42164,-8.992228,0.948156,-0.37918344,-0.19875443,4.287079,-23.6625,40.425003,-8.53125,-0.64635336,0.20642398,-0.6853645,1002.0239, , , , 
2025-11-24 19:44:18.873,10.79492,-8.530113,0.7085746,-0.44637662,0.052303795,4.210112,-20.4375,42.206253,-8.19375,-0.6389089,0.2356657,-0.6720154,1002.02686, , , , 
2025-11-24 19:44:18.893,10.967503,-7.9818583,0.27517462,-0.69376975,0.33207184,4.0561786,-16.85625,43.706253,-7.7250004,-0.6294757,0.2649758,-0.65914184,1002.02686, , , , 
2025-11-24 19:44:18.913,11.003395,-7.5580297,0.51236314,-1.1080005,0.65398836,3.8570423,-13.218751,44.943752,-7.4062505,-0.61895573,0.2953022,-0.6465832,1002.02466, , , , 
2025-11-24 19:44:18.933,11.434103,-6.890133,0.78753775,-1.4592377,1.0247726,3.7318187,-9.0,46.068752,-6.675,-0.6040345,0.33563918,-0.6316061,1002.02466, , , , 
2025-11-24 19:44:18.954,11.78854,-6.107381,1.244866,-1.8153617,1.2765181,3.522298,-4.8375,46.800003,-5.4375,-0.5942431,0.3612267,-0.6230717,1002.0325, , , , 
2025-11-24 19:44:18.974,12.054143,-5.3772707,2.4562325,-2.1000166,1.4591614,3.2229066,-0.80625004,47.34375,-4.36875,-0.58105123,0.39605623,-0.61218476,1002.0325, , , , 
2025-11-24 19:44:18.993,12.648161,-4.503292,4.0363927,-1.982123,1.4689349,2.8979359,2.8875,47.568752,-2.86875,-0.56754094,0.4300264,-0.6021175,1002.0398, , , , 
2025-11-24 19:44:19.013,13.454842,-3.6340995,4.584648,-1.5911808,1.4078503,2.3945975,6.43125,47.4,-0.75,-0.5504215,0.46645248,-0.59236115,1002.0398, , , , 
2025-11-24 19:44:19.033,13.641482,-3.3254254,4.354937,-1.2252833,1.4701567,1.6151565,9.39375,47.25,0.7875,-0.53827095,0.48818508,-0.5885879,1002.0398, , , , 
2025-11-24 19:44:19.053,13.313665,-3.6990047,3.9215372,-0.9442935,1.5794983,0.8845832,12.01875,46.800003,2.5125,-0.53040576,0.5004565,-0.5887184,1002.0398, , , , 
2025-11-24 19:44:19.073,12.449258,-4.8266225,2.9398818,-0.79830104,1.6210359,0.43919918,14.156251,46.162502,4.4812503,-0.5191888,0.5155971,-0.5930742,1002.0449, , , , 
2025-11-24 19:44:19.093,12.506686,-5.7003016,2.8872397,-0.8270108,1.4335058,0.23090026,15.225,46.125,5.8500004,-0.5118089,0.5255261,-0.59739095,1002.0449, , , , 
2025-11-24 19:44:19.114,13.330415,-5.872585,3.9909291,-0.73904884,1.1335034,0.03603999,15.993751,45.787502,7.4062505,-0.5065911,0.53349257,-0.60107934,1002.0481, , , , 
2025-11-24 19:44:19.133,14.582459,-6.1193447,4.9725847,-0.48058408,0.9105442,-0.36528665,16.10625,45.54375,8.6625,-0.50379765,0.53772146,-0.60541296,1002.0481, , , , 
2025-11-24 19:44:19.153,15.588043,-7.8311105,5.441877,0.007482879,0.843351,-1.039662,16.3125,45.65625,9.825001,-0.50372905,0.5359976,-0.61287856,1002.052, , , , 
2025-11-24 19:44:19.173,14.54896,-8.140083,4.989334,0.73316944,1.014999,-1.5136795,16.29375,45.412502,10.6125,-0.50464094,0.52728015,-0.6254483,1002.052, , , , 
2025-11-24 19:44:19.193,13.998312,-7.433603,2.7819555,1.3800566,1.2025292,-1.8472021,15.4125,45.581253,11.325001,-0.50393313,0.5128504,-0.64306337,1002.04663, , , , 
2025-11-24 19:44:19.214,13.718052,-7.5053873,0.5027919,1.6243956,1.3864706,-2.3805482,14.19375,46.0875,11.3625,-0.5032242,0.49390513,-0.6637522,1002.04663, , , , 
2025-11-24 19:44:19.234,12.954443,-9.092726,-1.3549358,1.6372234,1.4377817,-3.0103316,12.187501,46.893753,10.78125,-0.50372094,0.47170857,-0.6857675,1002.03955, , , , 
2025-11-24 19:44:19.253,12.320045,-10.967503,-2.2815564,1.5003936,1.0852466,-3.3670664,9.4875,47.662502,9.712501,-0.5065927,0.44743246,-0.70657015,1002.03955, , , , 
2025-11-24 19:44:19.273,11.807682,-12.396616,-2.9015965,1.2462811,0.6698704,-3.4819057,6.8250003,48.3375,8.15625,-0.5131265,0.4223927,-0.7233917,1002.02344, , , , 
2025-11-24 19:44:19.293,11.869896,-12.954443,-2.6288147,0.8064711,0.3302393,-3.4709105,3.6000001,48.768753,6.7312503,-0.5229443,0.39845428,-0.7353206,1002.02344, , , , 
2025-11-24 19:44:19.313,11.927323,-12.65534,-1.489233,0.50349087,0.27526304,-3.4641912,0.24375,48.45,5.25,-0.5339251,0.3763353,-0.7438395,1002.0105, , , , 
2025-11-24 19:44:19.333,12.035001,-12.31526,-0.2632105,0.46256408,0.3846047,-3.5136697,-3.16875,48.3375,4.4625,-0.5442955,0.3551255,-0.7509389,1002.0105, , , , 
2025-11-24 19:44:19.355,11.474781,-11.573186,0.05742774,0.70262706,0.6087856,-3.6260657,-6.3375,48.018753,3.91875,-0.552624,0.33281776,-0.75852394,1002.00415, , , , 
2025-11-24 19:44:19.374,10.756635,-10.943574,-0.60329044,0.9671239,0.7217924,-3.6908154,-9.5625,47.15625,3.3937502,-0.5588269,0.30802938,-0.76704055,1002.00415, , , , 
2025-11-24 19:44:19.393,9.571589,-9.954741,-1.9390837,1.0453124,0.8097544,-3.7018108,-12.975,46.518753,2.98125,-0.5634645,0.28104252,-0.77570283,1002.0095, , , , 
2025-11-24 19:44:19.413,8.429615,-9.128618,-2.7652056,0.8993199,0.7486697,-3.676155,-16.275002,45.525,1.7812501,-0.5672607,0.25398278,-0.78318495,1002.0095, , , , 
2025-11-24 19:44:19.433,7.534101,-8.678469,-2.76042,0.706903,0.43286163,-3.6242332,-19.893751,44.193752,0.76875,0.57171035,-0.22837265,0.78800476,1002.0095, , , , 
2025-11-24 19:44:19.453,6.8039913,-8.589934,-2.516053,0.5584671,0.14820682,-3.5466557,-23.025002,42.600002,0.0,0.57777953,-0.20437734,0.7895935,1002.0095, , , , 
2025-11-24 19:44:19.473,6.0116677,-8.740981,-1.9920249,0.46806172,-0.12300937,-3.3982196,-26.19375,40.575,-1.25625,0.5851015,-0.18195613,0.788427,1002.00464,37.88761006,127.74022793,141.8355712890625,1.26
2025-11-24 19:44:19.495,5.073083,-8.903693,-2.2241287,0.39231664,-0.14866495,-3.19664,-29.400002,38.287502,-1.8375001,0.5925227,-0.16089942,0.78565407,1002.00464, , , , 
2025-11-24 19:44:19.513,3.5240295,-8.611469,-2.7652056,0.1565296,-0.046042614,-2.8631175,-32.0625,36.018753,-2.34375,0.5985616,-0.14201012,0.7824878,1001.9973, , , , 
2025-11-24 19:44:19.534,2.2839491,-8.05125,-2.9207392,-0.26556584,0.04497363,-2.2754824,-34.78125,33.956253,-2.7375002,0.60261554,-0.12764512,0.7793249,1001.9973, , , , 
2025-11-24 19:44:19.554,1.6591234,-7.2565336,-2.4131618,-0.5630485,0.12743801,-1.8404828,-36.75,31.781252,-2.7562501,0.6045621,-0.11908896,0.7764856,1001.99414, , , , 
2025-11-24 19:44:19.574,1.2568301,-6.847062,-1.7787645,-0.72377765,0.110334285,-1.3108783,-38.568752,29.75625,-2.1375,0.6047374,-0.11512124,0.7735406,1001.99414, , , , 
2025-11-24 19:44:19.594,1.2400804,-7.120143,-1.611267,-0.7604285,0.0022143214,-0.91199493,-40.068752,28.2,-1.7812501,0.60451907,-0.11547484,0.77184135,1002.00195, , , , 
2025-11-24 19:44:19.614,1.1324034,-7.383353,-1.570589,-0.7970793,-0.18775918,-0.3090887,-41.23125,26.925001,-1.5187501,0.6048195,-0.12047488,0.7686253,1002.00195, , , , 
2025-11-24 19:44:19.634,1.4509479,-7.3043904,-1.407877,-0.85205555,-0.2836622,0.14843589,-42.225002,26.250002,-1.10625,0.60521054,-0.12656684,0.76668525,1002.0044, , , , 
2025-11-24 19:44:19.654,2.6336005,-7.428817,-0.9098708,-0.93879586,-0.43942824,0.78562593,-42.300003,26.1,-0.90000004,0.6058848,-0.14174995,0.7635146,1002.0044, , , , 
2025-11-24 19:44:19.674,3.7803607,-8.1015,-0.5171488,-1.0059891,-0.572593,1.2046671,-42.16875,25.81875,-0.43125,0.60647845,-0.15778492,0.7607528,1002.0088, , , , 
2025-11-24 19:44:19.693,5.2549376,-9.7247305,-0.51475596,-1.0963944,-0.6855997,1.5278053,-41.831253,26.118752,0.4875,0.60697514,-0.17190768,0.75834966,1002.0088, , , , 
2025-11-24 19:44:19.713,7.0196443,-12.257833,-0.8258229,-1.4201435,-0.6782695,1.9700588,-41.15625,27.0375,1.5187501,0.6068919,-0.20017335,0.75380147,1002.0117, , , , 
2025-11-24 19:44:19.734,7.582257,-12.980763,-0.076570325,-1.9137081,-0.46569467,2.4446871,-40.36875,28.06875,2.8312502,0.60379314,-0.22872621,0.75019974,1002.0117, , , , 
2025-11-24 19:44:19.754,8.250154,-12.071192,1.6806588,-2.241733,-0.1596602,2.9254239,-39.318752,29.681252,4.2000003,0.59602964,-0.26277745,0.7472078,1002.02, , , , 
2025-11-24 19:44:19.774,9.61466,-11.637792,2.7771697,-2.341912,0.14454173,3.1514373,-37.74375,31.500002,5.4375,0.58366853,-0.29927796,0.74508923,1002.02, , , , 
2025-11-24 19:44:19.794,10.869098,-12.18844,3.39721,-2.3358035,0.36933354,3.0653079,-35.8875,33.09375,7.2375,0.57226896,-0.3263458,0.7437744,1002.0271, , , , 
2025-11-24 19:44:19.814,11.211571,-12.930514,3.9622152,-2.1189528,0.7077429,2.8918273,-33.91875,34.725002,8.700001,0.5502902,-0.3682273,0.74235696,1002.0271, , , , 
2025-11-24 19:44:19.834,10.577173,-12.477972,4.0531425,-1.917984,0.9160418,2.9260347,-31.66875,36.393753,10.368751,0.53000355,-0.39855602,0.7425471,1002.03564, , , , 
2025-11-24 19:44:19.853,9.77498,-11.166107,3.9023945,-1.8471258,1.0088906,3.069584,-29.250002,37.800003,12.168751,0.5135248,-0.42030728,0.7429673,1002.03564, , , , 
2025-11-24 19:44:19.873,9.794122,-9.013762,3.263212,-1.8990477,1.2239088,3.180758,-27.150002,39.24375,13.106251,0.48371762,-0.45582277,0.7433789,1002.04663, , , , 
2025-11-24 19:44:19.893,9.825528,-7.7473617,2.8369904,-2.1299481,1.3614259,3.0708055,-24.54375,40.36875,14.19375,0.45818007,-0.48384842,0.742638,1002.04663, , , , 
2025-11-24 19:44:19.914,9.791729,-7.187142,3.6918263,-2.4372041,1.3602041,2.7097948,-22.143751,41.268753,15.150001,0.43251064,-0.5120512,0.7395099,1002.05176, , , , 
2025-11-24 19:44:19.934,9.392128,-7.2397842,4.476971,-2.4769092,1.2251306,2.4446871,-20.081251,42.2625,16.125,0.40808362,-0.5393778,0.73405623,1002.05176, , , , 
2025-11-24 19:44:19.953,8.9108715,-7.493423,5.0994043,-2.4115486,1.1377794,2.2675414,-17.8875,42.787502,17.85,0.38516048,-0.564879,0.7272518,1002.0591, , , , 
2025-11-24 19:44:19.973,8.831908,-7.3977103,5.6189456,-2.2838817,1.1157888,2.2198954,-15.95625,43.18125,19.650002,0.36262858,-0.5886116,0.7199966,1002.0591, , , , 
2025-11-24 19:44:19.993,8.937193,-7.077072,5.7074804,-2.0884104,1.2049726,2.1716383,-14.306251,43.256252,21.65625,0.34004384,-0.610172,0.7130758,1002.0591, , , , 
2025-11-24 19:44:20.013,8.865408,-6.502496,5.398806,-1.9363095,1.3980767,2.1313224,-12.3,42.881252,23.775002,0.31675556,-0.6293955,0.7070728,1002.0591, , , , 
2025-11-24 19:44:20.034,8.896515,-5.9638114,5.034798,-1.7799325,1.5520102,2.0806222,-10.668751,42.318752,25.706251,0.29241088,-0.64668816,0.70184886,1002.06396, , , , 
2025-11-24 19:44:20.053,8.879765,-5.286044,4.558327,-1.5807964,1.5459017,2.0219808,-9.4875,41.7,27.225,0.2675436,-0.66208196,0.69724727,1002.06396, , , , 
2025-11-24 19:44:20.073,9.02812,-4.7138605,4.0890346,-1.3425659,1.412737,1.9389056,-8.19375,41.100002,28.650002,0.24340491,-0.675362,0.69320995,1002.0691, , , , 
2025-11-24 19:44:20.094,9.432806,-4.45065,3.559922,-1.102503,1.1988641,1.8216228,-7.425,40.443752,29.643751,0.22111516,-0.6864427,0.68973035,1002.0691, , , , 
2025-11-24 19:44:20.113,9.995419,-4.398008,3.0403802,-0.91863793,0.98628926,1.6676893,-6.39375,40.0125,30.618752,0.20140369,-0.695498,0.6867324,1002.06226, , , , 
2025-11-24 19:44:20.133,10.694422,-4.4745784,2.6407788,-0.8147939,0.8897754,1.4978738,-5.3812504,39.787502,31.706251,0.18434224,-0.7029831,0.6839767,1002.06226, , , , 
2025-11-24 19:44:20.153,11.594721,-4.7282176,2.5737798,-0.8086854,0.815252,1.2749146,-4.65,39.412502,32.287502,0.16933575,-0.70951396,0.68112737,1002.0554, , , , 
2025-11-24 19:44:20.173,12.667304,-5.2645087,3.1555347,-0.7720346,0.6649836,1.0146936,-3.73125,39.05625,33.24375,0.15674637,-0.715456,0.67782265,1002.0554, , , , 
2025-11-24 19:44:20.194,13.940884,-5.5926247,3.9574296,-0.62107897,0.47562096,0.7337039,-3.1875002,38.68125,33.787502,0.14721549,-0.7202764,0.6746833,1002.05493, , , , 
2025-11-24 19:44:20.213,15.269499,-5.9805613,4.3764725,-0.36146885,0.36444676,0.3103104,-2.4375,38.081253,33.956253,0.14144355,-0.72310066,0.67262024,1002.05493, , , , 
2025-11-24 19:44:20.233,15.456438,-6.181558,4.517649,-0.018172706,0.44996536,-0.22601348,-2.15625,37.706253,34.537502,0.13995509,-0.7231332,0.67233574,1002.0488, , , , 
2025-11-24 19:44:20.253,14.414962,-5.2405806,4.2855453,0.45095798,0.7688276,-0.7482879,-2.2687502,37.40625,34.8375,0.14157116,-0.7194897,0.6747974,1002.0488, , , , 
2025-11-24 19:44:20.274,13.531412,-5.331807,2.9853454,0.8852704,0.923372,-1.2760599,-2.4750001,37.237503,35.100002,0.14509313,-0.71175134,0.68033695,1002.0554, , , , 
2025-11-24 19:44:20.294,12.839587,-5.911169,1.6280167,1.210852,0.8665632,-1.7152591,-3.5625002,37.575,35.2125,0.15170263,-0.70075375,0.68756694,1002.0554, , , , 
2025-11-24 19:44:20.313,12.595221,-7.0555367,0.32093734,1.466797,0.587406,-2.104369,-4.6125,37.65,34.65,0.16496883,-0.68363076,0.69741845,1002.0515, , , , 
2025-11-24 19:44:20.333,12.049357,-7.900502,-0.42861435,1.5083346,0.104225814,-2.4385786,-5.8125,38.268753,33.675003,0.18089598,-0.6686541,0.70418835,1002.0515, , , , 
2025-11-24 19:44:20.353,11.652149,-9.025727,-0.52193445,1.4002147,-0.48463094,-2.7116272,-7.8,38.68125,32.49375,0.2022799,-0.6540102,0.7084232,1002.0393, , , , 
2025-11-24 19:44:20.373,11.350354,-10.050453,-0.0071784677,1.2242906,-0.86335623,-2.9083202,-9.712501,38.925003,31.44375,0.22840104,-0.6402013,0.70964944,1002.0393, , , , 
2025-11-24 19:44:20.393,10.895419,-10.311271,0.53389853,1.0324845,-0.8303705,-2.9742916,-11.94375,39.15,30.375002,0.2559939,-0.62679005,0.7087256,1002.03516, , , , 
2025-11-24 19:44:20.413,10.847563,-10.263414,1.0079765,0.82296395,-0.54693735,-3.0158293,-14.56875,39.09375,29.268751,0.28195125,-0.6135117,0.70642245,1002.03516, , , , 
2025-11-24 19:44:20.433,10.809278,-10.019346,1.5466608,0.69774026,-0.11384666,-3.0952394,-16.462502,38.737503,28.48125,0.30490738,-0.599774,0.70343834,1002.0325, , , , 
2025-11-24 19:44:20.453,10.581959,-9.693624,1.879263,0.77592874,0.26610035,-3.2436752,-18.54375,38.34375,27.45,0.32477337,-0.58429813,0.7007167,1002.0325, , , , 
2025-11-24 19:44:20.475,9.863813,-9.382557,1.4389837,0.97262156,0.3742203,-3.44892,-20.7,37.55625,26.925001,0.34358484,-0.5663167,0.6982465,1002.0364,37.88762106,127.74021988,142.0433349609375,1.48
2025-11-24 19:44:20.493,9.382557,-9.466306,0.6200402,1.0239327,0.42675316,-3.544212,-22.800001,36.24375,26.56875,0.36271894,-0.54626393,0.6954201,1002.0364, , , , 
2025-11-24 19:44:20.513,8.863015,-9.509377,-0.0741775,0.91581273,0.52754295,-3.6071293,-25.48125,35.006252,25.7625,0.38124466,-0.5253563,0.69162154,1002.0293, , , , 
2025-11-24 19:44:20.533,7.893324,-9.341879,-0.34965122,0.7380562,0.59046024,-3.6236222,-28.25625,33.35625,25.050001,0.39836237,-0.50451726,0.6863735,1002.0293, , , , 
2025-11-24 19:44:20.553,6.808777,-9.0544405,-0.3065804,0.5083776,0.59046024,-3.5026746,-30.862501,31.875002,24.0375,0.4136709,-0.48474783,0.679601,1002.0215, , , , 
2025-11-24 19:44:20.573,6.2007008,-8.738588,0.38315073,0.35077903,0.54770094,-3.288878,-33.206253,30.16875,23.00625,0.4268269,-0.46676517,0.6716394,1002.0215, , , , 
2025-11-24 19:44:20.593,5.853442,-8.585149,1.0079765,0.414918,0.44324604,-3.1349444,-35.4375,28.0125,22.29375,0.4386284,-0.4497919,0.6631936,1002.0188, , , , 
2025-11-24 19:44:20.613,5.10419,-8.554042,0.9984053,0.6500942,0.22761697,-2.9523013,-37.4625,25.312502,21.7875,0.45075482,-0.43279672,0.65470606,1002.0188, , , , 
2025-11-24 19:44:20.634,4.3812585,-8.729017,0.4764708,0.73622364,0.085289545,-2.7549975,-39.487503,23.15625,21.35625,0.46045336,-0.42021284,0.6485115,1002.01074, , , , 
2025-11-24 19:44:20.653,3.7468612,-8.65454,-0.1363909,0.7007945,0.051692948,-2.2718172,-41.287502,20.775002,21.112501,0.47578326,-0.40106508,0.639232,1002.01074, , , , 
2025-11-24 19:44:20.675,3.3661032,-8.843872,-0.49800622,0.60916746,0.03153499,-1.9339424,-42.600002,19.03125,20.737501,0.48587495,-0.38805065,0.63317204,1002.0139, , , , 
2025-11-24 19:44:20.694,2.7675984,-9.29163,-0.8979067,0.41552883,0.0046577104,-1.39151,-43.725002,17.362501,20.41875,0.49378493,-0.37801546,0.6282201,1002.0139, , , , 
2025-11-24 19:44:20.713,2.1906292,-9.353843,-0.8500503,0.2481567,-0.009391776,-0.75317466,-44.268753,15.637501,20.175001,0.4987026,-0.37199855,0.62501705,1002.0132, , , , 
2025-11-24 19:44:20.733,1.730908,-9.075976,-0.9816555,0.19318044,-0.07658497,0.029931515,-44.8875,14.250001,19.78125,0.5005099,-0.37042895,0.624347,1002.0132, , , , 
