Time,Accel_X,Accel_Y,Accel_Z,Gyro_X,Gyro_Y,Gyro_Z,Mag_X,Mag_Y,Mag_Z,Orient_X,Orient_Y,Orient_Z,Pressure,Lat,Lng,Alt,Speed
2025-11-24 19:56:36.380,-4.4051867,5.286044,6.7704916,0.22127941,-1.1058626,-0.34085277,52.781254,15.000001,-56.30625,0.20443024,-0.22836867,-0.91795963,1002.093,37.88750171,127.74028822,143.8446044921875,0.29
2025-11-24 19:56:36.398,-3.8712878,4.9319067,7.7425756,-0.09880454,-0.80532575,-0.35978904,51.393753,15.1125,-56.550003,0.18653473,-0.23301092,-0.92425597,1002.0762, , , , 
2025-11-24 19:56:36.417,-3.5240295,4.872086,7.850253,-0.15927842,-0.57014954,-0.3151972,50.737503,15.1125,-56.775,0.18244803,-0.23276384,-0.92609566,1002.0762, , , , 
2025-11-24 19:56:36.438,-3.2584262,4.7688956,7.893324,-0.12384928,-0.30015507,-0.24128467,49.706253,15.31875,-57.3375,0.1790214,-0.23177977,-0.9279475,1002.06177, , , , 
2025-11-24 19:56:36.457,-3.330211,4.6636114,7.8143606,-0.02611372,-0.24701136,-0.23517619,48.768753,15.525001,-57.6375,0.17723608,-0.23112889,-0.9291435,1002.06177, , , , 
2025-11-24 19:56:36.477,-3.7995033,5.0491548,7.663613,0.08506048,-0.13278292,-0.16248538,48.112503,15.468751,-57.80625,0.17596647,-0.231427,-0.9300026,1002.051, , , , 
2025-11-24 19:56:36.498,-3.4689946,5.0084767,7.5990067,0.100331664,-0.47424653,-0.1331647,47.943752,15.225,-57.787502,0.17428368,-0.23258139,-0.93048567,1002.051, , , , 
2025-11-24 19:56:36.517,-2.9614172,5.1496534,7.3977103,0.033138465,-0.7582905,-0.32130566,47.006252,15.4875,-57.562504,0.16991566,-0.2342178,-0.931575,1002.0471, , , , 
2025-11-24 19:56:36.537,-2.585744,4.855336,7.3115687,-0.2753394,-1.044167,-0.54915166,46.537502,15.431251,-57.768753,0.16300732,-0.23461348,-0.93392855,1002.0471, , , , 
2025-11-24 19:56:36.557,-2.4825535,4.6564326,8.010572,-0.6565081,-1.3361521,-0.7006418,46.518753,15.58125,-57.7125,0.15280616,-0.23167437,-0.93804204,1002.0471, , , , 
2025-11-24 19:56:36.577,-2.2504497,4.240082,9.866206,-0.96689487,-1.5811782,-0.67865133,45.318752,16.35,-58.031254,0.13867241,-0.22570764,-0.9435773,1002.04614, , , , 
2025-11-24 19:56:36.599,-1.8194425,3.3876386,11.556436,-0.9027559,-1.39235,-0.41965207,44.550003,16.63125,-58.2,0.119969904,-0.21666877,-0.9502847,1002.05444, , , , 
2025-11-24 19:56:36.617,-1.9390837,3.4354951,11.798111,-0.50196373,-1.0502756,-0.03787253,43.987503,16.987501,-58.350002,0.1103919,-0.21266659,-0.9531219,1002.05444, , , , 
2025-11-24 19:56:36.637,-1.8409779,3.4019957,9.794122,-0.02367033,-0.420492,0.31764057,41.662502,18.018751,-58.687504,0.100466244,-0.21120234,-0.95480776,1002.06396, , , , 
2025-11-24 19:56:36.657,-1.5658033,4.2257247,7.704291,0.11804623,-0.216469,0.535713,40.5,18.487501,-58.95,0.09770022,-0.21232493,-0.95447576,1002.06396, , , , 
2025-11-24 19:56:36.677,-0.87637126,4.5655055,6.823134,-0.0047340663,-0.26228255,0.5167768,39.525,18.956251,-58.893753,0.094781026,-0.2141731,-0.953493,1002.0493, , , , 
2025-11-24 19:56:36.697,-0.49800622,4.8625145,6.99781,-0.13545538,-0.42354622,0.3903314,39.3375,19.2,-58.875004,0.0908379,-0.214918,-0.9528533,1002.0493, , , , 
2025-11-24 19:56:36.717,-0.31136605,4.7114677,7.689934,-0.19470756,-0.632456,0.2003579,38.8125,19.44375,-58.781254,0.08509875,-0.21481971,-0.95287335,1002.04175, , , , 
2025-11-24 19:56:36.737,-0.22971097,4.618148,8.48465,-0.16477604,-0.70453596,0.059252184,38.325,19.59375,-58.8375,0.07641819,-0.21463156,-0.9535365,1002.04175, , , , 
2025-11-24 19:56:36.757,-0.16031912,4.342973,8.616255,-0.18249062,-0.7014817,-0.08735116,38.15625,19.59375,-58.74375,0.07118696,-0.21455646,-0.9541359,1002.0498, , , , 
2025-11-24 19:56:36.777,-0.1268196,3.9047875,8.786445,-0.32359633,-0.6086329,-0.19180603,37.48125,19.650002,-58.8375,0.06464374,-0.21352689,-0.95532817,1002.0498, , , , 
2025-11-24 19:56:36.798,-0.21296121,3.4857445,9.399306,-0.4500417,-0.47546825,-0.18508671,36.412502,19.6875,-59.287502,0.057725534,-0.20983002,-0.9573059,1002.0508, , , , 
2025-11-24 19:56:36.817,-0.27517462,3.2488549,10.124631,-0.3981197,-0.27083442,-0.09529217,35.943752,19.706251,-59.100002,0.05365869,-0.2059947,-0.9588183,1002.0508, , , , 
2025-11-24 19:56:36.838,-0.29222345,3.2440693,10.019346,-0.10124794,-0.05581617,0.08185353,35.4375,19.706251,-59.2125,0.051554687,-0.20376882,-0.9595541,1002.0447, , , , 
2025-11-24 19:56:36.857,-0.29222345,3.5910287,9.236296,0.1357608,0.1543153,0.2339545,35.100002,19.81875,-58.8375,0.051823914,-0.20388992,-0.95927566,1002.0447, , , , 
2025-11-24 19:56:36.877,-0.27517462,4.05075,8.568398,0.23532891,0.23250374,0.2779355,35.34375,19.893751,-58.143753,0.05359419,-0.20553602,-0.9582947,1002.0403, , , , 
2025-11-24 19:56:36.898,-0.3376871,4.331009,8.094321,0.12598725,0.25754848,0.23823044,35.53125,20.081251,-58.125004,0.05576521,-0.20720918,-0.95722514,1002.0403, , , , 
2025-11-24 19:56:36.917,-0.3400799,4.4482574,8.115856,-0.071927264,0.26487863,0.20585553,35.60625,20.268751,-58.125004,0.05796741,-0.20736513,-0.95650923,1002.0398, , , , 
2025-11-24 19:56:36.937,-0.23688944,4.486542,8.439186,-0.2417428,0.2606027,0.12827793,35.7,20.212502,-58.18125,0.05987051,-0.2055848,-0.9562767,1002.0398, , , , 
2025-11-24 19:56:36.957,-0.47168517,4.254439,8.7984085,-0.43354884,0.2563268,0.052532863,35.850002,20.268751,-58.55625,0.061553776,-0.20201887,-0.9565881,1002.03735, , , , 
2025-11-24 19:56:36.977,-0.67028946,4.091428,8.927621,-0.6174139,0.23372543,0.12644538,36.037502,20.53125,-58.406254,0.062742054,-0.19677909,-0.95730996,1002.03735, , , , 
2025-11-24 19:56:36.997,-1.0271192,4.3932223,8.927621,-0.9088644,0.056579728,0.32802498,36.300003,21.075,-58.518753,0.062294643,-0.1896333,-0.9582682,1002.0425, , , , 
2025-11-24 19:56:37.019,-0.7109674,4.211368,9.262916,-1.1758046,-0.10712734,0.57793784,36.768753,21.825,-58.48125,0.059399843,-0.18029636,-0.9593114,1002.0425, , , , 
2025-11-24 19:56:37.038,-0.42382872,3.6436708,10.304092,-1.3162994,-0.14377818,0.70438325,36.91875,22.725,-58.0875,0.054205,-0.16912737,-0.9602668,1002.0615, , , , 
2025-11-24 19:56:37.057,-0.42622152,3.464209,11.43171,-1.2918656,0.14087665,0.8913025,37.143753,23.19375,-58.18125,0.04975091,-0.15712538,-0.9608512,1002.0615, , , , 
2025-11-24 19:56:37.077,0.1363909,2.908775,9.516555,-1.3841035,0.42553148,1.2962942,37.125,23.925001,-57.750004,0.048908796,-0.14422256,-0.960341,1002.0808, , , , 
2025-11-24 19:56:37.097,-0.7492526,0.73011,7.945966,-1.8959936,-0.33741677,1.4911546,37.237503,24.956251,-57.393753,0.04357951,-0.12907477,-0.9591153,1002.0808, , , , 
2025-11-24 19:56:37.118,-0.61046886,4.2687955,10.553246,-2.098795,-1.104641,1.7904696,37.818752,27.000002,-56.568752,0.028764863,-0.11123193,-0.95781696,1002.1377, , , , 
2025-11-24 19:56:37.138,0.9242278,1.3477573,10.644173,-1.0713497,-0.92688435,1.8075734,37.893753,28.44375,-56.006252,0.012481809,-0.098808646,-0.95492196,1002.1377, , , , 
2025-11-24 19:56:37.157,0.38554356,0.7013961,9.880563,0.03802524,-0.45286688,1.5723972,38.025,29.8875,-55.818752,0.0023157666,-0.09519929,-0.95062286,1002.1948, , , , 
2025-11-24 19:56:37.178,0.54346985,1.3549358,10.28495,1.170536,-0.26350424,1.1796224,38.11875,30.6375,-55.218754,-7.297823E-4,-0.10353331,-0.94441146,1002.1948, , , , 
2025-11-24 19:56:37.198,0.60329044,2.2169502,9.305986,1.5327685,-0.39972317,0.7300388,38.1375,30.69375,-55.443752,-3.9769104E-4,-0.11405422,-0.940745,1002.1948, , , , 
2025-11-24 19:56:37.218,0.8452646,2.801098,8.164012,1.278656,-0.38811707,0.24189551,38.568752,30.075,-55.500004,-2.272972E-5,-0.12928884,-0.9368902,1002.1948, , , , 
2025-11-24 19:56:37.238,0.9409775,3.153142,8.173583,0.810747,-0.252509,-0.005497625,38.925003,28.781252,-55.575,3.4267304E-4,-0.14093682,-0.93433505,1002.2031, , , , 
2025-11-24 19:56:37.257,1.0390832,3.0116663,8.863015,0.37521294,0.13537902,-0.06536066,38.90625,28.312502,-56.062504,0.0013843974,-0.14697951,-0.93390006,1002.2031, , , , 
2025-11-24 19:56:37.277,0.7612167,3.19382,8.95155,0.19867808,0.21295662,-0.03115321,38.850002,26.79375,-56.68125,0.0039349357,-0.1491151,-0.9336833,1002.1692, , , , 
2025-11-24 19:56:37.297,0.85244304,3.167499,9.322736,0.16569231,0.11949699,-0.07269082,38.850002,26.437502,-56.925003,0.0063065956,-0.15034121,-0.9334916,1002.1692, , , , 
2025-11-24 19:56:37.318,0.8500503,3.042773,9.399306,0.19684553,0.07062922,-0.13744064,38.625,25.9125,-57.393753,0.007922899,-0.15172821,-0.9335049,1002.1416, , , , 
2025-11-24 19:56:37.337,0.67028946,2.9973094,8.997013,0.21883602,0.06696413,-0.14049487,38.7,25.612501,-57.412502,0.009502874,-0.15343615,-0.93359345,1002.1416, , , , 
2025-11-24 19:56:37.358,0.7372885,3.2153554,8.676076,0.16752486,0.018707197,-0.16370706,38.831253,25.5375,-57.24375,0.010890061,-0.15522932,-0.93371505,1002.10864, , , , 
2025-11-24 19:56:37.377,0.5626124,3.315854,8.729017,0.02519745,-0.022830416,-0.12461284,38.7,25.81875,-57.112503,0.011473146,-0.15634987,-0.9340238,1002.10864,37.88750171,127.74028822,143.8446044921875,0.29
2025-11-24 19:56:37.397,0.5099703,3.4259238,8.91805,-0.08414421,-2.2906772E-4,-0.042759307,38.662502,25.85625,-57.000004,0.011484246,-0.15623724,-0.9343874,1002.0769, , , , 
2025-11-24 19:56:37.417,0.6511469,3.5431721,9.195618,-0.08903099,0.004046863,-0.032374904,38.41875,25.968752,-57.112503,0.011281439,-0.1554488,-0.9346417,1002.0769, , , , 
2025-11-24 19:56:37.437,0.64636123,3.6340995,9.3155575,0.04963134,0.028480753,-0.086129464,38.568752,25.95,-57.2625,0.011508763,-0.15519494,-0.9348301,1002.063, , , , 
2025-11-24 19:56:37.457,0.5027919,3.610171,8.973084,0.17424418,-0.064978875,-0.10384403,38.456253,25.3875,-57.525,0.012170352,-0.15685317,-0.93494904,1002.063, , , , 
2025-11-24 19:56:37.477,0.45972106,3.8138602,8.819944,0.11743539,-0.2256317,-0.13377555,38.456253,25.331251,-57.61875,0.011807008,-0.15844649,-0.9349497,1002.0586, , , , 
2025-11-24 19:56:37.497,0.7109674,3.4331024,9.322736,-0.0035123718,0.0046577104,-0.09773556,38.456253,25.050001,-57.24375,0.010972202,-0.15975982,-0.93535835,1002.0586, , , , 
2025-11-24 19:56:37.517,0.6367899,3.4977086,9.346664,0.007482879,-0.058259558,-0.108119965,38.25,24.993752,-57.16875,0.011119238,-0.15985002,-0.9356324,1002.06323, , , , 
2025-11-24 19:56:37.538,0.80189466,3.4307094,9.365807,0.06490252,-0.07230905,-0.124001995,38.11875,25.0125,-57.037502,0.010785197,-0.16050275,-0.9359388,1002.06323, , , , 
2025-11-24 19:56:37.557,0.72293156,3.437888,9.243474,0.10888352,-0.033825666,-0.07452337,38.287502,25.125002,-56.925003,0.010747297,-0.16132927,-0.936104,1002.06323, , , , 
2025-11-24 19:56:37.578,0.7827521,3.598207,8.970692,0.14125843,-0.047875155,-0.012216945,38.11875,25.10625,-57.093754,0.01102657,-0.16297619,-0.9360435,1002.07153, , , , 
2025-11-24 19:56:37.597,1.0319048,3.7253258,8.630612,0.20112146,-0.17493138,-0.004886778,38.11875,25.06875,-57.093754,0.010522175,-0.16515055,-0.935747,1002.0686, , , , 
2025-11-24 19:56:37.618,1.4270196,3.8353956,8.458329,0.21639264,-0.24334627,-0.027488127,37.7625,24.900002,-57.15,0.0090184435,-0.16809025,-0.935388,1002.0686, , , , 
2025-11-24 19:56:37.637,1.7691933,3.8880377,8.326724,0.17790927,-0.059481252,-0.0775776,37.59375,24.862501,-57.318752,0.008302094,-0.17064081,-0.9351896,1002.0503, , , , 
2025-11-24 19:56:37.657,1.6567305,4.26401,8.063214,0.11193776,0.03825431,-0.1447708,37.800003,24.618752,-57.581253,0.008927093,-0.17225772,-0.9352131,1002.0503, , , , 
2025-11-24 19:56:37.677,1.8002999,4.922335,8.017751,0.04046863,0.032756682,-0.2327328,37.425003,24.54375,-57.881252,0.0095351385,-0.17452438,-0.9352827,1002.041, , , , 
2025-11-24 19:56:37.698,1.1754742,4.778766,7.7066836,0.019699825,-0.0020616094,-0.32619244,37.425003,24.375002,-57.937504,0.009710992,-0.17867894,-0.9352949,1002.041, , , , 
2025-11-24 19:56:37.717,1.4246268,6.7633133,7.996215,0.018478129,0.014431266,-0.27060533,37.36875,24.16875,-57.825,0.010911891,-0.17956305,-0.9359605,1002.0105, , , , 
2025-11-24 19:56:37.737,1.3429717,6.8614187,7.8287177,0.107050985,-0.2036412,-0.41293275,37.21875,24.13125,-57.61875,0.0107309,-0.18158501,-0.93658465,1002.0105, , , , 
2025-11-24 19:56:37.757,0.933799,7.3139615,8.494222,0.21272756,-0.17798562,-0.5045598,37.3125,24.018751,-57.487503,0.010471666,-0.18456179,-0.9374682,1001.99097, , , , 
2025-11-24 19:56:37.777,0.12921242,6.863812,8.683254,0.22372282,0.008322794,-0.6151232,37.050003,24.0375,-57.318752,0.011817865,-0.18772265,-0.9385426,1001.99097, , , , 
2025-11-24 19:56:37.797,-0.90029955,6.5838513,8.908479,0.1485886,-0.041155834,-0.60779303,36.65625,23.8875,-57.468754,0.01420021,-0.19000247,-0.93984735,1001.98315, , , , 
2025-11-24 19:56:37.818,-1.082154,6.238986,9.368199,0.18707198,-0.30992863,-0.5741964,36.5625,23.962502,-57.54375,0.014947756,-0.19225302,-0.9411168,1001.98315, , , , 
2025-11-24 19:56:37.837,-1.0127622,6.0451674,9.090333,0.3605526,-0.7595122,-0.6621584,36.412502,23.8875,-57.6375,0.013007734,-0.19635633,-0.9421253,1001.9712, , , , 
2025-11-24 19:56:37.857,-1.0295119,5.4370914,8.539685,0.40392274,-1.4290009,-0.739736,35.60625,23.41875,-57.881252,0.0064500696,-0.20308566,-0.94306827,1001.9712, , , , 
2025-11-24 19:56:37.877,-0.51475596,5.0850472,9.221938,0.40636614,-1.9147007,-0.7537855,35.193752,23.41875,-57.975002,-0.0061160247,-0.21139209,-0.94399774,1001.9541, , , , 
2025-11-24 19:56:37.897,-0.13160525,4.5678983,9.449555,0.4729485,-1.7448852,-0.6951442,34.2,23.0625,-58.10625,-0.020642966,-0.22025348,-0.9446927,1001.9541, , , , 
2025-11-24 19:56:37.917,-0.11246266,4.3405805,8.475079,0.56824064,-1.454122,-0.5173876,32.41875,22.63125,-58.0125,-0.03281108,-0.22892903,-0.9448015,1001.94604, , , , 
2025-11-24 19:56:37.938,0.0741775,4.587041,7.3546395,0.71667653,-1.4321314,-0.39399648,30.900002,22.275002,-58.143753,-0.043382764,-0.23820814,-0.9439725,1001.94604, , , , 
2025-11-24 19:56:37.958,0.22253251,4.5822554,6.059524,0.80830365,-1.3825765,-0.36345413,29.362501,21.4125,-57.937504,-0.05390435,-0.24905771,-0.94224143,1001.9402, , , , 
2025-11-24 19:56:37.978,-0.4764708,4.05075,5.415556,0.3721587,-0.47424653,-0.11056335,27.7875,21.075,-57.881252,-0.060594235,-0.25691736,-0.9410561,1001.9402, , , , 
2025-11-24 19:56:37.998,0.17228323,3.789932,5.2310095,0.3361187,-0.6477272,0.167983,26.7,20.325,-57.91875,-0.06397526,-0.2610246,-0.94000506,1001.9321, , , , 
2025-11-24 19:56:38.018,0.42861435,3.5503507,4.7138605,0.63237965,-1.39235,0.29015246,25.181252,19.556252,-57.9,-0.07479215,-0.26890355,-0.9369713,1001.9321, , , , 
2025-11-24 19:56:38.038,0.69182485,3.1100712,3.9430726,1.0886825,-2.1791975,0.26022094,24.581251,19.331251,-57.99375,-0.086129144,-0.27763164,-0.93359554,1001.927, , , , 
2025-11-24 19:56:38.058,0.8644072,2.7173493,2.5232315,1.1699252,-2.6061797,0.26205346,23.831251,18.73125,-57.881252,-0.10657423,-0.29358926,-0.9272553,1001.927, , , , 
2025-11-24 19:56:38.077,1.6806588,2.2025933,1.8577276,0.4033119,-2.3887181,0.45202696,21.618752,18.375,-57.61875,-0.13459793,-0.30843878,-0.919649,1001.9385, , , , 
2025-11-24 19:56:38.097,1.8122641,1.407877,2.8082764,0.13759334,-2.409487,0.5913765,20.737501,17.8125,-57.468754,-0.15168317,-0.3130984,-0.91578335,1001.9385, , , , 
2025-11-24 19:56:38.117,2.2839491,0.18185452,3.0475588,0.41369632,-2.885948,0.89924353,17.925001,16.650002,-56.2125,-0.18376377,-0.32049116,-0.9076535,1001.9429, , , , 
2025-11-24 19:56:38.139,3.3397822,-0.67028946,1.3429717,0.44668207,-3.3092651,1.2266576,15.806251,16.050001,-55.425003,-0.21491513,-0.32871252,-0.89770216,1001.9429, , , , 
2025-11-24 19:56:38.158,4.817051,-2.2624137,-0.4118646,-0.5441122,-3.009339,1.7031186,13.14375,15.675,-54.45,-0.24895225,-0.33116472,-0.88728786,1001.9487, , , , 
2025-11-24 19:56:38.178,6.930811,-4.7835517,1.570589,-1.5209333,-2.5090551,2.141096,10.81875,16.143751,-53.30625,-0.28260246,-0.32079694,-0.87958455,1001.9487, , , , 
2025-11-24 19:56:38.198,8.214261,-6.5886374,3.5814574,-1.6321075,-2.8028727,2.5821278,8.38125,17.475,-51.61875,-0.31760257,-0.3033148,-0.8717462,1001.9602, , , , 
2025-11-24 19:56:38.217,9.621839,-7.2158556,4.359723,-1.0304229,-3.837648,3.0579777,7.1250005,18.2625,-50.60625,-0.35942432,-0.2876491,-0.8579843,1001.9602, , , , 
2025-11-24 19:56:38.238,11.309676,-7.4120674,4.0100718,-0.31321192,-4.6373234,3.4325035,5.08125,20.475,-48.562504,-0.40834254,-0.27762488,-0.83547175,1001.98267, , , , 
2025-11-24 19:56:38.257,11.88186,-7.9483585,2.719742,0.030084228,-4.6922994,3.7000546,3.2812502,23.04375,-46.29375,-0.4585037,-0.2709543,-0.80622107,1001.98267, , , , 
2025-11-24 19:56:38.278,12.317653,-8.829515,1.9438694,-0.037108973,-4.305633,3.9950938,1.3312501,25.575,-43.65,-0.50547975,-0.26257136,-0.77379227,1002.00757, , , , 
2025-11-24 19:56:38.297,13.093226,-10.17488,1.852942,-0.30832514,-3.6916554,4.3457203,-1.1625,29.118752,-39.61875,-0.5477671,-0.24898997,-0.7406162,1002.00757, , , , 
2025-11-24 19:56:38.318,14.180166,-11.264213,2.2504497,-0.6149705,-2.9122143,4.690238,-1.6500001,30.50625,-38.175003,-0.58446705,-0.22847244,-0.70836157,1002.02246, , , , 
2025-11-24 19:56:38.338,14.929718,-11.683255,2.4801607,-0.9638406,-2.066191,4.915641,-2.3812501,33.3375,-35.081253,-0.6148039,-0.20105542,-0.6783996,1002.02246, , , , 
2025-11-24 19:56:38.357,15.470795,-11.826825,2.7699914,-1.3046933,-1.2897277,4.976725,-2.0625,36.412502,-32.381252,-0.6389404,-0.16746254,-0.6516077,1002.03516, , , , 
2025-11-24 19:56:38.378,15.470795,-11.908181,3.126821,-1.5783529,-0.74301934,4.906478,-0.6,39.7125,-29.868752,-0.65789413,-0.12947461,-0.6278767,1002.03516,37.88750171,127.74028822,143.8446044921875,0.29
2025-11-24 19:56:38.398,15.099608,-11.834003,3.8377883,-1.6852512,-0.4699706,4.798358,1.3687501,43.5,-28.1625,-0.6730604,-0.08913697,-0.60603434,1002.04126, , , , 
2025-11-24 19:56:38.417,14.486747,-11.604293,4.503292,-1.574077,-0.42110282,4.757431,4.3125,46.631252,-26.38125,-0.68526334,-0.04844006,-0.5844434,1002.04126, , , , 
2025-11-24 19:56:38.438,14.058132,-11.115857,5.07069,-1.2515497,-0.49990213,4.7690372,7.9687505,49.893753,-24.768751,-0.69463605,-0.009056622,-0.56172746,1002.05005, , , , 
2025-11-24 19:56:38.458,14.13231,-10.359127,5.2238307,-0.7720346,-0.6611658,4.7207804,13.875001,54.131252,-22.462502,-0.701133,0.027323471,-0.53721035,1002.05005, , , , 
2025-11-24 19:56:38.477,14.577674,-9.607482,5.2477593,-0.29916245,-0.7570688,4.5356936,18.13125,56.156254,-21.4125,-0.70454913,0.059538394,-0.51153594,1002.0615, , , , 
2025-11-24 19:56:38.498,15.180964,-8.52772,4.610969,0.11438115,-0.6000811,4.046405,22.1625,57.862503,-20.5125,-0.704539,0.08629908,-0.48670924,1002.0615, , , , 
2025-11-24 19:56:38.517,14.32882,-7.103393,3.7588253,0.28419667,-0.35390964,3.4935882,26.2875,58.912502,-20.04375,-0.7015605,0.1077066,-0.4654486,1002.0703, , , , 
2025-11-24 19:56:38.538,13.282558,-6.356234,3.1890345,0.27503398,0.06879667,3.1098998,30.16875,59.343754,-19.66875,-0.6967845,0.12629251,-0.44792917,1002.0703, , , , 
2025-11-24 19:56:38.557,12.595221,-5.4729834,3.4331024,0.28786176,0.52754295,2.8545656,32.41875,59.4,-19.81875,-0.68985295,0.1448332,-0.4350663,1002.0703, , , , 
2025-11-24 19:56:38.578,12.308082,-4.80748,2.5208387,0.3581092,0.94719505,2.557083,36.131252,59.362503,-19.518751,-0.6804693,0.16391152,-0.42670238,1002.07666, , , , 
2025-11-24 19:56:38.597,12.276975,-3.6750765,1.1778669,0.20478654,1.1469421,2.1362092,39.54375,58.93125,-19.875,-0.67047185,0.18229273,-0.4217905,1002.0781, , , , 
2025-11-24 19:56:38.617,11.7717905,-2.695814,0.68225354,-0.12384928,1.2465866,1.7745876,42.9375,58.66875,-19.987501,-0.66162527,0.199844,-0.41989806,1002.0781, , , , 
2025-11-24 19:56:38.637,11.778969,-2.4418755,0.09810573,-0.23991026,1.2502517,1.4709965,45.393753,58.3875,-19.875,-0.65508264,0.21681586,-0.4189706,1002.08545, , , , 
2025-11-24 19:56:38.658,12.257833,-2.0662024,0.1794617,-0.22219568,1.0980743,0.9865947,48.24375,58.218754,-20.00625,-0.64762753,0.2345881,-0.42140073,1002.08545, , , , 
2025-11-24 19:56:38.678,12.370295,-2.4418755,-0.34486556,-0.3516953,0.90626824,0.6457419,49.125004,57.862503,-19.743752,-0.64480346,0.2424363,-0.42345494,1002.09375, , , , 
2025-11-24 19:56:38.697,12.830016,-3.394817,0.1363909,-0.54227966,0.851292,0.379947,50.325,57.45,-19.518751,-0.6432566,0.25082543,-0.42654327,1002.09375, , , , 
2025-11-24 19:56:38.719,14.331213,-4.347759,1.4246268,-0.4885251,0.45118704,0.15332267,51.99375,56.662502,-18.337502,-0.6433357,0.25886774,-0.43105027,1002.09814, , , , 
2025-11-24 19:56:38.738,16.478472,-5.1065826,2.489732,-0.27472857,-0.23907034,-0.24189551,52.987503,56.41875,-17.56875,-0.6455433,0.25929725,-0.43379444,1002.09814, , , , 
2025-11-24 19:56:38.758,17.824137,-5.853442,3.4761732,-0.004123219,-0.81693184,-0.8521319,53.1375,56.756252,-16.96875,-0.6504128,0.25108653,-0.4361665,1002.1001, , , , 
2025-11-24 19:56:38.778,17.519949,-6.093024,3.4211383,0.2041757,-0.9103915,-1.5283399,52.968754,56.98125,-16.40625,-0.6570051,0.23473424,-0.440102,1002.1001, , , , 
2025-11-24 19:56:38.798,16.031013,-5.6668024,2.8657043,0.27564484,-0.48096585,-2.1979048,52.331253,57.2625,-16.66875,-0.66345704,0.2139107,-0.44838986,1002.1084, , , , 
2025-11-24 19:56:38.818,14.36232,-5.95424,2.0662024,0.23593976,0.085900396,-2.8545656,51.000004,57.675003,-17.175001,-0.6684349,0.19157974,-0.46312928,1002.1084, , , , 
2025-11-24 19:56:38.838,12.674482,-6.9930243,1.6734804,0.2005106,0.3986542,-3.4000523,49.29375,58.10625,-17.643751,-0.6719781,0.16878942,-0.48332316,1002.104, , , , 
2025-11-24 19:56:38.858,11.379068,-8.420044,1.5059828,0.28664008,0.26304612,-3.6578298,46.912502,58.818752,-18.0375,-0.674535,0.1448448,-0.50565314,1002.104, , , , 
2025-11-24 19:56:38.878,10.541281,-9.928419,1.7763717,0.47233763,-0.25189814,-3.7635064,9.918751,48.956253,-8.90625,-0.6771218,0.11836704,-0.52645767,1002.0896, , , , 
2025-11-24 19:56:38.898,10.0576315,-11.079966,2.2695923,0.67391723,-0.8511393,-3.7372398,6.7312503,49.575,-9.0375,-0.68073463,0.08820426,-0.5429498,1002.0896, , , , 
2025-11-24 19:56:38.918,10.153345,-11.726327,2.841776,1.0129374,-1.3954042,-3.633396,3.3375,49.612503,-9.28125,-0.68509245,0.054736994,-0.5544953,1002.0759, , , , 
2025-11-24 19:56:38.938,10.440783,-12.054143,2.2576282,1.3354648,-1.8523943,-3.4892359,-0.63750005,49.406254,-9.7875,-0.6895599,0.017770687,-0.5610234,1002.0759, , , , 
2025-11-24 19:56:38.958,10.591531,-11.359925,1.2113664,1.2578872,-1.9513515,-3.3921113,-4.89375,49.256252,-10.70625,-0.69398594,-0.021246167,-0.5632837,1002.0669, , , , 
2025-11-24 19:56:38.978,10.866705,-10.4718895,0.7492526,0.75638163,-1.6166073,-3.3023167,-9.0,48.281254,-11.606251,-0.6981821,-0.05869389,-0.5640174,1002.0669, , , , 
2025-11-24 19:56:38.998,11.022537,-9.899706,0.6655038,0.16874656,-0.9171108,-3.257114,-10.875,47.98125,-12.0375,-0.7007237,-0.09061251,-0.5674756,1002.0569, , , , 
2025-11-24 19:56:39.018,10.967503,-9.672089,1.1611172,-0.5209,0.1866902,-3.3145335,-16.275002,46.3875,-12.7875,-0.69994605,-0.11488855,-0.5772493,1002.0569, , , , 
2025-11-24 19:56:39.038,10.246665,-9.7654085,1.9534405,-0.7163711,0.85312456,-3.3976088,-17.85,45.375,-12.6,-0.69485354,-0.13249043,-0.5941315,1002.0564, , , , 
2025-11-24 19:56:39.058,9.511769,-9.815658,2.097309,-0.6497888,1.0980743,-3.3786726,-20.79375,44.4375,-12.468751,-0.69080395,-0.13981566,-0.60422254,1002.0564, , , , 
2025-11-24 19:56:39.078,8.33151,-9.361021,2.1379871,-0.22402823,0.94658417,-3.256503,-24.825,42.24375,-12.187501,-0.675957,-0.1609424,-0.6338176,1002.0513, , , , 
2025-11-24 19:56:39.098,7.6109705,-8.755338,2.1834507,0.18523943,0.6185592,-3.1502156,-27.393751,40.48125,-12.13125,-0.6658211,-0.17725947,-0.64989156,1002.0513, , , , 
2025-11-24 19:56:39.118,7.2206416,-8.367402,1.6543378,0.49921492,0.35406235,-3.0194943,-29.531252,38.756252,-12.4875,-0.65614635,-0.19617942,-0.6620879,1002.0642, , , , 
2025-11-24 19:56:39.138,6.650851,-8.075178,1.3740784,0.6959077,0.2526617,-2.924813,-31.743752,36.768753,-12.900001,-0.64668345,-0.21664122,-0.6714379,1002.0642, , , , 
2025-11-24 19:56:39.158,5.6668024,-7.764111,0.9529416,0.90909344,0.15736952,-2.8038652,-33.61875,34.93125,-13.33125,-0.6370164,-0.2379122,-0.6788861,1002.06445, , , , 
2025-11-24 19:56:39.178,4.194319,-7.54128,0.11485548,1.034928,0.073072605,-2.5876253,-35.475002,32.737503,-13.781251,-0.62509805,-0.2650572,-0.6852994,1002.06445, , , , 
2025-11-24 19:56:39.197,2.8800611,-7.3689966,-0.44775695,1.0392039,0.06024481,-2.3274045,-37.518753,30.54375,-14.062501,-0.6182626,-0.28065792,-0.68786794,1002.0615, , , , 
2025-11-24 19:56:39.217,1.4964114,-7.4527454,-1.0103694,1.006829,0.08101362,-1.9070652,-39.112503,28.10625,-14.625001,-0.6097143,-0.2993886,-0.69021994,1002.0615, , , , 
2025-11-24 19:56:39.237,0.3711866,-8.005786,-1.9295124,0.92986226,0.017485503,-1.3108783,-39.99375,26.98125,-14.962501,-0.60269386,-0.31482476,-0.69100654,1002.063, , , , 
2025-11-24 19:56:39.257,-0.078963146,-8.443972,-2.8369904,0.73744535,-0.10162971,-0.5167768,-41.175003,24.675001,-15.618751,-0.5986447,-0.3256169,-0.689619,1002.063, , , , 
2025-11-24 19:56:39.277,0.34965122,-8.278867,-3.0236306,0.41003123,-0.1908134,0.30725616,-42.225002,21.73125,-16.59375,-0.59871054,-0.33027583,-0.68602484,1002.0603, , , , 
2025-11-24 19:56:39.297,1.4772689,-8.027322,-2.4323041,0.06734591,-0.16821207,1.0446252,-42.46875,21.112501,-16.706251,-0.60241663,-0.3280009,-0.6813141,1002.0603, , , , 
2025-11-24 19:56:39.317,3.394817,-8.623434,-1.6064813,-0.07742489,-0.11384666,1.7153355,-42.5625,20.400002,-16.743752,-0.60868037,-0.31940433,-0.6760672,1002.0598, , , , 
2025-11-24 19:56:39.337,5.250152,-9.779765,-1.6399808,-0.10491302,-0.10712734,2.1270466,-42.54375,20.587502,-16.6875,-0.61650795,-0.3064213,-0.6697212,1002.0598, , , , 
2025-11-24 19:56:39.357,6.059524,-9.949955,-1.489233,-0.2093679,-0.07108735,2.5680783,-41.90625,21.675001,-16.3875,-0.6255233,-0.29001325,-0.6618796,1002.0679, , , , 
2025-11-24 19:56:39.377,6.8255267,-9.559626,-0.92662054,-0.2985516,-0.03504736,2.964518,-40.987503,23.23125,-16.275002,-0.6352379,-0.26991385,-0.65290844,1002.0679,37.88750413,127.74030029,142.927978515625,0.45
2025-11-24 19:56:39.397,7.9627156,-9.825528,-0.68225354,-0.32787228,-0.00633754,3.294452,-39.43125,26.19375,-16.3875,-0.6476103,-0.24072759,-0.63995975,1002.0779, , , , 
2025-11-24 19:56:39.417,9.755837,-10.775778,-0.9098708,-0.4005631,-0.00633754,3.5045834,-38.025,28.612501,-16.143751,-0.65732044,-0.21500778,-0.627985,1002.0779, , , , 
2025-11-24 19:56:39.437,10.993824,-11.35514,-0.811466,-0.50318545,-0.017943637,3.6175902,-36.24375,31.0125,-15.900001,-0.66683656,-0.18754451,-0.61474615,1002.0818, , , , 
2025-11-24 19:56:39.457,11.472388,-11.458032,-0.54346985,-0.6137488,-0.08635853,3.7318187,-34.425003,33.43125,-15.69375,-0.67615557,-0.15874158,-0.60025126,1002.0818, , , , 
2025-11-24 19:56:39.477,11.972787,-11.438889,0.011964113,-0.7408814,-0.17554224,3.846658,-31.987501,35.98125,-15.375001,-0.68550736,-0.12871386,-0.58414435,1002.09106, , , , 
2025-11-24 19:56:39.497,12.418151,-11.106286,0.7468598,-0.7775322,-0.15171918,3.9193487,-29.250002,38.25,-15.01875,-0.6942426,-0.097681105,-0.56688726,1002.09106, , , , 
2025-11-24 19:56:39.517,12.588041,-10.464711,1.0606186,-0.7891383,-0.00633754,3.8772004,-26.681252,40.36875,-14.531251,-0.7011999,-0.06629212,-0.54960465,1002.0879, , , , 
2025-11-24 19:56:39.537,12.209976,-9.495019,1.07019,-0.83739525,0.22517358,3.7733562,-24.91875,41.381252,-14.156251,-0.70597595,-0.034898266,-0.5333659,1002.0879, , , , 
2025-11-24 19:56:39.557,11.826825,-8.616255,1.0079765,-1.026147,0.5409816,3.6878376,-19.837502,44.081253,-13.312501,-0.7087258,-0.002742775,-0.5188196,1002.09595, , , , 
2025-11-24 19:56:39.577,11.733505,-7.8646097,1.3980067,-1.2546039,0.8097544,3.562614,-18.28125,44.925003,-12.95625,-0.71003455,0.03101588,-0.5062443,1002.09595, , , , 
2025-11-24 19:56:39.597,11.616257,-7.392925,1.8026928,-1.3682215,0.8977164,3.4117346,-14.7375,46.256252,-12.262501,-0.71032524,0.05679436,-0.49802557,1002.09595, , , , 
2025-11-24 19:56:39.617,11.257034,-6.3538413,2.6312077,-1.3566154,0.84518355,3.085466,-9.0,47.86875,-10.6875,-0.709954,0.098354645,-0.4856511,1002.1006, , , , 
2025-11-24 19:56:39.637,11.036895,-5.590232,2.9805596,-1.2338351,0.77432525,2.8686152,-5.7937503,48.468754,-9.31875,-0.7087936,0.12888466,-0.47634736,1002.11084, , , , 
2025-11-24 19:56:39.657,11.146964,-4.915157,3.2799616,-1.0359206,0.7028561,2.6273303,-2.68125,49.0875,-8.25,-0.70676273,0.15651298,-0.4675914,1002.11084, , , , 
2025-11-24 19:56:39.677,11.254642,-4.369294,3.1507492,-0.85327727,0.6930826,2.3744397,-0.99375004,49.218754,-7.5375004,-0.70373356,0.180731,-0.45994672,1002.1057, , , , 
2025-11-24 19:56:39.697,11.242677,-3.7301114,2.7628129,-0.67849857,0.71873814,2.0836763,1.63125,49.443752,-6.6937504,-0.69989794,0.20171086,-0.45390403,1002.1057, , , , 
2025-11-24 19:56:39.717,11.022537,-3.0379875,2.32702,-0.5880932,0.7889856,1.7806962,4.2000003,49.55625,-5.5875,-0.69559985,0.22011617,-0.44959652,1002.10767, , , , 
2025-11-24 19:56:39.737,11.048859,-2.5666013,2.1834507,-0.52578676,0.823193,1.5913335,6.9,49.237503,-4.4625,-0.69107944,0.23671198,-0.44690546,1002.10767, , , , 
2025-11-24 19:56:39.757,12.092728,-2.6599214,2.097309,-0.34803024,0.6600968,1.2846881,10.35,48.843754,-2.8312502,-0.68647075,0.25118616,-0.4455531,1002.1089, , , , 
2025-11-24 19:56:39.777,12.973585,-3.370889,1.8577276,-0.118962504,0.2862583,0.90718454,12.187501,48.487503,-1.8375001,-0.6826004,0.2613431,-0.44498974,1002.1089, , , , 
2025-11-24 19:56:39.797,13.826028,-3.976572,1.5299109,0.009315421,-0.090023614,0.5577799,13.406251,48.281254,-1.575,-0.6804311,0.26598454,-0.44419843,1002.1028, , , , 
2025-11-24 19:56:39.817,14.434104,-4.002893,2.0015962,0.012369657,-0.32214558,0.1887518,14.38125,48.16875,-1.21875,-0.6804298,0.26597032,-0.4430889,1002.1028, , , , 
2025-11-24 19:56:39.837,15.322141,-4.206283,2.8752756,0.06123744,-0.43454146,-0.31458634,14.868751,47.90625,-1.125,-0.6822605,0.2618287,-0.44296345,1002.1052, , , , 
2025-11-24 19:56:39.857,15.966109,-5.64766,3.3349965,0.24143738,-0.3936147,-0.97613394,15.656251,48.131252,-1.35,-0.6852021,0.25271916,-0.445816,1002.1052, , , , 
2025-11-24 19:56:39.877,15.408282,-7.079465,3.0403802,0.49921492,-0.17065546,-1.5289507,15.69375,48.112503,-1.5187501,-0.6879229,0.23867416,-0.45305234,1002.09937, , , , 
2025-11-24 19:56:39.897,13.971991,-6.9786673,2.3198416,0.7466081,0.03825431,-1.8673601,15.39375,48.093754,-1.63125,-0.6890392,0.2217113,-0.4644111,1002.09937, , , , 
2025-11-24 19:56:39.917,13.433307,-6.6915283,1.5801603,0.8681667,0.0052685575,-2.193018,13.5375,48.393753,-2.8500001,-0.68899137,0.20279801,-0.4781477,1002.0962, , , , 
2025-11-24 19:56:39.937,13.643875,-7.5723863,1.1108679,0.9261972,-0.25373068,-2.6535969,12.69375,48.562504,-3.0937502,-0.6895262,0.1804659,-0.4927012,1002.0962, , , , 
2025-11-24 19:56:39.957,13.823635,-9.557233,0.7683952,0.8754968,-0.5646519,-3.1984725,9.58125,49.218754,-4.2000003,-0.692463,0.14596534,-0.5106057,1002.09985, , , , 
2025-11-24 19:56:39.978,13.643875,-11.22832,0.8066803,0.75699246,-0.73141325,-3.5258868,8.25,49.518753,-4.7250004,-0.69544744,0.122379385,-0.520786,1002.09985, , , , 
2025-11-24 19:56:39.997,12.739089,-12.107084,1.0917253,0.60000473,-0.74607354,-3.7036433,5.8125,49.987503,-5.7375,-0.69989157,0.08949743,-0.533692,1002.09546, , , , 
2025-11-24 19:56:40.017,12.1046915,-12.257833,1.3860425,0.4265241,-0.63306683,-3.7751124,2.71875,50.287502,-6.80625,-0.7038503,0.057000246,-0.5461645,1002.09546, , , , 
2025-11-24 19:56:40.037,11.391032,-12.147762,1.8242282,0.32878855,-0.42171368,-3.8282561,-0.76875,50.025,-7.4062505,-0.7064794,0.025766533,-0.5590329,1002.08887, , , , 
2025-11-24 19:56:40.057,10.428819,-11.419746,1.907977,0.34100547,-0.21036053,-3.7867186,-5.925,49.331253,-8.043751,-0.7069268,-0.011296828,-0.5760348,1002.08887, , , , 
2025-11-24 19:56:40.077,9.973883,-10.670493,1.6591234,0.3086306,0.005879405,-3.6755443,-7.9875,49.068752,-8.043751,-0.7055715,-0.032351494,-0.5863844,1002.0862, , , , 
2025-11-24 19:56:40.097,9.803694,-9.882956,1.7715861,0.2365506,0.30519456,-3.6150703,-13.51875,47.943752,-8.325001,-0.7006006,-0.06468481,-0.6045395,1002.0862, , , , 
2025-11-24 19:56:40.117,9.576375,-9.693624,1.7093726,0.2780882,0.57030225,-3.66516,-17.15625,46.725002,-8.53125,-0.6939402,-0.08901299,-0.62036896,1002.0786, , , , 
2025-11-24 19:56:40.137,8.872586,-9.602696,1.3597214,0.32756683,0.7425612,-3.6883721,-19.143751,45.9375,-8.56875,-0.68491286,-0.11276559,-0.6369719,1002.0786, , , , 
2025-11-24 19:56:40.157,7.900502,-9.5404825,1.2783655,0.40392274,0.7883747,-3.6132379,-24.337502,43.125,-9.075001,-0.674317,-0.13589554,-0.65326196,1002.07544, , , , 
2025-11-24 19:56:40.177,6.9499536,-9.18126,1.3549358,0.55663455,0.683309,-3.4281511,-27.150002,40.96875,-9.9375,-0.66309613,-0.15841609,-0.6679153,1002.07544, , , , 
2025-11-24 19:56:40.197,6.399305,-8.566006,1.204188,0.72217417,0.48722705,-3.2119112,-30.206251,39.09375,-10.743751,-0.6521878,-0.18090576,-0.679798,1002.0742, , , , 
2025-11-24 19:56:40.217,5.9757752,-8.036893,1.0295119,0.8400677,0.36078167,-3.0146077,-32.5125,36.975002,-11.475,-0.64168733,-0.20342804,-0.6891558,1002.0742, , , , 
2025-11-24 19:56:40.237,5.532804,-7.6779695,0.90508515,0.946966,0.31557897,-2.8802211,-33.412502,36.112503,-11.90625,-0.6312397,-0.22567666,-0.6967512,1002.07227, , , , 
2025-11-24 19:56:40.257,4.6636114,-7.4527454,0.3711866,1.0611944,0.2306712,-2.6664248,-35.456253,33.75,-12.7875,-0.6208533,-0.24777097,-0.7026424,1002.07227, , , , 
2025-11-24 19:56:40.277,3.612564,-7.1799636,-0.2321038,1.0679138,0.17997088,-2.381159,-37.893753,29.831251,-13.781251,-0.6109659,-0.26894942,-0.70679885,1002.0669, , , , 
2025-11-24 19:56:40.297,2.9183464,-7.1823564,-0.7468598,1.022711,0.14576343,-2.0640528,-38.662502,28.66875,-14.212501,-0.6019797,-0.28811318,-0.7094695,1002.0669, , , , 
2025-11-24 19:56:40.317,2.164308,-7.483852,-1.6998014,0.8290724,0.08773294,-1.5472761,-40.893753,25.031252,-15.431251,-0.5944315,-0.3042842,-0.710821,1002.0664, , , , 
2025-11-24 19:56:40.337,1.6016957,-7.6492558,-2.0063818,0.58839864,0.037643462,-1.0146173,-41.550003,23.962502,-15.50625,-0.58931255,-0.31588948,-0.7110066,1002.0664, , , , 
2025-11-24 19:56:40.357,1.489233,-7.3809605,-1.7931215,0.32268006,0.010766183,-0.32497075,-42.675003,21.956251,-16.181252,-0.5871418,-0.32176143,-0.7102732,1002.0664, , , , 
2025-11-24 19:56:40.377,1.6830516,-6.8518476,-1.4676976,0.09605573,0.079181075,0.4379775,-43.5,19.7625,-16.10625,-0.5875108,-0.32186615,-0.7089711,1002.0664,37.88751319,127.7402966,142.806884765625,1.45
2025-11-24 19:56:40.397,2.6599214,-6.849455,-1.1778669,-0.009620844,0.18424681,1.0562313,-43.6875,19.087502,-16.331251,-0.5896133,-0.31668606,-0.70740396,1002.06494, , , , 
2025-11-24 19:56:40.417,4.314259,-8.216654,-1.5993029,-0.021226943,0.11155598,1.5668995,-43.518753,19.06875,-16.06875,-0.59340906,-0.30747196,-0.7048275,1002.06494, , , , 
2025-11-24 19:56:40.437,5.1329036,-9.332308,-2.3078775,-0.08231167,-0.07230905,2.1184947,-43.518753,19.987501,-16.650002,-0.59973115,-0.29511604,-0.6999375,1002.0698, , , , 
2025-11-24 19:56:40.457,6.1384873,-9.279665,-2.612065,-0.27228516,-0.22196662,2.6175568,-43.237503,20.868752,-16.425001,-0.60909826,-0.27906308,-0.69222337,1002.0698, , , , 
2025-11-24 19:56:40.477,6.7561345,-9.131011,-2.5283163,-0.6100837,-0.23601611,2.8802211,-42.9,21.525002,-16.59375,-0.6202648,-0.25926018,-0.6829608,1002.07227, , , , 
2025-11-24 19:56:40.497,7.534101,-9.710373,-1.8601205,-1.018206,-0.16637953,3.0585885,-41.11875,24.88125,-16.48125,-0.63216394,-0.23538475,-0.6735712,1002.07227, , , , 
2025-11-24 19:56:40.517,8.451151,-10.989038,-0.89072824,-1.222229,-0.17309885,3.2889543,-39.43125,27.4125,-15.69375,-0.64450085,-0.20732056,-0.66407996,1002.07104, , , , 
2025-11-24 19:56:40.537,9.274879,-11.953645,-0.2321038,-1.1544249,-0.28610557,3.6603494,-37.4625,30.393751,-15.356251,-0.65708935,-0.17624336,-0.6530439,1002.07104, , , , 
2025-11-24 19:56:40.558,10.723136,-12.636197,-0.10767702,-1.0078217,-0.4168269,4.0274687,-35.53125,32.8875,-14.512501,-0.6726469,-0.13506712,-0.635015,1002.0713, , , , 
2025-11-24 19:56:40.578,11.850753,-12.446865,-0.10289137,-0.9565104,-0.49745873,4.285857,-33.28125,35.2125,-13.218751,-0.6844112,-0.10101994,-0.61703664,1002.0713, , , , 
2025-11-24 19:56:40.597,12.305689,-12.09512,-0.0023928226,-0.9846094,-0.48707435,4.362213,-31.931252,36.487503,-12.8625,-0.6898584,-0.083719596,-0.6072489,1002.0713, , , , 
2025-11-24 19:56:40.618,12.55215,-11.300105,0.80189466,-1.058522,-0.28671643,4.442234,-27.187502,40.162502,-11.212501,-0.7015856,-0.039622616,-0.5819353,1002.0791, , , , 
2025-11-24 19:56:40.637,12.779767,-10.428819,1.0725827,-1.0548569,-0.06314634,4.5271416,-25.462502,41.41875,-10.63125,-0.70795697,-0.0030449328,-0.5618808,1002.0791, , , , 
2025-11-24 19:56:40.657,13.550554,-9.380164,1.3836497,-1.0750148,0.15003936,4.422687,-19.893751,44.7,-9.50625,-0.7114508,0.03437788,-0.54254884,1002.0791, , , , 
2025-11-24 19:56:40.677,13.756637,-8.254939,1.8361923,-1.0163735,0.060855657,4.08611,-17.925001,45.412502,-8.925,-0.71292466,0.07045024,-0.52444327,1002.0847, , , , 
2025-11-24 19:56:40.697,13.737195,-7.3043904,1.7572291,-1.0444725,-0.028328042,3.6591277,-14.343751,47.04375,-8.231251,-0.7139051,0.10255736,-0.5066491,1002.0847, , , , 
2025-11-24 19:56:40.718,13.423735,-6.1504517,2.600101,-1.2094012,0.06940752,3.1685412,-10.33125,48.525,-7.4812503,-0.7149885,0.13124123,-0.48997495,1002.09033, , , , 
2025-11-24 19:56:40.737,12.885051,-4.9199424,4.0244284,-1.082345,0.2679329,2.7097948,-4.6875,49.706253,-5.9625,-0.7152587,0.1635424,-0.47324085,1002.09033, , , , 
2025-11-24 19:56:40.757,12.195619,-4.156034,4.2014976,-0.69804573,0.45607382,2.236999,-1.25625,50.04375,-4.74375,-0.7130235,0.18527734,-0.46448088,1002.0923, , , , 
2025-11-24 19:56:40.777,11.46521,-3.8952162,3.165106,-0.41155833,0.6442148,1.8711015,0.28125,50.156254,-4.275,-0.7098519,0.1988047,-0.46054387,1002.0923, , , , 
2025-11-24 19:56:40.797,10.534102,-3.7923248,1.7787645,-0.36635566,0.90382487,1.5925552,3.9375002,49.7625,-3.0375001,-0.7031474,0.21850762,-0.45762303,1002.09644, , , , 
2025-11-24 19:56:40.817,10.158131,-3.4354951,1.1682956,-0.48608172,1.0076689,1.4673315,6.0,49.593754,-2.34375,-0.69753313,0.2342332,-0.45717603,1002.09644, , , , 
2025-11-24 19:56:40.837,10.517353,-3.2991042,1.2879368,-0.564881,0.8543463,1.3408861,7.7625003,49.66875,-1.95,-0.6926998,0.24979667,-0.45690197,1002.0896, , , , 
2025-11-24 19:56:40.857,11.388639,-3.4929228,1.6639091,-0.44820917,0.5214345,1.1637404,9.31875,49.500004,-1.4250001,-0.68896794,0.26310155,-0.45599782,1002.0896, , , , 
2025-11-24 19:56:40.877,12.353545,-3.9981074,1.6423737,-0.2857238,0.10300412,0.92001235,10.275001,49.55625,-0.95625,-0.6870102,0.27041042,-0.4547205,1002.0879, , , , 
2025-11-24 19:56:40.897,13.904991,-4.9055853,1.934298,-0.22769332,-0.28610557,0.59565246,12.31875,49.218754,-0.0375,-0.6861959,0.27684578,-0.4513057,1002.0879, , , , 
2025-11-24 19:56:40.918,14.864813,-5.034798,3.1770704,-0.15561333,-0.57137126,0.2455606,13.425,48.787502,0.39375,-0.68788815,0.2772951,-0.4480854,1002.0874, , , , 
2025-11-24 19:56:40.939,15.573687,-4.2448673,4.462614,0.13270657,-0.62146074,-0.2816006,14.38125,48.91875,0.675,-0.69072974,0.2727694,-0.44613135,1002.0874, , , , 
2025-11-24 19:56:40.957,15.362819,-4.151248,4.5559344,0.5505261,-0.24578966,-1.0482138,14.606251,48.937504,0.58125,-0.6929495,0.26220128,-0.44904163,1002.0979, , , , 
2025-11-24 19:56:40.978,13.976776,-5.2549376,2.9805596,0.85900396,0.48050773,-1.7067072,14.043751,49.031254,0.28125,-0.69282377,0.2468019,-0.4597715,1002.0979, , , , 
2025-11-24 19:56:40.997,12.308082,-6.5144596,1.3597214,0.9261972,1.0559258,-1.9913621,13.8,49.162502,0.056250002,-0.68956375,0.23077351,-0.47755632,1002.1045, , , , 
2025-11-24 19:56:41.017,10.806885,-6.966703,0.18424734,1.0184351,1.2208546,-1.9058435,12.6,49.350002,-0.3,-0.68353873,0.21694516,-0.49855718,1002.1045, , , , 
2025-11-24 19:56:41.037,11.225927,-7.390532,-0.30179477,1.1509889,0.34917557,-1.7885607,11.306251,49.406254,-0.90000004,-0.6777547,0.20343761,-0.51701844,1002.10596, , , , 
2025-11-24 19:56:41.058,12.832409,-7.8167534,0.06699903,1.3201936,-0.9183325,-1.9119519,9.0,49.968754,-2.23125,-0.6763046,0.18480457,-0.52876955,1002.10596, , , , 
2025-11-24 19:56:41.077,14.251951,-8.37458,0.65353966,1.3721156,-1.9354695,-2.3457298,7.275,50.04375,-3.0937502,-0.6807453,0.15749042,-0.5333065,1002.10034, , , , 
2025-11-24 19:56:41.097,15.106787,-9.597911,1.1276177,1.215128,-2.2867067,-2.9846761,5.1000004,50.193752,-4.18125,-0.68952674,0.121885255,-0.5340851,1002.10034, , , , 
2025-11-24 19:56:41.117,14.903397,-11.05843,1.4270196,0.83518094,-1.9647902,-3.608962,3.8812501,50.287502,-4.8562503,-0.6995588,0.08182417,-0.53550696,1002.0967, , , , 
2025-11-24 19:56:41.137,13.950455,-12.700804,1.718944,0.42713493,-1.1754992,-4.0420527,-0.35625002,50.175003,-6.4687505,-0.707604,0.042231683,-0.5413621,1002.0967, , , , 
2025-11-24 19:56:41.157,12.629019,-13.536198,1.5801603,0.06368083,-0.27755374,-4.1856017,-3.91875,50.006252,-7.5375004,-0.7113579,0.006828314,-0.55328006,1002.0867, , , , 
2025-11-24 19:56:41.177,11.441281,-13.194024,1.4222339,-0.220974,0.46951246,-4.0976396,-5.7937503,49.85625,-8.025001,-0.7104567,-0.02234789,-0.5704596,1002.0867, , , , 
2025-11-24 19:56:41.197,10.086346,-11.604293,1.5753746,-0.4341597,1.2104702,-3.8502467,-11.19375,48.99375,-8.75625,-0.7052986,-0.045079492,-0.5915195,1002.083, , , , 
2025-11-24 19:56:41.217,9.459127,-10.409676,2.1690936,-0.3578038,1.5917152,-3.704865,-15.0375,47.643753,-8.793751,-0.6966085,-0.06326723,-0.61477464,1002.083, , , , 
2025-11-24 19:56:41.237,8.937193,-9.823135,2.2504497,-0.043217443,1.6332529,-3.664549,-16.743752,47.04375,-8.64375,-0.68460953,-0.07981493,-0.63895416,1002.0791, , , , 
2025-11-24 19:56:41.258,8.137691,-9.662517,1.8002999,0.47478104,1.2667445,-3.6242332,-21.6375,44.662502,-9.1125,-0.66773146,-0.10353759,-0.66612756,1002.0791, , , , 
2025-11-24 19:56:41.278,7.1656065,-9.559626,1.1204392,0.84617615,0.8109761,-3.4959552,-25.10625,42.65625,-9.4125,-0.6552532,-0.12635455,-0.6825533,1002.07983, , , , 
2025-11-24 19:56:41.298,6.6532435,-9.238688,0.65353966,1.0954019,0.23128204,-3.2754393,-26.5125,41.53125,-9.84375,-0.64756083,-0.14520621,-0.691015,1002.07983, , , , 
2025-11-24 19:56:41.317,6.0810595,-8.556435,0.44057846,1.1680927,-0.15294088,-3.08852,-30.975,37.8375,-11.043751,-0.6377619,-0.17815852,-0.6992602,1002.08203, , , , 
2025-11-24 19:56:41.337,5.3940206,-8.082356,0.36400816,1.1515998,-0.22624256,-2.969405,-32.23125,36.73125,-11.512501,-0.63271123,-0.19784848,-0.7022217,1002.08203, , , , 
2025-11-24 19:56:41.357,4.386044,-7.5317082,0.22013968,1.1363286,-0.14622156,-2.7934809,-34.237503,34.162502,-12.13125,-0.625725,-0.22303739,-0.7053754,1002.0774, , , , 
2025-11-24 19:56:41.377,3.1698918,-7.093822,-0.36400816,1.0868499,0.023593975,-2.5314274,-36.2625,31.875002,-12.76875,-0.617858,-0.24635549,-0.7082915,1002.0774,37.88751319,127.7402966,142.806884765625,1.45
2025-11-24 19:56:41.397,2.1690936,-6.849455,-1.0342976,0.93291646,0.21295662,-2.2003481,-38.081253,29.7,-13.556251,-0.60930693,-0.26684126,-0.71124375,1002.0725, , , , 
2025-11-24 19:56:41.417,1.1228321,-6.875776,-1.4724833,0.69835114,0.391324,-1.7311411,-40.275,26.081251,-14.681251,-0.5983334,-0.28685236,-0.71547323,1002.0725, , , , 
2025-11-24 19:56:41.438,0.392722,-7.285248,-1.611267,0.54197425,0.34612134,-1.1893196,-41.5125,24.150002,-15.375001,-0.59088814,-0.29786673,-0.71845824,1002.0769, , , , 
2025-11-24 19:56:41.458,0.09571291,-7.8406816,-1.6160526,0.45156884,0.04191939,-0.3915531,-42.3375,22.725,-16.087502,-0.58676136,-0.30456498,-0.71935934,1002.0769, , , , 
2025-11-24 19:56:41.477,0.663111,-7.9340014,-1.4605191,0.44240612,-0.30992863,0.28831992,-42.525,21.375,-16.3875,-0.58754456,-0.30710223,-0.7167271,1002.07324, , , , 
2025-11-24 19:56:41.498,1.5514464,-7.9100733,-1.096511,0.4833329,-0.5609869,0.95483065,-42.80625,20.643751,-16.462502,-0.5929128,-0.3061326,-0.7105066,1002.07324, , , , 
2025-11-24 19:56:41.518,2.5136602,-8.197512,-1.4054842,0.60305893,-0.58786416,1.6737978,-43.0125,20.362501,-16.25625,-0.6007944,-0.30196896,-0.70186025,1002.0718, , , , 
2025-11-24 19:56:41.537,4.1871405,-9.064013,-2.2002003,0.6653654,-0.55854344,2.181412,-42.91875,20.268751,-16.06875,-0.6100443,-0.29462793,-0.6911434,1002.0718, , , , 
2025-11-24 19:56:41.557,6.1648083,-10.337592,-3.313461,0.47783527,-0.572593,2.6035073,-43.050003,20.362501,-15.937501,-0.6205565,-0.28409225,-0.6784267,1002.072, , , , 
2025-11-24 19:56:41.578,6.942775,-10.388141,-3.3349965,-0.16660859,-0.4088859,3.109289,-42.318752,22.612501,-15.4875,-0.6322949,-0.2683325,-0.6650747,1002.072, , , , 
2025-11-24 19:56:41.597,7.4766736,-10.261022,-2.4299114,-0.54594475,-0.31176117,3.3915768,-41.86875,23.2875,-15.356251,-0.64188355,-0.25157556,-0.6554106,1002.072, , , , 
2025-11-24 19:56:41.618,9.150154,-10.49821,-0.06699903,-0.9406284,-0.14316733,3.7892382,-40.96875,25.25625,-15.281251,-0.6582826,-0.21540664,-0.63990515,1002.0708, , , , 
2025-11-24 19:56:41.638,10.82842,-11.309676,1.0271192,-0.7555417,-0.07108735,3.918127,-39.300003,27.91875,-14.75625,-0.6700158,-0.18300983,-0.62719715,1002.072, , , , 
2025-11-24 19:56:41.657,11.84836,-12.186048,0.45972106,-0.4201102,-0.13583715,3.9303439,-37.162502,30.712502,-14.043751,-0.67951226,-0.1515984,-0.6130137,1002.072, , , , 
2025-11-24 19:56:41.678,11.989537,-12.667304,-0.38554356,-0.26434416,-0.32703236,4.030523,-34.5,33.75,-13.406251,-0.68789536,-0.12205986,-0.59612256,1002.08594, , , , 
2025-11-24 19:56:41.697,12.367902,-12.482758,-0.64636123,-0.37857258,-0.5060106,4.265699,-31.406252,36.862503,-12.8625,-0.6963902,-0.09245187,-0.57588065,1002.08594, , , , 
2025-11-24 19:56:41.718,13.052548,-11.7717905,0.25842485,-0.6424586,-0.5646519,4.3774843,-28.368752,39.506252,-12.243751,-0.7052197,-0.061321933,-0.5531941,1002.08813, , , , 
2025-11-24 19:56:41.737,13.8691,-10.849956,1.7668004,-0.7041542,-0.3416927,4.2797484,-25.331251,42.0,-11.90625,-0.7127646,-0.029135987,-0.5305306,1002.08813, , , , 
2025-11-24 19:56:41.758,13.936098,-9.5404825,2.1140587,-0.60153186,0.050471254,4.0885534,-20.19375,44.98125,-11.1,-0.7168433,0.0028342821,-0.5102262,1002.09424, , , , 
2025-11-24 19:56:41.778,13.674981,-8.142476,1.975275,-0.56427014,0.44324604,3.750144,-16.25625,46.800003,-10.575001,-0.7171176,0.041638795,-0.489518,1002.09424, , , , 
2025-11-24 19:56:41.797,13.294522,-7.0097737,1.9175483,-0.5825956,0.631387,3.4606025,-12.637501,48.225002,-10.14375,-0.7155979,0.064035214,-0.4794683,1002.09546, , , , 
2025-11-24 19:56:41.818,12.997514,-6.222236,1.934298,-0.6149705,0.74683714,3.0268245,-8.962501,48.956253,-9.675,-0.71174496,0.099069595,-0.4657955,1002.09546, , , , 
2025-11-24 19:56:41.837,12.499507,-5.5304112,2.111666,-0.6332959,0.81830627,2.6554294,-7.0312505,49.0125,-9.243751,-0.70902026,0.11819828,-0.4594216,1002.0979, , , , 
2025-11-24 19:56:41.858,11.666506,-4.9486566,2.1308086,-0.6406261,0.9447516,2.261433,-3.7500002,49.537502,-8.775001,-0.7050704,0.14142866,-0.45311072,1002.0979, , , , 
2025-11-24 19:56:41.877,10.761421,-4.3094735,1.8888344,-0.61985725,1.1451095,1.969448,-0.73125005,49.631252,-8.212501,-0.70049834,0.16283706,-0.44943348,1002.1045, , , , 
2025-11-24 19:56:41.897,10.272985,-3.816253,1.2496517,-0.6100837,1.296676,1.7483212,2.1750002,49.687504,-7.7625003,-0.69510007,0.18333432,-0.4481534,1002.1045, , , , 
2025-11-24 19:56:41.918,9.849456,-3.3900316,0.7396813,-0.6876613,1.3388245,1.5626236,4.3125,49.912502,-7.0687504,-0.68956685,0.20307192,-0.44843018,1002.1011, , , , 
2025-11-24 19:56:41.937,9.629018,-2.8322048,0.5697909,-0.8037986,1.2771289,1.4337349,6.4125004,49.968754,-6.1125,-0.6846027,0.22225638,-0.44917598,1002.1011, , , , 
2025-11-24 19:56:41.958,9.98824,-2.4681966,0.81625164,-0.8282325,1.0883007,1.3158413,8.3625,49.781254,-5.1375003,-0.68048227,0.24061492,-0.44966048,1002.09204, , , , 
2025-11-24 19:56:41.979,10.732707,-2.3748765,1.3022938,-0.6650599,0.71568394,1.1240354,10.06875,49.443752,-4.0687504,-0.67737865,0.2564122,-0.44948956,1002.09204, , , , 
2025-11-24 19:56:41.998,11.946466,-2.8393831,1.2831511,-0.41033664,0.22273017,0.8515974,11.71875,48.9,-3.0375001,-0.6753099,0.26757088,-0.4484574,1002.0967, , , , 
2025-11-24 19:56:42.018,13.330415,-3.9454653,1.3740784,-0.23196925,-0.22074492,0.50333816,12.918751,48.581253,-2.3625002,-0.67510206,0.27284467,-0.44648,1002.0967, , , , 
2025-11-24 19:56:42.038,14.668601,-4.9007998,1.9510478,-0.052380152,-0.62573665,0.12522368,13.968751,48.3375,-1.7625,-0.67685354,0.27257088,-0.4440982,1002.1008, , , , 
2025-11-24 19:56:42.058,15.607185,-5.118547,2.7245276,0.17790927,-0.93543625,-0.387888,14.606251,48.16875,-1.3125,-0.6803746,0.26625887,-0.44205424,1002.1008, , , , 
2025-11-24 19:56:42.078,15.37239,-5.0156555,3.0284162,0.4265241,-0.7650098,-1.1942064,14.94375,48.281254,-1.3687501,-0.6860281,0.24927138,-0.4433506,1002.1001, , , , 
2025-11-24 19:56:42.098,14.606388,-6.4064837,2.4801607,0.51754034,-0.17737478,-1.9052325,14.75625,48.750004,-1.7437501,-0.68973947,0.23071252,-0.45120528,1002.1001, , , , 
2025-11-24 19:56:42.118,13.131512,-8.489435,1.4461622,0.5010475,0.595347,-2.3298478,13.575001,48.80625,-2.71875,-0.69124997,0.2116426,-0.46598873,1002.1023, , , , 
2025-11-24 19:56:42.138,11.146964,-8.518149,0.6343971,0.56579727,1.1102912,-2.2944186,12.0,49.162502,-3.4687502,-0.68923867,0.19566378,-0.48578677,1002.1023, , , , 
2025-11-24 19:56:42.158,10.981859,-8.393723,0.20817557,0.6409315,0.719349,-2.2296689,9.993751,49.48125,-3.6750002,-0.6856695,0.1816927,-0.50585335,1002.09204, , , , 
2025-11-24 19:56:42.177,11.676077,-8.822337,0.5171488,0.8101362,-0.01977618,-2.3103006,8.962501,49.706253,-4.03125,-0.6840851,0.16490649,-0.5220439,1002.09204, , , , 
2025-11-24 19:56:42.201,12.882658,-9.408877,0.74446696,1.1143382,-1.1101385,-2.6511536,5.8875003,50.100002,-4.7250004,-0.6858426,0.14139652,-0.5330783,1002.09106, , , , 
2025-11-24 19:56:42.217,13.268202,-9.993026,0.68464637,1.1235008,-1.5005463,-2.965129,4.8562503,50.23125,-4.8,-0.69079787,0.110500336,-0.53985,1002.09106, , , , 
2025-11-24 19:56:42.237,13.347165,-11.204392,0.6343971,0.8339592,-1.601947,-3.4220426,1.03125,50.5125,-6.43125,-0.69776195,0.07491129,-0.54478794,1002.0864, , , , 
2025-11-24 19:56:42.258,12.597613,-11.970394,0.9816555,0.38987327,-1.2335297,-3.6755443,-1.85625,50.006252,-7.2937503,-0.70482326,0.0390278,-0.5504765,1002.0864, , , , 
2025-11-24 19:56:42.277,11.877074,-12.186048,1.4246268,-0.008399149,-0.6318451,-3.7439592,-5.175,49.893753,-7.9500003,-0.71000826,0.006485955,-0.55899733,1002.0867, , , , 
2025-11-24 19:56:42.297,11.180464,-11.67847,1.6758732,-0.23685603,-0.0045049987,-3.7018108,-6.8625,49.687504,-8.38125,-0.7117228,-0.020998936,-0.5714735,1002.0867, , , , 
2025-11-24 19:56:42.317,10.385748,-10.505388,1.9247267,-0.34864107,0.58251923,-3.6718793,-12.056251,48.73125,-8.325001,-0.7094758,-0.04388505,-0.58793527,1002.083, , , , 
2025-11-24 19:56:42.337,9.664909,-9.684052,1.8864416,-0.3101577,1.0492065,-3.6474454,-13.70625,48.35625,-8.306251,-0.7035115,-0.06394281,-0.60726714,1002.083, , , , 
2025-11-24 19:56:42.357,9.102298,-9.202796,1.8266209,-0.1525591,1.2716312,-3.657219,-17.0625,47.2125,-8.1,-0.6943112,-0.082759835,-0.6281912,1002.0774, , , , 
2025-11-24 19:56:42.377,8.388937,-9.056833,1.1228321,0.08383878,1.3492088,-3.6517212,-21.84375,44.68125,-8.1,-0.68254745,-0.101888485,-0.6491917,1002.0774,37.8875297,127.74029282,143.4312744140625,1.31
2025-11-24 19:56:42.397,7.54128,-9.020942,1.0031909,0.28664008,1.1585482,-3.609573,-23.400002,43.93125,-8.118751,-0.66979736,-0.12186698,-0.6685605,1002.0774, , , , 
2025-11-24 19:56:42.417,6.780063,-9.085547,0.9385847,0.5395308,0.8225822,-3.4470875,-27.6,41.04375,-8.94375,-0.6575057,-0.14306644,-0.68473154,1002.0774, , , , 
2025-11-24 19:56:42.437,5.994918,-8.793623,0.8282157,0.7808155,0.46829078,-3.2277932,-30.6375,38.79375,-9.731251,-0.64655995,-0.16539076,-0.69680667,1002.07886, , , , 
2025-11-24 19:56:42.458,4.8505507,-8.094321,0.40468612,0.96773475,0.16836478,-2.9400842,-33.15,36.45,-10.8,-0.63491046,-0.19439578,-0.7065526,1002.07886, , , , 
2025-11-24 19:56:42.477,3.8880377,-7.4790664,0.059820566,0.97506493,0.10972344,-2.6859717,-35.775,33.43125,-11.56875,-0.6286684,-0.21144274,-0.7103638,1002.07495, , , , 
2025-11-24 19:56:42.498,2.748456,-6.923632,-0.38554356,0.9384141,0.21356747,-2.372607,-36.787502,32.4375,-12.168751,-0.6203786,-0.23239464,-0.714534,1002.07495, , , , 
2025-11-24 19:56:42.517,1.6136597,-6.669993,-1.07019,0.85411716,0.34245625,-2.0133526,-39.525,28.968752,-13.14375,-0.61174643,-0.25067645,-0.7184052,1002.0747, , , , 
2025-11-24 19:56:42.537,0.7755736,-6.8255267,-1.6567305,0.7264501,0.4102603,-1.5203989,-40.256252,28.06875,-13.35,-0.603391,-0.2654799,-0.721935,1002.0747, , , , 
2025-11-24 19:56:42.557,0.285045,-7.045965,-2.2552354,0.530979,0.2654895,-0.7892147,-41.775,25.406252,-14.38125,-0.59560055,-0.27776104,-0.72465414,1002.0742, , , , 
2025-11-24 19:56:42.577,0.80189466,-7.347461,-2.2767708,0.3556658,-0.0014507623,-0.18508671,-42.1875,24.206251,-14.6625,-0.5937849,-0.28145698,-0.7245392,1002.0742, , , , 
2025-11-24 19:56:42.597,1.6998014,-7.52453,-1.9127626,0.23471805,-0.25067645,0.29137415,-42.73125,22.987501,-15.01875,-0.5946074,-0.28248605,-0.7228187,1002.0742, , , , 
2025-11-24 19:56:42.617,3.0068808,-7.9220376,-1.2424731,0.11132691,-0.55060244,1.0079744,-43.0125,22.03125,-15.843751,-0.60098183,-0.27937248,-0.7167082,1002.0635, , , , 
2025-11-24 19:56:42.637,3.5431721,-8.173583,-0.90508515,0.053296424,-0.5561001,1.5565152,-42.956253,21.825,-15.675,-0.60884416,-0.27286708,-0.7098696,1002.0657, , , , 
2025-11-24 19:56:42.657,5.0491548,-9.262916,-0.89312106,0.044133715,-0.5744255,2.0433605,-42.693752,22.143751,-15.337501,-0.6181439,-0.2624761,-0.70169157,1002.0657, , , , 
2025-11-24 19:56:42.677,6.5742803,-10.481461,-1.1419746,-0.009620844,-0.5744255,2.6279414,-41.90625,23.56875,-14.83125,-0.63163215,-0.24434686,-0.6888697,1002.0664, , , , 
2025-11-24 19:56:42.698,7.550851,-10.488639,-1.0654043,-0.11163234,-0.5457157,3.0818007,-41.86875,24.16875,-14.625001,-0.6403348,-0.23043129,-0.6799184,1002.0664, , , , 
2025-11-24 19:56:42.717,8.542078,-9.569197,-0.23449662,-0.19531842,-0.52739024,3.5528405,-40.575,26.625002,-13.875001,-0.65535116,-0.20232572,-0.6629527,1002.0669, , , , 
2025-11-24 19:56:42.737,9.772587,-9.068798,0.42861435,-0.10124794,-0.47607908,3.7250993,-39.375,28.81875,-13.5375,-0.6665317,-0.17729683,-0.6479836,1002.0669, , , , 
2025-11-24 19:56:42.757,11.020144,-9.332308,0.31136605,0.11438115,-0.42171368,3.6792858,-37.875,31.275002,-13.06875,-0.67575794,-0.15269405,-0.63224113,1002.07275, , , , 
2025-11-24 19:56:42.777,11.237891,-10.103095,-0.5315057,0.22922044,-0.348412,3.5681117,-35.850002,33.825,-12.39375,-0.6827712,-0.12978122,-0.6160814,1002.07275, , , , 
2025-11-24 19:56:42.797,11.051251,-10.840384,-0.9026923,0.12476555,-0.33314082,3.6206443,-33.075,36.487503,-12.225,-0.6886492,-0.10707887,-0.5992023,1002.07837, , , , 
2025-11-24 19:56:42.817,11.283355,-11.240284,-0.6750751,-0.08964183,-0.36246148,3.837495,-30.0375,38.737503,-12.056251,-0.6944638,-0.08237546,-0.58090544,1002.07837, , , , 
2025-11-24 19:56:42.837,12.01825,-11.137393,0.19621146,-0.26556584,-0.3832303,4.0030346,-27.056252,41.006252,-12.0375,-0.7003348,-0.055246796,-0.5610195,1002.0779, , , , 
2025-11-24 19:56:42.857,12.413365,-10.481461,1.0749756,-0.29549736,-0.28915983,4.0525136,-25.5375,41.831253,-11.94375,-0.70508283,-0.026814466,-0.5405537,1002.0779, , , , 
2025-11-24 19:56:42.877,12.233904,-9.346664,1.5729818,-0.21608722,-0.07963921,3.9859312,-20.56875,44.4,-11.962501,-0.70758027,0.0017236723,-0.52071977,1002.0801, , , , 
2025-11-24 19:56:42.897,12.135798,-8.211868,1.5179468,-0.17149536,0.14332004,3.890028,-19.0125,45.787502,-11.85,-0.70744944,0.029907085,-0.5022094,1002.0801, , , , 
2025-11-24 19:56:42.917,12.2171545,-7.1823564,1.3764713,-0.25518143,0.4866162,3.6395807,-13.481251,46.78125,-11.25,-0.7050985,0.057770614,-0.48581594,1002.0845, , , , 
2025-11-24 19:56:42.938,12.399009,-6.5048885,1.326222,-0.3578038,0.72667915,3.3524826,-11.475,47.362503,-11.043751,-0.701203,0.085328646,-0.47237667,1002.0845, , , , 
2025-11-24 19:56:42.957,12.276975,-5.64766,1.3310076,-0.4793624,0.9142093,2.9156504,-6.3,48.6375,-10.5,-0.69650227,0.111848794,-0.46202472,1002.0884, , , , 
2025-11-24 19:56:42.977,11.786147,-4.7449675,1.2687942,-0.5942017,1.055315,2.5069935,-2.86875,49.443752,-10.06875,-0.6915964,0.13664319,-0.45446417,1002.0884, , , , 
2025-11-24 19:56:42.998,11.221142,-4.1464624,1.4772689,-0.6962132,1.1622133,2.133766,0.45000002,49.612503,-9.88125,-0.68567455,0.16548038,-0.44846946,1002.0918, , , , 
2025-11-24 19:56:43.017,11.053644,-3.7636108,1.7620147,-0.66322744,1.1921448,1.9065306,3.16875,49.55625,-9.543751,-0.6820386,0.18171604,-0.44635916,1002.0918, , , , 
2025-11-24 19:56:43.037,11.070394,-3.2799616,1.8122641,-0.53739285,1.1493855,1.673187,4.5750003,49.312504,-9.3,-0.6768067,0.20149787,-0.44492117,1002.0925, , , , 
2025-11-24 19:56:43.058,10.93849,-2.7628129,1.5179468,-0.38223767,1.02294,1.3250041,8.45625,49.162502,-8.19375,-0.6714591,0.21813528,-0.4447886,1002.0925, , , , 
2025-11-24 19:56:43.078,11.034502,-2.7388847,1.2089736,-0.28205872,0.8934405,1.0208021,10.087501,49.143753,-7.33125,-0.6665433,0.23141076,-0.44567275,1002.0989, , , , 
2025-11-24 19:56:43.098,11.264213,-2.9039893,1.0486546,-0.18798824,0.76149744,0.69949645,11.887501,49.331253,-6.58125,-0.66145843,0.24359378,-0.44801545,1002.0989, , , , 
2025-11-24 19:56:43.117,11.66172,-3.181856,0.7468598,-0.11407573,0.6246677,0.43858832,13.012501,49.0875,-5.9625,-0.65893376,0.2486714,-0.45014778,1002.1067, , , , 
2025-11-24 19:56:43.137,12.367902,-4.043571,0.53389853,-0.093917765,0.31374642,0.08490777,13.481251,48.937504,-5.5875,-0.65688264,0.25241828,-0.45347863,1002.1067, , , , 
2025-11-24 19:56:43.157,13.416556,-5.4777694,0.7181459,-0.14156385,-0.11506835,-0.2974826,14.718751,48.6375,-5.2312503,-0.65746397,0.25188166,-0.4565186,1002.10767, , , , 
2025-11-24 19:56:43.178,13.72523,-6.0978093,1.6878372,-0.22524993,-0.48951772,-0.687814,14.75625,48.2625,-5.11875,-0.66129214,0.24671607,-0.45872864,1002.10767, , , , 
2025-11-24 19:56:43.197,13.703695,-6.181558,2.9781668,-0.19226417,-0.61107635,-1.0995251,14.700001,47.943752,-4.89375,-0.66737014,0.23732103,-0.46098483,1002.105, , , , 
2025-11-24 19:56:43.217,14.122738,-7.73779,3.5144582,-0.0413849,-0.36307234,-1.6828842,13.725,48.075,-4.74375,-0.67520285,0.2203383,-0.4674864,1002.105, , , , 
2025-11-24 19:56:43.238,12.892229,-8.882157,3.461816,0.17302248,0.17936003,-2.0243478,12.8625,48.506252,-4.7250004,-0.67930084,0.20431842,-0.47813615,1002.1074, , , , 
2025-11-24 19:56:43.257,11.424532,-8.506186,2.8034909,0.48944137,0.58679515,-2.0243478,11.4375,48.843754,-4.70625,-0.67924476,0.18933529,-0.4931967,1002.1074, , , , 
2025-11-24 19:56:43.277,11.493923,-8.164012,1.9920249,0.766766,0.41392538,-2.0640528,9.58125,49.350002,-4.9875,-0.6767418,0.17440894,-0.5094792,1002.0989, , , , 
2025-11-24 19:56:43.297,12.107084,-8.508578,1.5107684,0.9817843,-0.056427017,-2.2602112,8.775001,49.406254,-5.11875,-0.6752316,0.16086395,-0.5206936,1002.0989, , , , 
2025-11-24 19:56:43.317,12.858729,-9.253045,1.1228321,1.1632059,-0.7173638,-2.6627595,5.68125,49.95,-6.20625,-0.67508346,0.1375886,-0.53335345,1002.0989, , , , 
2025-11-24 19:56:43.338,12.942478,-9.947562,0.5673981,1.0660812,-1.0374477,-3.0396523,4.70625,50.1375,-6.61875,-0.6775173,0.10830793,-0.54349864,1002.0989, , , , 
2025-11-24 19:56:43.358,12.28176,-10.703993,0.7683952,0.6720847,-1.1241881,-3.4739647,1.125,50.343754,-7.9875,-0.68361866,0.0672271,-0.5545571,1002.095, , , , 
2025-11-24 19:56:43.377,11.733505,-11.422139,1.4126626,0.36910444,-0.95864844,-3.699978,-1.66875,50.268753,-8.925,-0.68899935,0.034465294,-0.563924,1002.095,37.88754534,127.74028359,143.55487060546875,2.09
2025-11-24 19:56:43.397,10.842776,-11.333605,1.8409779,0.22372282,-0.6477272,-3.776334,-3.3375,50.1375,-9.46875,-0.6927379,0.0034175632,-0.57476664,1002.08887, , , , 
2025-11-24 19:56:43.417,10.012168,-10.833205,1.9944177,0.1241547,-0.30870694,-3.7561762,-8.56875,49.706253,-10.2375,-0.69406396,-0.025382454,-0.5870659,1002.08887, , , , 
2025-11-24 19:56:43.437,9.29163,-10.069596,2.0590239,0.090558104,0.06879667,-3.6669924,-10.200001,49.237503,-10.425,-0.6931006,-0.045170907,-0.59737635,1002.0879, , , , 
2025-11-24 19:56:43.457,8.896515,-9.126225,2.032703,0.10155336,0.48234028,-3.5790305,-15.712501,47.53125,-10.368751,-0.687566,-0.074778296,-0.6166634,1002.0879, , , , 
2025-11-24 19:56:43.477,8.365009,-8.776874,1.8816559,0.22555535,0.7932615,-3.5735328,-18.975,45.9375,-10.03125,-0.6796253,-0.09676216,-0.63380575,1002.0835, , , , 
2025-11-24 19:56:43.497,7.5029945,-8.508578,1.4988043,0.37154785,0.94719505,-3.5295517,-22.29375,44.5125,-10.387501,-0.66907066,-0.11829353,-0.65146965,1002.0835, , , , 
2025-11-24 19:56:43.517,6.6484575,-8.319545,1.1156535,0.4656183,0.9545252,-3.3316374,-25.25625,42.693752,-10.70625,-0.6571446,-0.13927278,-0.6681715,1002.0835, , , , 
2025-11-24 19:56:43.537,5.944669,-7.893324,1.0941181,0.50654507,0.8543463,-3.1056237,-27.975,40.59375,-11.55,-0.6449497,-0.15918365,-0.6830513,1002.0835, , , , 
2025-11-24 19:56:43.557,5.5591254,-7.550851,1.3980067,0.5945071,0.66864866,-2.9077094,-29.1375,39.6375,-12.187501,-0.6334404,-0.17819895,-0.6955278,1002.08496, , , , 
2025-11-24 19:56:43.577,5.0108695,-7.048358,1.759622,0.7716528,0.37605286,-2.7000213,-31.44375,37.275,-13.031251,-0.6231329,-0.19728512,-0.7050837,1002.08496, , , , 
2025-11-24 19:56:43.597,4.6707897,-6.7848487,1.8744774,0.9622371,0.14820682,-2.5283732,-33.862503,34.912502,-14.043751,-0.616423,-0.21211486,-0.7100606,1002.08496, , , , 
2025-11-24 19:56:43.617,4.3238306,-6.4088764,1.0917253,1.366618,-0.18042901,-2.1221597,-36.693752,31.5375,-15.01875,-0.60690415,-0.23799676,-0.71414274,1002.08496, , , , 
2025-11-24 19:56:43.637,4.1368914,-6.133702,0.08853444,1.4551909,-0.38384116,-1.8710252,-37.65,30.187502,-15.281251,-0.6009395,-0.25932994,-0.7137167,1002.08496, , , , 
2025-11-24 19:56:43.657,3.8832521,-6.1624155,-1.082154,1.2071869,-0.6116872,-1.5863703,-39.61875,26.962502,-15.975,-0.59713596,-0.27971208,-0.71066475,1002.08496, , , , 
2025-11-24 19:56:43.677,3.612564,-6.669993,-1.3597214,0.8217423,-0.5890858,-1.3127108,-40.10625,25.837502,-15.975,-0.59537846,-0.29652765,-0.70679355,1002.0869, , , , 
2025-11-24 19:56:43.697,3.0786655,-7.184749,-0.8572287,0.37948886,-0.39544725,-0.7586723,-41.7,23.15625,-16.29375,-0.5949963,-0.3074511,-0.70373875,1002.0869, , , , 
2025-11-24 19:56:43.717,2.707778,-7.144071,-0.30418757,0.18585028,-0.20547375,-0.09712471,-42.6375,22.087502,-16.425001,-0.59573644,-0.3119539,-0.70153195,1002.0847, , , , 
2025-11-24 19:56:43.737,2.9781668,-6.9355965,-0.3807579,0.13331741,-0.01733279,0.58648974,-43.350002,21.243752,-16.181252,-0.5975861,-0.3108685,-0.6993642,1002.0847, , , , 
2025-11-24 19:56:43.757,4.1847477,-7.804789,-1.0271192,0.03436016,0.09872819,1.1588537,-43.3875,20.8875,-16.59375,-0.60041285,-0.30525264,-0.6967068,1002.0874, , , , 
2025-11-24 19:56:43.778,5.006084,-8.980264,-1.5275182,-0.15500249,0.11277767,1.7025076,-43.66875,20.831251,-16.5375,-0.60475796,-0.29524645,-0.69318163,1002.0874, , , , 
2025-11-24 19:56:43.797,5.317151,-9.430413,-1.2161521,-0.3541387,0.037032615,2.3628335,-43.2,21.73125,-16.5,-0.6114375,-0.28015998,-0.68818665,1002.08984, , , , 
2025-11-24 19:56:43.817,6.0978093,-8.879765,-0.32333016,-0.35719293,-0.1376697,3.0506475,-42.75,23.04375,-16.425001,-0.6208721,-0.25985765,-0.6806331,1002.08984, , , , 
2025-11-24 19:56:43.837,7.565208,-8.082356,0.1268196,-0.16966283,-0.26778015,3.5094702,-42.412502,23.75625,-16.331251,-0.6320184,-0.2364584,-0.66970444,1002.083, , , , 
2025-11-24 19:56:43.857,9.542876,-8.082356,-0.39032918,0.0025961008,-0.27022356,3.586437,-40.706253,26.6625,-16.1625,-0.64519984,-0.20677301,-0.6526447,1002.083, , , , 
2025-11-24 19:56:43.877,11.053644,-8.985049,-0.87158567,1.5271181E-4,-0.2848839,3.4123454,-39.862503,27.712502,-16.06875,-0.65212184,-0.18984742,-0.6416582,1002.08936, , , , 
2025-11-24 19:56:43.897,11.192428,-9.923634,-1.2999009,-0.16599774,-0.27755374,3.286511,-36.787502,31.181252,-16.03125,-0.66263914,-0.16254583,-0.6230376,1002.08936, , , , 
2025-11-24 19:56:43.917,10.653744,-10.038489,-1.2161521,-0.48547086,-0.25556323,3.3488173,-34.425003,33.525,-15.843751,-0.6710831,-0.1392104,-0.6076884,1002.1013, , , , 
2025-11-24 19:56:43.937,10.402497,-9.717552,-0.27756742,-0.76775867,-0.18592663,3.4972532,-31.931252,36.15,-15.337501,-0.6797653,-0.11292064,-0.5920082,1002.1013, , , , 
2025-11-24 19:56:43.957,10.392926,-9.253045,0.47886363,-0.93574166,-0.011835165,3.6212552,-29.081251,38.643753,-14.718751,-0.6876606,-0.08384109,-0.5763717,1002.10376, , , , 
2025-11-24 19:56:43.977,10.546066,-8.846265,0.86201435,-1.0298121,0.2581593,3.670123,-27.712502,39.80625,-14.231251,-0.69235176,-0.060544427,-0.5651868,1002.10376, , , , 
2025-11-24 19:56:43.997,10.782956,-8.432008,0.8572287,-1.1470948,0.61917007,3.7177691,-22.95,42.956253,-13.25625,-0.6964298,-0.02760904,-0.55155224,1002.10254, , , , 
2025-11-24 19:56:44.017,11.070394,-8.027322,1.0031909,-1.2936982,0.7969266,3.6554627,-19.556252,45.075,-12.825001,-0.6987249,0.016027525,-0.53628534,1002.10254, , , , 
2025-11-24 19:56:44.037,11.276176,-7.728219,1.3429717,-1.3834927,0.675368,3.518022,-16.3125,46.537502,-12.20625,-0.69982666,0.051145855,-0.52438354,1002.1028, , , , 
2025-11-24 19:56:44.057,11.359925,-7.426424,1.7213368,-1.4335822,0.49883315,3.3158317,-13.031251,48.15,-11.325001,-0.70122325,0.084348194,-0.5117212,1002.1028, , , , 
2025-11-24 19:56:44.077,11.347961,-6.631708,2.4705894,-1.4299171,0.37055522,3.1312795,-11.118751,48.750004,-10.6125,-0.702658,0.115339056,-0.49860707,1002.1045, , , , 
2025-11-24 19:56:44.097,11.486745,-5.721837,3.1890345,-1.310191,0.31252474,2.9254239,-5.7375,50.23125,-8.418751,-0.7035784,0.1438561,-0.48556536,1002.1045, , , , 
2025-11-24 19:56:44.117,11.692827,-4.651647,3.7325041,-1.0548569,0.3858264,2.661538,-2.30625,50.68125,-7.0687504,-0.70301783,0.16944078,-0.47390205,1002.10864, , , , 
2025-11-24 19:56:44.137,11.9153595,-3.761218,3.7827535,-0.72805357,0.55075514,2.2919753,0.63750005,51.075,-6.1125,-0.70037633,0.19156091,-0.4650932,1002.10864, , , , 
2025-11-24 19:56:44.157,12.063714,-3.1962128,3.0933216,-0.41705596,0.7999808,1.8552195,3.16875,51.318752,-5.3250003,-0.69566923,0.20993501,-0.4601725,1002.1221, , , , 
2025-11-24 19:56:44.177,11.843575,-3.1962128,1.8577276,-0.28877804,1.0876899,1.345162,5.4750004,51.000004,-4.70625,-0.6895739,0.22525257,-0.45950702,1002.1221, , , , 
2025-11-24 19:56:44.197,11.522937,-3.3493536,1.3429717,-0.30160582,1.1444987,0.9798754,7.425,50.79375,-3.9375002,-0.6833965,0.23854241,-0.46211475,1002.1199, , , , 
2025-11-24 19:56:44.218,11.762218,-3.9406798,0.9242278,-0.31993124,1.0430981,0.7465317,8.493751,50.5875,-3.35625,-0.6780529,0.24987833,-0.46605974,1002.1199, , , , 
2025-11-24 19:56:44.237,12.377473,-4.6636114,0.5482555,-0.39628717,0.9068791,0.55533653,9.900001,50.193752,-2.68125,-0.6740985,0.25917956,-0.4700311,1002.1199, , , , 
2025-11-24 19:56:44.257,13.5074835,-5.3051867,0.4334,-0.6381827,0.675368,0.351848,11.15625,49.74375,-1.95,-0.67223376,0.26707226,-0.47335735,1002.1199, , , , 
2025-11-24 19:56:44.278,14.2184515,-4.814658,2.243271,-0.88687384,0.30519456,0.05619795,12.31875,49.48125,-1.25625,-0.6736694,0.2731067,-0.475378,1002.114, , , , 
2025-11-24 19:56:44.297,14.944075,-4.3334017,4.0794635,-0.75370914,0.0742943,-0.37506023,12.4875,49.36875,-0.45000002,-0.67729056,0.27573165,-0.4771837,1002.114, , , , 
2025-11-24 19:56:44.317,15.726827,-5.1592245,4.886443,-0.4121692,0.08773294,-0.99568105,12.7875,49.331253,-0.16875,-0.68151414,0.27235654,-0.48175168,1002.1179, , , , 
2025-11-24 19:56:44.339,14.759528,-6.8135624,4.793123,0.103385895,0.34367794,-1.6688347,12.4875,49.36875,0.45000002,-0.6846242,0.2621156,-0.49182606,1002.1179, , , , 
2025-11-24 19:56:44.357,12.497114,-6.859026,3.5216367,0.57496,0.6979694,-1.9003458,11.00625,49.706253,1.29375,-0.6846363,0.24834965,-0.5066405,1002.11914, , , , 
2025-11-24 19:56:44.377,11.9153595,-7.160821,2.4969103,0.7380562,0.62955445,-2.0310671,9.918751,49.968754,1.3312501,-0.68246007,0.23357198,-0.5233903,1002.11914,37.88755827,127.74027576,143.3162841796875,1.21
2025-11-24 19:56:44.397,12.243475,-8.278867,2.5259235,0.9023741,0.18974443,-2.2272255,8.043751,50.2125,1.2750001,-0.68084174,0.21656345,-0.5393144,1002.103, , , , 
2025-11-24 19:56:44.417,12.913765,-9.583553,2.6718855,1.210852,-0.4815767,-2.4996634,7.1250005,50.325,0.84375006,-0.6810867,0.19485182,-0.55276996,1002.103, , , , 
2025-11-24 19:56:44.438,13.014263,-10.4001045,2.5136602,1.4655753,-1.1211338,-2.904655,3.9375002,50.381252,0.0,-0.6847968,0.1583557,-0.5651685,1002.093, , , , 
2025-11-24 19:56:44.457,12.834802,-11.120644,2.3318057,1.5248275,-1.3654727,-3.2271824,1.25625,50.662502,-0.99375004,-0.688348,0.13220724,-0.570816,1002.093, , , , 
2025-11-24 19:56:44.478,12.312867,-11.719148,2.14038,1.4802356,-1.396015,-3.549099,-1.10625,50.643753,-2.71875,-0.6934164,0.09430447,-0.57756084,1002.0823, , , , 
2025-11-24 19:56:44.498,11.3575325,-11.999108,1.7835501,1.3061441,-1.1113602,-3.728688,-4.40625,50.362503,-4.2000003,-0.69826645,0.045669872,-0.5863505,1002.0823, , , , 
2025-11-24 19:56:44.517,10.505388,-11.343176,1.5299109,1.1302202,-0.6947624,-3.7244122,-5.9437504,50.30625,-5.0625,-0.6993051,0.01795832,-0.5927092,1002.0664, , , , 
2025-11-24 19:56:44.537,9.368199,-10.103095,1.1611172,0.86633414,-0.14316733,-3.6352284,-9.28125,49.55625,-6.4500003,-0.69786936,-0.01568845,-0.60325056,1002.0664, , , , 
2025-11-24 19:56:44.557,8.865408,-9.025727,1.2400804,0.61222166,0.40720606,-3.5191674,-14.700001,47.8125,-7.7625003,-0.69170576,-0.0513344,-0.61999303,1002.0669, , , , 
2025-11-24 19:56:44.577,8.338688,-8.439186,1.489233,0.5841227,0.73278767,-3.512448,-17.962502,46.518753,-8.25,-0.6835137,-0.07624205,-0.63586026,1002.0669, , , , 
2025-11-24 19:56:44.598,7.945966,-8.2812605,1.4365909,0.62749285,0.823193,-3.5038962,-19.743752,45.61875,-8.38125,-0.6785284,-0.08822927,-0.6441587,1002.0669, , , , 
2025-11-24 19:56:44.617,7.373782,-8.17119,1.1491531,0.7600467,0.887332,-3.4269295,-22.650002,44.0625,-8.8125,-0.6643866,-0.11774191,-0.66442025,1002.062, , , , 
2025-11-24 19:56:44.637,6.68435,-7.917252,0.8042875,0.8718318,0.7963157,-3.309036,-25.575,42.300003,-9.46875,-0.65199596,-0.1411945,-0.67924166,1002.0698, , , , 
2025-11-24 19:56:44.657,6.2318077,-7.811968,0.4860421,0.8754968,0.5861843,-3.12456,-28.181252,40.3875,-10.5,-0.6400076,-0.16451222,-0.6916356,1002.0698, , , , 
2025-11-24 19:56:44.677,5.7314086,-7.64447,0.6750751,0.84739786,0.45607382,-2.9681833,-30.4125,38.193752,-11.38125,-0.6289017,-0.18699154,-0.70173436,1002.0647, , , , 
2025-11-24 19:56:44.697,5.046762,-7.4455667,0.8668,0.9310839,0.25571594,-2.6951344,-33.787502,34.8375,-12.993751,-0.61649597,-0.21362007,-0.711266,1002.0647, , , , 
2025-11-24 19:56:44.717,4.4051867,-7.153642,0.71336025,0.9964446,0.14515258,-2.376883,-34.6875,33.675003,-13.387501,-0.6097479,-0.22886753,-0.71528333,1002.06226, , , , 
2025-11-24 19:56:44.737,3.926323,-6.7872415,0.5697909,1.0892934,0.06024481,-2.0365648,-37.350002,30.112501,-14.75625,-0.59971195,-0.25258407,-0.71946067,1002.06226, , , , 
2025-11-24 19:56:44.757,3.4187453,-6.6077795,-0.019142581,1.146713,0.022983128,-1.7152591,-39.018753,27.69375,-15.562501,-0.59259695,-0.27013952,-0.7208342,1002.05835, , , , 
2025-11-24 19:56:44.779,2.7149563,-6.9930243,-0.9409775,1.0471449,0.04924956,-1.347529,-40.10625,25.5375,-16.29375,-0.58623266,-0.2859161,-0.7210426,1002.05835, , , , 
2025-11-24 19:56:44.797,1.9055841,-7.333104,-1.5634105,0.8645016,0.07857023,-0.9071082,-41.30625,23.625,-16.9125,-0.5809985,-0.29825085,-0.7206286,1002.0637, , , , 
2025-11-24 19:56:44.817,1.3956138,-7.534101,-2.0542383,0.5395308,0.063299045,-0.20768806,-41.79375,22.518751,-17.1375,-0.5781397,-0.30523747,-0.7193839,1002.0637, , , , 
2025-11-24 19:56:44.837,1.5394822,-7.21107,-1.9127626,0.22189027,0.06696413,0.6249731,-42.28125,21.0375,-17.41875,-0.578495,-0.30531666,-0.7172323,1002.0652, , , , 
2025-11-24 19:56:44.857,3.1387851,-7.285248,-1.582553,0.030695075,0.008933641,1.3634875,-42.73125,20.23125,-17.6625,-0.5820455,-0.29888225,-0.71380836,1002.0652, , , , 
2025-11-24 19:56:44.877,5.0515475,-8.207083,-1.8505492,-0.078646585,-0.1816507,1.8472785,-42.99375,19.96875,-17.775002,-0.5885733,-0.28824314,-0.7083136,1002.06836, , , , 
2025-11-24 19:56:44.897,6.1097736,-8.695218,-2.2002003,-0.35597125,-0.3343625,2.3023596,-42.45,21.54375,-18.018751,-0.59783256,-0.27429324,-0.7006387,1002.06836, , , , 
2025-11-24 19:56:44.917,6.823134,-8.5372925,-1.7548363,-0.6736118,-0.43454146,2.5980098,-42.15,22.25625,-18.0375,-0.60941106,-0.25628388,-0.69147134,1002.0659, , , , 
2025-11-24 19:56:44.937,7.8023963,-8.815159,-0.5721837,-0.9833877,-0.46569467,2.8820536,-40.8375,24.6,-18.0375,-0.62259156,-0.23419636,-0.68142694,1002.0659, , , , 
2025-11-24 19:56:44.957,8.810373,-9.645767,0.17467605,-1.074404,-0.4088859,3.0640862,-40.18125,25.7625,-17.85,-0.63600606,-0.20879686,-0.6708359,1002.0774, , , , 
2025-11-24 19:56:44.977,9.976275,-10.936097,0.4621139,-1.0249254,-0.33558422,3.2437518,-38.925003,27.806252,-17.34375,-0.6485934,-0.18127596,-0.659544,1002.0774, , , , 
2025-11-24 19:56:44.997,10.491032,-11.951252,0.34486556,-0.9088644,-0.2812188,3.5314608,-37.03125,31.25625,-16.050001,-0.65998656,-0.1524608,-0.6469976,1002.07446, , , , 
2025-11-24 19:56:45.018,10.806885,-12.097513,0.1268196,-0.87221354,-0.26655847,3.8643725,-35.8125,32.41875,-15.375001,-0.6703461,-0.121856205,-0.6324598,1002.07446, , , , 
2025-11-24 19:56:45.037,11.192428,-11.544472,0.49082774,-0.91863793,-0.2928249,4.2467628,-32.550003,36.24375,-13.481251,-0.6800157,-0.08893467,-0.6154862,1002.0842, , , , 
2025-11-24 19:56:45.057,11.66172,-10.778171,1.1682956,-0.89603657,-0.304431,4.4758306,-29.737501,38.5875,-12.76875,-0.68867743,-0.054119516,-0.5963435,1002.0842, , , , 
2025-11-24 19:56:45.077,12.370295,-9.84467,2.1954148,-0.65895146,-0.31237203,4.517979,-26.531252,41.0625,-11.75625,-0.69534755,-0.018875657,-0.5758343,1002.0852, , , , 
2025-11-24 19:56:45.097,12.796516,-8.769695,2.4705894,-0.15927842,-0.42782214,4.379317,-23.362501,42.99375,-10.89375,-0.69905806,0.013781655,-0.5546523,1002.0852, , , , 
2025-11-24 19:56:45.117,12.74866,-7.5699935,1.9728823,0.3306211,-0.6471163,4.1081004,-19.21875,45.131252,-10.181251,-0.6999399,0.041193713,-0.53270924,1002.0967, , , , 
2025-11-24 19:56:45.137,12.561721,-6.363413,0.96729857,0.56579727,-0.7631773,3.6939461,-15.01875,46.85625,-9.675,-0.6990935,0.06251876,-0.5100908,1002.0967, , , , 
2025-11-24 19:56:45.157,12.162119,-5.657231,0.15314065,0.30801973,-0.5096757,3.3567584,-13.031251,47.34375,-9.543751,-0.69755787,0.079864696,-0.48819065,1002.0984, , , , 
2025-11-24 19:56:45.177,11.769398,-4.9462633,0.474078,-0.22830416,0.09872819,2.9828436,-8.6625,48.61875,-9.7875,-0.6959051,0.09771255,-0.4696957,1002.0984, , , , 
2025-11-24 19:56:45.197,11.240284,-4.328616,1.5753746,-0.6656708,0.7297334,2.580295,-5.0625,49.312504,-10.387501,-0.69384694,0.11846294,-0.45688796,1002.1013, , , , 
2025-11-24 19:56:45.218,10.57478,-3.7277186,2.3605196,-0.7530983,1.1725976,2.197294,-1.7437501,49.331253,-10.6875,-0.6905702,0.14120838,-0.44996756,1002.1013, , , , 
2025-11-24 19:56:45.237,10.040882,-3.4426737,2.2002003,-0.65162134,1.4151804,1.8539978,1.40625,49.500004,-10.6125,-0.68559605,0.16365612,-0.44769916,1002.1079, , , , 
2025-11-24 19:56:45.257,9.830314,-3.4426737,1.4003994,-0.51356983,1.4671024,1.5986637,3.7687502,49.425003,-10.125,-0.6793154,0.18452057,-0.44839692,1002.1079, , , , 
2025-11-24 19:56:45.278,9.719945,-3.844967,0.5267201,-0.5673244,1.3070605,1.4416759,7.0312505,49.631252,-8.925,-0.6716552,0.2081334,-0.45022535,1002.1111, , , , 
2025-11-24 19:56:45.297,10.292129,-4.2664027,0.55064833,-0.61985725,1.0430981,1.4319023,8.118751,49.4625,-8.625,-0.6680091,0.2214354,-0.45042893,1002.1111, , , , 
2025-11-24 19:56:45.317,11.819647,-4.76411,0.8644072,-0.5703786,0.51166093,1.3781477,9.7875,49.237503,-7.9875,-0.6645207,0.23734722,-0.4486822,1002.10205, , , , 
2025-11-24 19:56:45.337,13.569697,-5.0659046,1.4027922,-0.45859358,-0.12423106,1.1924502,11.38125,48.881252,-7.2000003,-0.6632147,0.24884872,-0.4442424,1002.10205, , , , 
2025-11-24 19:56:45.357,15.6024,-5.1640105,2.5450659,-0.38834614,-0.6898756,0.7929561,12.825001,48.412502,-6.24375,-0.66545,0.25499865,-0.43580136,1002.1023, , , , 
2025-11-24 19:56:45.378,16.761124,-4.5128636,3.9191444,-0.23563433,-0.8621346,0.21257484,14.043751,48.393753,-5.4187503,-0.6696118,0.25298283,-0.42963216,1002.1023,37.88757509,127.74026348,143.212646484375,2.27
2025-11-24 19:56:45.397,17.381165,-4.6971107,4.5487556,0.012369657,-0.5841991,-0.6474981,15.468751,48.24375,-4.3125,-0.6741845,0.24467273,-0.42829427,1002.1062, , , , 
2025-11-24 19:56:45.418,16.658234,-6.882954,3.9526439,0.27197975,0.040697698,-1.5576605,15.637501,48.24375,-4.125,-0.6775911,0.23103355,-0.43537104,1002.1062, , , , 
2025-11-24 19:56:45.438,13.667803,-7.622935,2.3509483,0.52181625,0.86839575,-1.9003458,15.58125,48.206253,-4.6125,-0.67761105,0.21635242,-0.45051488,1002.114, , , , 
2025-11-24 19:56:45.458,12.3607235,-6.890133,1.4198412,0.62016267,0.9765157,-1.93944,14.606251,48.281254,-4.74375,-0.67433417,0.20407021,-0.46969518,1002.114, , , , 
2025-11-24 19:56:45.477,12.482758,-6.739385,1.4126626,0.77898294,0.51593685,-2.1490371,13.218751,48.656254,-5.2312503,-0.6710068,0.19059414,-0.4886774,1002.10767, , , , 
2025-11-24 19:56:45.498,12.925729,-7.8550386,1.2424731,1.1131164,-0.37467843,-2.656651,11.231251,48.787502,-5.71875,-0.66988206,0.17031744,-0.5053582,1002.10767, , , , 
2025-11-24 19:56:45.517,13.050156,-9.380164,0.4668995,1.1583191,-0.9055047,-3.048815,10.06875,48.9,-5.9437504,-0.6717593,0.14177686,-0.51889527,1002.0996, , , , 
2025-11-24 19:56:45.538,13.026227,-11.542079,0.43100718,0.9194778,-1.2659045,-3.389057,5.8500004,49.312504,-7.18125,-0.67659247,0.10841625,-0.5296172,1002.0996, , , , 
2025-11-24 19:56:45.557,12.691232,-12.310474,1.0031909,0.71301144,-1.3214917,-3.4892359,4.2562504,49.3875,-7.4437504,-0.6828196,0.073886745,-0.5385643,1002.09424, , , , 
2025-11-24 19:56:45.577,12.300903,-12.355938,1.7476579,0.54136336,-1.2384164,-3.5753653,-0.58125,49.425003,-9.0,-0.68878883,0.039992865,-0.546859,1002.09424, , , , 
2025-11-24 19:56:45.597,11.855539,-12.087942,2.1044874,0.47417018,-1.0478321,-3.6388934,-2.30625,49.237503,-9.5625,-0.6923316,0.015126635,-0.5534171,1002.09424, , , , 
2025-11-24 19:56:45.618,10.589137,-11.04168,2.3246272,0.44912544,-0.42232454,-3.6706576,-5.5875,49.125004,-10.575001,-0.6943753,-0.023956195,-0.5670807,1002.0857, , , , 
2025-11-24 19:56:45.637,9.870992,-10.3232355,1.8816559,0.4240807,-0.028328042,-3.649278,-9.075001,48.675003,-11.00625,-0.69200903,-0.052474793,-0.58076847,1002.08276, , , , 
2025-11-24 19:56:45.658,9.547662,-9.820743,1.3812568,0.34528142,0.29053423,-3.6419477,-12.4875,47.662502,-11.137501,-0.6869061,-0.07860173,-0.59621906,1002.08276, , , , 
2025-11-24 19:56:45.677,9.064013,-9.459127,1.2137593,0.23166382,0.4517979,-3.6957023,-17.71875,45.7125,-11.400001,-0.6801399,-0.10305398,-0.61256677,1002.07764, , , , 
2025-11-24 19:56:45.697,8.410473,-9.238688,1.0869397,0.13637166,0.49944398,-3.712806,-21.018751,44.25,-11.64375,-0.67230946,-0.12649359,-0.6289829,1002.07764, , , , 
2025-11-24 19:56:45.717,7.8311105,-9.119047,1.3286148,0.04902049,0.51593685,-3.6877613,-24.112501,42.7125,-12.39375,-0.66378593,-0.14880146,-0.6449251,1002.0762, , , , 
2025-11-24 19:56:45.737,7.093822,-8.896515,1.8553349,0.12293301,0.44996536,-3.624844,-27.0375,41.268753,-12.88125,-0.6547831,-0.17014611,-0.659933,1002.0762, , , , 
2025-11-24 19:56:45.757,6.305985,-8.556435,1.7883358,0.27564484,0.38216132,-3.5161133,-29.56875,39.525,-13.387501,-0.6452803,-0.19150679,-0.67326653,1002.07324, , , , 
2025-11-24 19:56:45.777,5.482555,-8.23819,1.7021942,0.39231664,0.34673217,-3.344465,-32.325,37.143753,-13.762501,-0.63524646,-0.2128413,-0.6848422,1002.07324, , , , 
2025-11-24 19:56:45.797,4.706682,-7.8574314,1.2664014,0.50226915,0.3986542,-3.077525,-33.61875,35.943752,-13.743751,-0.6247656,-0.23341976,-0.69479555,1002.06836, , , , 
2025-11-24 19:56:45.817,4.0268216,-7.5364943,0.85483587,0.51754034,0.46157146,-2.797757,-35.90625,33.3375,-13.81875,-0.6138054,-0.25250724,-0.70354515,1002.06836, , , , 
2025-11-24 19:56:45.837,3.289533,-7.5580297,0.663111,0.5584671,0.49516806,-2.492944,-37.95,30.487501,-14.231251,-0.6027821,-0.26966262,-0.71130097,1002.06665, , , , 
2025-11-24 19:56:45.857,2.260021,-7.811968,0.23449662,0.66658705,0.45607382,-2.0390081,-39.45,28.031252,-14.887501,-0.59216315,-0.2849964,-0.7177316,1002.06665, , , , 
2025-11-24 19:56:45.877,1.1228321,-8.125427,-0.43818563,0.73255855,0.29847524,-1.4532056,-40.6875,25.875002,-15.618751,-0.5811652,-0.30123192,-0.7226545,1002.0647, , , , 
2025-11-24 19:56:45.897,0.36640096,-8.185547,-1.0773684,0.7044596,0.06024481,-0.57602894,-42.375,22.425001,-16.85625,-0.5760752,-0.3105707,-0.7232371,1002.0647, , , , 
2025-11-24 19:56:45.917,0.5051847,-7.9363947,-1.2975081,0.6562027,-0.07291989,0.16370706,-43.143753,20.60625,-17.4375,-0.57493305,-0.31534496,-0.72097635,1002.0659, , , , 
2025-11-24 19:56:45.937,1.1108679,-7.5149584,-1.5586249,0.57496,-0.12789614,0.881529,-43.425003,20.23125,-17.7,-0.5764256,-0.31567666,-0.7177094,1002.0659, , , , 
2025-11-24 19:56:45.957,2.798705,-7.6181493,-1.718944,0.4888305,-0.19142427,1.6175998,-43.65,19.29375,-17.7,-0.580965,-0.311706,-0.71166754,1002.06226, , , , 
2025-11-24 19:56:45.977,5.1999025,-8.712267,-2.111666,0.3929275,-0.3343625,2.1630864,-43.575,19.59375,-17.8875,-0.588407,-0.30352408,-0.70329916,1002.06226, , , , 
2025-11-24 19:56:45.997,6.8039913,-9.152547,-2.3581266,0.16447063,-0.4492018,2.5619698,-43.162502,20.2875,-17.94375,-0.59835273,-0.2917669,-0.6927319,1002.06616, , , , 
2025-11-24 19:56:46.017,7.835896,-9.004191,-1.8912272,-0.23807772,-0.5927509,2.9413059,-42.28125,22.275002,-17.85,-0.61387026,-0.27153897,-0.6772825,1002.06616, , , , 
2025-11-24 19:56:46.037,8.692825,-8.927621,-0.5195416,-0.54227966,-0.6391753,3.161211,-41.475002,24.13125,-17.643751,-0.6281884,-0.25084162,-0.6637792,1002.07324, , , , 
2025-11-24 19:56:46.057,9.808479,-9.751051,0.62482584,-0.5777088,-0.52800107,3.3402655,-40.256252,26.437502,-17.175001,-0.64230525,-0.22711083,-0.650015,1002.07324, , , , 
2025-11-24 19:56:46.077,10.725529,-10.598709,0.6583253,-0.45309594,-0.34291437,3.5284064,-38.850002,28.687502,-16.5,-0.65461963,-0.20152004,-0.6359237,1002.08057, , , , 
2025-11-24 19:56:46.097,11.280962,-10.893026,0.011964113,-0.45309594,-0.2812188,3.6988328,-37.125,31.087502,-15.675,-0.6652486,-0.17479233,-0.62088513,1002.08057, , , , 
2025-11-24 19:56:46.117,11.606686,-10.81167,-0.1794617,-0.69804573,-0.25311983,3.850323,-34.987503,33.581253,-15.168751,-0.6754698,-0.14639713,-0.60449487,1002.0906, , , , 
2025-11-24 19:56:46.137,11.683255,-10.308878,0.26799613,-1.0994487,-0.092467,3.945615,-32.850002,36.28125,-14.925,-0.6854404,-0.115098454,-0.5876882,1002.0906, , , , 
2025-11-24 19:56:46.157,11.599507,-9.7654085,1.2951152,-1.4714547,0.20012884,3.9193487,-31.612501,37.518753,-14.512501,-0.6943819,-0.08045381,-0.5720857,1002.09155, , , , 
2025-11-24 19:56:46.177,11.300105,-9.250652,2.4945176,-1.5893482,0.51227176,3.8674266,-28.425001,39.7125,-13.500001,-0.70111144,-0.04324512,-0.5586188,1002.09155, , , , 
2025-11-24 19:56:46.198,11.05843,-8.690433,3.0355947,-1.4238086,0.75111306,3.8576531,-23.6625,42.84375,-12.4125,-0.7047716,-0.005005897,-0.54670566,1002.1052, , , , 
2025-11-24 19:56:46.217,11.130215,-8.089535,2.9207392,-1.2026819,0.79387236,3.8197806,-20.1375,44.60625,-10.8,-0.705529,0.032667376,-0.535221,1002.1052, , , , 
2025-11-24 19:56:46.237,11.359925,-7.5029945,2.6312077,-1.0078217,0.73828524,3.7232668,-18.243752,45.43125,-10.556251,-0.70419055,0.06835484,-0.5234687,1002.10693, , , , 
2025-11-24 19:56:46.257,11.434103,-6.727421,2.1714866,-0.8887064,0.63749546,3.538791,-14.681251,47.193752,-9.168751,-0.7016888,0.101187274,-0.5111967,1002.10693, , , , 
2025-11-24 19:56:46.277,11.314462,-6.0284176,2.1906292,-0.8679376,0.57885414,3.3372114,-10.725,48.506252,-7.8375,-0.69871545,0.13143097,-0.4987948,1002.10767, , , , 
2025-11-24 19:56:46.297,11.530115,-5.226224,2.5259235,-0.78241897,0.5086067,3.1306686,-6.7125,49.425003,-7.2562504,-0.69528776,0.15950052,-0.48666805,1002.10767, , , , 
2025-11-24 19:56:46.317,12.09512,-4.4721856,2.6742785,-0.5312844,0.43530503,2.8142498,-0.99375004,50.081253,-6.0375004,-0.6911076,0.18447107,-0.47532895,1002.104, , , , 
2025-11-24 19:56:46.337,12.700804,-3.926323,2.3748765,-0.30404922,0.4438569,2.508826,0.63750005,50.006252,-5.6062503,-0.6858906,0.20544085,-0.4656811,1002.104, , , , 
2025-11-24 19:56:46.357,12.739089,-3.4426737,1.5873387,-0.17271706,0.49272466,2.0329762,5.1937504,49.95,-4.8562503,-0.68015957,0.22255297,-0.45829427,1002.10547, , , , 
2025-11-24 19:56:46.377,12.609577,-3.3326037,1.1324034,-0.21791977,0.5446467,1.6230975,7.93125,49.612503,-4.2937503,-0.67492604,0.23661895,-0.45329145,1002.10547,37.88758823,127.74025413,143.7689208984375,1.42
2025-11-24 19:56:46.397,13.2610235,-3.1914272,0.933799,-0.22219568,0.55442023,1.2553675,10.05,49.162502,-4.03125,-0.6705828,0.24844885,-0.45033425,1002.1138, , , , 
2025-11-24 19:56:46.417,14.072489,-3.1603205,0.10767702,-0.2814479,0.45118704,0.74836427,11.700001,48.862503,-3.6562502,-0.66735333,0.257355,-0.44955677,1002.1138, , , , 
2025-11-24 19:56:46.437,14.508282,-3.8042889,-0.22731815,-0.54960984,0.23677967,0.21623993,12.50625,48.881252,-3.6562502,-0.6671882,0.26249656,-0.45020688,1002.10815, , , , 
2025-11-24 19:56:46.457,15.530616,-4.6229334,0.3065804,-0.83617353,0.017485503,-0.20768806,14.062501,48.787502,-3.2062502,-0.6707853,0.2645324,-0.45117614,1002.10815, , , , 
2025-11-24 19:56:46.477,15.856039,-4.28076,1.6160526,-1.0951728,-0.060702946,-0.6835381,14.306251,48.675003,-3.3937502,-0.67762274,0.26370817,-0.45257884,1002.1094, , , , 
2025-11-24 19:56:46.498,15.664614,-4.1033916,3.083451,-1.2014602,0.25754848,-1.3059914,14.306251,48.7125,-3.0,-0.686361,0.25999105,-0.4564577,1002.1094, , , , 
2025-11-24 19:56:46.517,14.694922,-5.4442697,3.897609,-1.0212603,0.96246624,-2.0017464,14.231251,48.73125,-2.2125,-0.69402826,0.25361416,-0.46689916,1002.1111, , , , 
2025-11-24 19:56:46.537,12.660126,-6.99781,3.6317065,-0.5471664,1.5825526,-2.3219068,12.975,48.9,-0.43125,-0.6975232,0.24355505,-0.49095595,1002.1111, , , , 
2025-11-24 19:56:46.557,10.940883,-6.9930243,2.9183464,0.08078455,1.6075972,-2.1301007,12.450001,49.068752,0.28125,-0.6957001,0.23761372,-0.50825554,1002.105, , , , 
2025-11-24 19:56:46.577,11.156535,-7.184749,2.4155545,0.53403324,0.85556793,-2.0591662,9.6,49.65,1.7437501,-0.6916846,0.22819038,-0.52951723,1002.105, , , , 
2025-11-24 19:56:46.597,11.982359,-8.0201435,2.6192434,0.9384141,-0.04359922,-2.13682,8.4375,49.631252,1.9312501,-0.69027215,0.21706736,-0.5416801,1002.105, , , , 
2025-11-24 19:56:46.617,13.509876,-9.518948,2.746063,1.6818153,-1.5188717,-2.4556823,6.20625,49.912502,1.8375001,-0.6929751,0.1867912,-0.55356735,1002.1013, , , , 
2025-11-24 19:56:46.637,14.280664,-10.229915,2.2935205,1.8675128,-1.9721204,-2.7788205,3.6937501,50.23125,1.6125001,-0.6986537,0.15249208,-0.5571821,1002.08936, , , , 
2025-11-24 19:56:46.657,14.146667,-11.175678,1.6663018,1.6494403,-1.9684553,-3.2687201,-0.13125001,50.68125,-0.01875,-0.7075645,0.102182716,-0.55913305,1002.08936, , , , 
2025-11-24 19:56:46.677,13.071691,-11.719148,2.181058,1.2768235,-1.5579659,-3.5356603,-3.0375001,50.456253,-1.44375,-0.7140021,0.061472032,-0.56193125,1002.08765, , , , 
2025-11-24 19:56:46.697,12.2171545,-11.644971,2.4825535,1.1491565,-0.8932878,-3.6028535,-6.4687505,49.987503,-2.6625001,-0.7169286,0.023681678,-0.5682483,1002.08765, , , , 
2025-11-24 19:56:46.717,11.486745,-10.761421,1.6902301,1.0257653,-0.21463646,-3.5503206,-9.675,49.48125,-3.9562502,-0.71527207,-0.0104310475,-0.5784207,1002.0803, , , , 
2025-11-24 19:56:46.738,10.694422,-9.47827,0.8644072,0.69102097,0.5898494,-3.5637593,-12.825001,48.487503,-4.93125,-0.7095553,-0.040403746,-0.5924912,1002.0803, , , , 
2025-11-24 19:56:46.757,10.103095,-8.661719,1.0893325,0.47600272,1.0357679,-3.6199572,-16.275002,47.34375,-5.7000003,-0.70038617,-0.06611241,-0.6106054,1002.0803, , , , 
2025-11-24 19:56:46.777,9.75823,-8.530113,1.2735798,0.51876205,1.260636,-3.7225795,-19.35,46.0125,-6.7500005,-0.6885169,-0.089633256,-0.6310163,1002.0803, , , , 
2025-11-24 19:56:46.797,9.111869,-8.499007,0.9242278,0.6659762,1.2624686,-3.7952704,-21.0,45.09375,-7.0875,-0.6781998,-0.10751202,-0.6464678,1002.0803, , , , 
2025-11-24 19:56:46.817,8.099107,-8.525328,0.37357944,0.714844,1.0968527,-3.8068764,-25.9125,42.45,-8.75625,-0.66018206,-0.13862833,-0.66997,1002.0686, , , , 
2025-11-24 19:56:46.837,7.2206416,-8.472686,0.62721866,0.6763606,0.867174,-3.6877613,-28.743752,40.66875,-9.918751,-0.64629364,-0.1634163,-0.6859902,1002.06226, , , , 
2025-11-24 19:56:46.857,6.619744,-8.286046,1.0917253,0.7844806,0.65276664,-3.4782407,-31.63125,38.34375,-11.118751,-0.63319266,-0.18743223,-0.6993444,1002.06226, , , , 
2025-11-24 19:56:46.877,6.411269,-8.221439,0.8353942,0.8791619,0.58679515,-3.301095,-32.9625,37.237503,-11.6625,-0.6205594,-0.2110537,-0.7100618,1002.06494, , , , 
2025-11-24 19:56:46.897,5.788836,-7.6348987,0.6008976,0.9316948,0.5134935,-3.1037912,-35.287502,34.59375,-13.031251,-0.6079522,-0.2340321,-0.7189038,1002.06494, , , , 
2025-11-24 19:56:46.917,5.128118,-7.347461,0.20817557,0.8638907,0.5024982,-2.8857188,-36.975002,31.781252,-13.781251,-0.5956618,-0.2558408,-0.726171,1002.0659, , , , 
2025-11-24 19:56:46.937,4.421936,-7.3307114,0.014356935,0.6824691,0.6008446,-2.60534,-39.35625,27.825,-14.981251,-0.58337295,-0.2751259,-0.7329035,1002.0659, , , , 
2025-11-24 19:56:46.957,3.5336008,-7.850253,-0.10049855,0.5322007,0.7010236,-2.2986946,-39.956253,26.437502,-15.4875,-0.57111585,-0.29122305,-0.739583,1002.0674, , , , 
2025-11-24 19:56:46.978,2.4681966,-8.195119,-0.13878371,0.46439663,0.7346202,-1.9101194,-41.362503,23.831251,-16.181252,-0.5594203,-0.30384722,-0.7459623,1002.0674, , , , 
2025-11-24 19:56:46.997,1.082154,-8.149654,-0.325723,0.54075253,0.639328,-1.1325108,-43.0125,20.325,-17.587502,-0.54947025,-0.31301928,-0.75100344,1002.06934, , , , 
2025-11-24 19:56:47.017,0.05503492,-7.5580297,-1.0031909,0.6164976,0.46890163,-0.22601348,-43.6875,18.0375,-18.300001,-0.54278094,-0.31871325,-0.753416,1002.06934, , , , 
2025-11-24 19:56:47.037,-0.04546363,-7.036394,-1.8050855,0.57190573,0.31435728,0.7990646,-44.5125,16.556252,-18.88125,-0.54028124,-0.3199862,-0.7528717,1002.0708, , , , 
2025-11-24 19:56:47.057,1.9438694,-7.7593255,-2.2983062,0.41430715,0.08773294,1.7391585,-44.550003,16.2,-19.368752,-0.5424304,-0.31568867,-0.7494308,1002.0708, , , , 
2025-11-24 19:56:47.077,3.8258243,-8.367402,-2.3916261,0.19562383,-0.25861746,2.4788945,-44.475002,16.25625,-19.725,-0.54966635,-0.30595636,-0.74277025,1002.0779, , , , 
2025-11-24 19:56:47.097,5.432306,-8.5349,-2.0135603,-0.028557109,-0.632456,3.0830224,-43.96875,17.60625,-20.04375,-0.561971,-0.29139656,-0.7325339,1002.0779, , , , 
2025-11-24 19:56:47.117,6.995417,-8.640183,-1.1515459,-0.1873774,-0.97697383,3.5027509,-42.881252,19.3875,-20.025002,-0.5782967,-0.2729349,-0.7188122,1002.07275, , , , 
2025-11-24 19:56:47.137,8.67129,-9.243474,-0.45732823,-0.19592926,-1.1981006,3.7648044,-42.2625,20.325,-20.025002,-0.5971012,-0.25201803,-0.70181644,1002.07275, , , , 
2025-11-24 19:56:47.157,10.440783,-10.246665,-0.26799613,-0.13545538,-1.2463574,3.9242356,-40.912502,22.81875,-19.5,-0.6162928,-0.22984296,-0.68220663,1002.0769, , , , 
2025-11-24 19:56:47.179,11.740684,-11.400603,-0.44536412,-0.103691325,-1.1626714,4.0048676,-39.506252,25.44375,-18.69375,-0.634268,-0.20690921,-0.6609413,1002.0769, , , , 
2025-11-24 19:56:47.197,12.257833,-12.1046915,-0.5913263,-0.22769332,-1.0557731,4.1673527,-37.85625,28.050001,-17.831251,-0.6506235,-0.18267891,-0.6385896,1002.08887, , , , 
2025-11-24 19:56:47.218,12.623934,-11.972787,0.10767702,-0.43599224,-0.86885387,4.4178,-34.987503,32.1375,-16.331251,-0.6692691,-0.14831401,-0.60944813,1002.08887, , , , 
2025-11-24 19:56:47.237,12.987942,-11.324033,0.8452646,-0.4524851,-0.6984275,4.5442452,-33.9375,33.54375,-16.125,-0.6789522,-0.12544918,-0.59176296,1002.094, , , , 
2025-11-24 19:56:47.257,13.196417,-10.304092,1.3836497,-0.33153734,-0.48829603,4.5167575,-31.500002,36.0,-15.356251,-0.6892127,-0.09412563,-0.568387,1002.094, , , , 
2025-11-24 19:56:47.277,13.040585,-9.272487,1.5658033,-0.15927842,-0.25556323,4.3365574,-28.837502,38.662502,-14.55,-0.69581425,-0.06353596,-0.5460984,1002.10425, , , , 
2025-11-24 19:56:47.297,12.74866,-8.336295,1.2999009,-0.0132859275,-0.056427017,4.1209283,-25.7625,41.193752,-13.8,-0.6989501,-0.034563866,-0.5253693,1002.10425, , , , 
2025-11-24 19:56:47.318,12.51865,-7.3307114,0.770788,0.0062611843,0.21478917,3.8429928,-20.25,44.41875,-12.993751,-0.69902813,-3.7695986E-4,-0.5018864,1002.1052, , , , 
2025-11-24 19:56:47.337,11.891431,-6.411269,0.4860421,-0.20142688,0.3650576,3.486258,-16.44375,46.068752,-12.712501,-0.69755465,0.025687374,-0.48551127,1002.1052, , , , 
2025-11-24 19:56:47.357,10.953146,-5.982954,0.99601245,-0.50685054,0.603288,3.169152,-12.712501,47.34375,-12.675,-0.6959907,0.051341444,-0.47161862,1002.1013, , , , 
2025-11-24 19:56:47.377,10.253843,-5.669195,1.8433708,-0.616803,0.79875916,2.9981146,-9.056251,48.300003,-12.675,-0.69385844,0.07768991,-0.46019655,1002.1013,37.88759973,127.74024823,143.86468505859375,1.23
2025-11-24 19:56:47.397,10.002597,-5.192724,2.1595225,-0.5441122,0.98506755,2.872891,-5.7937503,48.881252,-12.7875,-0.6901804,0.104073696,-0.45067617,1002.1062, , , , 
2025-11-24 19:56:47.418,9.782158,-4.8266225,1.7739788,-0.644902,1.3510414,2.7592735,-2.625,49.500004,-12.543751,-0.68491936,0.13054574,-0.44301012,1002.1062, , , , 
2025-11-24 19:56:47.437,9.626625,-4.8601217,1.7931215,-0.96139723,1.9796033,2.6395473,0.90000004,49.631252,-11.7375,-0.67848784,0.15945068,-0.43831322,1002.1023, , , , 
2025-11-24 19:56:47.457,9.904491,-4.970192,2.5905297,-1.129991,2.4053638,2.4764512,2.5875,49.66875,-11.325001,-0.67051256,0.19195221,-0.437755,1002.1023, , , , 
2025-11-24 19:56:47.478,10.730314,-4.989334,3.1172497,-0.86427253,2.1084921,2.2119544,5.68125,49.500004,-10.368751,-0.66362417,0.21621534,-0.4390418,1002.0979, , , , 
2025-11-24 19:56:47.497,11.97518,-5.0132627,2.2552354,-0.45553935,1.4237323,1.7984107,10.481251,49.031254,-8.175,-0.6519854,0.2489748,-0.44100723,1002.0979, , , , 
2025-11-24 19:56:47.518,12.5019,-5.29083,1.5059828,-0.3993414,0.80120254,1.4881003,11.606251,48.80625,-7.6875005,-0.6451348,0.26679713,-0.44059506,1002.10156, , , , 
2025-11-24 19:56:47.537,13.5074835,-5.7146587,1.8026928,-0.5593834,0.16164546,1.2315444,14.043751,48.6375,-6.525,-0.6424925,0.2788946,-0.4370996,1002.10156, , , , 
2025-11-24 19:56:47.558,15.099608,-5.4203415,3.3326037,-0.5697678,-0.4632513,0.8925242,16.743752,47.98125,-5.0062504,-0.64368534,0.28604236,-0.43101975,1002.1074, , , , 
2025-11-24 19:56:47.577,16.076479,-4.5894337,4.54397,-0.40178478,-0.65017056,0.3775036,17.56875,47.850002,-4.6312504,-0.6472518,0.2870246,-0.42503536,1002.1074, , , , 
2025-11-24 19:56:47.597,16.720446,-4.65404,5.0132627,-0.19715095,-0.50051296,-0.299926,18.65625,47.53125,-4.0125003,-0.65058166,0.2832067,-0.4235025,1002.1074, , , , 
2025-11-24 19:56:47.617,16.016657,-7.1416783,4.4482574,0.19867808,0.29236677,-1.4330477,19.050001,46.96875,-3.91875,-0.6550227,0.2700049,-0.43197146,1002.1084, , , , 
2025-11-24 19:56:47.638,13.615161,-7.469495,3.1890345,0.6336013,0.9117659,-1.7097615,18.75,46.74375,-3.8437502,-0.6546093,0.25794843,-0.4478993,1002.1116, , , , 
2025-11-24 19:56:47.658,12.966407,-6.6221366,2.2169502,0.92497545,0.72362494,-1.8850746,18.0,46.93125,-4.0125003,-0.65096295,0.24606724,-0.4670954,1002.1116, , , , 
2025-11-24 19:56:47.678,13.3639145,-6.7202425,1.6160526,1.1271659,0.17325155,-2.3188527,16.987501,47.756252,-4.18125,-0.648097,0.22965027,-0.4858907,1002.11255, , , , 
2025-11-24 19:56:47.697,13.91217,-7.876574,0.62961143,1.1650385,-0.17615308,-2.924813,15.39375,48.487503,-4.6312504,-0.6477179,0.20617841,-0.50385994,1002.11255, , , , 
2025-11-24 19:56:47.718,13.383057,-9.669696,-0.24885355,0.77592874,-0.340471,-3.552153,14.418751,48.825,-5.08125,-0.65029156,0.17738318,-0.5219054,1002.10986, , , , 
2025-11-24 19:56:47.737,12.351152,-11.884253,0.29461628,0.09910997,-0.45897534,-3.9394302,10.837501,49.800003,-6.76875,-0.6566323,0.14706805,-0.5394297,1002.10986, , , , 
2025-11-24 19:56:47.757,11.72872,-13.383057,2.288735,-0.29610822,-0.65322477,-4.017008,7.7812505,50.100002,-7.6312504,-0.66562766,0.118331306,-0.55537593,1002.1001, , , , 
2025-11-24 19:56:47.777,12.039786,-13.983954,3.6631124,-0.1885991,-0.7656207,-4.0457177,3.9750001,50.23125,-8.175,-0.6749684,0.089870416,-0.56937945,1002.1001, , , , 
2025-11-24 19:56:47.797,11.367104,-13.296915,3.8880377,0.06734591,-0.5451048,-4.132458,2.0812502,50.30625,-8.2875,-0.6817414,0.06007403,-0.58309424,1002.09106, , , , 
2025-11-24 19:56:47.818,10.292129,-12.382259,3.4594233,0.15286453,-0.06620057,-4.105581,-4.7250004,50.025,-8.0625,-0.68470913,0.02996776,-0.59800506,1002.09106, , , , 
2025-11-24 19:56:47.837,9.68166,-11.324033,3.1555347,0.17241164,0.815252,-3.936987,-7.18125,49.687504,-8.19375,-0.6824653,0.0027665282,-0.6157568,1002.07495, , , , 
2025-11-24 19:56:47.857,9.217153,-10.349556,2.5642085,0.26159534,1.796349,-3.7745016,-13.312501,48.281254,-8.0625,-0.67009974,-0.02465998,-0.644379,1002.07495, , , , 
2025-11-24 19:56:47.877,8.865408,-9.835099,2.4059832,0.44118443,2.1335368,-3.7622845,-15.281251,47.7,-8.55,-0.65844357,-0.038832154,-0.6640458,1002.0681, , , , 
2025-11-24 19:56:47.897,8.118249,-9.504591,1.8625133,0.80769277,2.077339,-3.7189145,-18.6375,46.331253,-8.981251,-0.6402257,-0.058134038,-0.6902304,1002.0681, , , , 
2025-11-24 19:56:47.917,7.3570323,-9.289237,1.2065809,1.1137272,1.6692928,-3.6193464,-21.393751,44.68125,-10.012501,-0.6215702,-0.079677835,-0.7132797,1002.06836, , , , 
2025-11-24 19:56:47.937,6.7322063,-9.0544405,1.1587243,1.3470709,1.0174425,-3.5020638,-24.468752,42.84375,-11.231251,-0.6051507,-0.10386702,-0.7312353,1002.06836, , , , 
2025-11-24 19:56:47.958,6.1935225,-8.985049,1.3453646,1.5920206,0.36933354,-3.3560712,-27.300001,40.575,-12.58125,-0.5922889,-0.13077275,-0.74345094,1002.0608, , , , 
2025-11-24 19:56:47.977,5.4849477,-8.685647,1.5011971,1.8137583,-0.22929679,-3.1667085,-31.06875,36.675003,-15.000001,-0.5807539,-0.16755673,-0.751419,1002.0608, , , , 
2025-11-24 19:56:47.997,4.898407,-8.434401,1.4174483,2.0612278,-0.6196282,-2.9547446,-33.318752,34.162502,-16.10625,-0.5743554,-0.19873181,-0.7527973,1002.07007, , , , 
2025-11-24 19:56:48.017,4.1847477,-8.077571,0.68225354,2.1821754,-0.80654746,-2.7653818,-34.237503,32.850002,-16.59375,-0.5705065,-0.22281319,-0.75143737,1002.07007, , , , 
2025-11-24 19:56:48.037,2.815455,-7.689934,-0.5937191,1.9659356,-0.7656207,-2.4837813,-37.2,28.931252,-17.94375,-0.5647043,-0.26163027,-0.746611,1002.06885, , , , 
2025-11-24 19:56:48.059,1.5203397,-7.596614,-1.3980067,1.4912308,-0.4247679,-2.0530577,-39.1875,26.343752,-18.35625,-0.5597167,-0.28757855,-0.7430719,1002.06885, , , , 
2025-11-24 19:56:48.077,0.54346985,-7.862217,-1.5897316,1.0172133,-0.17676392,-1.519788,-40.7625,23.625,-18.900002,-0.5546182,-0.30632305,-0.7411407,1002.062, , , , 
2025-11-24 19:56:48.097,0.16510476,-7.926823,-1.5107684,0.69468606,0.017485503,-0.6884249,-42.05625,21.243752,-19.06875,-0.55084825,-0.3173005,-0.7399762,1002.062, , , , 
2025-11-24 19:56:48.117,0.4022933,-7.5269227,-1.6878372,0.48394373,0.10544751,0.25166908,-42.525,19.893751,-19.06875,-0.5494748,-0.32105923,-0.738363,1002.05835, , , , 
2025-11-24 19:56:48.137,1.6088741,-7.1010003,-1.8840487,0.18462859,0.085289545,1.1900069,-43.275,18.206251,-19.44375,-0.5511986,-0.31827864,-0.73552865,1002.05835, , , , 
2025-11-24 19:56:48.157,3.3589249,-8.084749,-1.8984057,-0.07131642,-0.07780667,1.7361042,-43.5,17.175001,-19.931252,-0.5564889,-0.30975077,-0.7311026,1002.0554, , , , 
2025-11-24 19:56:48.177,4.965406,-9.294023,-1.4027922,-0.37246412,-0.36062896,2.2638762,-43.443752,16.95,-20.268751,-0.5659762,-0.29625103,-0.7244175,1002.0554, , , , 
2025-11-24 19:56:48.198,5.8968124,-9.796515,0.08135597,-0.50196373,-0.6513922,2.8704476,-42.80625,18.65625,-20.38125,-0.5793679,-0.2781706,-0.7150988,1002.0547, , , , 
2025-11-24 19:56:48.217,6.734599,-9.53809,1.0630114,-0.24540788,-0.78577864,3.3573692,-42.300003,19.44375,-20.175001,-0.59497494,-0.2570918,-0.70259833,1002.0547, , , , 
2025-11-24 19:56:48.237,8.345866,-9.564411,0.7755736,0.15347537,-0.8853468,3.7593067,-41.175003,21.581251,-19.425001,-0.61063796,-0.2356263,-0.68631417,1002.0596, , , , 
2025-11-24 19:56:48.257,9.940384,-10.308878,-0.39511484,0.31718245,-0.8810708,3.8808653,-40.18125,24.206251,-18.300001,-0.6251957,-0.21498859,-0.66694385,1002.0596, , , , 
2025-11-24 19:56:48.277,10.953146,-11.592328,-1.3094722,0.13820419,-0.78944373,3.9175162,-38.643753,27.018751,-17.475,-0.6384455,-0.19393021,-0.64624155,1002.07275, , , , 
2025-11-24 19:56:48.298,11.249856,-12.696018,-1.2664014,-0.28511295,-0.73813254,4.185067,-35.756252,31.331251,-16.725,-0.6549706,-0.1630084,-0.618964,1002.07275, , , , 
2025-11-24 19:56:48.317,12.037394,-12.937693,-0.15553348,-0.5166241,-0.7143095,4.4947667,-33.487503,33.881252,-16.462502,-0.6649826,-0.14106148,-0.6015941,1002.07764, , , , 
2025-11-24 19:56:48.337,12.645768,-12.276975,0.51236314,-0.6064186,-0.6947624,4.70612,-30.956251,36.487503,-15.88125,-0.67766154,-0.10925505,-0.57690436,1002.07764, , , , 
2025-11-24 19:56:48.359,12.889836,-11.199606,1.1730813,-0.726221,-0.46691638,4.6951246,-27.91875,38.98125,-15.337501,-0.690877,-0.06763301,-0.5450479,1002.0823, , , , 
2025-11-24 19:56:48.377,12.825231,-10.383355,1.8433708,-0.75493085,-0.112014115,4.6157146,-24.69375,41.662502,-14.94375,-0.6965196,-0.04188071,-0.5270251,1002.0823,37.88761088,127.74024256,144.16021728515625,1.25
2025-11-24 19:56:48.397,12.949657,-9.504591,2.0733807,-0.7251521,0.3690281,4.492247,-21.09375,44.0625,-14.250001,-0.70042706,-0.006543907,-0.5055321,1002.0923, , , , 
2025-11-24 19:56:48.417,13.083655,-8.748159,2.4538395,-0.56564456,0.5846572,4.2264524,-16.725,45.862503,-13.762501,-0.70060074,0.029076232,-0.48715064,1002.0923, , , , 
2025-11-24 19:56:48.437,12.882658,-7.7665043,2.3054845,-0.18019994,0.4966952,3.870939,-12.4125,47.30625,-13.181251,-0.69682187,0.06945395,-0.46676666,1002.1006, , , , 
2025-11-24 19:56:48.457,12.791731,-6.7441707,1.7285153,-0.008551862,0.46187687,3.5697913,-10.425,48.0,-12.825001,-0.69311947,0.09022944,-0.45509958,1002.1006, , , , 
2025-11-24 19:56:48.478,12.717553,-5.6763735,1.1706885,-0.057419643,0.64940697,3.122651,-4.55625,48.99375,-12.243751,-0.68592346,0.120680675,-0.43774942,1002.1028, , , , 
2025-11-24 19:56:48.498,12.365509,-4.8673005,1.0989038,-0.18264332,0.8888591,2.7207136,-2.98125,49.406254,-12.056251,-0.6813398,0.13764365,-0.42980617,1002.1028, , , , 
2025-11-24 19:56:48.517,11.613864,-4.290331,1.0007981,-0.28526568,1.182753,2.2729626,1.7812501,49.406254,-11.83125,-0.67499715,0.1593557,-0.4226771,1002.1045, , , , 
2025-11-24 19:56:48.538,10.873883,-3.9047875,0.8138588,-0.3115321,1.278656,1.9999139,3.3187501,49.312504,-11.6625,-0.6683108,0.18030441,-0.41890657,1002.1045, , , , 
2025-11-24 19:56:48.558,10.53171,-3.6460636,0.35682967,-0.38422292,1.2206255,1.7122048,7.65,49.2,-11.118751,-0.6603409,0.20458113,-0.41665098,1002.1045, , , , 
2025-11-24 19:56:48.577,10.541281,-3.6774693,0.20338993,-0.50211644,1.0763892,1.5087163,8.94375,48.91875,-10.9125,-0.656496,0.21786162,-0.4156602,1002.1045, , , , 
2025-11-24 19:56:48.597,10.7997055,-3.9000018,0.285045,-0.6420005,0.8344937,1.3279055,11.38125,48.61875,-10.200001,-0.6531499,0.23380077,-0.41397,1002.1045, , , , 
2025-11-24 19:56:48.617,11.812469,-4.5272202,1.0103694,-0.75508356,0.28045526,1.0456941,13.51875,48.35625,-9.431251,-0.65230167,0.24701422,-0.4111695,1002.1084, , , , 
2025-11-24 19:56:48.637,13.316058,-5.35095,1.8218354,-0.6927008,-0.25464696,0.80624205,15.31875,47.8875,-8.512501,-0.65396625,0.25582397,-0.40683547,1002.10693, , , , 
2025-11-24 19:56:48.658,14.682958,-5.5926247,2.9997022,-0.60046285,-0.87160265,0.410413,17.38125,47.550003,-7.5750003,-0.65969217,0.2583091,-0.39918253,1002.10693, , , , 
2025-11-24 19:56:48.677,15.214463,-4.7979083,4.2999024,-0.41171107,-1.1196066,-0.11735903,18.09375,47.550003,-7.0875,-0.66643643,0.25318465,-0.39303708,1002.10986, , , , 
2025-11-24 19:56:48.697,15.417853,-4.5487556,5.063512,-0.06536066,-0.8160156,-0.95788485,18.2625,47.49375,-6.95625,-0.6731602,0.24162544,-0.39145592,1002.10986, , , , 
2025-11-24 19:56:48.717,15.137894,-6.7537417,4.0938206,0.27671382,-0.10193513,-1.9444796,18.28125,47.90625,-7.0875,-0.6778349,0.2247618,-0.39927378,1002.114, , , , 
2025-11-24 19:56:48.737,13.109976,-8.779266,2.5259235,0.3927748,0.77524155,-2.4936311,17.550001,48.24375,-7.2375,-0.6796063,0.20632203,-0.41674352,1002.114, , , , 
2025-11-24 19:56:48.757,11.510972,-8.898908,1.5299109,0.4715741,1.3574554,-2.4319355,16.931252,48.412502,-7.05,-0.67748636,0.19164349,-0.4399301,1002.10986, , , , 
2025-11-24 19:56:48.777,11.72154,-8.532506,0.9936196,0.5546493,1.138772,-2.4276597,15.525001,48.862503,-7.4625,-0.6733071,0.17936729,-0.46406206,1002.10986, , , , 
2025-11-24 19:56:48.799,12.537792,-9.15494,1.1682956,0.65971506,0.23036577,-2.8528094,12.525001,49.162502,-7.8375,-0.67109436,0.16294412,-0.4857688,1002.10596, , , , 
2025-11-24 19:56:48.817,12.856337,-10.388141,1.6136597,0.775776,-0.6132143,-3.3213294,10.05,49.18125,-8.175,-0.672711,0.13816692,-0.503761,1002.10596, , , , 
2025-11-24 19:56:48.839,12.983156,-12.353545,1.8337995,0.81120515,-1.5656015,-3.9542434,7.3125005,49.593754,-9.01875,-0.67830795,0.104467,-0.5174349,1002.1001, , , , 
2025-11-24 19:56:48.858,12.492329,-13.160226,2.03031,0.72079974,-1.8343743,-4.2767706,4.2375,49.893753,-9.262501,-0.6863568,0.06442618,-0.5277513,1002.1001, , , , 
2025-11-24 19:56:48.877,11.350354,-13.107583,2.3772693,0.5986303,-1.7635161,-4.471631,0.45000002,50.006252,-10.012501,-0.69444466,0.021939063,-0.5366644,1002.0925, , , , 
2025-11-24 19:56:48.898,10.225129,-12.758231,2.4179473,0.51189,-1.4574052,-4.4887347,-1.48125,49.85625,-10.293751,-0.70026207,-0.01971419,-0.5459478,1002.0925, , , , 
2025-11-24 19:56:48.917,8.589934,-11.776576,2.2241287,0.40193748,-0.7372163,-4.2639427,-7.6125,49.2,-10.9125,-0.70229053,-0.057822615,-0.55690026,1002.0791, , , , 
2025-11-24 19:56:48.938,7.5053873,-10.725529,1.9151554,0.35856733,-0.07383616,-3.903543,-9.75,48.7125,-11.137501,-0.69956136,-0.08987147,-0.5705139,1002.0791, , , , 
2025-11-24 19:56:48.957,6.5694947,-9.327521,1.489233,0.29626092,0.55106056,-3.442277,-14.00625,47.625,-11.08125,-0.692597,-0.11517335,-0.58639425,1002.0823, , , , 
2025-11-24 19:56:48.977,6.320342,-8.053643,1.1300105,0.21746163,0.98903805,-3.0232358,-20.212502,44.98125,-11.475,-0.6828091,-0.1348345,-0.60354024,1002.0823, , , , 
2025-11-24 19:56:48.997,6.4594245,-7.4766736,1.1826526,0.22601348,1.1858072,-2.8124936,-23.550001,42.881252,-11.700001,-0.67128503,-0.1507443,-0.62119246,1002.08374, , , , 
2025-11-24 19:56:49.018,6.3083777,-7.146464,1.0582259,0.35062632,1.1357177,-2.7007084,-26.400002,41.268753,-12.337501,-0.65872395,-0.16520067,-0.638394,1002.08374, , , , 
2025-11-24 19:56:49.037,5.9494543,-6.940382,0.770788,0.4734066,0.949333,-2.5815933,-27.806252,40.18125,-12.975,-0.6462128,-0.17996207,-0.65371615,1002.08936, , , , 
2025-11-24 19:56:49.057,5.616553,-6.7130637,0.581755,0.5271612,0.6671216,-2.4246054,-30.768751,37.443752,-14.212501,-0.634759,-0.19514425,-0.66632736,1002.08936, , , , 
2025-11-24 19:56:49.077,5.317151,-6.492924,0.7109674,0.56136864,0.3403183,-2.2437947,-32.4375,35.79375,-15.093751,-0.625081,-0.21049443,-0.6760311,1002.0874, , , , 
2025-11-24 19:56:49.097,5.0850472,-6.222236,0.9457632,0.6151232,0.145458,-2.0758116,-33.75,33.99375,-15.825001,-0.6171563,-0.22579461,-0.68308383,1002.0874, , , , 
2025-11-24 19:56:49.118,5.063512,-6.1217375,0.91226363,0.66765606,0.049554985,-1.8681237,-34.275,33.225002,-16.03125,-0.61031955,-0.2407804,-0.6880865,1002.08813, , , , 
2025-11-24 19:56:49.137,5.0539403,-6.114559,0.8955139,0.7116371,-0.017638214,-1.7282397,-35.550003,31.893751,-16.462502,-0.6040727,-0.25517282,-0.6917249,1002.08813, , , , 
2025-11-24 19:56:49.157,4.953442,-6.2581286,0.62482584,0.76966757,-0.07994463,-1.5297142,-37.59375,29.19375,-17.400002,-0.5970681,-0.27239653,-0.69452083,1002.0884, , , , 
2025-11-24 19:56:49.177,4.793123,-6.5455666,0.30179477,0.7543964,-0.10132429,-1.3653964,-37.987503,28.237501,-17.493752,-0.5933201,-0.28212893,-0.6953522,1002.0884, , , , 
2025-11-24 19:56:49.197,4.4339004,-7.012167,-0.033499517,0.67071027,-0.02985516,-1.0837958,-39.131252,26.306252,-18.1875,-0.58880985,-0.29367456,-0.6959045,1002.09033, , , , 
2025-11-24 19:56:49.217,3.8210387,-7.385746,-0.3592225,0.59252185,0.08376243,-0.75508356,-40.03125,24.712502,-18.54375,-0.5847556,-0.30261037,-0.6962243,1002.09033, , , , 
2025-11-24 19:56:49.237,2.9805596,-7.3139615,-0.87158567,0.43309072,0.2602973,-0.21570544,-40.612503,23.75625,-18.75,-0.581344,-0.3077689,-0.6963562,1002.0847, , , , 
2025-11-24 19:56:49.257,2.4131618,-6.9762745,-1.3022938,0.18814096,0.44965994,0.4647784,-41.30625,22.987501,-19.181252,-0.57903826,-0.30767557,-0.69633096,1002.0847, , , , 
2025-11-24 19:56:49.278,3.098107,-6.792027,-1.3238292,-0.002443389,0.549228,1.3004174,-41.60625,22.48125,-19.3125,-0.5786561,-0.29885525,-0.6955038,1002.08154, , , , 
2025-11-24 19:56:49.297,5.0515475,-7.8717885,-1.6160526,-0.11911522,0.3470376,1.7482449,-41.49375,22.237501,-19.575,-0.5804304,-0.29007548,-0.69347507,1002.08154, , , , 
2025-11-24 19:56:49.317,6.775277,-9.31795,-1.8385851,-0.37689275,-0.0011453386,2.1697295,-40.8375,22.9125,-19.96875,-0.5880794,-0.27191883,-0.68625706,1002.08154, , , , 
2025-11-24 19:56:49.338,7.6540413,-9.791729,-1.4413766,-0.66276926,-0.23754323,2.4745421,-40.55625,23.25,-20.0625,-0.5954319,-0.25862822,-0.6798608,1002.08154, , , , 
2025-11-24 19:56:49.358,7.9746795,-9.454341,-0.24885355,-1.013472,-0.3835357,2.771414,-38.8875,25.518751,-20.0625,-0.61098635,-0.2320137,-0.66694975,1002.0852, , , , 
2025-11-24 19:56:49.377,8.269296,-9.600304,0.98883396,-1.1277004,-0.3560476,3.0059793,-37.575,27.993752,-19.368752,-0.6244718,-0.20720226,-0.65555537,1002.0852,37.88761996,127.74023827,144.77392578125,0.93
2025-11-24 19:56:49.397,8.965906,-10.229915,1.4222339,-1.077,-0.20333578,3.2093916,-36.862503,29.1375,-19.10625,-0.6338913,-0.18695594,-0.6466448,1002.0852, , , , 
2025-11-24 19:56:49.417,9.868599,-11.204392,1.3357933,-0.94200283,-0.012751437,3.4531195,-34.443752,33.206253,-18.112501,-0.647063,-0.15110797,-0.6310755,1002.0923, , , , 
2025-11-24 19:56:49.437,10.414461,-11.896217,0.974477,-0.9255099,0.045279052,3.7047887,-33.487503,34.350002,-17.643751,-0.655797,-0.12072993,-0.61723584,1002.0969, , , , 
2025-11-24 19:56:49.458,10.900205,-11.884253,1.1395818,-0.9878164,-0.022524992,4.0102124,-29.737501,37.537502,-16.706251,-0.6640397,-0.08849086,-0.601269,1002.0969, , , , 
2025-11-24 19:56:49.479,11.37189,-11.453245,1.4916258,-1.0195805,-0.07261447,4.1415443,-28.368752,38.475002,-16.25625,-0.6736073,-0.046436787,-0.5783509,1002.10767, , , , 
2025-11-24 19:56:49.498,11.369496,-10.4718895,2.0135603,-0.9963682,-0.07627955,4.1720867,-23.85,41.550003,-14.94375,-0.6784494,-0.021090813,-0.563678,1002.10767, , , , 
2025-11-24 19:56:49.518,11.182857,-9.68166,2.329413,-0.92795336,-0.037185326,4.118943,-22.25625,42.581253,-14.55,-0.68335694,0.012088602,-0.54373074,1002.1167, , , , 
2025-11-24 19:56:49.537,10.878669,-8.913264,2.7795627,-0.75752693,-0.031076854,4.0297594,-17.081251,45.318752,-12.95625,-0.6862336,0.04406744,-0.523855,1002.1167, , , , 
2025-11-24 19:56:49.557,10.962717,-8.405686,2.7269206,-0.5711422,-0.031687703,3.9778373,-13.33125,46.96875,-12.356251,-0.6870985,0.07436317,-0.5036887,1002.1155, , , , 
2025-11-24 19:56:49.578,11.187642,-7.6181493,2.7652056,-0.4446968,0.007406523,3.8446727,-11.3625,47.662502,-12.3,-0.686034,0.10280677,-0.48363563,1002.1155, , , , 
2025-11-24 19:56:49.597,11.324033,-6.96431,2.76042,-0.34512872,0.03917058,3.6589751,-7.2562504,48.600002,-11.587501,-0.68415457,0.12261674,-0.46926412,1002.1155, , , , 
2025-11-24 19:56:49.618,11.391032,-5.6093745,2.6455646,-0.24128467,0.19371493,3.2216084,-1.8375001,49.050003,-10.950001,-0.6793816,0.15237787,-0.4475013,1002.1267, , , , 
2025-11-24 19:56:49.638,11.402996,-4.9989057,2.5785656,-0.22906773,0.35253522,2.919239,-0.26250002,49.18125,-10.650001,-0.6745359,0.17380041,-0.4328933,1002.1284, , , , 
2025-11-24 19:56:49.658,11.398211,-4.2711883,2.5785656,-0.20280129,0.6426877,2.4824831,4.5375004,49.125004,-9.7875,-0.6688956,0.19354065,-0.42159066,1002.1284, , , , 
2025-11-24 19:56:49.677,11.29532,-3.926323,2.3700907,-0.15271181,0.8833615,2.1037579,5.9625,48.975002,-9.65625,-0.66239196,0.2118535,-0.41409546,1002.1289, , , , 
2025-11-24 19:56:49.697,11.15175,-3.9335012,2.044667,-0.10689827,1.0440143,1.767792,10.275001,48.843754,-9.4875,-0.6552571,0.22872984,-0.41013432,1002.1289, , , , 
2025-11-24 19:56:49.717,11.549257,-3.993322,1.6639091,-0.040926766,1.109375,1.5282634,13.031251,48.225002,-9.28125,-0.64780015,0.24423325,-0.40871227,1002.12085, , , , 
2025-11-24 19:56:49.737,12.399009,-4.074678,1.1994023,-0.017103724,1.0311866,1.238111,14.231251,47.756252,-9.39375,-0.6404681,0.2579704,-0.40905005,1002.12085, , , , 
2025-11-24 19:56:49.757,13.222738,-4.28076,0.9290134,-0.0904054,0.8186117,0.86854845,17.118752,46.93125,-8.700001,-0.6346426,0.26881292,-0.4105243,1002.1157, , , , 
2025-11-24 19:56:49.778,14.1059885,-4.4578285,1.407877,-0.18447587,0.46248773,0.40613708,18.581251,46.40625,-8.175,-0.6309442,0.2772537,-0.41325808,1002.1157, , , , 
2025-11-24 19:56:49.798,15.123536,-4.520042,2.5953152,-0.08551861,0.08498412,-0.100866154,19.5,46.18125,-7.70625,-0.6309495,0.27831295,-0.4162199,1002.1162, , , , 
2025-11-24 19:56:49.817,16.014265,-5.343771,2.9422746,0.13072132,-0.16973919,-0.78990185,19.85625,46.18125,-7.275,-0.6322279,0.27446958,-0.4199205,1002.1162, , , , 
2025-11-24 19:56:49.837,16.277475,-7.912466,2.4801607,0.3738385,-0.24426255,-1.6909779,20.118752,45.881252,-6.9187503,-0.63556254,0.26204532,-0.4286216,1002.1111, , , , 
2025-11-24 19:56:49.857,14.534603,-8.886943,1.6591234,0.53449136,0.09597938,-2.1240687,19.556252,46.350002,-6.8812504,-0.63911086,0.24430414,-0.44179088,1002.1111, , , , 
2025-11-24 19:56:49.877,13.392629,-8.166405,1.0079765,0.53815645,0.40995488,-2.2737262,18.73125,46.706253,-6.95625,-0.6407153,0.22693194,-0.45827183,1002.11475, , , , 
2025-11-24 19:56:49.897,13.60559,-8.118249,0.9553344,0.5589253,0.2951156,-2.7007084,16.7625,47.5125,-8.025001,-0.6417173,0.20960553,-0.4768137,1002.11475, , , , 
2025-11-24 19:56:49.918,14.69253,-9.253045,0.7396813,0.703696,-0.010918895,-3.2364216,16.0125,47.90625,-8.137501,-0.64358515,0.1880752,-0.49667808,1002.1074, , , , 
2025-11-24 19:56:49.937,15.15225,-11.391032,-0.17706887,0.6652127,-0.410413,-4.078245,12.918751,48.825,-9.01875,-0.64852875,0.15138696,-0.5224299,1002.1074, , , , 
2025-11-24 19:56:49.957,14.630316,-13.509876,-0.37836507,0.29442838,-0.5099811,-4.738571,9.7875,49.2,-9.4875,-0.65530396,0.11616738,-0.5431808,1002.1074, , , , 
2025-11-24 19:56:49.977,13.833207,-15.314962,-0.10049855,-0.16737215,-0.24670593,-5.123405,6.1312504,49.612503,-9.900001,-0.66276044,0.08040539,-0.5646122,1002.1074, , , , 
2025-11-24 19:56:49.997,12.4014015,-15.9230385,0.19860429,-0.46851984,0.30733252,-5.25657,1.7437501,49.725002,-10.368751,-0.66789025,0.04758582,-0.5878296,1002.1035, , , , 
2025-11-24 19:56:50.017,10.455139,-15.319748,0.5841478,-0.55770355,0.8589276,-5.2003717,-0.6,49.8375,-10.59375,-0.66843593,0.019036831,-0.6134495,1002.1035, , , , 
2025-11-24 19:56:50.037,9.075976,-14.074882,0.8859426,-0.40926766,1.15893,-4.8851748,-7.51875,49.031254,-10.481251,-0.66448975,-0.00576967,-0.6396452,1002.09717, , , , 
2025-11-24 19:56:50.057,8.2812605,-12.554543,0.8644072,-0.08063184,1.2725476,-4.4178762,-12.281251,48.018753,-10.2375,-0.6566895,-0.028012833,-0.66439396,1002.09717, , , , 
2025-11-24 19:56:50.077,8.0345,-11.094322,0.48364928,0.21135315,1.234675,-4.011663,-16.556252,46.59375,-10.05,-0.6467781,-0.049393244,-0.6861663,1002.09106, , , , 
2025-11-24 19:56:50.097,7.9507513,-10.129416,-0.25124636,0.25716668,1.3934953,-3.7502203,-18.525002,45.506252,-9.9375,-0.63507205,-0.07000145,-0.70582825,1002.09106, , , , 
2025-11-24 19:56:50.117,7.917252,-9.21476,-0.17467605,0.32558158,1.435033,-3.5711658,-22.575,43.78125,-10.59375,-0.62176883,-0.08897995,-0.7245409,1002.0935, , , , 
2025-11-24 19:56:50.137,7.3307114,-8.23819,-0.40947178,0.48562357,1.2255123,-3.474041,-27.243752,40.537502,-11.306251,-0.6082028,-0.10810728,-0.7412813,1002.0935, , , , 
2025-11-24 19:56:50.157,6.4423757,-7.5173516,-0.689432,0.539989,0.9352835,-3.3885224,-30.281252,38.30625,-12.187501,-0.5954423,-0.12822555,-0.75527894,1002.0823, , , , 
2025-11-24 19:56:50.177,5.492126,-7.0555367,-0.61046886,0.50700325,0.6640673,-3.2639096,-33.0,35.943752,-13.218751,-0.58433825,-0.14854515,-0.7663505,1002.0823, , , , 
2025-11-24 19:56:50.197,4.5391846,-6.897311,-0.25603202,0.50333816,0.437443,-3.1014242,-34.29375,34.537502,-13.556251,-0.5748098,-0.16821183,-0.7749216,1002.08325, , , , 
2025-11-24 19:56:50.217,3.801896,-6.9786673,-0.040677983,0.5699205,0.19860171,-2.817991,-37.818752,30.825,-14.962501,-0.5670164,-0.1869772,-0.78094566,1002.08325, , , , 
2025-11-24 19:56:50.238,3.2321053,-6.8949184,-0.5985048,0.6426113,0.028786177,-2.3763485,-39.5625,28.25625,-15.900001,-0.56082606,-0.2045647,-0.78456384,1002.0823, , , , 
2025-11-24 19:56:50.257,2.8369904,-6.8303123,-1.1946167,0.5289937,-0.10071344,-2.010451,-40.21875,26.85,-15.993751,-0.55629337,-0.2201194,-0.78621924,1002.0823, , , , 
2025-11-24 19:56:50.277,2.2959132,-6.68435,-1.4294125,0.21807247,-0.24120831,-1.4564126,-41.850002,23.737501,-16.706251,-0.5539437,-0.23193079,-0.78650767,1002.08105, , , , 
2025-11-24 19:56:50.297,2.477768,-6.8398833,-1.1036894,-0.061084725,-0.3597127,-0.9010761,-42.318752,22.893751,-16.78125,-0.5540648,-0.2386765,-0.7858891,1002.08105, , , , 
2025-11-24 19:56:50.317,2.8609185,-6.957132,-0.6750751,-0.18203248,-0.4067479,-0.4362213,-42.91875,21.31875,-16.63125,-0.5564701,-0.24058443,-0.78457224,1002.0764, , , , 
2025-11-24 19:56:50.337,2.9829526,-6.847062,-0.7325028,-0.3115321,-0.39147675,0.057343286,-43.706253,19.59375,-16.66875,-0.56031924,-0.2389174,-0.78276944,1002.0764, , , , 
2025-11-24 19:56:50.357,2.9733813,-6.942775,-0.9194421,-0.46729815,-0.24426255,0.49226654,-43.725002,18.7875,-15.975,-0.5647699,-0.23376112,-0.78110594,1002.0737, , , , 
2025-11-24 19:56:50.377,3.153142,-7.213463,-1.4150555,-0.69086826,-0.053678203,0.96567315,-43.8375,18.46875,-15.618751,-0.5690699,-0.22443664,-0.7801967,1002.0737,37.88762828,127.74023189,144.64190673828125,1.04
2025-11-24 19:56:50.397,4.072285,-8.647362,-1.9175483,-1.0434035,-0.023746688,1.4213653,-43.875,18.768751,-15.056251,-0.5737302,-0.21029647,-0.7797279,1002.07983, , , , 
2025-11-24 19:56:50.418,4.953442,-10.2107725,-1.8002999,-1.5149776,-0.14591613,1.9431051,-43.706253,19.63125,-14.625001,-0.5802123,-0.19016458,-0.7787426,1002.07983, , , , 
2025-11-24 19:56:50.437,6.148059,-11.534901,-0.7372885,-1.9590635,-0.37620556,2.4898133,-43.74375,20.19375,-14.343751,-0.58946717,-0.16306637,-0.77625716,1002.0737, , , , 
2025-11-24 19:56:50.458,7.440781,-12.341581,0.5673981,-2.1808012,-0.55884886,3.0609555,-43.162502,21.956251,-14.26875,-0.60114455,-0.12960857,-0.77150416,1002.0737, , , , 
2025-11-24 19:56:50.477,8.817552,-12.877872,1.338186,-2.252881,-0.68224,3.5728457,-42.300003,24.206251,-13.425,-0.6139015,-0.091415815,-0.7640461,1002.0803, , , , 
2025-11-24 19:56:50.498,10.5125675,-13.691731,1.6016957,-2.27365,-0.746379,3.930802,-40.21875,27.7875,-11.587501,-0.6294378,-0.039729808,-0.7509547,1002.0803, , , , 
2025-11-24 19:56:50.517,11.5468645,-14.563316,1.6686947,-2.3793263,-0.7347729,4.130549,-39.2625,29.625002,-10.70625,-0.6380113,-0.0074764886,-0.7412547,1002.0908, , , , 
2025-11-24 19:56:50.537,12.664911,-15.358033,2.0518453,-2.5192103,-0.62298787,4.3089166,-36.9375,33.15,-8.56875,-0.64785415,0.037261378,-0.7266859,1002.0908, , , , 
2025-11-24 19:56:50.557,13.502698,-15.439688,2.4586253,-2.6083941,-0.46844348,4.415891,-34.275,36.3375,-6.4687505,-0.6552539,0.08376975,-0.71067345,1002.104, , , , 
