Time,Accel_X,Accel_Y,Accel_Z,Gyro_X,Gyro_Y,Gyro_Z,Mag_X,Mag_Y,Mag_Z,Orient_X,Orient_Y,Orient_Z,Pressure,Lat,Lng,Alt,Speed
2025-11-24 20:04:20.093,-1.7117655,3.05713,9.150154,0.0096972,-0.17279342,0.13927318,1.125,20.1375,-45.84375,0.13042818,-0.05485782,-0.79162276,1002.1721,37.88750078,127.74032699,145.6551513671875,0.57
2025-11-24 20:04:20.111,-0.99601245,3.004488,10.402497,0.017638214,-0.49959671,0.18325418,1.25625,20.2875,-45.43125,0.12477535,-0.059580505,-0.7903794,1002.1526, , , , 
2025-11-24 20:04:20.132,-0.7683952,3.098107,10.538888,0.09216158,-0.2735832,0.1655396,1.0125,19.893751,-45.35625,0.12110318,-0.06350787,-0.78969604,1002.1467, , , , 
2025-11-24 20:04:20.151,-0.84017986,3.2536407,10.002597,0.11109784,-0.13919681,0.15454435,1.21875,19.987501,-45.225002,0.120314665,-0.06528544,-0.7891152,1002.1467, , , , 
2025-11-24 20:04:20.171,-1.0103694,3.3852458,9.236296,0.08971819,-0.062230065,0.11667182,0.8625,19.96875,-45.15,0.12011297,-0.06703412,-0.7882991,1002.15015, , , , 
2025-11-24 20:04:20.191,-1.3597214,3.313461,8.23819,-0.05444176,-0.07261447,0.057419643,0.675,19.78125,-45.16875,0.119951196,-0.068134,-0.78759754,1002.15015, , , , 
2025-11-24 20:04:20.211,-1.745265,3.423531,8.175976,-0.2877854,-0.25464696,0.054365408,0.5625,20.1375,-44.98125,0.117847085,-0.06783564,-0.7875383,1002.1443, , , , 
2025-11-24 20:04:20.232,-1.5897316,3.3852458,8.793623,-0.4221718,-0.5331933,0.04031592,0.15,19.875,-45.15,0.11268927,-0.06753354,-0.78781897,1002.1443, , , , 
2025-11-24 20:04:20.251,-1.474876,3.2871401,9.361021,-0.41117656,-0.71094984,-0.007941014,0.24375,20.0625,-45.05625,0.105489984,-0.068124965,-0.78859156,1002.1448, , , , 
2025-11-24 20:04:20.273,-1.4605191,3.610171,9.471091,-0.33726403,-0.96139723,0.108119965,-0.22500001,20.2875,-44.9625,0.09687254,-0.07032746,-0.7895095,1002.1448, , , , 
2025-11-24 20:04:20.291,-1.0319048,4.124927,9.672089,-0.2138729,-1.1251043,0.19424942,-0.5625,20.306252,-44.831253,0.08735311,-0.07468497,-0.78977185,1002.146, , , , 
2025-11-24 20:04:20.311,-1.1012967,4.76411,9.542876,-0.17355698,-1.4574052,0.22540264,-0.93750006,20.868752,-44.4375,0.07652802,-0.08142608,-0.78961855,1002.146, , , , 
2025-11-24 20:04:20.331,0.27996024,5.2310095,9.58834,-0.33482066,-2.2265382,-0.076355904,-2.1000001,20.94375,-44.475002,0.06072037,-0.091279216,-0.78985995,1002.13965, , , , 
2025-11-24 20:04:20.351,1.5323038,4.5152564,10.258629,-0.35253522,-2.367644,-0.37078428,-3.15,21.375,-44.287502,0.040564913,-0.102957964,-0.7924938,1002.13965, , , , 
2025-11-24 20:04:20.373,0.40947178,4.0698924,9.796515,0.053678203,-2.1404088,-0.23639789,-4.6687503,22.06875,-43.96875,0.022467246,-0.11517207,-0.7955058,1002.1289, , , , 
2025-11-24 20:04:20.391,-0.29461628,3.6077783,7.6109705,0.26136628,-1.998005,-0.11972606,-6.76875,22.2,-43.78125,0.0077941893,-0.1291093,-0.796933,1002.1289, , , , 
2025-11-24 20:04:20.411,0.52193445,3.6149569,7.4479594,0.32855946,-2.1947742,-0.09468132,-8.512501,22.3875,-43.55625,-0.0068091056,-0.14410627,-0.7970272,1002.11304, , , , 
2025-11-24 20:04:20.431,0.63918275,3.6317065,8.087142,0.60221905,-1.866062,-0.1643179,-10.275001,22.3125,-43.5,-0.019683665,-0.15963505,-0.7970426,1002.11304, , , , 
2025-11-24 20:04:20.451,0.40707895,2.4658036,6.2676997,0.8874847,-1.8025339,0.535713,-12.13125,21.69375,-43.40625,-0.031066986,-0.17691222,-0.79475397,1002.1028, , , , 
2025-11-24 20:04:20.471,1.0390832,3.6460636,5.1664033,1.0316447,-1.5716337,0.48684525,-13.593751,21.2625,-43.237503,-0.03907014,-0.19421734,-0.7895097,1002.1028, , , , 
2025-11-24 20:04:20.491,3.3780673,4.912764,3.301497,1.0169843,-1.5911808,0.3732277,-15.187501,20.8875,-43.0875,-0.045734365,-0.21160553,-0.7840328,1002.0913, , , , 
2025-11-24 20:04:20.512,0.062213387,7.2876406,5.4227343,1.1972606,-2.811119,0.99995697,-16.81875,20.15625,-43.3125,-0.057326958,-0.23276201,-0.7778596,1002.0913, , , , 
2025-11-24 20:04:20.531,2.015953,0.325723,3.8784664,1.1453387,-2.418955,1.4086901,-18.0,19.425001,-43.237503,-0.07458353,-0.25775385,-0.76660615,1002.07446, , , , 
2025-11-24 20:04:20.551,3.7109687,-3.3924243,4.273581,0.8587749,-1.6113387,0.20280129,-19.275002,18.84375,-42.9,-0.08668633,-0.2765588,-0.7555986,1002.07446, , , , 
2025-11-24 20:04:20.571,2.5331018,1.7620147,5.0132627,0.98583114,-1.0530243,0.037261683,-20.775002,18.0375,-42.2625,-0.09202327,-0.28997338,-0.7522074,1002.07007, , , , 
2025-11-24 20:04:20.591,3.6221352,-0.40468612,4.1847477,1.299883,-0.9326874,0.46180052,-22.087502,17.41875,-41.287502,-0.094077736,-0.30375585,-0.7470603,1002.07007, , , , 
2025-11-24 20:04:20.611,4.074678,-0.45732823,1.7261224,0.8123505,-1.0573002,0.731795,-23.2875,16.556252,-40.96875,-0.09682844,-0.31735912,-0.7392184,1002.0552, , , , 
2025-11-24 20:04:20.631,5.42752,-2.1954148,2.1858435,-0.58648974,-1.1996276,1.2199383,-24.337502,15.900001,-40.706253,-0.10708222,-0.3249046,-0.731017,1002.0552, , , , 
2025-11-24 20:04:20.651,7.2038918,-3.610171,5.5782676,-1.3854779,-1.386547,1.609048,-24.862501,15.69375,-40.443752,-0.12829778,-0.32321188,-0.7239342,1002.03735, , , , 
2025-11-24 20:04:20.671,7.960323,-5.4179487,5.915955,-1.2291011,-1.862397,2.073292,-25.406252,16.0125,-40.21875,-0.1551753,-0.31933877,-0.71547306,1002.03735, , , , 
2025-11-24 20:04:20.691,9.61466,-6.7202425,4.0100718,-0.949333,-2.8098974,2.456293,-26.250002,17.625,-39.09375,-0.18680622,-0.3206279,-0.7013349,1002.03955, , , , 
2025-11-24 20:04:20.711,10.849956,-7.9818583,4.0268216,-1.1784008,-3.299186,2.676809,-26.7,19.48125,-37.78125,-0.22456102,-0.32647678,-0.6819399,1002.03955, , , , 
2025-11-24 20:04:20.731,11.824432,-8.384151,5.3557353,-1.4270155,-3.0786703,2.921759,-27.581251,21.375,-36.05625,-0.26561782,-0.33006716,-0.6602123,1002.0442, , , , 
2025-11-24 20:04:20.751,11.979965,-8.350652,6.1241302,-1.5021498,-2.6577964,2.9712374,-28.48125,23.400002,-33.862503,-0.30496937,-0.3290169,-0.6376947,1002.0442, , , , 
2025-11-24 20:04:20.771,11.534901,-9.030513,6.3801622,-1.429459,-2.40796,3.0665295,-28.81875,25.518751,-31.650002,-0.3414993,-0.32486486,-0.61491996,1002.0571, , , , 
2025-11-24 20:04:20.791,11.333605,-9.559626,6.322735,-1.2077214,-2.3065593,3.22535,-29.325,27.825,-29.531252,-0.37561277,-0.31902534,-0.5906479,1002.0571, , , , 
2025-11-24 20:04:20.811,11.467603,-9.84467,6.0140605,-0.97376686,-2.3945212,3.3475194,-29.325,30.206251,-27.35625,-0.4077503,-0.31333718,-0.5637449,1002.072, , , , 
2025-11-24 20:04:20.831,11.554043,-9.993026,5.7170515,-0.90840626,-2.4024622,3.4257078,-28.81875,32.943752,-25.312502,-0.44596758,-0.30719286,-0.5263865,1002.072, , , , 
2025-11-24 20:04:20.851,11.55165,-9.590733,5.786443,-0.8833615,-2.2491395,3.4501417,-27.956251,34.95,-23.60625,-0.47464457,-0.3010442,-0.495379,1002.08813, , , , 
2025-11-24 20:04:20.871,11.716755,-9.535697,5.982954,-0.8430456,-2.0921519,3.3664556,-26.625002,37.0875,-21.806252,-0.49468186,-0.295807,-0.47207588,1002.08813, , , , 
2025-11-24 20:04:20.891,10.581959,-8.2812605,6.1360946,-0.64146596,-1.9137081,3.4379246,-25.050001,39.28125,-20.212502,-0.5243087,-0.2856116,-0.43401736,1002.10693, , , , 
2025-11-24 20:04:20.911,10.869098,-7.8550386,6.026025,-0.42889112,-1.8697271,3.417156,-23.212502,40.7625,-18.69375,-0.54525375,-0.27733958,-0.4025257,1002.10693, , , , 
2025-11-24 20:04:20.931,10.684851,-7.0746794,5.6500525,-0.1827197,-1.8495692,3.4959552,-21.243752,42.61875,-17.306252,-0.56326824,-0.26917872,-0.37015003,1002.1211, , , , 
2025-11-24 20:04:20.951,12.054143,-7.4455667,5.3243294,-0.051387526,-1.6113387,3.5185566,-18.88125,44.25,-16.237501,-0.57878095,-0.26103958,-0.3367162,1002.1211, , , , 
2025-11-24 20:04:20.971,11.312069,-5.796015,6.1097736,0.010918895,-1.0957836,3.180758,-15.58125,45.675003,-15.13125,-0.59088933,-0.2518581,-0.3057308,1002.1211, , , , 
2025-11-24 20:04:20.991,14.651852,-4.5655055,3.9143589,-0.12835428,-0.09582666,3.0420957,-12.525001,47.081253,-14.212501,-0.59841585,-0.23762403,-0.2793788,1002.1211, , , , 
2025-11-24 20:04:21.011,11.697613,-3.1842487,3.0260234,-0.6781168,0.6757498,2.5796843,-9.6,48.05625,-13.63125,-0.60542184,-0.22056021,-0.26244116,1002.1255, , , , 
2025-11-24 20:04:21.031,11.786147,-2.8226335,2.42034,-1.36532,1.2407835,2.289532,-6.80625,48.225002,-13.087501,-0.6143054,-0.19850111,-0.25315538,1002.1255, , , , 
2025-11-24 20:04:21.051,11.905788,-2.9398818,3.0643084,-1.8381921,1.4423631,1.9657829,-4.55625,48.581253,-12.675,-0.6258139,-0.17374024,-0.24993464,1002.1333, , , , 
2025-11-24 20:04:21.071,11.376676,-2.4634109,4.4482574,-1.8339162,1.2804886,1.6530291,-1.81875,48.7125,-11.90625,-0.63782835,-0.14943445,-0.25053895,1002.1333, , , , 
2025-11-24 20:04:21.092,11.513365,-2.1619153,4.855336,-1.3506596,0.92497545,1.4337349,0.43125,49.10625,-10.70625,-0.64756835,-0.12861775,-0.25127777,1002.1304,37.88750078,127.74032699,145.6551513671875,0.57
2025-11-24 20:04:21.111,11.345569,-1.556232,3.411567,-0.91084963,0.5418979,1.1521343,2.5687501,49.7625,-9.20625,-0.65427786,-0.11344839,-0.25055653,1002.1304, , , , 
2025-11-24 20:04:21.131,11.67847,-0.933799,2.6647072,-0.7184327,0.3598654,0.7562289,4.1062503,49.800003,-7.8187504,-0.65919995,-0.10293744,-0.24959944,1002.12866, , , , 
2025-11-24 20:04:21.151,13.081263,-0.9720842,0.63918275,-0.65246123,-0.21616358,0.0012216945,5.3812504,50.175003,-6.76875,-0.66345274,-0.09799543,-0.25050592,1002.12866, , , , 
2025-11-24 20:04:21.171,9.64816,-1.8505492,3.9358943,-0.481424,0.11247225,-0.13011047,6.525,50.30625,-5.7937503,-0.6679031,-0.10118215,-0.2523445,1002.1279, , , , 
2025-11-24 20:04:21.191,12.099906,-3.531208,1.1946167,-0.2993915,-0.24976017,-0.22173755,7.0687504,50.193752,-4.9875,-0.66974455,-0.10232252,-0.2553376,1002.1279, , , , 
2025-11-24 20:04:21.212,13.277773,-3.5216367,3.1100712,-0.16805935,-0.4696652,-0.6035171,7.2562504,50.381252,-4.3875003,-0.67163306,-0.10784526,-0.25779012,1002.13135, , , , 
2025-11-24 20:04:21.231,14.062918,-4.1440697,4.043571,0.09216158,-0.5728984,-1.0531007,6.9375005,50.025,-4.2937503,-0.6717877,-0.1179892,-0.2618219,1002.13135, , , , 
2025-11-24 20:04:21.251,14.54896,-4.955835,4.0531425,0.26991814,-0.2900761,-1.635849,6.61875,49.875004,-4.2375,-0.6692011,-0.13215683,-0.26878202,1002.14014, , , , 
2025-11-24 20:04:21.271,14.094025,-6.468996,2.882454,0.22105035,0.20043425,-2.1826336,5.4750004,50.006252,-4.18125,-0.6639499,-0.14818941,-0.28163704,1002.14014, , , , 
2025-11-24 20:04:21.291,12.571292,-6.7130637,2.2504497,0.13431004,0.51257724,-2.3952084,4.425,50.175003,-4.2375,-0.6575123,-0.1631789,-0.29964423,1002.166, , , , 
2025-11-24 20:04:21.311,11.563615,-5.8390856,2.056631,0.27541575,0.6885776,-2.5754085,2.775,50.30625,-4.1062503,-0.64958143,-0.17652698,-0.320605,1002.166, , , , 
2025-11-24 20:04:21.331,11.099108,-5.846264,1.9920249,0.518533,0.50891215,-2.7745447,0.22500001,50.5125,-4.2562504,-0.6399692,-0.19115253,-0.34258988,1002.1907, , , , 
2025-11-24 20:04:21.351,11.125429,-6.641279,1.3740784,0.79097086,0.4221718,-2.8863297,-1.8937501,50.23125,-4.6687503,-0.62815803,-0.20813592,-0.3640051,1002.1907, , , , 
2025-11-24 20:04:21.371,12.013465,-6.6388865,1.2544373,0.8428929,-0.046958882,-3.0457609,-4.9125004,50.156254,-5.0437503,-0.61583567,-0.22799644,-0.38330236,1002.20825, , , , 
2025-11-24 20:04:21.391,12.650555,-7.6133633,1.975275,0.8160156,-0.2528144,-3.2980406,-7.9875,50.11875,-5.7937503,-0.60357696,-0.2513978,-0.40111795,1002.20825, , , , 
2025-11-24 20:04:21.411,12.600006,-8.214261,2.6240292,0.8795437,-0.43484688,-3.4544177,-10.9125,49.406254,-6.8437505,-0.59090286,-0.27691436,-0.41847003,1002.22, , , , 
2025-11-24 20:04:21.431,12.461222,-8.606684,3.0355947,0.9650623,-0.4531723,-3.468467,-14.137501,48.80625,-7.4812503,-0.5772304,-0.3033226,-0.43476957,1002.22, , , , 
2025-11-24 20:04:21.451,11.912967,-8.568398,2.9279177,1.0445489,-0.41713232,-3.4067714,-17.081251,47.662502,-8.38125,-0.56236476,-0.32939517,-0.45004788,1002.22363, , , , 
2025-11-24 20:04:21.471,11.259427,-7.8981094,2.7963123,1.0518789,-0.31023404,-3.2583356,-20.325,46.18125,-8.981251,-0.54261684,-0.36011818,-0.4674765,1002.22363, , , , 
2025-11-24 20:04:21.491,10.703993,-7.0675006,2.3892334,0.9962155,-0.18623206,-3.1624327,-23.23125,44.737503,-9.6,-0.5261959,-0.38270786,-0.48063582,1002.2112, , , , 
2025-11-24 20:04:21.512,10.036097,-6.320342,2.353341,0.9442935,-0.071392775,-3.1257818,-26.250002,43.050003,-10.40625,-0.5093097,-0.40361452,-0.4938058,1002.2112, , , , 
2025-11-24 20:04:21.531,9.396914,-5.793622,1.3980067,0.84900135,0.12163496,-3.0512583,-28.9125,41.100002,-11.043751,-0.49170774,-0.4226479,-0.5071606,1002.21045, , , , 
2025-11-24 20:04:21.551,8.784052,-5.3629136,0.8353942,0.6553627,0.16805935,-2.9749024,-31.050001,39.131252,-11.7375,-0.47429958,-0.43954405,-0.5206912,1002.21045, , , , 
2025-11-24 20:04:21.571,8.458329,-5.209474,0.8428718,0.46538925,0.08009735,-2.920537,-33.206253,36.91875,-11.962501,-0.45814395,-0.45495453,-0.5340562,1002.2012, , , , 
2025-11-24 20:04:21.591,8.130213,-5.628517,1.2592229,0.43729028,0.06604786,-2.809363,-35.1375,34.95,-12.356251,-0.44273508,-0.4689445,-0.5472857,1002.2012, , , , 
2025-11-24 20:04:21.611,7.3785677,-5.113761,1.1012967,0.53930175,0.16378342,-2.289532,-37.03125,32.643753,-12.750001,-0.4288429,-0.48122823,-0.5581759,1002.20557, , , , 
2025-11-24 20:04:21.631,6.524031,-4.766503,0.90029955,0.7170583,0.38918605,-1.8558303,-39.037502,30.4125,-13.387501,-0.4152813,-0.49070373,-0.56644523,1002.20557, , , , 
2025-11-24 20:04:21.651,5.8343,-4.421936,0.5315057,0.83678436,0.45210332,-1.6431792,-40.3875,28.2,-13.781251,-0.40133068,-0.49918574,-0.57272077,1002.20264, , , , 
2025-11-24 20:04:21.671,5.6596236,-4.1225343,-0.16749759,0.8538881,0.39834878,-1.4751961,-41.5125,26.062502,-14.587501,-0.38766915,-0.5073962,-0.57739735,1002.20264, , , , 
2025-11-24 20:04:21.691,5.384449,-4.4147577,-0.51475596,0.74210304,0.3690281,-1.2852226,-42.375,24.618752,-15.0375,-0.375437,-0.5149633,-0.5808331,1002.19775, , , , 
2025-11-24 20:04:21.711,4.955835,-4.610969,-0.53629136,0.55945975,0.41361994,-0.9767448,-42.862503,23.1375,-15.69375,-0.36504033,-0.520538,-0.5837176,1002.19775, , , , 
2025-11-24 20:04:21.731,4.5631127,-4.80748,-0.28265217,0.32611609,0.40812233,-0.59618694,-43.350002,21.75,-16.462502,-0.35717946,-0.52342016,-0.5859379,1002.19556, , , , 
2025-11-24 20:04:21.751,4.570291,-5.346164,-0.14117654,0.15385716,0.2877854,-0.31336465,-43.74375,20.41875,-16.66875,-0.35237783,-0.5242915,-0.5873138,1002.19556, , , , 
2025-11-24 20:04:21.771,4.874479,-5.8127646,0.0741775,0.1336992,0.18943901,0.18508671,-43.912502,19.2,-17.41875,-0.35107422,-0.5234213,-0.5871616,1002.1907, , , , 
2025-11-24 20:04:21.791,5.1496534,-5.9494543,-0.15314065,0.1789019,0.12957597,0.6884249,-43.96875,18.45,-17.4375,-0.35280362,-0.52136487,-0.5842233,1002.1907, , , , 
2025-11-24 20:04:21.811,5.7696934,-5.5543394,-0.541077,0.108654454,0.029397024,1.2205492,-44.006252,18.46875,-17.79375,-0.35756016,-0.5178426,-0.57817376,1002.1885, , , , 
2025-11-24 20:04:21.831,7.0603223,-5.343771,-0.86201435,0.050013117,-0.046958882,1.5418549,-43.875,18.768751,-18.35625,-0.36551717,-0.51296234,-0.5696128,1002.1885, , , , 
2025-11-24 20:04:21.851,8.23101,-6.210272,-1.326222,-0.11247225,-0.11720632,1.7758093,-43.59375,19.48125,-18.581251,-0.3754773,-0.5069405,-0.5595606,1002.176, , , , 
2025-11-24 20:04:21.871,9.399306,-6.5814586,-0.81625164,-0.36597386,-0.15935478,2.0543556,-43.18125,20.85,-18.862501,-0.38822663,-0.49902853,-0.54850787,1002.176, , , , 
2025-11-24 20:04:21.891,10.160523,-6.835098,-0.148355,-0.57244027,-0.13675343,2.340843,-42.65625,21.975,-18.487501,-0.4034976,-0.48837,-0.5368556,1002.17163, , , , 
2025-11-24 20:04:21.911,10.852348,-7.0025954,0.80189466,-0.78318256,-0.1220931,2.6059508,-41.7,23.6625,-18.225,-0.42089924,-0.475077,-0.5244587,1002.17163, , , , 
2025-11-24 20:04:21.931,11.436496,-6.674779,1.9247267,-0.82472014,-0.03413109,2.7812638,-40.74375,25.312502,-17.6625,-0.43955973,-0.45907313,-0.5115923,1002.16675, , , , 
2025-11-24 20:04:21.951,12.135798,-6.253343,2.3700907,-0.7062158,0.015347538,2.829521,-39.65625,27.150002,-17.0625,-0.4576502,-0.441842,-0.49817598,1002.16675, , , , 
2025-11-24 20:04:21.971,12.837194,-5.805586,2.5208387,-0.5186857,-0.0060321167,2.7861507,-38.23125,29.587502,-16.987501,-0.47419256,-0.42487475,-0.48401704,1002.1553, , , , 
2025-11-24 20:04:21.991,13.545769,-5.482555,2.9781668,-0.29816982,-0.18195613,2.745224,-36.61875,31.85625,-16.3875,-0.48901924,-0.4092967,-0.46882483,1002.1553, , , , 
2025-11-24 20:04:22.011,13.53859,-5.5519466,1.9223338,-0.23647425,-0.5411343,2.7305636,-35.025,33.975002,-15.918751,-0.5037635,-0.39635435,-0.45115298,1002.1548, , , , 
2025-11-24 20:04:22.031,12.9592285,-4.7715874,1.4246268,-0.3757474,-0.24914932,2.4752295,-33.05625,35.756252,-15.637501,-0.51744854,-0.38466117,-0.4333615,1002.1548, , , , 
2025-11-24 20:04:22.051,12.384652,-4.0555353,1.5777674,-0.7758524,-0.12514733,2.3555033,-31.500002,37.275,-15.056251,-0.53052694,-0.37170318,-0.41845638,1002.15576, , , , 
2025-11-24 20:04:22.071,11.556436,-3.3589249,1.785943,-1.1246462,0.26946,2.2431076,-29.75625,38.737503,-14.531251,-0.54419816,-0.35629866,-0.40670195,1002.15576, , , , 
2025-11-24 20:04:22.092,10.6561365,-2.827419,2.6407788,-1.4147986,0.6183301,2.0830655,-27.581251,40.425003,-14.043751,-0.5605986,-0.33238193,-0.39772245,1002.15405,37.88750078,127.74032699,145.6551513671875,0.57
2025-11-24 20:04:22.111,10.375877,-2.6144578,3.205784,-1.4312915,0.61710846,1.9712805,-25.48125,41.850002,-13.275001,-0.5701988,-0.31691143,-0.3943947,1002.15405, , , , 
2025-11-24 20:04:22.131,10.220344,-2.12363,3.2105699,-1.2352095,0.5028036,1.8875943,-23.1,43.21875,-12.431251,-0.58488816,-0.2922404,-0.38915718,1002.1572, , , , 
2025-11-24 20:04:22.151,9.808479,-1.4581263,3.071487,-1.125257,0.38002336,1.8039083,-20.8875,44.5125,-11.606251,-0.5954198,-0.27452356,-0.38403827,1002.1572, , , , 
2025-11-24 20:04:22.171,9.6122675,-1.1467602,3.1866415,-1.0415709,0.31405184,1.7220547,-18.84375,45.84375,-10.668751,-0.60275215,-0.2622832,-0.37996054,1002.1577, , , , 
2025-11-24 20:04:22.191,9.9140625,-0.79950184,3.4259238,-0.81005985,0.16317257,1.609048,-17.175001,46.893753,-9.75,-0.6136873,-0.24384582,-0.37285665,1002.1577, , , , 
2025-11-24 20:04:22.211,9.942777,-0.34247273,3.1196425,-0.5290701,0.028786177,1.5290271,-15.375001,47.756252,-8.887501,-0.61898065,-0.2345963,-0.36806217,1002.1714, , , , 
2025-11-24 20:04:22.232,10.443175,0.25603202,2.5259235,-0.30916506,-0.15019207,1.3457729,-13.668751,48.24375,-8.475,-0.6258692,-0.22291084,-0.35882962,1002.1714, , , , 
2025-11-24 20:04:22.251,10.93849,0.5602196,2.2743778,-0.23891763,-0.16240901,1.077,-12.281251,48.693752,-8.175,-0.6300697,-0.21678522,-0.35184154,1002.1748, , , , 
2025-11-24 20:04:22.271,11.369496,0.5386842,2.0925233,-0.22120306,-0.0988809,0.7904363,-10.762501,49.331253,-7.8562503,-0.63316274,-0.21253692,-0.34673026,1002.1748, , , , 
2025-11-24 20:04:22.291,11.676077,0.10049855,2.178665,-0.2242573,-0.017638214,0.51005745,-9.58125,49.631252,-7.55625,-0.63534975,-0.20969844,-0.343996,1002.176, , , , 
2025-11-24 20:04:22.311,12.703197,-0.66071814,2.5570302,-0.1246892,-0.0988809,0.27732465,-9.0,50.062504,-7.05,-0.6367635,-0.20825991,-0.3431082,1002.176, , , , 
2025-11-24 20:04:22.331,13.976776,-1.3716856,3.016452,0.03657448,-0.30595812,0.007330167,-8.34375,50.325,-6.7125,-0.6373031,-0.20978396,-0.34276998,1002.1792, , , , 
2025-11-24 20:04:22.351,14.65903,-1.2113664,3.856931,0.19539477,-0.40308285,-0.32497075,-8.118751,50.04375,-6.7125,-0.6365557,-0.21495603,-0.3430445,1002.1792, , , , 
2025-11-24 20:04:22.371,15.202499,-1.8146569,4.4817567,0.32978117,-0.3597127,-0.855797,-8.175,50.062504,-6.7312503,-0.633802,-0.22345139,-0.3453895,1002.178, , , , 
2025-11-24 20:04:22.391,15.214463,-3.0188448,4.4339004,0.41896486,-0.15385716,-1.199704,-8.15625,49.912502,-6.8437505,-0.62877333,-0.2345388,-0.35104084,1002.178, , , , 
2025-11-24 20:04:22.411,13.986347,-3.114857,3.3373895,0.54663193,0.35436776,-1.251626,-8.94375,49.575,-7.14375,-0.6210496,-0.24464442,-0.35965848,1002.1792, , , , 
2025-11-24 20:04:22.431,12.9018,-2.7699914,2.9422746,0.674299,0.43499961,-1.3750172,-9.712501,49.687504,-7.2375,-0.61149234,-0.25278586,-0.37043768,1002.1792, , , , 
2025-11-24 20:04:22.451,12.674482,-2.975774,3.0379875,0.9730033,0.027564483,-1.6224103,-10.856251,49.350002,-7.6312504,-0.6010895,-0.26371604,-0.38104948,1002.1809, , , , 
2025-11-24 20:04:22.471,12.6167555,-3.5551362,2.7364917,1.3243169,-0.42751673,-1.8924812,-12.468751,48.91875,-8.15625,-0.5893576,-0.2801803,-0.38952804,1002.1809, , , , 
2025-11-24 20:04:22.491,12.609577,-4.5008993,2.5618157,1.431826,-0.7634827,-2.1264358,-13.575001,48.187504,-8.625,-0.57666093,-0.301631,-0.39584598,1002.1821, , , , 
2025-11-24 20:04:22.511,12.791731,-5.573482,3.0212376,1.4086138,-0.9253572,-2.285256,-15.39375,47.568752,-9.69375,-0.56382686,-0.32554805,-0.40116534,1002.1821, , , , 
2025-11-24 20:04:22.531,13.167404,-6.0403814,3.2584262,1.455649,-0.9711708,-2.340843,-17.4375,46.893753,-11.08125,-0.5506351,-0.35000995,-0.40611532,1002.1819, , , , 
2025-11-24 20:04:22.551,13.785351,-6.1528444,2.0183458,1.3744063,-0.9687274,-2.4746187,-19.59375,45.693752,-12.168751,-0.5366082,-0.37505835,-0.41072485,1002.1819, , , , 
2025-11-24 20:04:22.571,13.440485,-5.8414783,1.3860425,0.96933824,-0.82517827,-2.621222,-22.050001,44.71875,-13.312501,-0.52279055,-0.39949322,-0.4164469,1002.17993, , , , 
2025-11-24 20:04:22.591,12.568899,-5.523233,1.556232,0.20394664,-0.402472,-2.820358,-24.6375,43.36875,-13.931251,-0.51015997,-0.42064205,-0.42612717,1002.17993, , , , 
2025-11-24 20:04:22.611,11.752647,-5.5447683,2.3700907,-0.26335153,0.062382776,-2.9431384,-26.643751,41.98125,-14.025001,-0.49849567,-0.43656108,-0.44147912,1002.17993, , , , 
2025-11-24 20:04:22.631,10.797313,-5.602196,3.167499,-0.32077116,0.4258369,-3.0152185,-28.9125,40.48125,-14.55,-0.4862801,-0.44798127,-0.46108198,1002.17993, , , , 
2025-11-24 20:04:22.652,10.086346,-5.6668024,3.1794631,-0.18943901,0.5999284,-2.9779568,-30.112501,39.506252,-14.625001,-0.47592586,-0.4549266,-0.47676826,1002.1797, , , , 
2025-11-24 20:04:22.671,9.142975,-5.5016975,2.8992038,0.11781716,0.68613416,-2.8789995,-33.1875,36.862503,-14.75625,-0.45637235,-0.46545628,-0.501675,1002.1797, , , , 
2025-11-24 20:04:22.691,8.436793,-5.5184474,2.3102703,0.38597912,0.5706077,-2.7232335,-35.30625,34.78125,-14.887501,-0.43945208,-0.4745654,-0.51883876,1002.1765, , , , 
2025-11-24 20:04:22.711,7.998608,-5.4849477,1.9175483,0.5411343,0.49913856,-2.588847,-36.862503,32.90625,-14.94375,-0.42242816,-0.4843608,-0.5332313,1002.1765, , , , 
2025-11-24 20:04:22.731,6.899704,-5.5950174,1.3764713,0.59183466,0.54311955,-2.464845,-38.41875,30.750002,-15.262501,-0.40515924,-0.49418676,-0.54581064,1002.1726, , , , 
2025-11-24 20:04:22.751,5.494519,-5.640481,0.8330014,0.5716767,0.585268,-2.2089,-39.581253,28.725,-16.050001,-0.3882204,-0.5028728,-0.55710155,1002.1726, , , , 
2025-11-24 20:04:22.771,4.165605,-5.4634123,0.37597227,0.5698441,0.5406762,-1.8485001,-40.575,26.643751,-16.7625,-0.37273398,-0.5099979,-0.56661254,1002.1697, , , , 
2025-11-24 20:04:22.791,3.6990047,-5.2022953,-0.09810573,0.54785365,0.3690281,-1.4599249,-41.5875,24.487501,-17.643751,-0.35961318,-0.516154,-0.5735555,1002.1697, , , , 
2025-11-24 20:04:22.811,3.9574296,-5.077869,-0.3376871,0.48860145,0.24258272,-1.079978,-42.412502,22.575,-18.300001,-0.3494967,-0.5215946,-0.5779172,1002.1638, , , , 
2025-11-24 20:04:22.831,4.551149,-5.250152,-0.6008976,0.35299337,0.17538951,-0.72568655,-43.275,20.75625,-19.050001,-0.34223145,-0.5257546,-0.58031064,1002.1638, , , , 
2025-11-24 20:04:22.851,5.2070813,-5.6524453,-0.89072824,0.11354123,0.10941801,-0.3310792,-43.93125,19.612501,-19.743752,-0.33748448,-0.52837133,-0.5814847,1002.1638, , , , 
2025-11-24 20:04:22.871,5.748158,-6.035596,-0.8428718,-0.100866154,0.058717694,-0.019547112,-44.25,18.73125,-19.931252,-0.33725005,-0.52825767,-0.5814731,1002.1638, , , , 
2025-11-24 20:04:22.891,6.444769,-6.641279,-0.4118646,-0.32749048,-0.03657448,0.38727716,-44.381252,18.018751,-20.025002,-0.34132567,-0.5253135,-0.58032215,1002.1655, , , , 
2025-11-24 20:04:22.911,6.8446693,-6.782456,-0.10289137,-0.38246673,-0.023135839,0.80754006,-44.4375,17.85,-19.706251,-0.34625784,-0.5218945,-0.57869637,1002.1655, , , , 
2025-11-24 20:04:22.931,7.8981094,-7.6013994,-0.49322057,-0.393462,-0.14591613,1.2113864,-44.175003,17.8125,-19.85625,-0.35755795,-0.5143048,-0.5732238,1002.16187, , , , 
2025-11-24 20:04:22.951,8.851051,-8.372188,-0.67028946,-0.52723753,-0.31023404,1.6536399,-43.875,18.54375,-19.706251,-0.370438,-0.5070213,-0.565657,1002.16187, , , , 
2025-11-24 20:04:22.971,9.083155,-8.063214,0.06699903,-0.6555155,-0.3639886,2.1264358,-43.725002,19.85625,-19.706251,-0.38694638,-0.49748906,-0.5557626,1002.1614, , , , 
2025-11-24 20:04:22.991,8.874979,-6.8662047,0.88354975,-0.6170321,-0.3212293,2.5668566,-43.0875,21.431252,-19.35,-0.40561607,-0.48541096,-0.5436767,1002.1614, , , , 
2025-11-24 20:04:23.011,9.562018,-6.2605214,0.933799,-0.4478274,-0.37742725,2.7953134,-42.487503,23.306252,-18.35625,-0.42460024,-0.4722817,-0.529172,1002.166, , , , 
2025-11-24 20:04:23.031,10.81167,-6.478567,0.67028946,-0.2835095,-0.5716767,2.953523,-41.7,25.237501,-17.831251,-0.443632,-0.45977542,-0.51196975,1002.166, , , , 
2025-11-24 20:04:23.051,11.589935,-6.6101727,0.50039905,-0.22975492,-0.7066739,3.0182726,-40.275,27.16875,-17.175001,-0.4628024,-0.4480775,-0.49229243,1002.1721, , , , 
2025-11-24 20:04:23.071,12.446865,-6.4423757,0.57457656,-0.35131353,-0.7921925,3.0445392,-38.850002,29.118752,-16.706251,-0.48226365,-0.4365732,-0.4712253,1002.1721, , , , 
2025-11-24 20:04:23.091,12.892229,-5.992525,0.8811569,-0.6310816,-0.6895702,2.9993365,-37.66875,31.1625,-16.3125,-0.50193906,-0.42397177,-0.45060816,1002.17554,37.88751629,127.74031159,145.658935546875,1.64
2025-11-24 20:04:23.111,12.825231,-5.453841,1.5370895,-0.9804862,-0.39941776,2.8820536,-36.037502,33.375,-15.76875,-0.5213819,-0.40898567,-0.43257788,1002.17554, , , , 
2025-11-24 20:04:23.131,12.4014015,-4.9319067,1.9992033,-1.2883532,0.03061872,2.7934809,-34.3875,35.550003,-14.981251,-0.54006594,-0.3906162,-0.4182665,1002.17993, , , , 
2025-11-24 20:04:23.151,12.253047,-4.3740797,2.2265215,-1.5174209,0.49241924,2.6890259,-32.550003,37.4625,-14.1,-0.5575295,-0.36864254,-0.40775794,1002.17993, , , , 
2025-11-24 20:04:23.171,12.085549,-3.8377883,2.4323041,-1.6427209,0.7264501,2.5418117,-29.925001,39.46875,-12.975,-0.5736573,-0.3442304,-0.40037513,1002.1782, , , , 
2025-11-24 20:04:23.191,11.745469,-3.141178,2.7843482,-1.6390558,0.70262706,2.321296,-27.69375,41.1375,-11.7375,-0.5886478,-0.3193717,-0.3951752,1002.1782, , , , 
2025-11-24 20:04:23.211,11.292927,-2.4849463,2.8345976,-1.5559043,0.5620558,2.0635183,-25.462502,42.9,-10.743751,-0.60241544,-0.29630983,-0.39087984,1002.17847, , , , 
2025-11-24 20:04:23.231,10.840384,-2.219343,2.9015965,-1.4832135,0.42766944,1.8277314,-23.04375,44.662502,-9.7875,-0.61502415,-0.27591583,-0.38692674,1002.17847, , , , 
2025-11-24 20:04:23.251,10.414461,-1.9271195,2.7269206,-1.4819918,0.48631078,1.6829605,-21.0,45.91875,-8.90625,-0.6265178,-0.25739303,-0.38336524,1002.1875, , , , 
2025-11-24 20:04:23.271,10.162916,-1.3764713,2.827419,-1.5656779,0.6500942,1.5632344,-18.825,47.006252,-7.6687503,-0.63708943,-0.23888044,-0.38108099,1002.1875, , , , 
2025-11-24 20:04:23.291,10.158131,-0.84017986,2.9303105,-1.5357463,0.66719794,1.3836454,-16.7625,47.850002,-6.0937505,-0.64688456,-0.22018495,-0.3806296,1002.18994, , , , 
2025-11-24 20:04:23.311,10.007382,-0.60807604,2.6216364,-1.4190745,0.53212434,1.2022238,-14.681251,48.581253,-4.4625,-0.6557717,-0.20304136,-0.38104588,1002.18994, , , , 
2025-11-24 20:04:23.331,9.703195,-0.27517462,2.5881367,-1.2260468,0.31588438,1.0751675,-13.125001,49.237503,-2.9250002,-0.663979,-0.18839012,-0.38106045,1002.1865, , , , 
2025-11-24 20:04:23.351,9.703195,-0.16510476,2.6766713,-1.0702808,0.18821731,1.0201913,-12.431251,49.29375,-2.34375,-0.6695167,-0.17916743,-0.38033113,1002.1865, , , , 
2025-11-24 20:04:23.371,10.17488,-0.08135597,3.3469608,-0.6286382,-0.08971819,0.8722899,-10.5375,49.631252,-0.58125,-0.6770996,-0.16740736,-0.377648,1002.19336, , , , 
2025-11-24 20:04:23.391,10.996217,-0.49322057,3.8736808,-0.23830679,-0.322451,0.7653916,-9.731251,49.631252,0.075,-0.68120974,-0.16166303,-0.37421256,1002.19336, , , , 
2025-11-24 20:04:23.411,12.542578,-0.83778703,4.3094735,0.21494187,-0.61810106,0.62245333,-8.681251,49.687504,0.82500005,-0.6834638,-0.15972658,-0.36922976,1002.1907, , , , 
2025-11-24 20:04:23.431,14.529818,-1.3645071,4.3812585,0.57900685,-0.8282325,0.31764057,-7.6875005,50.11875,1.25625,-0.6836034,-0.16272296,-0.36301732,1002.1907, , , , 
2025-11-24 20:04:23.451,15.580865,-1.230509,4.479364,0.6736882,-0.7207234,-0.15943113,-7.2187505,50.2125,1.10625,-0.6816564,-0.17056677,-0.35766008,1002.18555, , , , 
2025-11-24 20:04:23.471,14.560924,-1.326222,4.369294,0.48249298,-0.05673244,-0.7653916,-6.9187503,50.737503,1.1812501,-0.6761732,-0.18332121,-0.35790473,1002.18555, , , , 
2025-11-24 20:04:23.491,13.074084,-3.3206396,3.6245282,0.3560476,0.561445,-1.0848647,-7.0875,50.718754,0.58125,-0.66949123,-0.19147046,-0.36602554,1002.1814, , , , 
2025-11-24 20:04:23.511,12.528221,-4.3262234,2.841776,0.50814855,0.72461754,-1.0463814,-8.00625,50.5125,0.3375,-0.66349274,-0.1956631,-0.37464434,1002.1814, , , , 
2025-11-24 20:04:23.531,12.461222,-4.1105704,2.015953,0.8227349,0.37391487,-0.94436985,-8.587501,50.362503,-0.3375,-0.65266466,-0.20249738,-0.38719904,1002.1819, , , , 
2025-11-24 20:04:23.551,12.983156,-3.6412778,2.6048865,1.1471711,-0.17218257,-1.072037,-9.4125,50.062504,-1.2375001,-0.6440561,-0.21224904,-0.39348575,1002.1819, , , , 
2025-11-24 20:04:23.571,13.282558,-4.108177,2.7436702,1.4855806,-0.59427804,-1.3420315,-10.3125,49.987503,-1.9125,-0.63439304,-0.2279292,-0.39706308,1002.1758, , , , 
2025-11-24 20:04:23.591,13.761422,-5.2142596,2.600101,1.6334056,-0.8007444,-1.5912571,-11.26875,49.875004,-3.075,-0.62356925,-0.24826077,-0.399145,1002.1758, , , , 
2025-11-24 20:04:23.611,13.710874,-6.3777695,2.219343,1.6670022,-0.9455152,-1.7794744,-12.525001,49.800003,-4.18125,-0.61199456,-0.27106664,-0.40074766,1002.17334, , , , 
2025-11-24 20:04:23.631,13.533805,-6.8279195,2.248057,1.6395141,-1.1251043,-1.9553984,-14.025001,49.29375,-5.11875,-0.6004474,-0.2955907,-0.40179563,1002.17334, , , , 
2025-11-24 20:04:23.651,13.179368,-6.7202425,1.7620147,1.4434321,-1.0915077,-2.2034025,-15.750001,48.43125,-6.3562503,-0.5886388,-0.32150033,-0.40315166,1002.17334, , , , 
2025-11-24 20:04:23.671,12.597613,-6.8111696,1.8361923,1.010265,-0.7555417,-2.409258,-17.362501,47.362503,-7.5750003,-0.57671976,-0.34623536,-0.40731838,1002.17334, , , , 
2025-11-24 20:04:23.691,11.989537,-6.641279,2.341377,0.6718556,-0.27297238,-2.5039392,-19.650002,46.237503,-8.45625,-0.5646061,-0.36694264,-0.41586444,1002.16797, , , , 
2025-11-24 20:04:23.711,11.123036,-6.1504517,2.774777,0.5765635,0.05688515,-2.596177,-21.88125,44.7,-9.1875,-0.5515276,-0.38387537,-0.42818955,1002.16797, , , , 
2025-11-24 20:04:23.731,10.474282,-5.6907306,2.5208387,0.6871268,0.08498412,-2.7507215,-24.225,43.65,-10.1625,-0.5370815,-0.3998478,-0.44207945,1002.16724, , , , 
2025-11-24 20:04:23.751,9.545269,-5.791229,1.7093726,0.69567865,0.082540736,-2.880832,-26.5125,42.1875,-10.5,-0.52138025,-0.41675308,-0.4559762,1002.16724, , , , 
2025-11-24 20:04:23.771,8.695218,-5.985347,1.3405789,0.6315397,0.08498412,-2.9187045,-28.5375,40.800003,-11.26875,-0.5051856,-0.43360978,-0.46993685,1002.1741, , , , 
2025-11-24 20:04:23.791,7.893324,-6.143273,1.2759727,0.58633703,0.08192989,-2.8631175,-30.393751,39.393753,-12.1125,-0.48918256,-0.4495958,-0.4835987,1002.1741, , , , 
2025-11-24 20:04:23.811,7.2062845,-6.241379,1.1826526,0.5930563,0.085594974,-2.7183466,-32.49375,37.537502,-11.981251,-0.47347167,-0.4645728,-0.49635565,1002.16895, , , , 
2025-11-24 20:04:23.831,6.6652074,-6.195915,0.87158567,0.61504686,0.09353599,-2.5302057,-34.65,35.831253,-12.637501,-0.45814463,-0.4784364,-0.5078609,1002.16895, , , , 
2025-11-24 20:04:23.851,5.9374905,-6.2030935,-0.09810573,0.5307499,0.11125056,-2.2986946,-36.787502,33.45,-12.937501,-0.44355434,-0.49103475,-0.5178336,1002.1633, , , , 
2025-11-24 20:04:23.871,5.4586267,-5.8343,-0.474078,0.338333,0.07765396,-2.048247,-38.643753,31.368752,-13.462501,-0.43069294,-0.5018488,-0.5266319,1002.1633, , , , 
2025-11-24 20:04:23.891,5.0682974,-5.6787663,-0.29940194,0.13614258,0.114304796,-1.857052,-39.91875,29.250002,-14.1,-0.4199439,-0.51044816,-0.5349987,1002.1665, , , , 
2025-11-24 20:04:23.911,4.4195433,-6.066703,0.08853444,0.03840702,0.14057122,-1.5087928,-41.100002,27.50625,-14.325001,-0.41113064,-0.5165372,-0.54312813,1002.1665, , , , 
2025-11-24 20:04:23.931,4.0938206,-6.241379,0.40468612,0.15813309,0.023288552,-1.0897515,-41.925003,26.1,-14.343751,-0.40452355,-0.52093977,-0.54930305,1002.1621, , , , 
2025-11-24 20:04:23.951,4.438686,-6.4495544,0.14356937,0.33222455,-0.16912833,-0.6737645,-42.7125,24.562502,-14.531251,-0.40025455,-0.52521217,-0.5518566,1002.1621, , , , 
2025-11-24 20:04:23.971,5.0491548,-6.8709903,-0.49322057,0.32550523,-0.29190862,-0.27732465,-43.537502,23.41875,-14.681251,-0.3983556,-0.52940327,-0.5508658,1002.15796, , , , 
2025-11-24 20:04:23.991,5.5543394,-7.048358,-0.43818563,0.19478393,-0.31389913,0.13621894,-43.875,22.29375,-14.85,-0.39939538,-0.53218937,-0.5475583,1002.15796, , , , 
2025-11-24 20:04:24.011,5.616553,-7.065108,-0.08135597,0.10560022,-0.24059746,0.56075776,-44.1375,21.712502,-14.85,-0.4031066,-0.53238887,-0.5429885,1002.15234, , , , 
2025-11-24 20:04:24.031,5.7074804,-6.890133,-0.2656033,0.17645851,-0.24792764,1.0244672,-44.475002,21.6375,-14.512501,-0.40909395,-0.5301984,-0.53665185,1002.15234, , , , 
2025-11-24 20:04:24.051,7.428817,-8.079964,-0.9290134,0.19600561,-0.53563666,1.425183,-44.4,22.125,-14.137501,-0.41761774,-0.527299,-0.5270073,1002.1655, , , , 
2025-11-24 20:04:24.071,9.655338,-8.920443,-0.8210373,0.086663954,-0.7402705,1.8271205,-44.15625,22.96875,-13.687501,-0.4299802,-0.523963,-0.5137441,1002.1655, , , , 
2025-11-24 20:04:24.091,10.744671,-8.393723,-0.13878371,-0.04344651,-0.5417452,2.1716383,-43.631252,23.94375,-13.368751,-0.44496518,-0.51826155,-0.49868813,1002.16797,37.88753273,127.74030202,146.5086669921875,1.71
2025-11-24 20:04:24.111,10.186844,-6.7872415,0.20578274,-0.24136102,0.011071607,2.4697318,-42.956253,25.125002,-12.918751,-0.46363652,-0.5050976,-0.4808344,1002.16797, , , , 
2025-11-24 20:04:24.131,10.172487,-6.502496,0.18664017,-0.3238254,0.20715357,2.5699108,-42.16875,26.531252,-12.937501,-0.4743266,-0.49422526,-0.4712754,1002.1765, , , , 
2025-11-24 20:04:24.151,10.79492,-6.7465634,0.062213387,-0.25357798,0.1698919,2.6951344,-41.006252,27.993752,-12.525001,-0.49212858,-0.47433028,-0.4550679,1002.1765, , , , 
2025-11-24 20:04:24.171,11.489138,-6.8398833,-0.148355,-0.14057122,-0.02069245,2.7598844,-39.825,29.775002,-12.356251,-0.50292695,-0.46263516,-0.4439464,1002.1765, , , , 
2025-11-24 20:04:24.191,12.44208,-6.658029,-0.39032918,-0.16928105,-0.2644205,2.8417377,-38.04375,32.04375,-12.281251,-0.51759696,-0.44808018,-0.42707756,1002.1765, , , , 
2025-11-24 20:04:24.211,12.825231,-6.102595,-0.033499517,-0.39407283,-0.30534726,2.8466246,-36.075,33.91875,-11.793751,-0.5370157,-0.43022037,-0.40446374,1002.17285, , , , 
2025-11-24 20:04:24.231,12.592828,-5.449055,0.74207413,-0.6561263,-0.13675343,2.753165,-34.050003,36.15,-11.7375,-0.5527942,-0.41457444,-0.38802248,1002.17285, , , , 
2025-11-24 20:04:24.251,12.003894,-4.9103713,1.3094722,-0.86442524,0.10392039,2.664592,-32.25,38.268753,-11.3625,-0.56808877,-0.39696229,-0.3742675,1002.1765, , , , 
2025-11-24 20:04:24.271,11.271391,-4.362116,1.7691933,-0.99025977,0.27679017,2.5754085,-30.056252,39.956253,-10.950001,-0.5827481,-0.3775884,-0.36297292,1002.1765, , , , 
2025-11-24 20:04:24.291,10.895419,-3.7923248,2.015953,-0.97743195,0.37513658,2.4862247,-28.050001,41.68125,-10.6875,-0.59646857,-0.35738724,-0.3532287,1002.1748, , , , 
2025-11-24 20:04:24.311,10.49821,-3.1220353,1.9992033,-0.92795336,0.39773792,2.3506167,-25.987501,43.0875,-10.087501,-0.608864,-0.33741757,-0.34440932,1002.1748, , , , 
2025-11-24 20:04:24.331,10.194023,-2.6814568,1.7548363,-0.8961893,0.37880164,2.1966832,-23.362501,44.381252,-9.525001,-0.62008965,-0.31848368,-0.3362299,1002.1714, , , , 
2025-11-24 20:04:24.351,10.016953,-2.193022,1.4365909,-0.90718454,0.40690064,2.076957,-21.487501,45.581253,-8.962501,-0.63041925,-0.3004453,-0.32870275,1002.1714, , , , 
2025-11-24 20:04:24.371,9.77498,-1.6471593,1.2855439,-1.0104177,0.5009711,1.9413489,-19.35,46.48125,-8.118751,-0.6401612,-0.2826923,-0.32221973,1002.1731, , , , 
2025-11-24 20:04:24.391,9.7247305,-1.2831511,1.5586249,-1.0660049,0.5180748,1.8161253,-17.2875,47.325,-7.3875003,-0.64963895,-0.26495832,-0.31722018,1002.1731, , , , 
2025-11-24 20:04:24.411,9.949955,-1.0725827,1.7285153,-0.95788485,0.42400435,1.7055619,-15.562501,48.075,-6.5625005,-0.6585954,-0.2478771,-0.31298044,1002.1841, , , , 
2025-11-24 20:04:24.431,10.560424,-0.8234301,1.7955143,-0.76241374,0.2578539,1.5607911,-13.70625,48.581253,-5.71875,-0.66641146,-0.2326767,-0.30853158,1002.1841, , , , 
2025-11-24 20:04:24.451,11.094322,-0.5099703,1.8601205,-0.60115004,0.08803836,1.3860887,-11.681251,49.36875,-4.9125004,-0.6729445,-0.22038636,-0.30357727,1002.18726, , , , 
2025-11-24 20:04:24.471,11.726327,-0.069391854,1.9920249,-0.43683216,-0.013362284,1.0953255,-9.900001,49.912502,-4.275,-0.6781147,-0.21131413,-0.29868162,1002.18726, , , , 
2025-11-24 20:04:24.491,12.420544,-0.040677983,2.12363,-0.35314608,0.0104607595,0.7776086,-7.9687505,50.381252,-3.7875001,-0.68185097,-0.20502791,-0.29507223,1002.1865, , , , 
2025-11-24 20:04:24.511,13.263416,-0.37357944,2.1762722,-0.26151899,0.04833329,0.42759308,-6.7312503,50.41875,-3.2625,-0.6841538,-0.20111892,-0.29370785,1002.1865, , , , 
2025-11-24 20:04:24.531,14.050954,-1.1180464,2.3557339,-0.1790546,0.042835664,0.0555871,-5.5125003,50.643753,-2.98125,-0.6850816,-0.19981429,-0.29471537,1002.187, , , , 
2025-11-24 20:04:24.551,14.661423,-1.6710875,2.9805596,-0.051998373,0.036116343,-0.30664533,-4.9875,50.831253,-2.60625,-0.6846846,-0.2013199,-0.29784587,1002.187, , , , 
2025-11-24 20:04:24.571,14.472389,-1.4724833,3.2656047,0.08483142,0.21631628,-0.6969767,-4.9875,50.943752,-2.30625,-0.6823075,-0.20546632,-0.30329642,1002.19214, , , , 
2025-11-24 20:04:24.591,13.741981,-1.8050855,3.0475588,0.11415208,0.53273517,-1.171605,-4.78125,51.3375,-1.9687501,-0.67751265,-0.21140447,-0.3126538,1002.19214, , , , 
2025-11-24 20:04:24.611,13.545769,-3.4666018,2.4394827,0.15752223,0.80830365,-1.4764178,-5.53125,51.131252,-2.0062501,-0.6707958,-0.21815974,-0.32644033,1002.18994, , , , 
2025-11-24 20:04:24.632,12.940085,-3.5431721,1.4365909,0.41224554,0.9811734,-1.4574815,-6.2812505,51.018753,-2.1000001,-0.66215014,-0.2241582,-0.34230617,1002.18994, , , , 
2025-11-24 20:04:24.651,13.088441,-3.5216367,0.18664017,0.7146149,0.76859856,-1.6346272,-7.0125003,50.831253,-2.04375,-0.6515771,-0.23069432,-0.35793087,1002.1853, , , , 
2025-11-24 20:04:24.671,14.196916,-4.3334017,-0.58654064,0.79036,0.27862272,-1.9627286,-8.493751,50.531254,-2.5500002,-0.6406681,-0.24185109,-0.3721537,1002.1853, , , , 
2025-11-24 20:04:24.691,14.699708,-5.195117,-0.8979067,0.65291935,0.027564483,-2.2620437,-9.993751,50.456253,-3.2812502,-0.6302835,-0.25780848,-0.3849368,1002.18555, , , , 
2025-11-24 20:04:24.711,14.939289,-6.444769,-0.014356935,0.2992388,-0.03657448,-2.588236,-11.587501,49.968754,-3.91875,-0.6207112,-0.27594888,-0.39834538,1002.18555, , , , 
2025-11-24 20:04:24.731,14.62553,-7.5149584,1.2903296,-0.007406523,0.09475768,-2.7696579,-13.668751,49.256252,-4.6312504,-0.6119799,-0.29392296,-0.4138814,1002.1821, , , , 
2025-11-24 20:04:24.751,13.514663,-8.159226,2.6144578,-0.037338037,0.3067217,-2.788594,-15.843751,48.43125,-5.1937504,-0.602891,-0.3096403,-0.43158066,1002.1821, , , , 
2025-11-24 20:04:24.771,12.119048,-8.221439,3.3661032,0.19417307,0.40934402,-2.6700897,-18.150002,47.475002,-5.2875004,-0.59243304,-0.32343984,-0.44974038,1002.176, , , , 
2025-11-24 20:04:24.791,11.225927,-7.43121,3.4570305,0.6431458,0.3690281,-2.4672885,-20.475,46.36875,-5.3250003,-0.57698876,-0.33999515,-0.46979985,1002.176, , , , 
2025-11-24 20:04:24.811,10.933704,-6.372984,2.7628129,0.9491803,0.2993915,-2.4000952,-22.706251,45.375,-6.01875,-0.5626795,-0.35461935,-0.48274425,1002.1709, , , , 
2025-11-24 20:04:24.831,10.402497,-5.6668024,2.2671995,0.9791118,0.3342098,-2.4440763,-24.150002,44.71875,-6.2812505,-0.55102736,-0.36640137,-0.49150127,1002.1709, , , , 
2025-11-24 20:04:24.851,9.229117,-5.1592245,1.867299,0.8893173,0.5260158,-2.564413,-27.6375,42.487503,-7.5000005,-0.5302959,-0.38557473,-0.5070098,1002.1782, , , , 
2025-11-24 20:04:24.871,8.250154,-5.137689,1.6734804,0.85694236,0.6219952,-2.5747976,-30.000002,40.800003,-8.53125,-0.51715857,-0.39614674,-0.51709926,1002.1782, , , , 
2025-11-24 20:04:24.891,7.292426,-5.2812586,1.5059828,0.87160265,0.58954394,-2.4825597,-32.381252,38.8875,-9.337501,-0.49515754,-0.41265702,-0.53345007,1002.17993, , , , 
2025-11-24 20:04:24.911,6.748956,-5.1640105,1.4318053,0.9235247,0.5009711,-2.345119,-33.9375,37.3875,-10.275001,-0.47802415,-0.42539814,-0.54492074,1002.17993, , , , 
2025-11-24 20:04:24.931,6.4064837,-5.061119,1.326222,0.95101285,0.4478274,-2.1667516,-35.8125,35.456253,-11.306251,-0.46151575,-0.43773147,-0.5546243,1002.1704, , , , 
2025-11-24 20:04:24.951,6.4064837,-4.888836,1.3764713,0.98216605,0.4105657,-1.98533,-37.36875,33.46875,-12.431251,-0.44570717,-0.44934,-0.5627432,1002.1704, , , , 
2025-11-24 20:04:24.972,6.253343,-4.848158,0.8234301,0.9558996,0.44477317,-1.7953564,-38.79375,31.518751,-13.51875,-0.4304064,-0.46012595,-0.56952685,1002.16675, , , , 
2025-11-24 20:04:24.991,5.9494543,-4.872086,0.4118646,0.8471688,0.4710396,-1.6505092,-40.050003,29.6625,-14.19375,-0.41586125,-0.46955764,-0.5755358,1002.16675, , , , 
2025-11-24 20:04:25.011,5.7673006,-5.0826545,0.43579283,0.7011763,0.46248773,-1.4336585,-40.518753,28.125002,-14.775001,-0.40282086,-0.47720096,-0.58102953,1002.15845, , , , 
2025-11-24 20:04:25.031,6.0427747,-5.2166524,0.45732823,0.67613155,0.41117656,-1.1819894,-41.4,26.60625,-15.637501,-0.39163268,-0.4833069,-0.5855019,1002.15845, , , , 
2025-11-24 20:04:25.051,6.1360946,-5.441877,-0.15553348,0.6468109,0.33176643,-0.9217685,-41.90625,25.143751,-16.2,-0.3821392,-0.48860615,-0.5883129,1002.1604, , , , 
2025-11-24 20:04:25.071,6.2030935,-5.81755,-0.62482584,0.4947099,0.16867019,-0.6536066,-42.46875,23.8875,-16.837502,-0.37506643,-0.4931289,-0.5894362,1002.1604, , , , 
2025-11-24 20:04:25.091,6.2461643,-6.1695943,-0.5386842,0.2876327,0.03061872,-0.3011477,-43.0875,22.462502,-17.15625,-0.37155017,-0.4961775,-0.5891455,1002.1565,37.88754595,127.74029297,146.92138671875,1.52
2025-11-24 20:04:25.111,6.04756,-5.927919,-0.13160525,0.20150323,-0.013973131,0.12644538,-43.10625,21.431252,-17.456251,-0.37141135,-0.49712637,-0.587408,1002.1565, , , , 
2025-11-24 20:04:25.131,5.547161,-5.137689,-0.29940194,0.1868429,0.07459972,0.6090147,-43.3125,21.16875,-17.6625,-0.3734827,-0.4960441,-0.58385885,1002.15796, , , , 
2025-11-24 20:04:25.151,6.3945193,-5.8920264,-0.92662054,0.04512634,0.002519745,0.92115766,-43.3125,20.5125,-18.206251,-0.37718168,-0.49322817,-0.57860726,1002.15796, , , , 
2025-11-24 20:04:25.171,7.0986075,-6.9499536,-1.1419746,-0.19004986,-0.17279342,1.285299,-43.3125,20.6625,-18.900002,-0.38457322,-0.48881924,-0.5715617,1002.1626, , , , 
2025-11-24 20:04:25.191,8.18794,-7.376175,-0.2105684,-0.3818559,-0.30595812,1.8063517,-43.21875,21.4125,-18.993752,-0.3965143,-0.4817629,-0.5625525,1002.1626, , , , 
2025-11-24 20:04:25.211,8.831908,-7.062715,0.5913263,-0.3262688,-0.4207974,2.2205062,-42.825,22.10625,-19.10625,-0.41154575,-0.47283816,-0.5510791,1002.167, , , , 
2025-11-24 20:04:25.231,9.4686985,-6.8518476,0.689432,-0.27373594,-0.43057096,2.5430336,-42.037502,23.868752,-18.4125,-0.42792585,-0.46274605,-0.5368035,1002.167, , , , 
2025-11-24 20:04:25.251,10.20838,-7.038787,0.7109674,-0.27312508,-0.4947099,2.7733228,-41.175003,25.781252,-17.475,-0.44507313,-0.45156446,-0.52034193,1002.1614, , , , 
2025-11-24 20:04:25.271,10.90499,-7.3570323,0.72053874,-0.26884916,-0.58022857,2.9926171,-39.862503,27.768751,-17.0625,-0.46316284,-0.43955287,-0.50184727,1002.1614, , , , 
2025-11-24 20:04:25.291,11.843575,-7.285248,0.9720842,-0.22181392,-0.6455892,3.1752603,-38.71875,29.79375,-16.3875,-0.48190793,-0.4266745,-0.48131856,1002.1692, , , , 
2025-11-24 20:04:25.311,12.418151,-6.727421,1.4174483,-0.18638477,-0.686516,3.2424536,-37.256252,31.781252,-16.0125,-0.5004693,-0.41339582,-0.4591501,1002.1692, , , , 
2025-11-24 20:04:25.331,12.511472,-5.8510494,1.8146569,-0.16134003,-0.6626929,3.1960292,-35.49375,33.862503,-15.69375,-0.5180834,-0.4000135,-0.43636212,1002.17554, , , , 
2025-11-24 20:04:25.351,12.265011,-4.9342995,1.8122641,-0.19615832,-0.5032618,3.0708055,-33.862503,35.90625,-15.075001,-0.53405344,-0.3865259,-0.41411924,1002.17554, , , , 
2025-11-24 20:04:25.371,11.716755,-4.0555353,1.407877,-0.3562003,-0.21310934,2.888773,-31.81875,38.081253,-14.625001,-0.548166,-0.37220302,-0.39389074,1002.1736, , , , 
2025-11-24 20:04:25.391,11.063215,-3.5479577,1.3477573,-0.6634565,0.03000787,2.6658137,-29.250002,39.600002,-14.175,-0.5612166,-0.3563992,-0.37692308,1002.1736, , , , 
2025-11-24 20:04:25.411,10.589137,-3.3732817,1.8649062,-0.87908554,0.13996038,2.4605691,-26.94375,41.4,-13.668751,-0.57423514,-0.33928183,-0.36341807,1002.1738, , , , 
2025-11-24 20:04:25.431,10.36152,-3.3493536,2.1212373,-0.91879064,0.1582858,2.309079,-24.431252,42.75,-13.087501,-0.5869416,-0.32184294,-0.35209787,1002.1738, , , , 
2025-11-24 20:04:25.451,10.148559,-2.990131,2.1954148,-0.91084963,0.1918824,2.224782,-21.65625,44.2125,-12.562501,-0.5988954,-0.30468926,-0.34171888,1002.1792, , , , 
2025-11-24 20:04:25.471,10.074382,-2.4418755,2.1619153,-0.8833615,0.25113457,2.1569781,-19.5375,45.7125,-12.075001,-0.60996187,-0.28769624,-0.3319393,1002.1792, , , , 
2025-11-24 20:04:25.491,10.196416,-1.7835501,2.2815564,-0.84915406,0.35131353,2.0671835,-17.475,46.537502,-11.56875,-0.62000734,-0.2706942,-0.32295084,1002.18115, , , , 
2025-11-24 20:04:25.511,10.692029,-1.3094722,2.3772693,-0.7410341,0.35253522,1.9303536,-15.4875,47.756252,-10.9125,-0.628864,-0.25403875,-0.31501523,1002.18115, , , , 
2025-11-24 20:04:25.531,11.266605,-0.60807604,2.0662024,-0.54311955,0.3250471,1.6597483,-13.387501,48.206253,-10.06875,-0.6374636,-0.23574308,-0.30648026,1002.1819, , , , 
2025-11-24 20:04:25.551,11.6186495,-0.22013968,1.625624,-0.47287214,0.34153998,1.341497,-11.625,48.881252,-9.4125,-0.64239186,-0.22392188,-0.3012171,1002.1819, , , , 
2025-11-24 20:04:25.571,11.795718,-0.17228323,1.6208383,-0.5076904,0.38674268,1.0024004,-9.806251,49.443752,-8.75625,-0.64632976,-0.21426132,-0.2982785,1002.18384, , , , 
2025-11-24 20:04:25.591,12.140584,-0.37836507,1.9920249,-0.47409382,0.40812233,0.68170553,-8.118751,49.781254,-8.418751,-0.6494438,-0.20636274,-0.29786468,1002.18384, , , , 
2025-11-24 20:04:25.611,12.61197,-0.7109674,2.0733807,-0.36108708,0.37452573,0.38849884,-6.8625,50.11875,-8.15625,-0.65094334,-0.20193684,-0.29899478,1002.18555, , , , 
2025-11-24 20:04:25.631,13.215559,-1.5131612,1.8649062,-0.2719034,0.28534204,0.030542362,-5.6625004,50.175003,-7.55625,-0.65187955,-0.19804381,-0.30284965,1002.18555, , , , 
2025-11-24 20:04:25.651,13.847564,-1.9295124,2.489732,-0.20165595,0.16378342,-0.27182704,-4.8562503,50.30625,-7.275,-0.651896,-0.19820632,-0.3073046,1002.1809, , , , 
2025-11-24 20:04:25.671,14.256737,-2.0063818,3.19382,-0.07032379,0.17538951,-0.62245333,-4.89375,50.456253,-6.525,-0.6505124,-0.20117319,-0.31324953,1002.1809, , , , 
2025-11-24 20:04:25.691,14.446069,-3.1316066,3.3684962,-0.0061848285,0.27801186,-1.0738695,-5.1000004,50.362503,-6.1875005,-0.64720565,-0.2067869,-0.32203162,1002.1885, , , , 
2025-11-24 20:04:25.711,14.010276,-4.3908296,3.1603205,0.059175827,0.4221718,-1.2827792,-5.5687504,50.475002,-5.9812503,-0.6425041,-0.21379745,-0.33344442,1002.1885, , , , 
2025-11-24 20:04:25.731,12.609577,-3.9526439,2.8034909,0.3108449,0.6109236,-1.2406307,-6.3375,50.381252,-5.9625,-0.63603914,-0.21978843,-0.34584132,1002.18677, , , , 
2025-11-24 20:04:25.752,12.358331,-3.5431721,2.9614172,0.6987329,0.22486815,-1.4440429,-7.1062503,50.156254,-6.1125,-0.62785196,-0.22687672,-0.35791013,1002.18677, , , , 
2025-11-24 20:04:25.771,12.774981,-4.0627136,2.693421,1.018206,-0.25220355,-1.7562622,-8.38125,50.1375,-6.4500003,-0.6183499,-0.23991781,-0.36797583,1002.1824, , , , 
2025-11-24 20:04:25.791,13.60559,-6.1121664,2.408376,1.063485,-0.6779641,-2.173471,-9.65625,49.687504,-6.9750004,-0.6053011,-0.2646266,-0.37816414,1002.1824, , , , 
2025-11-24 20:04:25.811,13.826028,-7.285248,2.6240292,0.9638406,-0.7915817,-2.3274045,-11.45625,49.2,-7.5937505,-0.59772444,-0.2816148,-0.38392317,1002.18384, , , , 
2025-11-24 20:04:25.831,13.663017,-8.029715,3.0885358,0.89603657,-0.68040746,-2.3255718,-13.44375,48.206253,-8.3625,-0.58767456,-0.3040378,-0.39165905,1002.18384, , , , 
2025-11-24 20:04:25.851,13.208381,-7.5364943,3.275176,0.8856522,-0.51670045,-2.309079,-15.50625,47.456253,-9.0375,-0.57686394,-0.32462132,-0.40000936,1002.1797, , , , 
2025-11-24 20:04:25.871,12.468401,-6.9786673,3.263212,0.8001335,-0.2980171,-2.4110904,-18.075,46.631252,-9.900001,-0.56501323,-0.343793,-0.40954137,1002.1797, , , , 
2025-11-24 20:04:25.891,11.762218,-6.576673,3.2823544,0.75432,-0.10682192,-2.477062,-20.118752,45.787502,-10.6125,-0.5523308,-0.3617159,-0.4205367,1002.1741, , , , 
2025-11-24 20:04:25.911,10.883454,-6.0858455,3.2536407,0.8019661,0.044057358,-2.521654,-22.06875,44.98125,-11.212501,-0.53854525,-0.37826383,-0.43266582,1002.1741, , , , 
2025-11-24 20:04:25.931,10.079167,-5.5112686,3.114857,0.93329823,0.07154548,-2.5986207,-24.075,43.725002,-12.13125,-0.5233584,-0.39439616,-0.4452354,1002.1748, , , , 
2025-11-24 20:04:25.951,9.102298,-5.1592245,2.6742785,1.0065999,0.08498412,-2.6517644,-25.931252,42.43125,-12.843751,-0.5068815,-0.4110958,-0.45742843,1002.1748, , , , 
2025-11-24 20:04:25.971,8.530113,-4.8266225,2.408376,1.0237037,0.13996038,-2.6829176,-28.143751,40.78125,-13.425,-0.48944986,-0.42771035,-0.4693275,1002.17065, , , , 
2025-11-24 20:04:25.991,8.173583,-4.7859445,2.1619153,1.0120976,0.18394138,-2.7018538,-30.468752,38.7,-14.212501,-0.47132352,-0.44383487,-0.4812015,1002.17065, , , , 
2025-11-24 20:04:26.011,7.8550386,-4.898407,1.9486549,1.0084325,0.20654273,-2.6719222,-32.71875,36.54375,-14.775001,-0.45285648,-0.4593121,-0.49282557,1002.1687, , , , 
2025-11-24 20:04:26.031,7.574779,-4.833801,1.611267,0.96261895,0.2566322,-2.596177,-34.800003,33.99375,-15.618751,-0.4343155,-0.47392318,-0.5038676,1002.1687, , , , 
2025-11-24 20:04:26.051,7.2613196,-4.8266225,1.4533406,0.85327727,0.31160846,-2.521043,-36.45,31.687502,-16.575,-0.4160091,-0.4872083,-0.51457226,1002.166, , , , 
2025-11-24 20:04:26.071,6.914061,-4.9462633,1.3238292,0.75432,0.35253522,-2.4117014,-37.912502,29.550001,-17.737501,-0.39829332,-0.4989342,-0.52516425,1002.166, , , , 
2025-11-24 20:04:26.091,6.296414,-4.9438705,1.2783655,0.6987329,0.31038678,-2.2461617,-39.28125,27.375002,-18.46875,-0.3815219,-0.5092982,-0.53516877,1002.16113,37.88755729,127.74028228,147.24267578125,1.45
2025-11-24 20:04:26.111,5.681159,-4.888836,0.98644114,0.68224,0.2230356,-1.9902167,-40.518753,25.331251,-18.900002,-0.36620325,-0.51881665,-0.54378116,1002.16113, , , , 
2025-11-24 20:04:26.131,5.1999025,-4.953442,0.6008976,0.59061295,0.14851224,-1.7122812,-41.475002,23.1375,-19.40625,-0.3494764,-0.52946943,-0.5521735,1002.16675, , , , 
2025-11-24 20:04:26.151,4.8601217,-5.2956157,0.36400816,0.43973368,0.08437328,-1.4171656,-42.112503,21.337502,-19.7625,-0.34134734,-0.5348087,-0.55606246,1002.16675, , , , 
2025-11-24 20:04:26.171,4.6636114,-5.927919,0.29940194,0.2228829,0.004963134,-0.91321665,-42.787502,19.743752,-20.268751,-0.3321827,-0.5410557,-0.5607304,1002.1675, , , , 
2025-11-24 20:04:26.191,4.65404,-6.155237,0.39511484,0.115373775,-0.04756973,-0.40743512,-43.256252,18.13125,-20.5125,-0.3298174,-0.54296523,-0.56200635,1002.1675, , , , 
2025-11-24 20:04:26.211,5.0084767,-5.7266226,0.7492526,0.10498937,-0.15507884,0.26144263,-43.706253,17.493752,-20.60625,-0.3310103,-0.5436464,-0.5605146,1002.1599, , , , 
2025-11-24 20:04:26.231,5.499305,-4.9749775,0.7109674,0.14897038,-0.16363071,0.7782194,-43.96875,16.7625,-20.587502,-0.3356215,-0.54258925,-0.5557073,1002.1599, , , , 
2025-11-24 20:04:26.251,6.3083777,-5.0539403,0.031106694,0.10376768,-0.18012358,1.1484692,-44.1375,16.7625,-20.475,-0.34222063,-0.540203,-0.54844403,1002.1604, , , , 
2025-11-24 20:04:26.271,7.2397842,-6.0690956,-0.40707895,-0.122856654,-0.3340571,1.4881003,-44.25,17.081251,-20.456251,-0.35187772,-0.53659266,-0.53932583,1002.1604, , , , 
2025-11-24 20:04:26.291,7.768897,-6.107381,-0.09332009,-0.20409934,-0.34260896,1.952955,-44.025,17.493752,-20.456251,-0.36173522,-0.5323987,-0.5314062,1002.1636, , , , 
2025-11-24 20:04:26.311,8.683254,-5.64766,0.3999005,-0.17600037,-0.4220191,2.2785366,-43.912502,18.84375,-20.38125,-0.38095582,-0.52311677,-0.5153431,1002.1636, , , , 
2025-11-24 20:04:26.331,9.755837,-5.3219366,0.15553348,-0.20165595,-0.42385164,2.472786,-43.331253,19.837502,-19.987501,-0.39767832,-0.5148069,-0.50023824,1002.17114, , , , 
2025-11-24 20:04:26.351,10.7016,-5.580661,-0.285045,-0.40384638,-0.34627405,2.4978309,-42.5625,21.675001,-19.66875,-0.41469726,-0.50514615,-0.48481303,1002.17114, , , , 
2025-11-24 20:04:26.371,11.182857,-6.181558,-0.3065804,-0.71232426,-0.34871742,2.5234864,-41.71875,23.775002,-19.050001,-0.43280765,-0.49378073,-0.47030842,1002.16455, , , , 
2025-11-24 20:04:26.391,11.544472,-6.686743,0.19860429,-0.9407811,-0.33222455,2.645045,-40.55625,25.875002,-18.35625,-0.4526547,-0.48028734,-0.45651183,1002.16455, , , , 
2025-11-24 20:04:26.411,11.88186,-6.5647087,0.907478,-1.037295,-0.32550523,2.7995894,-39.3375,28.29375,-17.90625,-0.47369188,-0.46471205,-0.44249958,1002.1675, , , , 
2025-11-24 20:04:26.431,12.07837,-6.0140605,1.6471593,-1.0550096,-0.3340571,2.8557873,-37.85625,30.54375,-17.00625,-0.49488854,-0.44803566,-0.42800817,1002.1675, , , , 
2025-11-24 20:04:26.451,12.09512,-5.221438,2.03031,-1.0165262,-0.25464696,2.833186,-36.28125,32.737503,-16.125,-0.5151488,-0.43081176,-0.4134421,1002.1653, , , , 
2025-11-24 20:04:26.471,11.836396,-4.2927237,1.8337995,-0.9835404,-0.035352785,2.7385046,-34.36875,34.96875,-15.337501,-0.53348815,-0.41297817,-0.3996277,1002.1653, , , , 
2025-11-24 20:04:26.491,11.467603,-3.5001013,1.3334004,-1.0489011,0.11796988,2.581517,-32.325,36.862503,-14.38125,-0.55002165,-0.39458674,-0.38723862,1002.1692, , , , 
2025-11-24 20:04:26.511,11.065608,-3.1986058,1.3573287,-1.1674055,0.12163496,2.3579469,-30.056252,38.7,-13.856251,-0.5655012,-0.37626433,-0.37676835,1002.1692, , , , 
2025-11-24 20:04:26.531,10.6561365,-3.083451,1.852942,-1.2126082,0.07215633,2.197294,-27.993752,40.29375,-13.14375,-0.5805992,-0.3585991,-0.36769783,1002.1658, , , , 
2025-11-24 20:04:26.551,10.447961,-2.9662027,2.2839491,-1.1240354,0.023899399,2.0818439,-26.212502,41.79375,-12.056251,-0.5948964,-0.3416963,-0.35924473,1002.1658, , , , 
2025-11-24 20:04:26.571,10.198809,-2.6718855,2.193022,-1.0189695,0.057496,2.025035,-24.243752,43.275,-11.1,-0.6078413,-0.32574728,-0.35082662,1002.17017, , , , 
2025-11-24 20:04:26.591,10.143773,-2.1906292,2.152344,-0.98231876,0.18943901,2.0042663,-22.368752,44.7,-10.012501,-0.6195019,-0.30981168,-0.34261706,1002.17017, , , , 
2025-11-24 20:04:26.611,10.36152,-1.6519449,2.1020947,-0.905352,0.27251422,1.9468466,-20.38125,45.84375,-9.0375,-0.630007,-0.29344666,-0.33523592,1002.17163, , , , 
2025-11-24 20:04:26.631,10.632208,-1.1970096,2.0877378,-0.7581378,0.25907558,1.84117,-18.243752,46.443752,-8.400001,-0.63921523,-0.27751443,-0.3284532,1002.17163, , , , 
2025-11-24 20:04:26.651,11.170893,-0.5721837,2.1379871,-0.53151345,0.1698919,1.6768521,-16.425001,47.325,-7.5000005,-0.6468475,-0.26319736,-0.32185718,1002.1726, , , , 
2025-11-24 20:04:26.671,11.795718,-0.11964113,1.8649062,-0.32016033,0.08620582,1.3958623,-14.868751,48.412502,-7.05,-0.6524876,-0.25168324,-0.31550542,1002.1726, , , , 
2025-11-24 20:04:26.691,12.186048,-0.13878371,1.7620147,-0.18638477,0.045279052,1.0489011,-13.312501,49.050003,-6.4687505,-0.6562594,-0.24350071,-0.31026402,1002.1758, , , , 
2025-11-24 20:04:26.711,12.568899,-0.57457656,1.3573287,-0.1026987,0.07215633,0.73362756,-12.093751,49.66875,-6.20625,-0.6584019,-0.23807004,-0.3067107,1002.1758, , , , 
2025-11-24 20:04:26.731,12.942478,-1.2496517,1.2640085,-0.11002886,0.07887565,0.45080528,-10.6125,49.893753,-6.1312504,-0.6595151,-0.23470809,-0.30501866,1002.17456, , , , 
2025-11-24 20:04:26.751,13.734802,-1.8864416,1.489233,-0.06299362,0.0098499125,0.18814096,-9.337501,49.968754,-6.2250004,-0.66008484,-0.23314959,-0.30494532,1002.17456, , , , 
2025-11-24 20:04:26.771,14.292628,-2.0542383,1.9944177,0.04512634,-0.039017867,-0.12766708,-8.7375,50.081253,-6.4875,-0.6594733,-0.23461284,-0.30654925,1002.18164, , , , 
2025-11-24 20:04:26.791,14.034204,-1.6902301,2.2169502,0.08788565,0.08620582,-0.39338565,-8.118751,50.41875,-6.3,-0.65799797,-0.23707809,-0.30875662,1002.18164, , , , 
2025-11-24 20:04:26.811,14.558531,-3.2536407,2.1882362,-0.03245126,0.29572642,-0.8955021,-8.306251,50.756252,-6.24375,-0.6537427,-0.24293725,-0.31685045,1002.17773, , , , 
2025-11-24 20:04:26.831,14.400605,-4.2257247,2.2145574,-0.045279052,0.38857523,-1.063485,-8.681251,50.850002,-5.9812503,-0.6507804,-0.24711193,-0.32424185,1002.17773, , , , 
2025-11-24 20:04:26.851,12.820445,-3.5001013,1.8337995,0.21494187,0.65986776,-1.0103414,-9.4875,50.812504,-5.5125003,-0.6439345,-0.2526385,-0.33783433,1002.18774, , , , 
2025-11-24 20:04:26.871,12.525828,-3.1196425,2.1547368,0.5032618,0.349481,-1.2711731,-10.368751,50.756252,-5.71875,-0.63653713,-0.25770313,-0.34906787,1002.18774, , , , 
2025-11-24 20:04:26.891,12.767802,-3.610171,2.1427727,0.8031878,-0.046348035,-1.555828,-11.306251,50.343754,-6.1687503,-0.6279759,-0.26794875,-0.35896838,1002.18286, , , , 
2025-11-24 20:04:26.911,12.908979,-4.3669014,1.8816559,1.0946383,-0.32000762,-1.8430026,-12.618751,49.7625,-6.3375,-0.6175659,-0.28353667,-0.3671846,1002.18286, , , , 
2025-11-24 20:04:26.931,13.509876,-5.3557353,1.6519449,1.1147963,-0.5331933,-2.1429286,-13.575001,49.0875,-7.0687504,-0.60596406,-0.30304855,-0.37458602,1002.1848, , , , 
2025-11-24 20:04:26.951,13.92892,-6.1289163,1.6160526,0.98216605,-0.53197163,-2.42514,-15.243751,48.206253,-7.8187504,-0.5939209,-0.32468557,-0.3826714,1002.1848, , , , 
2025-11-24 20:04:26.971,13.165011,-6.4737816,1.5011971,0.7170583,-0.29862794,-2.6108375,-17.04375,47.362503,-8.400001,-0.58137673,-0.3459614,-0.3928286,1002.17847, , , , 
2025-11-24 20:04:26.991,12.169298,-6.5575304,1.7117655,0.3560476,0.04833329,-2.7073514,-19.087502,46.256252,-9.1875,-0.56878823,-0.36450934,-0.40605104,1002.17847, , , , 
2025-11-24 20:04:27.011,11.271391,-6.521638,2.1451654,0.12759072,0.38368842,-2.7232335,-21.225,45.45,-9.918751,-0.55619216,-0.3792369,-0.42245117,1002.177, , , , 
2025-11-24 20:04:27.031,10.706386,-6.2007008,2.487339,0.15874393,0.5767162,-2.6987996,-23.400002,44.268753,-10.06875,-0.54298717,-0.39118382,-0.44061863,1002.177, , , , 
2025-11-24 20:04:27.051,9.837492,-5.5519466,2.1188445,0.29984966,0.7203416,-2.6462667,-25.612501,43.050003,-10.40625,-0.5283783,-0.40184563,-0.458776,1002.177, , , , 
2025-11-24 20:04:27.071,9.068798,-5.0491548,1.9824536,0.3988069,0.742943,-2.6584837,-27.7875,41.662502,-10.856251,-0.512526,-0.4121885,-0.47641647,1002.177, , , , 
2025-11-24 20:04:27.091,8.207083,-4.989334,1.8768703,0.47943875,0.7117898,-2.6603162,-30.000002,40.18125,-11.38125,-0.49588463,-0.42275766,-0.49334162,1002.17236,37.88756775,127.74027232,146.9718017578125,1.47
2025-11-24 20:04:27.111,7.4383883,-5.077869,1.7428722,0.650476,0.5877114,-2.557083,-31.875002,38.8875,-12.187501,-0.47890532,-0.43363398,-0.50886583,1002.17236, , , , 
2025-11-24 20:04:27.131,6.780063,-5.0563335,1.2711871,0.7689803,0.49791688,-2.3616118,-33.9,36.9,-12.88125,-0.4620944,-0.44490263,-0.5219404,1002.1599, , , , 
2025-11-24 20:04:27.151,6.4088764,-4.8385863,0.9696914,0.8154047,0.40812233,-2.1557562,-35.475002,34.93125,-13.743751,-0.44588995,-0.45599335,-0.5326109,1002.1599, , , , 
2025-11-24 20:04:27.171,5.999704,-4.615755,0.8210373,0.7561526,0.37086064,-1.9663937,-37.237503,32.568752,-14.681251,-0.43067837,-0.46651945,-0.54143876,1002.16113, , , , 
2025-11-24 20:04:27.191,5.590232,-4.503292,0.87637126,0.69628954,0.3635305,-1.7617599,-38.60625,30.150002,-15.468751,-0.41665795,-0.47578245,-0.5491989,1002.16113, , , , 
2025-11-24 20:04:27.211,5.226224,-4.402794,0.9984053,0.71217155,0.30977592,-1.5289507,-39.84375,28.368752,-16.368752,-0.4039021,-0.48384517,-0.5557508,1002.1655, , , , 
2025-11-24 20:04:27.231,5.0563335,-4.3669014,0.9098708,0.7787539,0.19249325,-1.2864443,-40.85625,26.868752,-16.9125,-0.39246875,-0.49144527,-0.5604154,1002.1655, , , , 
2025-11-24 20:04:27.251,5.0491548,-4.534399,0.5051847,0.79036,0.04833329,-1.0323318,-41.625,25.500002,-17.4375,-0.3826263,-0.49908128,-0.56277287,1002.1648, , , , 
2025-11-24 20:04:27.272,5.1592245,-4.8361936,0.1268196,0.68224,-0.046958882,-0.6914791,-42.35625,24.150002,-17.98125,-0.3733678,-0.5076669,-0.56301326,1002.1648, , , , 
2025-11-24 20:04:27.291,5.382056,-5.144868,-0.016749758,0.5649574,-0.1300341,-0.39521816,-42.825,22.987501,-18.300001,-0.3698666,-0.51177347,-0.56195587,1002.1599, , , , 
2025-11-24 20:04:27.311,5.7840505,-5.492126,-0.09332009,0.3988069,-0.23571068,-0.03115321,-43.162502,21.825,-18.675001,-0.36798263,-0.51588243,-0.5591121,1002.1599, , , , 
2025-11-24 20:04:27.331,6.143273,-5.7409797,-0.011964113,0.18745375,-0.2772483,0.3695626,-43.36875,21.0375,-18.581251,-0.36952856,-0.51796925,-0.5548197,1002.1582, , , , 
2025-11-24 20:04:27.351,6.439983,-5.7170515,0.39750767,0.024968382,-0.24609509,0.81548107,-43.5,20.75625,-18.46875,-0.3744024,-0.5173644,-0.5492935,1002.1582, , , , 
2025-11-24 20:04:27.371,7.1512494,-5.465805,0.46929234,0.029244313,-0.21799612,1.2303227,-43.237503,20.737501,-18.393751,-0.3819013,-0.51412356,-0.542217,1002.1582, , , , 
2025-11-24 20:04:27.391,8.685647,-6.451947,-0.2536392,-0.033672955,-0.418354,1.4838244,-42.99375,20.98125,-18.35625,-0.39132053,-0.5099541,-0.53283143,1002.1582, , , , 
2025-11-24 20:04:27.415,9.954741,-7.893324,-0.4668995,-0.313441,-0.63764817,1.916915,-42.487503,21.69375,-18.28125,-0.40788734,-0.5038757,-0.5180181,1002.1577, , , , 
2025-11-24 20:04:27.431,10.153345,-7.728219,0.27517462,-0.40018132,-0.57473093,2.3402321,-42.2625,22.518751,-18.0375,-0.42055115,-0.49822056,-0.507817,1002.1577, , , , 
2025-11-24 20:04:27.451,10.246665,-6.4184475,1.3190435,-0.30488914,-0.44339874,2.6835284,-41.79375,23.868752,-17.681252,-0.4387839,-0.48779082,-0.49260747,1002.16406, , , , 
2025-11-24 20:04:27.471,10.816456,-5.382056,1.4174483,-0.11858072,-0.39453098,2.805698,-40.96875,25.66875,-17.25,-0.46044803,-0.47281182,-0.47120193,1002.16406, , , , 
2025-11-24 20:04:27.491,11.534901,-5.4849477,0.59611195,-0.047722444,-0.40735877,2.7641602,-39.80625,27.6,-16.725,-0.47625995,-0.46134558,-0.45287913,1002.1636, , , , 
2025-11-24 20:04:27.511,12.166905,-5.9231334,-0.23688944,-0.10392039,-0.39636353,2.7580516,-38.23125,29.681252,-16.66875,-0.49145502,-0.4499359,-0.43417045,1002.1636, , , , 
2025-11-24 20:04:27.531,13.047763,-5.8510494,-0.23449662,-0.2150946,-0.46111333,2.7543867,-36.5625,31.837502,-16.331251,-0.50692415,-0.43810043,-0.41535345,1002.1736, , , , 
2025-11-24 20:04:27.551,13.249059,-5.317151,0.34965122,-0.36658472,-0.47821704,2.6865826,-35.100002,34.0125,-15.76875,-0.5226146,-0.42609137,-0.39685476,1002.1736, , , , 
2025-11-24 20:04:27.571,12.834802,-4.386044,1.041476,-0.5577799,-0.2900761,2.5179887,-33.43125,36.075,-15.262501,-0.53774476,-0.4133808,-0.3801187,1002.1738, , , , 
2025-11-24 20:04:27.591,11.987144,-3.761218,1.4676976,-0.8320503,0.07337803,2.2828126,-31.425001,38.100002,-14.231251,-0.55158025,-0.3991812,-0.36705044,1002.1738, , , , 
2025-11-24 20:04:27.611,10.94836,-3.3254254,1.6950158,-1.0953255,0.49913856,2.120938,-29.587502,39.693752,-13.556251,-0.564472,-0.3823498,-0.3584778,1002.1765, , , , 
2025-11-24 20:04:27.631,10.172487,-2.8633113,1.7787645,-1.1747357,0.7979192,2.0238132,-27.35625,41.23125,-13.200001,-0.5764259,-0.36282295,-0.3535843,1002.1765, , , , 
2025-11-24 20:04:27.651,9.736694,-2.5283163,1.7524434,-1.0843302,0.8144121,1.9144716,-25.462502,42.54375,-12.656251,-0.5872391,-0.3424752,-0.3504035,1002.1704, , , , 
2025-11-24 20:04:27.671,9.542876,-2.1978076,1.6519449,-0.91084963,0.59076566,1.7886372,-23.38125,43.725002,-12.01875,-0.5969872,-0.3238017,-0.34694958,1002.1704, , , , 
2025-11-24 20:04:27.691,9.277272,-1.9055841,1.4796617,-0.75386184,0.37635827,1.6786846,-21.69375,44.943752,-11.53125,-0.6057875,-0.30791277,-0.34218335,1002.17236, , , , 
2025-11-24 20:04:27.711,9.013762,-1.623231,1.5227325,-0.68056023,0.27373594,1.6023287,-19.931252,45.7125,-10.462501,-0.61378986,-0.29407302,-0.33651966,1002.17236, , , , 
2025-11-24 20:04:27.731,9.020942,-1.3070793,1.6878372,-0.60603684,0.25907558,1.5375789,-18.31875,46.518753,-10.05,-0.621103,-0.28121352,-0.3306536,1002.1731, , , , 
2025-11-24 20:04:27.751,9.162118,-1.0342976,1.8314066,-0.4466057,0.20959696,1.4685532,-17.1375,47.456253,-9.69375,-0.6273938,-0.26912162,-0.32484943,1002.1731, , , , 
2025-11-24 20:04:27.771,9.483055,-0.66071814,1.625624,-0.26274067,0.14973393,1.3665416,-15.431251,48.112503,-9.262501,-0.63242775,-0.25842345,-0.3188658,1002.17847, , , , 
2025-11-24 20:04:27.791,10.146166,-0.4668995,1.0941181,-0.13568445,0.08926006,1.1967261,-14.00625,48.787502,-9.056251,-0.6360758,-0.24958931,-0.31290224,1002.17847, , , , 
2025-11-24 20:04:27.811,10.842776,-0.53389853,0.84017986,-0.12713258,-0.020081604,0.95719767,-12.525001,49.312504,-8.4375,-0.63891405,-0.2430441,-0.30753943,1002.17944, , , , 
2025-11-24 20:04:27.831,11.664113,-0.8500503,1.0271192,-0.13568445,-0.1312558,0.69758755,-11.212501,49.518753,-8.34375,-0.6415112,-0.23893961,-0.3031155,1002.17944, , , , 
2025-11-24 20:04:27.851,12.087942,-1.0390832,1.2161521,-0.11613733,-0.18928629,0.527772,-10.425,49.74375,-8.118751,-0.6426489,-0.23778445,-0.30134302,1002.17944, , , , 
2025-11-24 20:04:27.871,13.567305,-1.9968106,2.0638096,-0.036116343,-0.35543674,0.10689827,-9.262501,49.8375,-7.5375004,-0.64496374,-0.23830321,-0.29788342,1002.18066, , , , 
2025-11-24 20:04:27.891,14.613566,-2.693421,2.8872397,0.04146126,-0.44706383,-0.23700874,-8.71875,50.006252,-7.8187504,-0.6453268,-0.24236745,-0.29719824,1002.1743, , , , 
2025-11-24 20:04:27.911,14.78585,-2.7364917,3.72054,0.21616358,-0.3755947,-0.6016846,-8.34375,50.04375,-7.7250004,-0.6439779,-0.24927263,-0.2983773,1002.1743, , , , 
2025-11-24 20:04:27.931,14.089239,-2.9063823,3.9071803,0.41652146,-0.090329036,-1.003622,-8.45625,49.987503,-7.8187504,-0.6396424,-0.25815117,-0.30243802,1002.1765, , , , 
2025-11-24 20:04:27.951,14.017454,-4.2424746,3.2129626,0.47455198,0.16805935,-1.3585243,-8.981251,49.95,-8.3625,-0.6323666,-0.26793954,-0.31025317,1002.1765, , , , 
2025-11-24 20:04:27.971,12.966407,-4.658826,2.015953,0.5600706,0.40079215,-1.4147222,-9.825001,49.500004,-8.3625,-0.62357515,-0.27761167,-0.32063702,1002.17993, , , , 
2025-11-24 20:04:27.991,11.855539,-4.124927,0.7827521,0.61749023,0.5797704,-1.3004938,-10.8,49.29375,-8.700001,-0.61372185,-0.28536746,-0.33155856,1002.17993, , , , 
2025-11-24 20:04:28.011,12.169298,-3.9550366,0.87158567,0.6235987,0.19310409,-1.423885,-11.775001,48.975002,-9.243751,-0.60421264,-0.29300472,-0.34212062,1002.1802, , , , 
2025-11-24 20:04:28.031,12.710375,-4.453043,1.2496517,0.75981766,-0.31145576,-1.6395141,-13.1625,48.61875,-9.900001,-0.59551245,-0.30477443,-0.35089582,1002.1802, , , , 
2025-11-24 20:04:28.051,13.131512,-5.111368,1.5490535,0.8392278,-0.55457294,-1.8680472,-14.587501,48.45,-10.78125,-0.58625627,-0.3208767,-0.3579585,1002.1809, , , , 
2025-11-24 20:04:28.071,13.450056,-5.61416,2.0183458,0.73660547,-0.6278746,-2.0903957,-16.087502,47.625,-11.587501,-0.5765355,-0.3393925,-0.36484414,1002.1809, , , , 
2025-11-24 20:04:28.091,13.2921295,-5.9757752,2.1164517,0.58328277,-0.46905434,-2.285256,-17.79375,46.74375,-12.20625,-0.5663686,-0.3583916,-0.3731015,1002.17773,37.88757632,127.74026541,146.43402099609375,1.23
2025-11-24 20:04:28.111,12.592828,-6.3083777,2.300699,0.36032352,-0.20883341,-2.4507957,-19.5375,45.65625,-12.525001,-0.5528517,-0.38013333,-0.386941,1002.17773, , , , 
2025-11-24 20:04:28.131,11.884253,-6.3849483,2.4131618,0.24609509,-0.04573719,-2.5424225,-21.45,44.30625,-12.900001,-0.5416406,-0.39556652,-0.40049195,1002.1765, , , , 
2025-11-24 20:04:28.151,10.787742,-6.102595,2.5354948,0.22776967,0.07032379,-2.5479202,-23.75625,43.143753,-13.012501,-0.5299155,-0.40957293,-0.41511378,1002.1765, , , , 
2025-11-24 20:04:28.171,10.062417,-5.6668024,2.5184457,0.2228829,0.16072918,-2.5124912,-26.1,41.79375,-12.993751,-0.5177167,-0.42239082,-0.42985228,1002.1826, , , , 
2025-11-24 20:04:28.191,9.3155575,-5.2836514,2.5929224,0.2839676,0.22975492,-2.557083,-28.25625,40.725002,-13.293751,-0.50477296,-0.43448418,-0.4447436,1002.1826, , , , 
2025-11-24 20:04:28.211,8.625827,-5.063512,2.3246272,0.4000286,0.27434677,-2.5674675,-30.487501,39.45,-13.33125,-0.4906868,-0.4464473,-0.45948073,1002.1853, , , , 
2025-11-24 20:04:28.232,8.060822,-4.8912287,1.907977,0.48432553,0.2810661,-2.5381467,-32.4,38.081253,-13.44375,-0.4757117,-0.4583962,-0.4734019,1002.1853, , , , 
2025-11-24 20:04:28.251,7.5197444,-4.8098726,1.6184454,0.4947099,0.27373594,-2.473397,-33.825,36.525,-14.025001,-0.4605032,-0.4701496,-0.48637056,1002.19336, , , , 
2025-11-24 20:04:28.271,6.9523463,-4.725825,1.556232,0.50875944,0.29694813,-2.3426757,-35.34375,34.48125,-14.325001,-0.4454873,-0.4811029,-0.49847504,1002.19336, , , , 
2025-11-24 20:04:28.291,6.3753767,-4.6301117,1.3669,0.57900685,0.31832778,-2.1588106,-36.693752,32.737503,-14.83125,-0.4307802,-0.4910765,-0.50933826,1002.18994, , , , 
2025-11-24 20:04:28.312,5.796015,-4.402794,0.98644114,0.66880137,0.27068168,-1.9334079,-37.8375,30.73125,-15.375001,-0.41647655,-0.5004307,-0.51845527,1002.18994, , , , 
2025-11-24 20:04:28.331,5.2956157,-4.189533,0.73489565,0.686516,0.20959696,-1.7678683,-39.525,28.612501,-15.993751,-0.4030063,-0.5095277,-0.5256551,1002.1897, , , , 
2025-11-24 20:04:28.351,4.9199424,-3.9574296,0.62961143,0.67613155,0.1350736,-1.5216205,-40.66875,26.831251,-16.875,-0.39074048,-0.5181221,-0.531257,1002.1897, , , , 
2025-11-24 20:04:28.371,4.7401814,-4.048357,0.3592225,0.674299,0.08742751,-1.2882769,-41.68125,24.825,-17.41875,-0.37988976,-0.5259911,-0.53533566,1002.18335, , , , 
2025-11-24 20:04:28.391,4.613362,-4.2927237,-0.08135597,0.6119926,0.0104607595,-1.0127847,-42.35625,23.0625,-18.09375,-0.3706906,-0.5330471,-0.53777176,1002.18335, , , , 
2025-11-24 20:04:28.411,4.699504,-4.8529434,-0.5099703,0.46294588,-0.115373775,-0.687814,-42.975002,21.862501,-18.300001,-0.3640867,-0.5391055,-0.5384949,1002.1804, , , , 
2025-11-24 20:04:28.431,5.101797,-5.4729834,-0.622433,0.25159273,-0.20944425,-0.27976805,-43.36875,20.71875,-18.09375,-0.36101046,-0.54346997,-0.5376579,1002.1804, , , , 
2025-11-24 20:04:28.451,5.59741,-5.8151574,-0.49800622,0.0017561859,-0.2540361,0.20280129,-43.78125,19.743752,-18.13125,-0.36205897,-0.5454183,-0.53526753,1002.17676, , , , 
2025-11-24 20:04:28.471,6.148059,-5.7409797,0.086141616,-0.2230356,-0.18928629,0.6890357,-44.193752,19.44375,-18.0,-0.36711752,-0.54414606,-0.5316467,1002.17676, , , , 
2025-11-24 20:04:28.491,6.9044895,-5.927919,0.3592225,-0.33115557,-0.14102936,1.1258678,-44.2125,19.275002,-17.8125,-0.37528187,-0.5396323,-0.526898,1002.1697, , , , 
2025-11-24 20:04:28.511,8.23819,-7.160821,0.13399807,-0.4490491,-0.27785915,1.5070366,-44.325,19.331251,-17.94375,-0.38630456,-0.53316504,-0.52023417,1002.1697, , , , 
2025-11-24 20:04:28.531,9.284451,-8.099107,0.39750767,-0.53212434,-0.38536826,1.9883841,-44.2125,20.212502,-17.7,-0.40102318,-0.52496976,-0.5110677,1002.17065, , , , 
2025-11-24 20:04:28.551,9.693624,-7.3881392,1.1874382,-0.46432027,-0.3780381,2.5082152,-43.66875,21.375,-17.23125,-0.41879267,-0.514411,-0.49897638,1002.17065, , , , 
2025-11-24 20:04:28.571,10.028918,-5.791229,1.8050855,-0.26640576,-0.2796917,2.8362403,-42.99375,22.650002,-16.837502,-0.43744978,-0.501844,-0.48392206,1002.16895, , , , 
2025-11-24 20:04:28.591,10.849956,-5.113761,1.6830516,-0.104531236,-0.24670593,2.869226,-42.24375,24.562502,-16.462502,-0.4547148,-0.48873994,-0.4670661,1002.16895, , , , 
2025-11-24 20:04:28.611,11.72872,-5.547161,0.68225354,-0.022066858,-0.2577012,2.7971458,-40.8375,26.643751,-15.993751,-0.47041437,-0.47621167,-0.44934425,1002.16846, , , , 
2025-11-24 20:04:28.631,12.48515,-6.133702,0.12921242,-0.031229567,-0.34016556,2.7507215,-39.54375,28.66875,-15.975,-0.48537484,-0.46423098,-0.43105957,1002.16846, , , , 
2025-11-24 20:04:28.651,13.023834,-6.2365932,0.1794617,-0.0898709,-0.47333026,2.7256768,-38.23125,30.806252,-15.731251,-0.50039387,-0.45278126,-0.41222423,1002.1704, , , , 
2025-11-24 20:04:28.671,13.194024,-5.683552,0.5482555,-0.21204035,-0.46111333,2.6920803,-36.5625,32.90625,-15.337501,-0.5155565,-0.4414295,-0.39316168,1002.1704, , , , 
2025-11-24 20:04:28.691,12.686446,-4.6205406,0.8572287,-0.50402534,-0.11964971,2.5631914,-34.612503,34.7625,-15.187501,-0.53016406,-0.42897373,-0.3756163,1002.17017, , , , 
2025-11-24 20:04:28.711,11.857932,-3.6412778,1.0247263,-0.8583168,0.34153998,2.368942,-32.5875,36.84375,-14.56875,-0.54711604,-0.40974241,-0.35933045,1002.17017, , , , 
2025-11-24 20:04:28.731,11.048859,-3.2081769,1.2137593,-1.1325872,0.7032379,2.1966832,-30.225,38.8875,-13.856251,-0.5600129,-0.3909214,-0.351765,1002.17236, , , , 
2025-11-24 20:04:28.751,10.519746,-2.8513472,1.1970096,-1.2003912,0.84617615,2.0757353,-28.06875,40.575,-12.993751,-0.57232976,-0.3703163,-0.3473393,1002.17236, , , , 
2025-11-24 20:04:28.771,10.189237,-2.5354948,1.3310076,-1.1460258,0.7264501,1.9309646,-25.987501,42.206253,-12.3,-0.58399886,-0.34995922,-0.3439583,1002.1692, , , , 
2025-11-24 20:04:28.791,9.81805,-2.2648067,1.5059828,-1.001255,0.41911757,1.7751985,-24.31875,43.575,-11.681251,-0.594988,-0.33210358,-0.33999008,1002.1692, , , , 
2025-11-24 20:04:28.811,9.542876,-1.9247267,1.5586249,-0.8601493,0.23403086,1.6621917,-22.44375,44.86875,-11.2875,-0.6051009,-0.31716427,-0.33469966,1002.1726, , , , 
2025-11-24 20:04:28.831,9.327521,-1.5011971,1.5945172,-0.7923452,0.2242573,1.5766732,-20.493752,45.975002,-11.043751,-0.6141194,-0.30382776,-0.32898882,1002.1726, , , , 
2025-11-24 20:04:28.851,9.573982,-1.1108679,1.5490535,-0.721487,0.29083964,1.5033715,-18.88125,46.818752,-10.181251,-0.6221695,-0.29098025,-0.3236998,1002.17944, , , , 
2025-11-24 20:04:28.871,9.959526,-0.64875406,1.0510473,-0.6329141,0.37208232,1.389143,-17.212502,47.475002,-9.8625,-0.62889504,-0.27853084,-0.3192927,1002.17944, , , , 
2025-11-24 20:04:28.891,10.194023,-0.15553348,0.6774679,-0.65001786,0.3922403,1.1796224,-15.468751,47.98125,-9.1875,-0.6346774,-0.2670801,-0.31612444,1002.18115, , , , 
2025-11-24 20:04:28.911,10.459925,-0.02632105,0.689432,-0.6756734,0.3305447,0.89489126,-14.025001,48.15,-8.4375,-0.6399966,-0.2573135,-0.3146181,1002.18115, , , , 
2025-11-24 20:04:28.931,10.823634,-0.44057846,0.9912268,-0.6365792,0.18333054,0.5546493,-12.806251,48.562504,-8.212501,-0.64479476,-0.25002635,-0.3145865,1002.18286, , , , 
2025-11-24 20:04:28.951,11.345569,-1.055833,0.974477,-0.5638884,0.076432265,0.33046836,-11.606251,48.956253,-7.4062505,-0.6488289,-0.24548359,-0.3154233,1002.18286, , , , 
2025-11-24 20:04:28.971,11.910574,-2.0135603,1.2520444,-0.52418333,-0.06589515,0.09345963,-11.1,49.162502,-6.9187503,-0.65223837,-0.24353293,-0.3168221,1002.17993, , , , 
2025-11-24 20:04:28.991,12.791731,-2.882454,1.7213368,-0.46004435,-0.20761171,-0.0787993,-10.5375,49.631252,-6.4687505,-0.6552985,-0.24384968,-0.31844598,1002.17993, , , , 
2025-11-24 20:04:29.011,13.778172,-3.3038898,2.3461626,-0.35558945,-0.27113983,-0.27610296,-10.21875,49.48125,-5.8500004,-0.6575349,-0.2462485,-0.32034066,1002.1887, , , , 
2025-11-24 20:04:29.031,13.909777,-2.896811,2.9566314,-0.2462478,-0.1776802,-0.49417543,-10.125,49.425003,-5.6062503,-0.658306,-0.25040352,-0.32332245,1002.1887, , , , 
2025-11-24 20:04:29.051,13.979169,-3.1603205,3.0810583,-0.20287764,0.08803836,-0.92604446,-10.275001,49.687504,-5.26875,-0.6569277,-0.25566792,-0.32910505,1002.18896, , , , 
2025-11-24 20:04:29.071,13.885849,-4.9055853,2.76042,-0.25541052,0.31160846,-1.1923739,-10.762501,49.518753,-4.7250004,-0.6539441,-0.26176053,-0.33868697,1002.18896, , , , 
2025-11-24 20:04:29.091,12.691232,-4.718646,2.4993033,-0.116748184,0.55106056,-1.1050227,-11.400001,49.593754,-4.5,-0.6498509,-0.26670948,-0.35001647,1002.19946,37.88757632,127.74026541,146.43402099609375,1.23
2025-11-24 20:04:29.111,11.111072,-3.1100712,2.2408783,0.154468,0.6849125,-1.0463814,-12.525001,49.331253,-4.0875,-0.6440093,-0.26985854,-0.3615434,1002.19946, , , , 
2025-11-24 20:04:29.131,10.632208,-2.6575286,2.4179473,0.39697435,0.44232976,-1.2552911,-13.425,48.7125,-4.275,-0.6367978,-0.27432042,-0.372841,1002.1885, , , , 
2025-11-24 20:04:29.151,11.331212,-3.7013974,2.2767708,0.7408814,0.07337803,-1.487413,-14.55,48.581253,-4.5375004,-0.6284108,-0.28295508,-0.38287994,1002.1885, , , , 
2025-11-24 20:04:29.171,12.20519,-5.006084,1.6950158,1.0757021,-0.2900761,-1.6046958,-15.76875,48.075,-5.0437503,-0.6186828,-0.29611877,-0.39051583,1002.188, , , , 
2025-11-24 20:04:29.191,12.741482,-5.587839,1.2329018,1.2174186,-0.6211553,-1.6786846,-16.725,47.79375,-5.7937503,-0.6084095,-0.31309727,-0.39510894,1002.188, , , , 
2025-11-24 20:04:29.211,12.9185505,-5.5160546,1.0677971,1.1129637,-0.6516977,-1.7458779,-18.4125,47.287502,-5.9437504,-0.59813666,-0.33222464,-0.3979272,1002.17993, , , , 
2025-11-24 20:04:29.231,12.9353,-5.4370914,1.3334004,0.88809556,-0.48249298,-1.8625497,-20.15625,46.6875,-6.8437505,-0.5879001,-0.35088253,-0.40158406,1002.17993, , , , 
2025-11-24 20:04:29.251,12.55215,-5.192724,1.5346966,0.650476,-0.17951274,-1.9639503,-21.806252,46.0875,-7.5375004,-0.5773773,-0.36771885,-0.40782365,1002.177, , , , 
2025-11-24 20:04:29.271,11.800504,-4.8625145,1.8744774,0.518533,0.11125056,-2.0580208,-23.775002,44.98125,-8.19375,-0.56627005,-0.38203862,-0.41704547,1002.177, , , , 
2025-11-24 20:04:29.291,11.005788,-4.3070807,1.8625133,0.49959671,0.34276167,-2.13682,-25.406252,44.006252,-9.01875,-0.5540925,-0.3944914,-0.42853883,1002.16016, , , , 
2025-11-24 20:04:29.311,10.3017,-3.7444685,1.8074784,0.5228089,0.51563144,-2.264487,-26.79375,42.46875,-9.168751,-0.54048693,-0.40591404,-0.44160312,1002.16016, , , , 
2025-11-24 20:04:29.331,9.274879,-3.461816,1.4772689,0.56862247,0.63665557,-2.4098687,-28.237501,41.268753,-9.806251,-0.52528316,-0.41709378,-0.45591348,1002.1592, , , , 
2025-11-24 20:04:29.351,8.530113,-3.5144582,1.2927225,0.6071058,0.6769715,-2.5106585,-29.587502,40.21875,-10.575001,-0.50864965,-0.42828634,-0.47094133,1002.1592, , , , 
2025-11-24 20:04:29.371,8.072785,-3.7540395,1.2640085,0.6364265,0.64276403,-2.5521963,-31.181252,38.71875,-11.45625,-0.49133572,-0.4396551,-0.48583314,1002.15405, , , , 
2025-11-24 20:04:29.391,7.6109705,-3.8593237,1.1659029,0.69201356,0.6164976,-2.5265405,-33.05625,37.55625,-12.543751,-0.47367415,-0.45103472,-0.5000782,1002.15405, , , , 
2025-11-24 20:04:29.411,7.1895347,-4.0100718,0.91226363,0.66941226,0.58954394,-2.46118,-34.78125,35.5875,-13.218751,-0.45148692,-0.4649237,-0.51650476,1002.1477, , , , 
2025-11-24 20:04:29.431,6.873383,-4.321438,0.7899306,0.5722875,0.6115345,-2.3585577,-36.487503,33.525,-13.70625,-0.4342674,-0.4750056,-0.5289238,1002.1477, , , , 
2025-11-24 20:04:29.451,6.5814586,-4.54397,0.75643104,0.46538925,0.63176876,-2.1924071,-38.04375,31.650002,-14.475,-0.41798952,-0.48344055,-0.5408403,1002.14526, , , , 
2025-11-24 20:04:29.471,6.3801622,-4.805087,0.6056832,0.38781166,0.6232169,-2.0103748,-38.8875,29.531252,-15.3,-0.406667,-0.48867148,-0.5492266,1002.14526, , , , 
2025-11-24 20:04:29.491,5.8797636,-5.168796,0.29940194,0.2619771,0.55839074,-1.717168,-40.03125,27.6,-15.993751,-0.39001995,-0.4955326,-0.56167626,1002.1499, , , , 
2025-11-24 20:04:29.511,5.5686965,-5.6668024,-0.11724831,0.0768904,0.4942518,-1.3762388,-41.193752,25.687502,-17.025002,-0.37957728,-0.49907318,-0.57003,1002.1499, , , , 
2025-11-24 20:04:29.531,5.372485,-6.2724853,-0.5673981,-0.21937053,0.4930301,-0.9217685,-41.9625,24.056252,-17.38125,-0.37261865,-0.49981582,-0.57708895,1002.14795, , , , 
2025-11-24 20:04:29.551,5.53759,-6.370591,-0.33290145,-0.46676368,0.50036025,-0.33413345,-42.956253,22.66875,-17.8875,-0.3699116,-0.49669868,-0.5828183,1002.14795, , , , 
2025-11-24 20:04:29.571,5.9063835,-5.8079786,-0.27756742,-0.5217399,0.45027077,0.21257484,-43.256252,21.806252,-18.675001,-0.37114725,-0.4906095,-0.5863209,1002.14624, , , , 
2025-11-24 20:04:29.591,6.3681984,-5.130511,-0.55064833,-0.48325655,0.30733252,0.5986303,-43.29375,21.46875,-18.54375,-0.37505478,-0.4833098,-0.5871245,1002.14624, , , , 
2025-11-24 20:04:29.611,7.522137,-5.9207406,-1.2664014,-0.5571691,-0.06711684,0.8014316,-42.73125,21.431252,-18.84375,-0.3817455,-0.47673163,-0.5851549,1002.14966, , , , 
2025-11-24 20:04:29.631,8.432008,-6.969096,-1.1730813,-0.76546794,-0.4000286,1.1160944,-42.581253,21.6375,-18.956251,-0.39276856,-0.4702221,-0.58082557,1002.14966, , , , 
2025-11-24 20:04:29.651,9.02812,-7.3809605,-0.08135597,-0.86442524,-0.5722875,1.4673315,-42.131252,22.21875,-18.525002,-0.40782532,-0.462288,-0.57440203,1002.1531, , , , 
2025-11-24 20:04:29.671,9.066405,-7.2900333,0.6343971,-0.8949676,-0.61016005,1.8039083,-41.79375,22.893751,-18.28125,-0.4250039,-0.4528042,-0.5660419,1002.1531, , , , 
2025-11-24 20:04:29.691,9.545269,-7.1153574,1.2520444,-0.80517304,-0.6156577,2.1264358,-41.475002,24.056252,-17.737501,-0.4433078,-0.4416584,-0.55574906,1002.1599, , , , 
2025-11-24 20:04:29.711,10.526924,-7.282855,1.1371889,-0.5901548,-0.76226103,2.4147556,-40.7625,25.687502,-16.66875,-0.46208566,-0.43011695,-0.54263985,1002.1599, , , , 
2025-11-24 20:04:29.731,11.671291,-7.129714,1.2520444,-0.31832778,-1.0511918,2.6468775,-40.10625,27.6375,-15.637501,-0.48156106,-0.41967034,-0.52566844,1002.16284, , , , 
2025-11-24 20:04:29.751,12.8060875,-6.897311,1.1156535,-0.07215633,-1.3040825,2.7714903,-39.112503,29.60625,-14.85,-0.50106585,-0.41119185,-0.50488734,1002.16284, , , , 
2025-11-24 20:04:29.771,12.865909,-6.076274,1.2089736,0.04146126,-1.2405545,2.7904267,-38.381252,31.781252,-13.931251,-0.5194483,-0.4036372,-0.4821571,1002.1648, , , , 
2025-11-24 20:04:29.791,12.068799,-4.8649077,1.0390832,-0.033672955,-1.0127084,2.7757664,-36.787502,33.862503,-13.35,-0.53597236,-0.39561263,-0.45936453,1002.1648, , , , 
2025-11-24 20:04:29.811,11.333605,-3.9885364,0.8955139,-0.27251422,-0.6596387,2.708573,-35.2125,35.456253,-12.562501,-0.5510441,-0.38550332,-0.43857923,1002.16455, , , , 
2025-11-24 20:04:29.831,10.601102,-3.1722846,0.9912268,-0.5919874,-0.18928629,2.601064,-33.2625,37.612503,-11.925,-0.56502044,-0.37201408,-0.4215252,1002.16455, , , , 
2025-11-24 20:04:29.851,10.105488,-2.679064,1.2209377,-0.69522053,-0.032909397,2.4843922,-30.993752,39.2625,-11.137501,-0.57818496,-0.3559676,-0.40787044,1002.1748, , , , 
2025-11-24 20:04:29.871,9.928419,-2.3988047,1.1156535,-0.70010734,-0.08605311,2.3829916,-29.062502,40.93125,-10.3125,-0.5907768,-0.33963707,-0.39547482,1002.1748, , , , 
2025-11-24 20:04:29.891,9.772587,-2.0877378,1.3597214,-0.68850124,-0.17584765,2.2742608,-26.868752,42.825,-9.88125,-0.60292983,-0.3241972,-0.3831992,1002.18384, , , , 
2025-11-24 20:04:29.911,9.530911,-1.6064813,1.6136597,-0.6622348,-0.18928629,2.1838553,-24.393751,44.100002,-9.0375,-0.6144249,-0.30983287,-0.37103108,1002.18384, , , , 
2025-11-24 20:04:29.931,9.64816,-1.1659029,1.9127626,-0.6145887,-0.14713784,2.1142187,-22.087502,45.412502,-8.38125,-0.62497365,-0.29585794,-0.35927835,1002.17944, , , , 
2025-11-24 20:04:29.951,9.885348,-0.77318084,2.0255244,-0.5266267,-0.13247749,1.9792215,-19.78125,46.575,-7.6687503,-0.6343672,-0.28243273,-0.34819365,1002.17944, , , , 
2025-11-24 20:04:29.971,10.033704,-0.49082774,1.9007984,-0.39957047,-0.13431004,1.8356724,-17.8125,47.625,-7.0125003,-0.6423729,-0.27022678,-0.33781436,1002.17773, , , , 
2025-11-24 20:04:29.991,10.325628,-0.19381863,1.8337995,-0.277401,-0.12942326,1.6939558,-16.087502,48.393753,-6.15,-0.648994,-0.25933543,-0.32792586,1002.17773, , , , 
2025-11-24 20:04:30.011,11.402996,-0.1698904,1.5945172,-0.19310409,-0.12026055,1.4007491,-14.531251,48.937504,-5.6062503,-0.655336,-0.24810092,-0.3169217,1002.1843, , , , 
2025-11-24 20:04:30.031,12.178869,-0.36400816,1.625624,-0.11858072,-0.1300341,1.137474,-13.200001,49.443752,-5.5687504,-0.6581327,-0.24296956,-0.31168786,1002.1843, , , , 
2025-11-24 20:04:30.051,13.107583,-0.948156,1.4820545,-0.018401774,-0.24548425,0.8521319,-11.6625,49.74375,-5.49375,-0.660844,-0.23838744,-0.30593404,1002.18604, , , , 
2025-11-24 20:04:30.071,14.278272,-1.4940187,1.5514464,0.053067356,-0.38414657,0.5393781,-10.6875,49.781254,-5.7375,-0.66266996,-0.23686427,-0.30103415,1002.18604, , , , 
2025-11-24 20:04:30.091,15.01586,-1.6423737,2.1571295,0.053067356,-0.4012503,0.19302773,-9.75,49.875004,-5.9437504,-0.6636106,-0.23854697,-0.2973919,1002.18774,37.88758874,127.7402524,145.9180908203125,1.04
2025-11-24 20:04:30.111,15.023038,-0.8596215,2.9303105,-0.0122933015,-0.070781924,-0.2663294,-9.356251,49.987503,-5.53125,-0.662867,-0.24331546,-0.29706928,1002.18774, , , , 
2025-11-24 20:04:30.131,14.211273,-0.8452646,2.9446673,-0.19982341,0.49730602,-0.81181604,-9.09375,50.11875,-5.26875,-0.66001886,-0.24764457,-0.30351964,1002.1853, , , , 
2025-11-24 20:04:30.151,13.311273,-2.2025933,2.382055,-0.36169794,1.0673028,-1.1771027,-9.01875,50.23125,-5.175,-0.6554545,-0.25036514,-0.3171195,1002.1853, , , , 
2025-11-24 20:04:30.171,11.953645,-3.2297122,1.8768703,-0.19615832,1.1955808,-1.1746593,-9.150001,50.193752,-5.0437503,-0.6497827,-0.25073817,-0.3342884,1002.187, , , , 
2025-11-24 20:04:30.191,12.049357,-3.6918263,1.4003994,0.22899136,0.77348536,-1.0866972,-9.39375,49.8375,-5.4,-0.64316803,-0.2515166,-0.3494986,1002.187, , , , 
2025-11-24 20:04:30.211,13.385449,-4.1344986,1.9680966,0.7775322,-0.1672958,-1.123959,-10.21875,49.66875,-5.5125003,-0.6363216,-0.25788644,-0.35913283,1002.187, , , , 
2025-11-24 20:04:30.231,15.006289,-4.2424746,2.219343,1.3249277,-0.9430718,-1.4055595,-11.26875,49.537502,-5.64375,-0.6283568,-0.27312616,-0.36238176,1002.187, , , , 
2025-11-24 20:04:30.251,16.165012,-4.733003,2.164308,1.4055595,-1.250328,-1.9248561,-12.675,49.275,-6.1875005,-0.6184558,-0.2962907,-0.3631297,1002.1841, , , , 
2025-11-24 20:04:30.271,16.883158,-5.6524453,1.8433708,0.9998806,-1.026147,-2.4911115,-14.3625,48.881252,-6.61875,-0.6072934,-0.32301608,-0.36637387,1002.1841, , , , 
2025-11-24 20:04:30.291,17.10569,-6.444769,1.5370895,0.4140781,-0.30412558,-2.9865086,-16.5375,47.98125,-7.70625,-0.5950823,-0.34784064,-0.37667292,1002.18506, , , , 
2025-11-24 20:04:30.311,15.657435,-6.8709903,1.2927225,-0.14912309,0.49974942,-3.3017058,-18.75,46.7625,-8.53125,-0.58159214,-0.36726302,-0.39553204,1002.18506, , , , 
2025-11-24 20:04:30.332,13.145868,-7.029216,2.1044874,-0.56083417,1.1491565,-3.508783,-21.45,45.600002,-8.85,-0.5672092,-0.38072976,-0.4213597,1002.1824, , , , 
2025-11-24 20:04:30.351,12.020643,-7.012167,2.501696,-0.55167145,1.3085876,-3.524665,-22.81875,44.662502,-9.150001,-0.559544,-0.38571686,-0.4359387,1002.1824, , , , 
2025-11-24 20:04:30.371,9.492626,-6.6676,2.8178477,-0.017790927,1.3733374,-3.3511844,-26.6625,42.487503,-9.375,-0.5335674,-0.39781857,-0.47927392,1002.17334, , , , 
2025-11-24 20:04:30.391,8.343473,-6.0882382,2.0207388,0.54052347,1.0410365,-3.1526592,-29.19375,41.081253,-9.731251,-0.5140351,-0.40778282,-0.50292605,1002.17334, , , , 
2025-11-24 20:04:30.411,7.3977103,-5.5423756,1.5921243,0.86366165,0.6757498,-3.0311005,-31.518751,39.225002,-10.51875,-0.49395883,-0.42108417,-0.5211623,1002.177, , , , 
2025-11-24 20:04:30.431,6.5407805,-5.262116,1.4461622,1.0567658,0.39773792,-2.8368511,-33.487503,37.443752,-11.08125,-0.4742499,-0.4364818,-0.535358,1002.177, , , , 
2025-11-24 20:04:30.451,5.8630137,-5.168796,1.218545,1.1031902,0.31283015,-2.597399,-35.737503,35.475002,-11.775001,-0.45524055,-0.45219103,-0.54648626,1002.17285, , , , 
2025-11-24 20:04:30.471,5.2956157,-5.118547,1.2161521,1.1367867,0.30549997,-2.3103006,-37.59375,33.46875,-12.618751,-0.437144,-0.46679163,-0.5554499,1002.17285, , , , 
2025-11-24 20:04:30.491,5.0539403,-4.8601217,0.9170493,1.1728268,0.29083964,-1.9553984,-39.1875,31.2,-13.312501,-0.42015406,-0.47995177,-0.56215674,1002.17114, , , , 
2025-11-24 20:04:30.511,4.99412,-4.4913282,0.5673981,1.1325108,0.2657949,-1.6462333,-40.6875,28.725,-14.343751,-0.40463045,-0.4917267,-0.5665942,1002.17114, , , , 
2025-11-24 20:04:30.531,4.9606204,-4.2038903,0.34965122,1.0133193,0.277401,-1.3872341,-41.68125,26.643751,-15.01875,-0.3907202,-0.5019643,-0.5695694,1002.1692, , , , 
2025-11-24 20:04:30.551,5.1568317,-4.273581,0.43579283,0.87648946,0.26518407,-1.1722159,-42.6375,24.225,-15.88125,-0.3784883,-0.51038283,-0.5717866,1002.1692, , , , 
2025-11-24 20:04:30.571,5.2477593,-4.709075,0.5195416,0.80624205,0.16256173,-0.9743014,-43.237503,22.462502,-16.556252,-0.3681487,-0.5175367,-0.57322717,1002.1692, , , , 
2025-11-24 20:04:30.591,5.343771,-5.6117673,0.5171488,0.7518766,-0.0023670332,-0.70125264,-43.875,20.98125,-17.175001,-0.36006567,-0.52401716,-0.57325363,1002.1692, , , , 
2025-11-24 20:04:30.611,5.7601223,-6.535995,0.6415756,0.74821156,-0.19661646,-0.31092125,-44.34375,19.81875,-17.7,-0.3551126,-0.52987564,-0.5710387,1002.16943, , , , 
2025-11-24 20:04:30.631,6.1241302,-6.8949184,0.48125646,0.7836407,-0.31451,0.16676131,-44.7,19.10625,-17.868752,-0.35349432,-0.5349599,-0.5658867,1002.16943, , , , 
2025-11-24 20:04:30.651,6.2437716,-6.643672,0.06460621,0.7500441,-0.35421506,0.67132115,-44.831253,18.225,-18.35625,-0.35491672,-0.53884614,-0.55764705,1002.1719, , , , 
2025-11-24 20:04:30.671,6.4232335,-6.0547385,-0.4118646,0.57412004,-0.23571068,1.1417499,-44.79375,18.337502,-18.45,-0.35910904,-0.5403701,-0.5472458,1002.1719, , , , 
2025-11-24 20:04:30.691,7.385746,-6.5647087,-0.81625164,0.29984966,-0.2216612,1.4984847,-44.850002,18.300001,-18.35625,-0.36588305,-0.53883606,-0.5358904,1002.17017, , , , 
2025-11-24 20:04:30.711,8.1230345,-7.361818,-0.7612167,0.007864659,-0.31939676,1.9248561,-44.53125,18.7875,-18.09375,-0.37651432,-0.53462154,-0.5235343,1002.17017, , , , 
2025-11-24 20:04:30.731,9.176475,-7.1249285,0.0047856453,-0.076432265,-0.33711132,2.404982,-44.25,19.875,-17.75625,-0.39509517,-0.5252347,-0.5058429,1002.16943, , , , 
2025-11-24 20:04:30.751,9.700802,-6.9738817,0.20578274,-0.088649206,-0.39453098,2.6603162,-43.59375,21.09375,-17.400002,-0.40767455,-0.51831335,-0.4936437,1002.16943, , , , 
2025-11-24 20:04:30.771,10.699207,-6.875776,0.038285162,-0.17233528,-0.39147675,2.9303107,-42.487503,22.6875,-17.41875,-0.43020526,-0.5049892,-0.47103614,1002.16895, , , , 
2025-11-24 20:04:30.791,11.467603,-7.077072,-0.0047856453,-0.25907558,-0.4012503,3.064697,-41.49375,24.656252,-17.306252,-0.4444334,-0.4957709,-0.4566715,1002.16895, , , , 
2025-11-24 20:04:30.811,12.528221,-7.196713,0.09332009,-0.3262688,-0.44095537,3.1856449,-40.10625,26.775002,-16.9125,-0.4690237,-0.47890106,-0.4316573,1002.177, , , , 
2025-11-24 20:04:30.831,13.189239,-6.971489,0.25603202,-0.393462,-0.42324078,3.268109,-38.568752,28.743752,-16.612501,-0.48890755,-0.46425107,-0.4109027,1002.177, , , , 
2025-11-24 20:04:30.851,13.378271,-6.296414,0.5697909,-0.4673745,-0.3444415,3.2711635,-37.0875,30.806252,-16.10625,-0.5083641,-0.44844425,-0.39017317,1002.1677, , , , 
2025-11-24 20:04:30.871,12.992728,-5.4035916,0.9290134,-0.6378009,-0.19478393,3.1819797,-35.23125,33.112503,-15.993751,-0.5269344,-0.43154308,-0.37056622,1002.1677, , , , 
2025-11-24 20:04:30.891,12.468401,-4.685147,1.3094722,-0.84548897,0.07459972,3.0133858,-33.24375,35.25,-15.450001,-0.54451305,-0.41314825,-0.35351962,1002.1677, , , , 
2025-11-24 20:04:30.911,11.707184,-4.098606,1.5610176,-0.9908706,0.36597386,2.8582306,-31.181252,37.425003,-15.0375,-0.5608187,-0.39287293,-0.3397823,1002.1677, , , , 
2025-11-24 20:04:30.931,10.981859,-3.5144582,1.8601205,-1.0556204,0.54373044,2.7079623,-28.612501,39.75,-14.3625,-0.5758887,-0.37118885,-0.3287428,1002.17017, , , , 
2025-11-24 20:04:30.951,10.486246,-3.0284162,1.9462621,-0.9768211,0.5938199,2.5741868,-26.23125,41.4,-13.856251,-0.5895941,-0.34923935,-0.31929076,1002.17017, , , , 
2025-11-24 20:04:30.971,10.06481,-2.4993033,1.8840487,-0.79356694,0.47714806,2.4312484,-23.868752,43.125,-13.293751,-0.6015819,-0.32841578,-0.31021416,1002.17285, , , , 
2025-11-24 20:04:30.991,10.086346,-2.0279171,1.6950158,-0.6048151,0.28961796,2.3023596,-21.46875,44.79375,-12.637501,-0.6120719,-0.30995739,-0.30030987,1002.17285, , , , 
2025-11-24 20:04:31.011,10.124631,-1.4198412,1.3908281,-0.43133453,0.21081866,2.1887422,-19.275002,45.881252,-12.31875,-0.62091017,-0.29373243,-0.2896799,1002.1704, , , , 
2025-11-24 20:04:31.031,10.251451,-0.8452646,1.0773684,-0.39285114,0.21875967,2.049469,-16.81875,46.893753,-11.38125,-0.6283885,-0.2790106,-0.27913752,1002.1704, , , , 
2025-11-24 20:04:31.051,10.534102,-0.37597227,0.93619186,-0.445384,0.27434677,1.8381158,-14.45625,47.756252,-11.00625,-0.6350727,-0.2653752,-0.2698843,1002.1726, , , , 
2025-11-24 20:04:31.071,10.723136,-0.019142581,1.2065809,-0.5217399,0.39407283,1.5638454,-12.431251,48.318752,-10.481251,-0.6411216,-0.2525579,-0.2628885,1002.1726, , , , 
2025-11-24 20:04:31.091,11.192428,-0.014356935,1.5634105,-0.43683216,0.39590538,1.3286692,-10.40625,49.218754,-9.993751,-0.6462325,-0.24066886,-0.25834945,1002.1753,37.88759745,127.74024515,145.448486328125,1.16
2025-11-24 20:04:31.111,11.857932,-0.25603202,1.1491531,-0.1778329,0.23769593,0.99079424,-8.625,50.1375,-9.712501,-0.6495475,-0.23128088,-0.2552581,1002.1753, , , , 
2025-11-24 20:04:31.131,12.583256,-1.0079765,0.51236314,-0.08192989,0.0122933015,0.72446483,-7.14375,50.5125,-9.543751,-0.65144277,-0.22573814,-0.25254372,1002.18286, , , , 
2025-11-24 20:04:31.151,13.933705,-1.8409779,0.6942177,-0.058106847,-0.36032352,0.42148462,-5.90625,50.79375,-9.4875,-0.6531798,-0.22423397,-0.24964847,1002.18286, , , , 
2025-11-24 20:04:31.171,15.54258,-2.4634109,1.8314066,-0.004963134,-0.7054522,0.05803049,-5.26875,50.756252,-9.356251,-0.65476483,-0.22709572,-0.24668767,1002.17773, , , , 
2025-11-24 20:04:31.191,16.184155,-2.3844478,2.7771697,0.021303298,-0.82090235,-0.2895416,-4.8562503,50.718754,-9.525001,-0.6553712,-0.2325218,-0.2449141,1002.17773, , , , 
2025-11-24 20:04:31.211,16.440187,-2.5546372,3.9430726,-0.08926006,-0.4580591,-1.056155,-4.5750003,50.625004,-8.925,-0.654067,-0.2459926,-0.24642512,1002.17896, , , , 
2025-11-24 20:04:31.231,16.133905,-4.359723,3.9837506,-0.2877854,0.13018683,-1.6505092,-4.74375,50.60625,-8.887501,-0.65079796,-0.25811717,-0.25536317,1002.17896, , , , 
2025-11-24 20:04:31.251,14.28545,-5.2046885,3.2536407,-0.21753798,0.85472804,-1.7758093,-5.3250003,50.60625,-8.868751,-0.6454318,-0.26761365,-0.27118763,1002.1809, , , , 
2025-11-24 20:04:31.271,12.37508,-4.2185464,2.1954148,0.037796173,1.1680927,-1.7190006,-6.6000004,50.343754,-8.868751,-0.637604,-0.27253425,-0.2905084,1002.1809, , , , 
2025-11-24 20:04:31.291,11.953645,-3.8377883,1.5777674,0.31267744,0.8180772,-1.8539978,-7.9687505,50.23125,-8.775001,-0.62824965,-0.27739733,-0.3097549,1002.1885, , , , 
2025-11-24 20:04:31.311,12.413365,-4.6037908,1.8074784,0.6394807,0.1711136,-2.10078,-9.618751,49.893753,-8.7375,-0.61807,-0.28712034,-0.32641974,1002.1885, , , , 
2025-11-24 20:04:31.331,13.330415,-6.1504517,2.14038,0.9827769,-0.49593163,-2.3445082,-11.45625,49.4625,-8.90625,-0.60692286,-0.30355698,-0.33937076,1002.1846, , , , 
2025-11-24 20:04:31.351,14.091632,-7.1345,1.9486549,1.1624423,-0.86060745,-2.5198214,-13.293751,49.10625,-9.225,-0.5947127,-0.32587406,-0.34858602,1002.1846, , , , 
2025-11-24 20:04:31.371,14.09881,-7.2972116,2.0207388,1.1141855,-0.8654942,-2.708573,-15.4125,48.468754,-9.7875,-0.5814434,-0.35085684,-0.35640943,1002.17773, , , , 
2025-11-24 20:04:31.391,13.655839,-7.333104,2.1164517,0.8001335,-0.5612923,-2.9193153,-17.4375,47.550003,-10.481251,-0.56373084,-0.38155413,-0.36839625,1002.17773, , , , 
2025-11-24 20:04:31.411,13.054941,-7.199106,1.9247267,0.5173113,-0.060397524,-3.0598102,-20.00625,46.18125,-11.2875,-0.55250746,-0.39777395,-0.3783905,1002.17114, , , , 
2025-11-24 20:04:31.431,11.776576,-6.9188466,1.3429717,0.2192178,0.393462,-3.1416638,-22.987501,44.5125,-12.262501,-0.5367287,-0.41578352,-0.39532232,1002.17114, , , , 
2025-11-24 20:04:31.451,10.4001045,-6.305985,1.2017952,0.024357535,0.7038488,-3.1337228,-25.95,42.6375,-12.918751,-0.51647395,-0.43275535,-0.42097962,1002.1692, , , , 
2025-11-24 20:04:31.471,9.325129,-5.779265,1.4461622,-0.023899399,0.80036265,-3.0995154,-28.66875,40.6875,-13.368751,-0.5000514,-0.44334382,-0.44294944,1002.1692, , , , 
2025-11-24 20:04:31.491,8.455936,-5.5663037,1.8409779,0.08910734,0.786924,-3.061643,-30.806252,38.925003,-13.556251,-0.4831459,-0.45309404,-0.4644589,1002.16504, , , , 
2025-11-24 20:04:31.511,7.5556364,-5.42752,1.8720846,0.34505233,0.7056813,-2.9235914,-32.8875,37.4625,-13.63125,-0.46547475,-0.46301416,-0.48392227,1002.16504, , , , 
2025-11-24 20:04:31.531,6.808777,-5.5423756,1.704587,0.5215872,0.64032066,-2.7684362,-34.48125,35.4,-14.08125,-0.44731632,-0.4732766,-0.500766,1002.16504, , , , 
2025-11-24 20:04:31.551,6.009275,-5.372485,1.3549358,0.7066739,0.56999683,-2.5509746,-36.487503,33.300003,-14.6625,-0.42909226,-0.4835503,-0.5150377,1002.16504, , , , 
2025-11-24 20:04:31.571,5.480162,-5.286044,0.7827521,0.7854732,0.43011284,-2.316409,-38.2125,31.1625,-15.4875,-0.41151983,-0.49397442,-0.52635777,1002.1658, , , , 
2025-11-24 20:04:31.591,5.209474,-5.1616178,0.39750767,0.78180814,0.31649524,-2.0916173,-39.45,28.66875,-16.518751,-0.39536524,-0.50422424,-0.53525674,1002.1658, , , , 
2025-11-24 20:04:31.611,4.8098726,-5.1735816,0.33529428,0.69690037,0.24380441,-1.8643821,-40.65,26.6625,-17.325,-0.38087055,-0.513695,-0.5424773,1002.16016, , , , 
2025-11-24 20:04:31.631,4.421936,-5.1903315,0.31136605,0.62176615,0.21875967,-1.6065283,-41.362503,24.843752,-17.625,-0.36821565,-0.5218137,-0.54845,1002.16016, , , , 
2025-11-24 20:04:31.651,4.1775694,-5.59741,-0.14117654,0.490434,0.22975492,-1.3261493,-42.16875,23.00625,-18.2625,-0.35739425,-0.5283558,-0.55327815,1002.16016, , , , 
2025-11-24 20:04:31.671,4.3238306,-6.387341,-0.32093734,0.29984966,0.17355698,-1.0201149,-42.80625,21.46875,-18.375,-0.3490801,-0.53297335,-0.5571207,1002.16016, , , , 
2025-11-24 20:04:31.691,4.6325045,-7.318747,-0.22492532,0.11354123,0.082540736,-0.54854083,-43.10625,19.875,-18.675001,-0.3445432,-0.53544945,-0.55950654,1002.1577, , , , 
2025-11-24 20:04:31.711,4.9103713,-7.596614,0.21774685,0.032909397,0.0055739814,0.06230642,-43.40625,18.806252,-19.40625,-0.34438285,-0.5354604,-0.55944955,1002.1577, , , , 
2025-11-24 20:04:31.731,5.003691,-7.172785,0.6583253,0.0432938,-0.08971819,0.7226323,-43.55625,18.09375,-19.462502,-0.34818876,-0.5335453,-0.55615836,1002.15576, , , , 
2025-11-24 20:04:31.751,5.1640105,-6.782456,0.6655038,0.086663954,-0.09827005,1.1722922,-43.631252,17.6625,-19.612501,-0.35489905,-0.5300688,-0.5497237,1002.15576, , , , 
2025-11-24 20:04:31.771,6.7872415,-8.001,0.22013968,0.055510744,-0.29190862,1.6878474,-43.725002,17.98125,-19.706251,-0.36420983,-0.52544993,-0.54008794,1002.16113, , , , 
2025-11-24 20:04:31.791,8.635398,-9.526126,0.5458627,-0.07704311,-0.5386909,2.200959,-43.518753,18.2625,-19.48125,-0.37782338,-0.5197421,-0.52690566,1002.16113, , , , 
2025-11-24 20:04:31.811,9.727123,-9.142975,1.8361923,0.08910734,-0.5845045,2.817304,-43.03125,19.66875,-19.3125,-0.39563942,-0.5119217,-0.5100678,1002.1631, , , , 
2025-11-24 20:04:31.831,10.138988,-7.574779,2.4323041,0.522198,-0.514257,3.2430644,-42.54375,21.300001,-19.21875,-0.41409126,-0.5024642,-0.48872966,1002.1631, , , , 
2025-11-24 20:04:31.851,11.441281,-6.5742803,1.3214363,0.9827769,-0.5173113,3.309036,-41.79375,23.25,-18.7875,-0.42984626,-0.49374768,-0.46307713,1002.16187, , , , 
2025-11-24 20:04:31.871,12.193226,-6.8614187,-0.35204405,0.93451995,-0.4580591,3.1098998,-40.7625,25.837502,-18.6,-0.44265914,-0.48666897,-0.43587714,1002.16187, , , , 
2025-11-24 20:04:31.891,12.564114,-7.6851482,-1.1874382,0.498375,-0.31389913,3.0390415,-39.2625,27.675001,-18.375,-0.45484036,-0.4787952,-0.41002747,1002.1604, , , , 
2025-11-24 20:04:31.911,12.882658,-7.9340014,-1.0606186,0.025579229,-0.1868429,3.108678,-37.4625,29.75625,-18.243752,-0.46896952,-0.46776134,-0.38643375,1002.1604, , , , 
2025-11-24 20:04:31.931,12.975978,-7.4192457,-0.38554356,-0.38796437,-0.14347275,3.125171,-35.5875,31.66875,-18.337502,-0.48533335,-0.45373648,-0.36484888,1002.16064, , , , 
2025-11-24 20:04:31.951,12.65534,-6.6939216,0.10049855,-0.8662578,0.031229567,3.0628645,-33.65625,33.5625,-18.206251,-0.5033162,-0.43751153,-0.3454748,1002.16064, , , , 
2025-11-24 20:04:31.971,11.920145,-5.721837,0.61764735,-1.4386216,0.5211291,2.9107635,-31.612501,35.737503,-18.243752,-0.52221024,-0.41797358,-0.33020866,1002.1633, , , , 
2025-11-24 20:04:31.991,11.063215,-4.9510493,1.2711871,-2.0532103,1.1259443,2.7476673,-29.587502,37.575,-18.0,-0.5416622,-0.39347565,-0.32106143,1002.1633, , , , 
2025-11-24 20:04:32.011,10.11506,-4.3070807,2.044667,-2.4582021,1.5535372,2.5741868,-27.150002,39.5625,-17.325,-0.5617363,-0.36389902,-0.31817004,1002.1677, , , , 
2025-11-24 20:04:32.031,9.305986,-4.1297126,2.5259235,-2.5956428,1.694643,2.4391894,-24.69375,41.53125,-16.6875,-0.581519,-0.33133405,-0.31943852,1002.1677, , , , 
2025-11-24 20:04:32.051,8.922835,-4.005286,2.8489544,-2.414221,1.4893984,2.4257507,-22.331251,43.18125,-15.39375,-0.6050159,-0.28996143,-0.3219329,1002.1797, , , , 
2025-11-24 20:04:32.071,9.138189,-3.49053,2.8872397,-2.0238898,1.0856283,2.4624016,-19.40625,45.0,-13.743751,-0.621996,-0.25911808,-0.32098934,1002.1797, , , , 
2025-11-24 20:04:32.091,9.566804,-2.8776684,2.815455,-1.6671549,0.6824691,2.4636233,-16.85625,46.575,-12.243751,-0.63338757,-0.23852956,-0.31763753,1002.1814,37.88760598,127.74023943,145.22454833984375,1.1
2025-11-24 20:04:32.111,10.7351,-1.6782659,2.693421,-1.2907966,0.3470376,2.3884892,-14.025001,47.737503,-10.575001,-0.64673567,-0.21494329,-0.31000084,1002.1814, , , , 
2025-11-24 20:04:32.131,12.207582,0.1268196,2.300699,-1.009196,0.41178742,2.125825,-11.26875,48.91875,-9.13125,-0.6596048,-0.19059817,-0.29891264,1002.1821, , , , 
2025-11-24 20:04:32.151,13.57209,1.2329018,1.6902301,-1.0910496,0.7832589,1.5907226,-9.150001,49.725002,-7.93125,-0.66693294,-0.17384245,-0.2937322,1002.1821, , , , 
2025-11-24 20:04:32.171,14.383855,1.2855439,1.041476,-1.4764942,1.3415732,0.8710682,-6.7500005,50.193752,-6.7312503,-0.67321944,-0.15833294,-0.29600868,1002.1863, , , , 
2025-11-24 20:04:32.191,13.893027,0.6966105,1.0677971,-1.8210884,1.8284186,0.15149012,-5.11875,50.662502,-5.26875,-0.6791153,-0.14277405,-0.30752683,1002.1863, , , , 
2025-11-24 20:04:32.211,13.021441,-0.8210373,1.879263,-1.9310409,1.7490084,-0.43492326,-3.61875,50.7,-3.9,-0.6847213,-0.12852444,-0.3253682,1002.18115, , , , 
2025-11-24 20:04:32.231,12.48515,-2.4705894,3.263212,-1.6964755,1.2853754,-0.8014316,-2.5875,50.79375,-2.2125,-0.68981886,-0.11820698,-0.34439385,1002.18115, , , , 
2025-11-24 20:04:32.251,12.09512,-3.4881372,4.503292,-1.0837194,0.8553389,-0.8454126,-2.5875,50.86875,-0.4875,-0.69297475,-0.11250605,-0.36119246,1002.18164, , , , 
2025-11-24 20:04:32.271,12.219547,-3.382853,5.3557353,-0.61031276,0.5296809,-0.8167028,-2.775,50.831253,1.1625,-0.69382226,-0.11104976,-0.37430316,1002.18164, , , , 
2025-11-24 20:04:32.291,13.121941,-3.775575,5.5423756,-0.13263021,0.39040774,-0.943759,-3.8437502,50.906254,2.325,-0.6921275,-0.11360478,-0.38506708,1002.1863, , , , 
2025-11-24 20:04:32.311,14.350355,-5.4179487,5.319544,0.21616358,0.26090813,-1.1575556,-4.55625,50.906254,2.9437501,-0.6881813,-0.119887285,-0.39561462,1002.1863, , , , 
2025-11-24 20:04:32.331,14.661423,-5.496912,4.6636114,0.6083275,0.2138729,-1.1771027,-5.34375,50.9625,3.525,-0.68231934,-0.12887327,-0.4053639,1002.17676, , , , 
2025-11-24 20:04:32.351,14.271093,-3.83061,3.49053,0.8551098,0.3378749,-1.3218734,-6.5062504,50.643753,3.3937502,-0.6741211,-0.13955526,-0.41488987,1002.17676, , , , 
2025-11-24 20:04:32.371,13.754244,-3.3349965,1.4820545,0.71522576,0.6183301,-1.8680472,-7.4437504,50.381252,3.3187501,-0.6642472,-0.15235414,-0.42687064,1002.1763, , , , 
2025-11-24 20:04:32.391,13.9528475,-4.848158,0.6008976,0.37864894,0.90115243,-2.3426757,-9.225,50.11875,2.86875,-0.65383893,-0.16591735,-0.44337085,1002.1763, , , , 
2025-11-24 20:04:32.411,14.577674,-6.708278,0.689432,0.24792764,0.86266905,-2.6432126,-11.19375,49.706253,2.1750002,-0.64364094,-0.17908598,-0.4633512,1002.1858, , , , 
2025-11-24 20:04:32.431,14.620745,-7.663613,1.189831,0.35116082,0.6763606,-2.8710585,-13.05,49.18125,1.3875,-0.63341194,-0.1936571,-0.48390457,1002.1858, , , , 
2025-11-24 20:04:32.451,14.297415,-8.005786,1.5323038,0.4788279,0.5657209,-3.0152185,-15.450001,48.562504,0.675,-0.6223577,-0.21053596,-0.50368714,1002.1809, , , , 
2025-11-24 20:04:32.471,13.469198,-8.393723,1.0606186,0.5411343,0.6720847,-3.1685412,-17.7,47.737503,0.26250002,-0.6099571,-0.22883387,-0.5230162,1002.1809, , , , 
2025-11-24 20:04:32.491,11.819647,-8.71466,-0.05503492,0.4635567,0.96468055,-3.1483831,-20.23125,46.725002,-0.375,-0.5958307,-0.24617952,-0.54303396,1002.1782, , , , 
2025-11-24 20:04:32.511,10.756635,-8.455936,-1.3046865,0.322451,1.1430479,-2.9364192,-23.15625,45.84375,-0.95625,-0.5808679,-0.26042297,-0.56341034,1002.1782, , , , 
2025-11-24 20:04:32.531,10.974681,-7.510173,-2.5331018,0.0884965,1.218793,-2.75683,-25.81875,44.60625,-2.1375,-0.566525,-0.27163962,-0.5829633,1002.1709, , , , 
2025-11-24 20:04:32.551,9.676874,-6.6652074,-3.1387851,-0.33237725,1.4661862,-2.693302,-28.331251,43.050003,-2.7562501,-0.5528477,-0.27984926,-0.6025954,1002.1709, , , , 
2025-11-24 20:04:32.571,7.8311105,-6.303592,-2.5208387,-0.8186117,1.8522416,-2.6480992,-30.975,41.175003,-3.6000001,-0.53910553,-0.28333193,-0.6244949,1002.1697, , , , 
2025-11-24 20:04:32.591,6.9044895,-6.279664,-1.0390832,-0.8931351,2.0403826,-2.440411,-33.1875,39.28125,-4.21875,-0.5249764,-0.2814955,-0.6484972,1002.1697, , , , 
2025-11-24 20:04:32.611,6.617351,-5.985347,0.03589234,-0.34337252,1.734348,-2.1838553,-35.175003,37.425003,-4.7625003,-0.5103677,-0.2785462,-0.6710326,1002.1709, , , , 
2025-11-24 20:04:32.631,7.1799636,-5.6261244,0.3687938,0.44584215,0.97873,-2.0268676,-37.162502,35.643753,-5.9437504,-0.49652675,-0.2807713,-0.68790245,1002.1709, , , , 
2025-11-24 20:04:32.651,7.301997,-5.386842,-1.3501502,1.0243145,0.29878068,-1.9963253,-38.4,34.331253,-6.99375,-0.48458084,-0.29128703,-0.69785964,1002.166, , , , 
2025-11-24 20:04:32.671,6.4666033,-5.2477593,-2.679064,0.9754467,-0.017027367,-1.9627286,-39.487503,32.49375,-7.8187504,-0.4746252,-0.30681956,-0.7031863,1002.166, , , , 
2025-11-24 20:04:32.691,5.7696934,-5.326722,-2.597708,0.64131325,-0.048791423,-1.8387266,-40.537502,30.7875,-8.475,-0.4667515,-0.3216676,-0.7072326,1002.1643, , , , 
2025-11-24 20:04:32.711,4.929514,-5.8749776,-1.9438694,0.3212293,-0.048791423,-1.6823497,-41.49375,29.362501,-8.962501,-0.46044436,-0.3332151,-0.7116362,1002.1643, , , , 
2025-11-24 20:04:32.731,4.4051867,-6.8422766,-2.097309,0.1349209,-0.110487,-1.4440429,-42.037502,28.406252,-9.056251,-0.45611528,-0.34171075,-0.7159188,1002.1653, , , , 
2025-11-24 20:04:32.751,3.5096726,-7.579864,-2.2935205,-0.10941801,-0.15630054,-0.9266553,-43.48125,25.875002,-9.806251,-0.4542821,-0.34687388,-0.71915966,1002.1653, , , , 
2025-11-24 20:04:32.771,3.3732817,-7.538887,-2.638386,-0.40934402,-0.21066594,-0.23700874,-44.15625,24.54375,-9.975,-0.45662215,-0.34767342,-0.72078437,1002.17065, , , , 
2025-11-24 20:04:32.791,3.3493536,-7.292426,-2.3054845,-0.82533103,-0.25342527,0.34573954,-44.737503,23.23125,-9.50625,-0.46244624,-0.34286234,-0.72045803,1002.17065, , , , 
2025-11-24 20:04:32.811,4.1464624,-6.808777,-1.1850454,-1.1753465,-0.25953373,0.96025187,-45.05625,22.9125,-9.13125,-0.4719303,-0.3323627,-0.7190945,1002.16846, , , , 
2025-11-24 20:04:32.831,6.4737816,-6.9906316,-0.31615168,-1.4190745,-0.38475743,1.3860887,-44.850002,23.23125,-8.45625,-0.48430002,-0.31752428,-0.7162543,1002.16846, , , , 
2025-11-24 20:04:32.851,9.624231,-9.174082,0.13399807,-1.9511988,-0.6779641,1.616989,-44.925003,23.8875,-7.51875,-0.5002147,-0.29973346,-0.7116464,1002.16943, , , , 
2025-11-24 20:04:32.871,10.90499,-10.782956,1.3190435,-2.390398,-0.6859051,1.8900378,-44.287502,25.087502,-6.99375,-0.5198733,-0.27732992,-0.70612764,1002.16943, , , , 
2025-11-24 20:04:32.891,10.428819,-9.483055,3.3900316,-2.494853,-0.38781166,2.4843922,-43.7625,26.812502,-5.3625,-0.5402933,-0.24851726,-0.7003533,1002.1753, , , , 
2025-11-24 20:04:32.911,10.866705,-6.818348,4.098606,-2.2230258,-0.31145576,2.796535,-42.84375,28.312502,-3.6937501,-0.55872756,-0.21682096,-0.69321465,1002.1753, , , , 
2025-11-24 20:04:32.931,12.178869,-6.2365932,3.0619156,-2.0556538,-0.38903335,2.5668566,-41.362503,30.150002,-2.1750002,-0.5753151,-0.18767138,-0.68448126,1002.1697, , , , 
2025-11-24 20:04:32.951,12.923336,-7.02443,2.271985,-2.1649954,-0.37315133,2.2876992,-40.068752,32.287502,-0.13125001,-0.5908739,-0.1608689,-0.6756072,1002.1697, , , , 
2025-11-24 20:04:32.971,13.42852,-7.9387875,2.6814568,-2.3500822,-0.37315133,2.108721,-38.268753,34.350002,1.40625,-0.60609645,-0.13405158,-0.6672189,1002.1738, , , , 
2025-11-24 20:04:32.991,13.268202,-8.252546,4.156034,-2.3097663,-0.43545774,1.9395164,-36.7125,36.318752,3.1125002,-0.62102956,-0.10730079,-0.65904564,1002.1738, , , , 
2025-11-24 20:04:33.011,12.121441,-7.2086773,5.1329036,-1.9774653,-0.35543674,1.849111,-35.0625,38.081253,5.0625,-0.6341711,-0.08222041,-0.65105504,1002.17773, , , , 
2025-11-24 20:04:33.031,10.823634,-5.8893347,4.199105,-1.7978762,0.05444176,1.7501538,-33.2625,39.05625,7.0312505,-0.6438712,-0.059271242,-0.6440449,1002.17773, , , , 
2025-11-24 20:04:33.051,9.509377,-4.7688956,2.6742785,-1.9964015,0.5730511,1.6066047,-31.781252,39.73125,8.75625,-0.649893,-0.035960555,-0.63992304,1002.1841, , , , 
2025-11-24 20:04:33.071,8.4679,-4.4004006,1.989632,-2.4496503,1.0520316,1.3586006,-30.13125,40.612503,10.387501,-0.65360695,-0.009933342,-0.6395131,1002.1841, , , , 
2025-11-24 20:04:33.092,7.9148593,-4.4985065,2.3653052,-2.7007084,1.0471449,1.1551886,-28.875002,41.1375,11.868751,-0.656808,0.01836368,-0.6412427,1002.18604,37.8876144,127.74023361,144.70361328125,1.17
2025-11-24 20:04:33.111,7.5699935,-4.6899323,3.05713,-2.7495763,0.80341685,0.98407495,-27.825,41.756252,13.2375,-0.6607878,0.046419162,-0.64266104,1002.18604, , , , 
2025-11-24 20:04:33.131,7.3977103,-4.833801,3.7037904,-2.7080386,0.6360447,0.8924478,-26.8875,41.775,14.718751,-0.6655394,0.07275224,-0.6427118,1002.18384, , , , 
2025-11-24 20:04:33.151,7.144071,-4.855336,4.0794635,-2.70193,0.74416465,0.92909867,-26.38125,41.381252,16.2,-0.66986024,0.09810857,-0.641998,1002.18384, , , , 
2025-11-24 20:04:33.171,6.9762745,-4.4674,4.4051867,-2.6524515,1.0001097,1.0580639,-25.556252,40.85625,17.90625,-0.6721747,0.12433507,-0.64176685,1002.1931, , , , 
2025-11-24 20:04:33.191,7.1249285,-3.926323,4.4985065,-2.4808035,1.1320527,1.1747357,-25.237501,40.443752,19.368752,-0.67187184,0.15155776,-0.6423579,1002.1931, , , , 
2025-11-24 20:04:33.211,7.2732835,-3.2799616,4.4004006,-2.2138631,1.0404255,1.2455939,-24.656252,39.84375,21.225,-0.6698698,0.17822134,-0.64286673,1002.199, , , , 
2025-11-24 20:04:33.231,7.7760754,-2.9039893,4.2568316,-1.8888924,0.8296833,1.2681953,-23.98125,39.09375,22.931252,-0.66726303,0.20274927,-0.6424232,1002.199, , , , 
2025-11-24 20:04:33.251,8.59472,-2.856133,4.0531425,-1.5717864,0.58648974,1.2914075,-23.75625,38.5125,24.375002,-0.66468287,0.22440645,-0.6407433,1002.1985, , , , 
2025-11-24 20:04:33.271,9.722338,-2.8872397,3.856931,-1.2657518,0.35131353,1.301181,-22.95,38.081253,25.800001,-0.6623883,0.24320063,-0.63787144,1002.1985, , , , 
2025-11-24 20:04:33.292,11.264213,-2.4059832,3.612564,-0.97865367,0.15767495,1.2700278,-22.556252,37.800003,26.8875,-0.6600487,0.2626866,-0.6330753,1002.20166, , , , 
2025-11-24 20:04:33.311,13.042977,-2.4658036,3.2871401,-0.9169581,0.042835664,1.0788326,-22.125,37.7625,27.712502,-0.65912855,0.27224314,-0.62997943,1002.20166, , , , 
2025-11-24 20:04:33.331,14.838491,-2.4346972,3.976572,-1.0495119,0.025121093,0.72690827,-21.300001,37.85625,28.462502,-0.65946746,0.28268883,-0.6258224,1002.19995, , , , 
2025-11-24 20:04:33.351,15.604793,-1.8768703,5.3051867,-1.1160944,0.3989596,0.23945212,-20.79375,37.575,29.1375,-0.6604535,0.2911333,-0.62333316,1002.19995, , , , 
2025-11-24 20:04:33.371,16.0023,-2.5522444,5.9087763,-1.0238564,0.8156338,-0.24372806,-20.268751,37.331253,29.75625,-0.66012293,0.29724568,-0.62514377,1002.1997, , , , 
2025-11-24 20:04:33.391,15.235999,-3.4761732,5.2812586,-0.7269846,1.3782241,-0.61573404,-20.00625,36.84375,30.393751,-0.6573687,0.30047017,-0.6322311,1002.1997, , , , 
2025-11-24 20:04:33.411,13.131512,-2.65035,3.5096726,-0.31283015,1.8772863,-0.67009944,-20.325,36.2625,30.91875,-0.6482282,0.30232504,-0.647715,1002.2014, , , , 
2025-11-24 20:04:33.431,12.18844,-2.2289143,2.12363,0.043904647,1.6995298,-0.8099835,-21.056252,35.756252,31.181252,-0.6385819,0.3022093,-0.66218436,1002.2014, , , , 
2025-11-24 20:04:33.451,12.087942,-2.600101,1.6950158,0.3419981,1.1796988,-0.9700254,-22.25625,35.381252,30.7875,-0.6309169,0.2985462,-0.6751851,1002.1997, , , , 
2025-11-24 20:04:33.471,12.509079,-3.0068808,1.5849459,0.70789564,0.57121855,-1.1306783,-23.625,35.081253,30.337502,-0.62695533,0.29004237,-0.68540967,1002.1997, , , , 
2025-11-24 20:04:33.491,13.150654,-3.638885,1.8218354,0.9992698,0.097811915,-1.3487507,-24.956251,34.575,29.643751,-0.62641054,0.27667373,-0.6933058,1002.2058, , , , 
2025-11-24 20:04:33.511,13.794922,-4.2520456,1.7979071,1.2174186,-0.12026055,-1.6340164,-26.081251,34.162502,28.706251,-0.6283305,0.25877118,-0.6999564,1002.2058, , , , 
2025-11-24 20:04:33.531,14.029418,-5.168796,1.4126626,1.271784,-0.1416402,-1.9077524,-27.112501,33.84375,27.675001,-0.63047343,0.24302506,-0.7048381,1002.2024, , , , 
2025-11-24 20:04:33.551,13.646268,-5.927919,1.2017952,1.1575556,-0.046958882,-2.1869094,-28.2,33.45,26.94375,-0.6344566,0.21468128,-0.71304816,1002.2024, , , , 
2025-11-24 20:04:33.571,12.987942,-6.100202,1.230509,1.0567658,0.14057122,-2.3029704,-29.587502,33.225002,26.2875,-0.6367164,0.19202913,-0.7200977,1002.2014, , , , 
2025-11-24 20:04:33.591,12.166905,-5.642874,0.88354975,0.9436827,0.3678064,-2.384824,-30.7875,32.662502,25.743752,-0.63741887,0.16992739,-0.72789836,1002.2014, , , , 
2025-11-24 20:04:33.611,11.166107,-5.152046,0.62482584,0.7915817,0.6219952,-2.472786,-32.04375,31.9125,25.29375,-0.6363042,0.14873761,-0.7366219,1002.1987, , , , 
2025-11-24 20:04:33.632,10.320843,-4.8936214,0.8234301,0.7640936,0.72217417,-2.5381467,-33.525,31.06875,24.487501,-0.6336029,0.1283977,-0.74601173,1002.1987, , , , 
2025-11-24 20:04:33.651,9.736694,-4.8385863,0.9314062,0.9247464,0.5528931,-2.5900688,-34.987503,29.643751,23.325,-0.6306624,0.1074779,-0.75479656,1002.1963, , , , 
2025-11-24 20:04:33.671,9.509377,-4.781159,0.6367899,1.1661074,0.2761793,-2.6254978,-36.581253,28.48125,22.48125,-0.6287457,0.08465559,-0.76180094,1002.1963, , , , 
2025-11-24 20:04:33.691,9.296415,-4.7210393,-0.0023928226,1.2100884,0.104531236,-2.676809,-38.4375,26.75625,21.956251,-0.6278787,0.05992773,-0.7669237,1002.1902, , , , 
2025-11-24 20:04:33.711,8.793623,-4.929514,-0.36640096,1.0200386,0.03978143,-2.725066,-39.956253,25.25625,21.0375,-0.62783045,0.034848973,-0.77039933,1002.1902, , , , 
2025-11-24 20:04:33.731,8.286046,-5.037191,-0.19860429,0.8190698,0.123467505,-2.6597054,-41.325,23.475,20.643751,-0.6273968,0.011464151,-0.7732439,1002.1892, , , , 
2025-11-24 20:04:33.751,7.8000035,-5.211867,0.4118646,0.6626929,0.20654273,-2.5387576,-42.787502,21.2625,19.743752,-0.6258351,-0.009506588,-0.7761243,1002.1892, , , , 
2025-11-24 20:04:33.771,7.4718876,-5.4203415,0.5458627,0.6633038,0.22486815,-2.3744397,-43.912502,19.331251,18.993752,-0.62352085,-0.028746143,-0.7787823,1002.1892, , , , 
2025-11-24 20:04:33.791,7.1105714,-5.681159,0.45254257,0.64864343,0.17661121,-2.2125652,-44.8125,17.1,18.806252,-0.6209727,-0.046859235,-0.7808652,1002.1892, , , , 
2025-11-24 20:04:33.811,6.478567,-5.9374905,0.20338993,0.56373566,0.13263021,-1.9908276,-45.862503,15.13125,18.16875,-0.61866486,-0.06347255,-0.7821726,1002.18506, , , , 
2025-11-24 20:04:33.831,5.956633,-6.2318077,0.13878371,0.454394,0.1026987,-1.7177788,-46.7625,13.406251,18.337502,-0.6171247,-0.07434439,-0.78276885,1002.18506, , , , 
2025-11-24 20:04:33.851,5.6213384,-6.7704916,0.19621146,0.34627405,0.033062108,-1.2778925,-47.41875,11.90625,18.150002,-0.61512893,-0.088516876,-0.7831985,1002.1809, , , , 
2025-11-24 20:04:33.871,5.453841,-6.966703,0.39750767,0.31634253,-0.03413109,-0.7806628,-47.9625,10.33125,18.0375,-0.6144923,-0.09598838,-0.7829316,1002.1809, , , , 
2025-11-24 20:04:33.891,5.3075795,-6.8015985,0.28743783,0.34138727,-0.06894939,-0.2583884,-47.98125,9.243751,18.0375,-0.61472595,-0.10017121,-0.7822486,1002.1809, , , , 
2025-11-24 20:04:33.911,5.1664033,-6.2365932,-0.22731815,0.3444415,-0.037185326,0.26877278,-48.018753,8.55,17.7,-0.6155446,-0.10135655,-0.7814012,1002.1809, , , , 
2025-11-24 20:04:33.931,6.0571313,-6.6795645,-1.0247263,0.19600561,-0.057343286,0.6774296,-47.831253,8.00625,17.53125,-0.6167018,-0.09953389,-0.7805677,1002.1887, , , , 
2025-11-24 20:04:33.951,6.6101727,-7.455138,-1.4676976,-0.12835428,-0.16301987,1.085552,-47.8125,8.043751,17.493752,-0.6189454,-0.09372621,-0.779226,1002.1887, , , , 
2025-11-24 20:04:33.971,6.9116683,-7.3546395,-0.7899306,-0.40690064,-0.23693238,1.5736189,-47.850002,8.55,17.456251,-0.6224008,-0.08248847,-0.7772936,1002.1875, , , , 
2025-11-24 20:04:33.991,7.4862447,-6.579066,0.31136605,-0.42766944,-0.32855946,1.9749455,-47.5875,9.1875,17.60625,-0.62660515,-0.06681409,-0.7747133,1002.1875, , , , 
2025-11-24 20:04:34.011,8.266903,-6.018846,0.63918275,-0.3146627,-0.41652146,2.1667516,-47.7,10.40625,18.1875,-0.6312013,-0.04963091,-0.7711898,1002.18823, , , , 
2025-11-24 20:04:34.031,9.361021,-6.478567,0.083748795,-0.28289863,-0.53136075,2.2156193,-47.475002,11.8125,18.431252,-0.63615865,-0.03272898,-0.7665124,1002.18823, , , , 
2025-11-24 20:04:34.051,10.359127,-7.4718876,-0.40707895,-0.50036025,-0.61138177,2.308468,-46.875,13.406251,18.88125,-0.64323133,-0.01077977,-0.7588462,1002.18286, , , , 
2025-11-24 20:04:34.071,11.063215,-7.811968,0.23928227,-0.6781168,-0.64131325,2.417199,-46.275,15.13125,19.237501,-0.64763314,0.004109348,-0.75353974,1002.18286, , , , 
2025-11-24 20:04:34.091,11.302498,-7.41446,1.2568301,-0.7801283,-0.666358,2.5118804,-45.05625,16.81875,19.706251,-0.6532652,0.025592713,-0.7458578,1002.18555,37.88762368,127.74022872,144.706787109375,1.14
2025-11-24 20:04:34.111,11.175678,-6.739385,1.9704895,-0.8186117,-0.51181364,2.552807,-43.725002,19.03125,20.456251,-0.6589921,0.053580392,-0.7359567,1002.18555, , , , 
2025-11-24 20:04:34.131,10.766207,-5.982954,2.0518453,-0.79784286,-0.2577012,2.5436444,-42.300003,20.90625,21.487501,-0.66072935,0.0704353,-0.730784,1002.1819, , , , 
2025-11-24 20:04:34.151,10.091131,-5.2716875,1.6639091,-0.881529,0.076432265,2.5552504,-40.7625,22.875,22.143751,-0.6604249,0.09871216,-0.7239404,1002.1819, , , , 
2025-11-24 20:04:34.171,10.069596,-4.77398,1.5610176,-0.90779537,0.25235626,2.6077833,-39.54375,24.618752,22.893751,-0.6585345,0.116418265,-0.7206688,1002.1821, , , , 
2025-11-24 20:04:34.191,10.263414,-4.23051,1.489233,-0.869312,0.24013934,2.5583048,-38.04375,26.175001,23.15625,-0.65395856,0.14615022,-0.71535665,1002.1821, , , , 
2025-11-24 20:04:34.211,10.062417,-3.7875392,1.378864,-0.75997037,0.015958386,2.4141448,-36.80625,27.581251,23.4375,-0.6507707,0.16811453,-0.7101265,1002.1843, , , , 
