Time,Accel_X,Accel_Y,Accel_Z,Gyro_X,Gyro_Y,Gyro_Z,Mag_X,Mag_Y,Mag_Z,Orient_X,Orient_Y,Orient_Z,Pressure,Lat,Lng,Alt,Speed
2025-11-24 19:37:50.671,-5.4729834,4.874479,7.086643,0.21944688,-0.8535827,0.30847788,-1.0500001,-16.5,-50.568752,0.030737387,0.35872683,0.63545585,1001.95435,37.887512,127.74035701,145.61871337890625,0.0
2025-11-24 19:37:50.691,-4.4482574,4.886443,7.663613,-0.07131642,-0.47668993,0.5210527,-2.15625,-16.331251,-50.11875,0.041836303,0.35118145,0.63889116,1001.9309, , , , 
2025-11-24 19:37:50.711,-4.158427,5.2238307,7.740183,-0.10246963,-0.24640052,0.34818295,-2.9625,-16.3125,-49.593754,0.04561138,0.3472314,0.6428152,1001.90894, , , , 
2025-11-24 19:37:50.731,-4.3645086,5.2645087,7.5053873,-0.15133741,-0.16943376,0.11606098,-3.3187501,-16.25625,-49.425003,0.04673035,0.3450673,0.6448203,1001.90894, , , , 
2025-11-24 19:37:50.751,-4.929514,5.1257253,7.278069,-0.25640315,-0.08941277,0.005497625,-4.0687504,-16.612501,-49.218754,0.046094835,0.3431786,0.6456037,1001.8894, , , , 
2025-11-24 19:37:50.771,-5.118547,4.840979,7.361818,-0.30832514,-0.044820916,0.060473878,-4.51875,-16.331251,-49.312504,0.044134364,0.34143758,0.64637846,1001.8894, , , , 
2025-11-24 19:37:50.791,-4.9917274,4.7955155,7.376175,-0.23746687,-0.13644801,0.14293826,-4.40625,-16.1625,-49.85625,0.042633202,0.3395016,0.6477445,1001.8694, , , , 
2025-11-24 19:37:50.811,-4.7114677,4.8792644,7.2158556,-0.16599774,-0.3111503,0.17348062,-4.3875003,-15.88125,-49.987503,0.042867985,0.33706838,0.6493288,1001.8694, , , , 
2025-11-24 19:37:50.831,-4.4674,5.022834,7.11775,-0.20325942,-0.4675272,0.15149012,-4.4625,-15.656251,-50.025,0.044492017,0.33356678,0.650799,1001.8667, , , , 
2025-11-24 19:37:50.851,-4.2975097,5.030012,7.2302127,-0.29916245,-0.55915433,0.13560809,-4.3125,-15.431251,-50.193752,0.04643616,0.32876527,0.6522217,1001.8667, , , , 
2025-11-24 19:37:50.871,-4.132106,4.9725847,7.3235326,-0.3345916,-0.59824854,0.1808108,-4.74375,-15.281251,-50.04375,0.04844178,0.3230313,0.65385705,1001.8701, , , , 
2025-11-24 19:37:50.891,-3.8593237,4.9845486,7.2996044,-0.29916245,-0.60252446,0.22662434,-5.3812504,-15.1125,-50.025,0.050825,0.31719035,0.6558145,1001.8701, , , , 
2025-11-24 19:37:50.911,-3.5288153,5.183153,7.218249,-0.26556584,-0.59336174,0.19913621,-5.8125,-14.83125,-50.23125,0.05356746,0.3116248,0.65779346,1001.88403, , , , 
2025-11-24 19:37:50.931,-3.4977086,5.2980084,7.24457,-0.27717194,-0.61413056,0.0787993,-6.9,-14.7375,-50.156254,0.056287307,0.30613542,0.6592819,1001.88403, , , , 
2025-11-24 19:37:50.951,-3.7444685,5.178367,7.3235326,-0.3242072,-0.6300126,-0.018936265,-7.7625003,-14.625001,-50.100002,0.058477525,0.30045816,0.6599504,1001.89014, , , , 
2025-11-24 19:37:50.971,-3.7037904,4.733003,7.481459,-0.37796175,-0.64161867,-0.015271181,-8.55,-14.38125,-49.912502,0.060222622,0.29433763,0.66023904,1001.89014, , , , 
2025-11-24 19:37:50.991,-3.7468612,4.57747,7.862217,-0.388957,-0.6086329,0.10384403,-9.543751,-14.19375,-49.537502,0.061640747,0.28788185,0.6608635,1001.9033, , , , 
2025-11-24 19:37:51.011,-3.6412778,4.6325045,8.140083,-0.30466008,-0.6703285,0.18630841,-10.181251,-13.8,-49.55625,0.06349078,0.2814973,0.6622789,1001.9033, , , , 
2025-11-24 19:37:51.031,-3.5216367,4.7569313,8.338688,-0.1965401,-0.8462525,0.16737215,-10.950001,-13.425,-49.443752,0.06685976,0.27493113,0.66382545,1001.9126, , , , 
2025-11-24 19:37:51.051,-3.3182468,4.99412,8.412866,-0.17332791,-1.0215657,0.06658235,-11.493751,-12.806251,-49.4625,0.071825765,0.267691,0.6647284,1001.9126, , , , 
2025-11-24 19:37:51.071,-2.856133,5.0491548,8.705089,-0.2881672,-1.1419026,-0.15882029,-12.4125,-12.375001,-49.612503,0.07726593,0.25929004,0.6645905,1001.9243, , , , 
2025-11-24 19:37:51.091,-2.461018,4.5128636,9.097511,-0.5514424,-1.1620605,-0.37200597,-12.825001,-12.243751,-49.36875,0.08144687,0.24911714,0.6631112,1001.9243, , , , 
2025-11-24 19:37:51.111,-2.2217357,3.777968,9.847063,-0.80624205,-0.9250518,-0.3591782,-13.51875,-11.94375,-49.256252,0.08290985,0.23727496,0.66101485,1001.94556, , , , 
2025-11-24 19:37:51.133,-2.1738794,2.8202405,10.009775,-0.8508339,-0.41621605,-0.009162709,-15.01875,-11.925,-48.9,0.08093145,0.22632007,0.6599736,1001.94556, , , , 
2025-11-24 19:37:51.151,-1.8696918,2.5642085,9.626625,-0.6693359,-0.24823305,0.34207445,-15.825001,-11.681251,-48.7125,0.07740752,0.21789563,0.66162586,1001.9685, , , , 
2025-11-24 19:37:51.172,-1.1108679,2.4658036,9.21476,-0.36879903,-0.4516452,0.4850127,-16.893751,-11.212501,-48.54375,0.076415956,0.21101676,0.66557574,1001.9685, , , , 
2025-11-24 19:37:51.192,-0.3472584,2.7005994,9.109476,-0.022448637,-0.82059693,0.24006297,-17.6625,-10.78125,-48.43125,0.07987192,0.20428228,0.66905916,1001.9729, , , , 
2025-11-24 19:37:51.212,0.13399807,3.0260234,9.097511,0.059404895,-1.1064734,-0.092848785,-17.71875,-10.275001,-48.45,0.08652708,0.1968372,0.6698617,1001.9729, , , , 
2025-11-24 19:37:51.232,-0.011964113,2.7532415,9.131011,-0.029167956,-1.228643,-0.2907633,-18.35625,-9.88125,-48.45,0.094463125,0.18800445,0.6680969,1001.9829, , , , 
2025-11-24 19:37:51.251,-0.059820566,2.489732,9.135797,-0.28266957,-0.9048939,-0.34451786,-19.21875,-9.675,-48.093754,0.100158505,0.17887604,0.66510016,1001.9829, , , , 
2025-11-24 19:37:51.271,-0.047856454,2.4921248,9.147761,-0.62902,-0.6703285,-0.39094225,-20.268751,-9.712501,-47.53125,0.101707496,0.16987975,0.6625777,1001.99585, , , , 
2025-11-24 19:37:51.291,-0.43100718,2.530709,9.734302,-0.91619456,-0.46141875,-0.44775105,-21.6,-9.58125,-47.025,0.09917508,0.16041654,0.66035855,1001.99585, , , , 
2025-11-24 19:37:51.311,-0.92183495,2.4681966,10.914561,-0.8679376,-0.36246148,-0.40010494,-22.087502,-9.31875,-46.537502,0.0941847,0.15118922,0.65825015,1002.0281, , , , 
2025-11-24 19:37:51.331,-1.0366904,1.9055841,10.778171,-0.62779826,0.07185091,-0.14415996,-22.556252,-9.0,-46.18125,0.087675154,0.14268985,0.65615934,1002.0281, , , , 
2025-11-24 19:37:51.352,-1.1276177,2.032703,10.103095,-0.25884652,0.22150849,0.10628742,-22.931252,-8.3625,-46.18125,0.08291406,0.14070629,0.6565534,1002.03516, , , , 
2025-11-24 19:37:51.371,-1.1347961,2.786741,9.109476,0.09361234,0.18791188,0.23456535,-22.9125,-8.00625,-46.125,0.081065126,0.14154992,0.6579834,1002.03516, , , , 
2025-11-24 19:37:51.392,-1.082154,3.19382,8.503793,0.2585411,0.05780142,0.24861483,-22.931252,-7.5000005,-46.125,0.082125805,0.14360258,0.65965277,1002.01, , , , 
2025-11-24 19:37:51.411,-0.770788,3.2129626,8.235796,0.21394925,-0.08758023,0.2455606,-22.7625,-7.2937503,-46.36875,0.08441355,0.1451066,0.66114974,1002.01, , , , 
2025-11-24 19:37:51.431,-0.73489565,2.9853454,8.403294,0.074676074,-0.25739577,0.1563769,-22.612501,-7.2562504,-46.65,0.086967155,0.14472403,0.6625056,1001.9795, , , , 
2025-11-24 19:37:51.451,-0.62961143,3.0020952,9.466306,-0.05482354,-0.5487699,0.039094225,-22.63125,-7.14375,-46.7625,0.089831054,0.14154603,0.66314197,1001.9795, , , , 
2025-11-24 19:37:51.471,-0.5937191,2.638386,10.246665,-0.07131642,-0.6275692,0.0219905,-22.518751,-7.36875,-46.912502,0.09331163,0.13641089,0.66297305,1001.9719, , , , 
2025-11-24 19:37:51.492,-1.2640085,3.315854,10.335199,0.036803547,-0.39666894,0.16248538,-22.743752,-7.3125005,-46.74375,0.09494961,0.13398719,0.6628126,1001.9719, , , , 
2025-11-24 19:37:51.511,-0.24646074,1.8888344,9.451948,0.15591876,-0.3459686,0.27610296,-23.19375,-7.0312505,-46.162502,0.099751174,0.13017727,0.6640989,1001.96387, , , , 
2025-11-24 19:37:51.531,-0.12203395,2.600101,9.35145,0.27259058,-0.11384666,0.21685077,-23.56875,-7.0687504,-45.975002,0.102827944,0.12926713,0.6654191,1001.96387, , , , 
2025-11-24 19:37:51.551,-0.2009971,3.1028929,9.528519,0.44790375,-0.07291989,0.12705623,-24.45,-7.2000003,-45.525,0.10606716,0.1308858,0.6662513,1001.94775, , , , 
2025-11-24 19:37:51.571,-0.21535404,3.2560334,9.509377,0.56029963,-0.21830153,0.061695572,-24.2625,-7.33125,-45.7125,0.11098017,0.13293184,0.6662368,1001.94775, , , , 
2025-11-24 19:37:51.591,-0.031106694,3.2249267,9.298808,0.530979,-0.28060797,0.048256934,-24.656252,-7.51875,-45.73125,0.11672553,0.13461164,0.6656808,1001.94775, , , , 
2025-11-24 19:37:51.611,0.11006984,3.3732817,9.135797,0.38437563,-0.24517882,0.05314371,-24.54375,-7.9875,-45.693752,0.12187709,0.13539286,0.66516656,1001.94775, , , , 
2025-11-24 19:37:51.631,0.083748795,3.4546378,9.049655,0.24204823,-0.124841906,0.035429142,-24.7875,-8.25,-45.525,0.12542117,0.13583075,0.66484016,1001.9321, , , , 
2025-11-24 19:37:51.651,-0.038285162,3.4522448,8.8701935,0.13759334,0.0510821,0.035429142,-25.2,-8.4375,-45.24375,0.12707825,0.13663994,0.6647341,1001.9321, , , , 
2025-11-24 19:37:51.671,-0.08135597,3.5072799,8.702696,0.07773031,0.09384141,0.0030542363,-25.181252,-9.075001,-45.037502,0.12740698,0.13787055,0.6648867,1001.9204,37.887512,127.74035701,145.61871337890625,0.0
2025-11-24 19:37:51.691,-0.11246266,3.531208,8.781659,0.039246935,0.018707197,-0.047646087,-25.29375,-9.13125,-44.86875,0.1274268,0.1387097,0.6648983,1001.9204, , , , 
2025-11-24 19:37:51.712,-0.14117654,3.370889,8.817552,0.027029991,-0.011224318,-0.086129464,-24.900002,-9.168751,-44.737503,0.12762071,0.1389608,0.6644869,1001.9092, , , , 
2025-11-24 19:37:51.732,-0.19381863,3.2249267,8.760123,0.008093726,0.028480753,-0.099568106,-25.087502,-9.69375,-44.86875,0.1276016,0.1391531,0.663817,1001.9092, , , , 
2025-11-24 19:37:51.751,-0.2632105,3.2656047,8.736196,-0.029778805,0.013820419,-0.08735116,-25.125002,-9.356251,-44.90625,0.12718081,0.13932551,0.6631807,1001.9075, , , , 
2025-11-24 19:37:51.771,-0.22013968,3.301497,8.683254,-0.07070557,-0.0069483877,-0.08551861,-25.0125,-9.31875,-45.112503,0.12666889,0.13908629,0.66268164,1001.9075, , , , 
2025-11-24 19:37:51.791,-0.2105684,3.4354951,8.88455,-0.12507097,-0.053372778,-0.114228435,-24.900002,-9.168751,-45.412502,0.12601417,0.13836521,0.66217065,1001.8992, , , , 
2025-11-24 19:37:51.811,-0.31136605,3.4881372,9.174082,-0.17821468,-0.07780667,-0.13072132,-24.581251,-9.0,-45.300003,0.12522809,0.13700119,0.66146517,1001.8992, , , , 
2025-11-24 19:37:51.831,-0.45014977,3.4761732,9.334701,-0.19898349,-0.056427017,-0.1111742,-24.618752,-9.20625,-45.506252,0.12411969,0.13537966,0.66071635,1001.8994, , , , 
2025-11-24 19:37:51.851,-0.5626124,3.4570305,9.277272,-0.18310146,-0.0045049987,-0.06902574,-24.712502,-9.20625,-45.131252,0.12262544,0.13399187,0.6601471,1001.8994, , , , 
2025-11-24 19:37:51.871,-0.67028946,3.5120654,9.21476,-0.16172181,0.03397838,-0.020768806,-24.937502,-9.225,-44.79375,0.12088317,0.13328362,0.6598869,1001.90576, , , , 
2025-11-24 19:37:51.891,-0.59611195,3.5551362,9.183653,-0.14889401,0.01137703,-0.004886778,-24.993752,-8.85,-44.7,0.11932998,0.13293493,0.6599159,1001.90576, , , , 
2025-11-24 19:37:51.911,-0.5769694,3.5336008,9.382557,-0.14522894,-0.046042614,-0.0018325418,-24.91875,-8.53125,-44.268753,0.118237846,0.13226295,0.66000783,1001.9075, , , , 
2025-11-24 19:37:51.931,-0.5099703,3.5264223,9.5404825,-0.12079505,-0.0600921,0.020768806,-24.937502,-8.475,-44.71875,0.11749308,0.13123493,0.66008985,1001.9075, , , , 
2025-11-24 19:37:51.951,-0.4334,3.449852,9.499805,-0.0865876,-2.2906772E-4,0.030542362,-25.087502,-8.493751,-45.0,0.11689631,0.1304017,0.6602786,1001.90576, , , , 
2025-11-24 19:37:51.971,-0.4764708,3.4139597,9.423235,-0.06826218,0.041308545,0.031764057,-25.125002,-8.75625,-45.112503,0.11610557,0.13011006,0.6605786,1001.90576, , , , 
2025-11-24 19:37:51.992,-0.474078,3.399603,9.401699,-0.06154286,0.026037365,0.029320668,-25.3875,-8.71875,-45.35625,0.11550889,0.13005021,0.660833,1001.90576, , , , 
2025-11-24 19:37:52.011,-0.4334,3.2297122,9.305986,-0.053601846,-0.008780929,0.03603999,-25.556252,-8.606251,-45.1875,0.114711024,0.12971883,0.66121566,1001.9148, , , , 
2025-11-24 19:37:52.031,-0.3400799,3.19382,9.296415,-0.051769305,-0.005726693,0.043981,-25.218752,-8.53125,-45.225002,0.114175834,0.12900275,0.6616718,1001.9133, , , , 
2025-11-24 19:37:52.051,-0.34486556,3.2177482,9.224331,-0.06215371,0.003436016,0.058641337,-25.1625,-8.3625,-44.943752,0.11373151,0.12839532,0.66213465,1001.9133, , , , 
2025-11-24 19:37:52.071,-0.28983065,3.2656047,9.107083,-0.06765133,0.0052685575,0.07269082,-24.956251,-8.400001,-44.775,0.11329829,0.12781268,0.6627193,1001.91797, , , , 
2025-11-24 19:37:52.091,-0.21296121,3.3110683,8.99462,-0.057266932,0.001603474,0.076355904,-24.750002,-8.1,-44.756252,0.11307324,0.1272996,0.66334754,1001.91797, , , , 
2025-11-24 19:37:52.112,-0.17228323,3.4067812,8.925228,-0.051769305,-0.010613471,0.0659715,-24.88125,-8.08125,-44.86875,0.11314911,0.12686837,0.66393983,1001.91895, , , , 
2025-11-24 19:37:52.132,-0.14117654,3.4426737,9.0544405,-0.07925743,-0.044820916,0.030542362,-24.825,-7.8375,-45.16875,0.11340184,0.12628442,0.6643718,1001.91895, , , , 
2025-11-24 19:37:52.151,-0.27038896,3.3900316,9.277272,-0.12873606,-0.08635853,0.008551862,-24.843752,-7.7250004,-44.925003,0.113516904,0.12517686,0.6645759,1001.91943, , , , 
2025-11-24 19:37:52.171,-0.2970091,3.3086755,9.602696,-0.14522894,-0.09429955,0.015271181,-24.825,-7.6875005,-44.9625,0.11325917,0.12357965,0.6647238,1001.91943, , , , 
2025-11-24 19:37:52.191,-0.37357944,3.205784,9.691231,-0.10246963,-0.049707696,0.040926766,-25.031252,-7.3500004,-44.60625,0.112775914,0.12215339,0.66492975,1001.93066, , , , 
2025-11-24 19:37:52.211,-0.3807579,3.1507492,9.624231,-0.021226943,0.0052685575,0.07513421,-25.406252,-7.3125005,-44.475002,0.11225974,0.12150752,0.6653401,1001.93066, , , , 
2025-11-24 19:37:52.231,-0.36640096,3.2033913,9.490233,0.072232686,0.04008685,0.098957255,-25.35,-7.05,-44.643753,0.11216118,0.1217756,0.66591823,1001.93945, , , , 
2025-11-24 19:37:52.251,-0.3065804,3.1770704,9.346664,0.14492351,0.07062922,0.09834641,-25.518751,-7.2000003,-44.49375,0.11260428,0.12287457,0.6665369,1001.93945, , , , 
2025-11-24 19:37:52.271,-0.36161533,3.1698918,9.399306,0.1693574,0.02481567,0.08735116,-25.29375,-7.2937503,-44.7,0.11338497,0.12416778,0.66711104,1001.9414, , , , 
2025-11-24 19:37:52.291,-0.3807579,3.2153554,9.557233,0.1913479,-0.025884653,0.09468132,-25.143751,-7.1250005,-44.7,0.11459509,0.12515095,0.66756314,1001.9414, , , , 
2025-11-24 19:37:52.311,-0.25842485,3.19382,9.435199,0.22372282,0.023593975,0.09101624,-25.29375,-7.2562504,-45.05625,0.11597129,0.12628682,0.66800094,1001.9441, , , , 
2025-11-24 19:37:52.331,-0.3065804,3.2584262,9.341879,0.23532891,0.040697698,0.054976255,-25.406252,-7.5937505,-45.393753,0.11725463,0.1278321,0.6683499,1001.9441, , , , 
2025-11-24 19:37:52.352,-0.35682967,3.3182468,9.332308,0.2377723,-0.0038941512,0.06352811,-25.5375,-8.0625,-45.225002,0.118671834,0.12939546,0.6685259,1001.9409, , , , 
2025-11-24 19:37:52.371,-0.23688944,3.313461,9.209974,0.2506001,0.005879405,0.07941014,-25.63125,-8.45625,-45.112503,0.1203366,0.13081717,0.6687041,1001.9409, , , , 
2025-11-24 19:37:52.391,-0.19142582,3.4522448,9.111869,0.27075803,0.04680617,0.07513421,-25.462502,-8.8125,-44.7,0.122047186,0.13243902,0.6689655,1001.9441, , , , 
2025-11-24 19:37:52.411,-0.14356937,3.6005998,8.956335,0.27442312,0.039476003,0.070858285,-25.35,-8.64375,-44.643753,0.123892285,0.13442436,0.6692154,1001.9441, , , , 
2025-11-24 19:37:52.431,-0.019142581,3.749254,8.891729,0.24021569,-0.0075592347,0.040926766,-25.3875,-8.38125,-44.68125,0.12607142,0.13624744,0.6693708,1001.9419, , , , 
2025-11-24 19:37:52.452,0.043070808,3.8617167,8.927621,0.17118995,-0.028328042,-0.0036650836,-25.556252,-8.64375,-45.3375,0.12834726,0.13746372,0.669298,1001.9419, , , , 
2025-11-24 19:37:52.471,-0.04546363,3.868895,8.975478,0.08506048,0.003436016,-0.04214846,-25.66875,-9.01875,-45.5625,0.13001688,0.13825327,0.668985,1001.9429, , , , 
2025-11-24 19:37:52.491,-0.13399807,3.8617167,8.987442,0.016034741,0.039476003,-0.049478628,-25.35,-9.243751,-45.46875,0.1306758,0.13881545,0.6685893,1001.9429, , , , 
2025-11-24 19:37:52.511,-0.14356937,3.8497524,8.987442,-0.005955761,0.059633963,-0.05314371,-25.237501,-9.450001,-45.506252,0.13067846,0.1393369,0.6682469,1001.94214, , , , 
2025-11-24 19:37:52.531,-0.19142582,3.8497524,8.970692,0.016034741,0.052303795,-0.06902574,-24.900002,-9.58125,-45.24375,0.13060516,0.13996942,0.6678832,1001.94214, , , , 
2025-11-24 19:37:52.551,-0.3687938,3.7851462,9.042477,0.028251685,0.013209572,-0.08490777,-24.993752,-9.4875,-44.98125,0.13069394,0.14062248,0.6673407,1001.94214, , , , 
2025-11-24 19:37:52.571,-0.44057846,3.6487553,9.06162,0.020310672,0.009544488,-0.08185353,-24.956251,-9.618751,-45.0,0.13068396,0.14118648,0.6666793,1001.94214, , , , 
2025-11-24 19:37:52.591,-0.51475596,3.5623147,9.111869,-0.00167983,0.013209572,-0.05986303,-25.031252,-9.8625,-45.15,0.13031694,0.14157164,0.6660911,1001.94165, , , , 
2025-11-24 19:37:52.611,-0.4884349,3.5551362,9.188439,-0.010231691,0.015042114,-0.03970507,-25.031252,-9.618751,-45.131252,0.12957335,0.14179952,0.66565,1001.94165, , , , 
2025-11-24 19:37:52.631,-0.5243273,3.5431721,9.212367,-0.0010689828,0.026648212,-0.035429142,-25.125002,-9.450001,-45.3375,0.12911235,0.14192842,0.66546595,1001.94214, , , , 
2025-11-24 19:37:52.651,-0.5386842,3.5551362,9.119047,0.017867282,0.063299045,-0.014049487,-25.275002,-9.46875,-45.24375,0.12825619,0.14248675,0.6652283,1001.94214, , , , 
2025-11-24 19:37:52.671,-0.53389853,3.610171,8.927621,0.027640838,0.08712209,-0.004886778,-25.331251,-9.31875,-45.09375,0.12758264,0.14335908,0.66517055,1001.9458,37.887512,127.74035701,145.61871337890625,0.0
2025-11-24 19:37:52.691,-0.51475596,3.6631124,8.841479,0.003206948,0.0742943,-0.0061084726,-25.25625,-9.39375,-44.943752,0.12699305,0.144298,0.6651867,1001.9458, , , , 
2025-11-24 19:37:52.711,-0.51236314,3.7396827,8.9013,-0.047493376,0.022372281,-0.0030542363,-24.91875,-9.637501,-45.075,0.12648448,0.14473866,0.6652089,1001.9409, , , , 
2025-11-24 19:37:52.731,-0.47168517,3.7277186,9.01137,-0.081700824,0.0052685575,0.004886778,-24.750002,-9.50625,-45.24375,0.1259407,0.14461944,0.66526175,1001.9409, , , , 
2025-11-24 19:37:52.751,-0.44536412,3.7444685,9.109476,-0.0865876,0.016263809,0.018936265,-24.656252,-9.5625,-45.46875,0.12526774,0.14425527,0.66543025,1001.93677, , , , 
2025-11-24 19:37:52.771,-0.38315073,3.8138602,9.236296,-0.06826218,0.015042114,0.020768806,-24.937502,-9.618751,-45.581253,0.1247458,0.14393672,0.6656804,1001.93677, , , , 
2025-11-24 19:37:52.791,-0.39750767,3.8330028,9.205189,-0.04688253,0.03642177,0.018936265,-24.993752,-9.618751,-45.45,0.12438484,0.14383988,0.6658896,1001.93774, , , , 
2025-11-24 19:37:52.811,-0.46929234,3.7947176,9.092726,-0.02611372,0.06024481,0.025044737,-25.3875,-9.75,-45.600002,0.123998106,0.14412032,0.66608167,1001.93774, , , , 
2025-11-24 19:37:52.831,-0.52193445,3.8473597,8.949157,-0.018172706,0.05596888,0.042759307,-25.331251,-9.618751,-45.581253,0.123660386,0.14466605,0.66633976,1001.9468, , , , 
2025-11-24 19:37:52.851,-0.4429713,3.9047875,9.008977,-0.02367033,0.010766183,0.023823043,-24.993752,-9.450001,-45.6375,0.123600826,0.14510866,0.6666152,1001.9468, , , , 
2025-11-24 19:37:52.871,-0.5171488,3.801896,9.131011,-0.04871507,-0.020387027,0.005497625,-25.050001,-9.168751,-45.881252,0.123665854,0.145084,0.6667194,1001.94385, , , , 
2025-11-24 19:37:52.891,-0.6056832,3.610171,9.238688,-0.06826218,-0.020387027,0.014660334,-24.712502,-8.90625,-45.881252,0.123349845,0.14472926,0.66676974,1001.94385, , , , 
2025-11-24 19:37:52.911,-0.63918275,3.502494,9.377771,-0.06826218,-0.008170082,0.05375456,-24.656252,-9.0375,-45.91875,0.12263747,0.14419124,0.667033,1001.94434, , , , 
2025-11-24 19:37:52.931,-0.55064833,3.4809587,9.334701,-0.018783553,0.018707197,0.086129464,-24.656252,-9.13125,-45.825,0.12195854,0.14377905,0.6675624,1001.94434, , , , 
2025-11-24 19:37:52.951,-0.4334,3.4953158,9.159725,0.026419144,0.04191939,0.09529217,-24.675001,-9.01875,-45.581253,0.121657595,0.14382634,0.6682355,1001.9402, , , , 
2025-11-24 19:37:52.971,-0.33050862,3.5934215,8.946764,0.057572354,0.032756682,0.08246438,-24.525002,-9.0,-45.45,0.12180581,0.144233,0.66891366,1001.9402, , , , 
2025-11-24 19:37:52.991,-0.30179477,3.6149569,8.836694,0.050853033,0.01809635,0.0684149,-24.6375,-8.94375,-45.487503,0.1220355,0.14443575,0.6692047,1001.9336, , , , 
2025-11-24 19:37:53.011,-0.28265217,3.6631124,8.76491,-0.029778805,-0.014278554,0.041537613,-24.581251,-8.981251,-45.675003,0.12278942,0.14447746,0.66980374,1001.9336, , , , 
2025-11-24 19:37:53.032,-0.20338993,3.775575,8.740981,-0.08903099,0.012598725,0.045813546,-24.675001,-9.0375,-45.768753,0.1228403,0.14403348,0.67017055,1001.93335, , , , 
2025-11-24 19:37:53.052,-0.09092726,3.9526439,8.668898,-0.12140589,0.027869906,0.010384403,-24.900002,-9.0375,-45.881252,0.12263715,0.14354649,0.67058945,1001.93335, , , , 
2025-11-24 19:37:53.071,-0.05503492,4.132106,8.568398,-0.16355436,0.013209572,-0.042759307,-24.69375,-8.700001,-45.9,0.12243597,0.14308609,0.67074245,1001.9321, , , , 
2025-11-24 19:37:53.091,-0.06460621,4.2855453,8.510971,-0.2765611,-0.054594472,-0.0659715,-24.487501,-8.606251,-45.787502,0.12223119,0.14215821,0.6705861,1001.9321, , , , 
2025-11-24 19:37:53.111,0.06699903,4.4075794,8.62822,-0.4146126,-0.12667444,-0.09101624,-24.54375,-8.2875,-46.03125,0.1218207,0.13996655,0.6703323,1001.927, , , , 
2025-11-24 19:37:53.131,0.14596218,4.409972,8.59472,-0.48241663,-0.071698196,-0.14721419,-24.862501,-8.15625,-46.10625,0.120994955,0.13688144,0.6699076,1001.927, , , , 
2025-11-24 19:37:53.151,-0.20338993,4.2927237,8.254939,-0.50685054,0.033367533,-0.20280129,-25.181252,-8.1,-46.125,0.11914425,0.13444076,0.66911745,1001.9282, , , , 
2025-11-24 19:37:53.171,-0.5171488,4.2329035,7.697112,-0.6406261,0.08040277,-0.19058435,-25.35,-7.8,-46.18125,0.11606954,0.13270512,0.66813976,1001.9282, , , , 
2025-11-24 19:37:53.191,-0.7827521,4.158427,7.9052877,-0.8819871,-0.008780929,-0.20829892,-25.218752,-7.6125,-46.050003,0.11151968,0.13028356,0.6673887,1001.92676, , , , 
2025-11-24 19:37:53.211,-0.98644114,3.8258243,8.661719,-1.1055572,-0.17432053,-0.24678229,-24.993752,-7.05,-45.675003,0.10568292,0.12543319,0.6666782,1001.92676, , , , 
2025-11-24 19:37:53.232,-1.1682956,3.3493536,9.662517,-1.2039036,-0.26778015,-0.24311721,-25.0125,-6.4125004,-45.600002,0.098775014,0.11813936,0.6657689,1001.92676, , , , 
2025-11-24 19:37:53.251,-1.2711871,2.9255247,10.395319,-1.1892433,-0.21036053,-0.10934166,-25.06875,-5.775,-45.35625,0.08888602,0.10775403,0.6649552,1001.92676, , , , 
2025-11-24 19:37:53.271,-1.1467602,2.7436702,10.761421,-1.0768473,-0.15355173,-0.007330167,-25.10625,-5.025,-45.075,0.082829416,0.10186048,0.6651208,1001.94434, , , , 
2025-11-24 19:37:53.291,-0.811466,2.6718855,10.711171,-0.8074637,-0.096742935,0.02443389,-25.368752,-4.1062503,-44.775,0.07490332,0.093217246,0.66613024,1001.94434, , , , 
2025-11-24 19:37:53.311,-0.51236314,2.5208387,10.581959,-0.5630485,-0.08330429,-0.03115321,-25.575,-2.98125,-44.30625,0.071554326,0.08942222,0.66658837,1001.9629, , , , 
2025-11-24 19:37:53.332,-0.5315057,2.164308,10.455139,-0.3126011,-0.10224056,-0.04214846,-25.968752,-2.2875001,-44.2125,0.06882901,0.08586634,0.66660196,1001.9629, , , , 
2025-11-24 19:37:53.351,-0.5697909,1.8146569,10.251451,-0.16477604,-0.021608721,0.18753012,-26.081251,-1.66875,-44.025,0.067497134,0.08309109,0.6668664,1001.968, , , , 
2025-11-24 19:37:53.371,0.05742774,2.1954148,9.7247305,-0.11529742,0.2398339,0.3347443,-26.1375,-1.0875001,-44.41875,0.06596733,0.08287199,0.66872144,1001.968, , , , 
2025-11-24 19:37:53.392,0.44775695,2.0901306,8.95155,-0.20325942,0.4530196,0.299926,-25.893751,-0.69375,-44.68125,0.06271562,0.084341004,0.67148495,1001.9641, , , , 
2025-11-24 19:37:53.412,0.4645067,2.1355941,7.795218,-0.43232715,0.48417282,0.26205346,-25.48125,-0.39375,-44.8125,0.057662662,0.08543397,0.67407197,1001.9641, , , , 
2025-11-24 19:37:53.431,0.13399807,2.329413,6.8685975,-0.9339091,0.40415183,0.4343124,-25.181252,0.22500001,-44.943752,0.050180916,0.083802134,0.677106,1001.9436, , , , 
2025-11-24 19:37:53.452,-0.124426775,3.4570305,8.008179,-1.4677896,0.07124006,0.6628456,-24.956251,0.5625,-44.86875,0.04028282,0.07710425,0.6820771,1001.9436, , , , 
2025-11-24 19:37:53.471,0.92183495,3.222534,9.459127,-1.7634397,-0.4675272,0.5283829,-24.806252,1.48125,-44.90625,0.031145152,0.063998275,0.6879299,1001.9155, , , , 
2025-11-24 19:37:53.492,1.3453646,2.8992038,10.270593,-1.8000906,-0.4088859,0.33779854,-24.862501,2.15625,-44.98125,0.026764212,0.05613183,0.6902119,1001.9155, , , , 
2025-11-24 19:37:53.511,0.7253244,1.6495521,10.977074,-1.2973633,0.37055522,0.4263714,-24.862501,4.21875,-44.71875,0.010696717,0.03950637,0.69451636,1001.95386, , , , 
2025-11-24 19:37:53.531,-0.06699903,1.2951152,10.371092,-0.673001,0.2978644,0.6432985,-24.618752,5.775,-44.456253,0.0018169358,0.035555147,0.69841146,1001.95386, , , , 
2025-11-24 19:37:53.552,-0.2440679,1.8122641,9.902099,-0.057266932,-0.22990763,0.60725856,-24.187502,6.9750004,-44.15625,-1.3534566E-4,0.033623777,0.7032294,1001.9734, , , , 
2025-11-24 19:37:53.571,-0.28743783,2.1308086,10.117453,0.50715595,-0.9207759,0.24494976,-24.225,7.9875,-44.025,0.00647167,0.03130109,0.7069225,1001.9734, , , , 
2025-11-24 19:37:53.591,0.19621146,2.6718855,11.120644,1.1448805,-1.4321314,-0.22845687,-24.0375,8.775001,-44.0625,0.021507356,0.028912373,0.70706946,1001.978, , , , 
2025-11-24 19:37:53.612,1.3812568,3.0667014,9.897313,1.6494403,-0.9299386,-0.731795,-24.337502,9.28125,-43.893753,0.0408976,0.030343505,0.7035795,1001.978, , , , 
2025-11-24 19:37:53.631,0.84765744,3.5359936,9.55484,1.5578132,-0.2256317,-1.0427163,-25.3875,8.793751,-43.59375,0.05692866,0.03845052,0.6967954,1001.9734, , , , 
2025-11-24 19:37:53.651,0.3592225,3.7875392,8.4248295,0.8638907,-0.37651098,-1.0121739,-26.1375,7.8375,-42.881252,0.06811096,0.0459814,0.688725,1001.9734, , , , 
2025-11-24 19:37:53.671,0.6343971,3.7420754,9.066405,0.26464957,-0.5017347,-0.9706363,-26.812502,6.4875,-42.15,0.07510446,0.047895316,0.6810389,1001.9468,37.887512,127.74035701,145.61871337890625,0.0
2025-11-24 19:37:53.691,0.2105684,3.3517463,10.450354,0.1565296,-0.62268245,-0.9071082,-27.73125,4.65,-41.662502,0.08006624,0.046063483,0.67356896,1001.9468, , , , 
2025-11-24 19:37:53.711,-0.41904306,3.083451,11.510972,0.5835118,-0.8468634,-0.53326964,-28.10625,3.24375,-41.25,0.08687901,0.043735586,0.6666561,1001.9634, , , , 
2025-11-24 19:37:53.731,0.20817557,3.1244283,11.443674,1.2566655,-1.2542984,-0.22173755,-28.556252,2.25,-41.25,0.09970379,0.042786267,0.6618964,1001.9634, , , , 
2025-11-24 19:37:53.751,1.8218354,3.7827535,11.001002,1.8174233,-1.8627787,-0.31764057,-29.1375,1.1437501,-40.95,0.12082651,0.042055905,0.6580482,1001.9641, , , , 
2025-11-24 19:37:53.772,1.8409779,4.615755,10.435997,2.1210907,-2.2842634,-0.88878274,-29.681252,0.16875,-40.10625,0.14888403,0.040219735,0.6513457,1001.9641, , , , 
2025-11-24 19:37:53.792,1.2065809,4.761717,8.999406,2.1778996,-2.6947527,-1.0934166,-30.806252,-1.1812501,-38.9625,0.18869914,0.037495185,0.6361441,1001.9531, , , , 
2025-11-24 19:37:53.811,1.8218354,4.3405805,7.22782,1.31042,-2.2567751,-0.80692923,-32.04375,-3.15,-37.143753,0.21069404,0.032503966,0.62619203,1001.9531, , , , 
2025-11-24 19:37:53.831,2.3102703,5.0132627,8.997013,0.6965186,-0.92321926,-0.6725428,-33.75,-4.74375,-35.625,0.22840264,0.027470678,0.61591923,1001.93994, , , , 
2025-11-24 19:37:53.851,1.9366908,4.76411,9.918848,0.6360447,-0.08330429,-0.671932,-35.081253,-6.39375,-34.21875,0.23615637,0.02928438,0.6088402,1001.93994, , , , 
2025-11-24 19:37:53.871,0.974477,4.347759,9.511769,0.7716528,0.13049224,-0.5583144,-35.925003,-7.7250004,-33.225002,0.24079366,0.035393424,0.603485,1001.93726, , , , 
2025-11-24 19:37:53.891,0.22492532,4.395615,8.52772,0.7924216,-0.010613471,-0.34451786,-36.412502,-8.793751,-32.625,0.24590683,0.04211554,0.5994883,1001.93726, , , , 
2025-11-24 19:37:53.912,0.16749759,4.855336,8.173583,0.6061132,-0.3172588,-0.098957255,-36.54375,-9.8625,-31.987501,0.251816,0.04644245,0.5969209,1001.9143, , , , 
2025-11-24 19:37:53.931,0.51236314,5.4466624,8.637791,0.36360684,-0.7851678,-0.012216945,-36.525,-10.556251,-31.650002,0.25843072,0.04621801,0.5952313,1001.9143, , , , 
2025-11-24 19:37:53.951,1.1180464,3.7516468,9.796515,0.0361927,-0.28060797,0.18203248,-36.5625,-11.26875,-31.275002,0.26332918,0.043383103,0.59354186,1001.89087, , , , 
2025-11-24 19:37:53.971,1.0606186,3.5001013,9.847063,0.1681357,-0.26472592,0.50700325,-36.80625,-11.4375,-30.656252,0.26509482,0.04104362,0.5947116,1001.89087, , , , 
2025-11-24 19:37:53.991,1.5370895,3.016452,9.018549,0.45095798,-0.5102865,0.6469636,-36.9,-11.45625,-30.525002,0.26789987,0.039274078,0.596901,1001.89087, , , , 
2025-11-24 19:37:54.011,2.3485553,3.1603205,6.5288167,1.1161706,-1.4333531,0.5803813,-37.256252,-11.4375,-29.60625,0.28109223,0.03446543,0.6001676,1001.87256, , , , 
2025-11-24 19:37:54.031,2.461018,3.5383866,3.72054,1.3385191,-1.9580709,0.35856733,-37.6875,-10.96875,-29.156252,0.30142125,0.027905667,0.59877515,1001.8435, , , , 
2025-11-24 19:37:54.051,1.2520444,3.3110683,2.5283163,0.8138013,-1.5695721,0.4691307,-38.23125,-10.9125,-28.25625,0.32447284,0.01859148,0.5950498,1001.8435, , , , 
2025-11-24 19:37:54.071,0.98644114,2.94706,2.3222344,0.414918,-1.4797775,0.64940697,-38.625,-11.0625,-27.50625,0.33456743,0.011655605,0.59426904,1001.8323, , , , 
2025-11-24 19:37:54.091,1.4126626,2.329413,2.8489544,0.08261709,-1.5543009,0.88702655,-40.162502,-10.650001,-25.29375,0.347449,-0.0034586396,0.5951029,1001.8323, , , , 
2025-11-24 19:37:54.111,1.5873387,1.7668004,2.8872397,0.16996825,-1.8798825,0.9957574,-41.175003,-10.650001,-23.362501,0.35540092,-0.014429158,0.59577096,1001.8374, , , , 
2025-11-24 19:37:54.131,1.8026928,1.3214363,1.9295124,0.26159534,-2.333742,1.0598963,-42.412502,-10.2375,-21.9375,0.3722966,-0.03571011,0.59583604,1001.8374, , , , 
2025-11-24 19:37:54.152,1.4557334,0.57936215,0.98644114,0.18890451,-2.8437994,1.1777899,-43.425003,-9.356251,-20.175001,0.38901347,-0.056806818,0.5941987,1001.8401, , , , 
2025-11-24 19:37:54.171,1.0797613,-0.4142574,0.64875406,0.027640838,-3.2842202,1.5137559,-44.381252,-9.1125,-18.2625,0.4069792,-0.08301211,0.5916047,1001.8401, , , , 
2025-11-24 19:37:54.191,1.3190435,-1.5873387,0.5769694,-0.036498122,-3.7948885,1.9077524,-45.61875,-8.15625,-15.656251,0.42589188,-0.11470117,0.58886147,1001.8601, , , , 
2025-11-24 19:37:54.211,1.4724833,-2.8345976,0.4142574,0.0019852535,-4.371605,2.3304586,-46.425003,-6.7125,-12.675,0.44673264,-0.15193348,0.5854339,1001.8601, , , , 
2025-11-24 19:37:54.231,2.0877378,-4.321438,0.29940194,0.014202199,-4.778429,2.8221908,-47.2125,-5.1937504,-8.981251,0.4687159,-0.1942685,0.58143604,1001.87744, , , , 
2025-11-24 19:37:54.251,2.975774,-6.2342005,0.15314065,-4.5813544E-4,-4.8114147,3.3256052,-47.79375,-2.7562501,-4.70625,0.48929933,-0.24015166,0.57796365,1001.87744, , , , 
2025-11-24 19:37:54.272,4.4985065,-8.400901,0.68225354,-0.029778805,-4.4436846,4.0366316,-47.756252,-0.075,-0.20625001,0.5054085,-0.28764737,0.5767993,1001.88477, , , , 
2025-11-24 19:37:54.292,5.7433724,-9.957133,0.87158567,0.05635066,-3.9347727,4.56929,-47.550003,2.8312502,4.40625,0.51320857,-0.32310137,0.5786509,1001.88477, , , , 
2025-11-24 19:37:54.312,7.862217,-12.174084,0.689432,0.19867808,-3.1761003,5.1306586,-46.575,6.4500003,8.8125,0.51708305,-0.3792974,0.5882152,1001.89746, , , , 
2025-11-24 19:37:54.332,10.277771,-14.110774,-0.13160525,0.29946786,-2.3661168,5.65782,-44.8125,10.106251,12.50625,0.51156205,-0.42051437,0.6015273,1001.89746, , , , 
2025-11-24 19:37:54.351,12.422937,-15.4058895,-0.8955139,0.20173231,-1.8493401,5.9065113,-43.068752,14.418751,15.750001,0.49878135,-0.4587435,0.61778283,1001.9011, , , , 
2025-11-24 19:37:54.371,14.247165,-16.94298,-1.4126626,-0.0865876,-1.2988904,5.971261,-40.40625,18.84375,18.28125,0.47971106,-0.49455577,0.6338877,1001.9011, , , , 
2025-11-24 19:37:54.392,15.566507,-17.77628,-1.4054842,-0.49829865,-0.9128349,5.885055,-37.537502,23.400002,20.00625,0.45534617,-0.5285171,0.64772964,1001.9121, , , , 
2025-11-24 19:37:54.411,15.600007,-17.977276,-0.6559325,-1.0701281,-0.51700586,5.6737022,-34.03125,27.7875,21.300001,0.42660472,-0.56128985,0.65774274,1001.9121, , , , 
2025-11-24 19:37:54.431,14.670994,-17.955742,0.7109674,-1.6394377,-0.12972869,5.4446344,-29.79375,31.312502,22.21875,0.3938995,-0.59349775,0.66315514,1001.907, , , , 
2025-11-24 19:37:54.451,14.778671,-18.51596,3.2679975,-1.85018,0.33512607,5.262602,-25.612501,34.2,23.362501,0.35715875,-0.6247204,0.6649494,1001.907, , , , 
2025-11-24 19:37:54.471,15.283855,-20.029121,4.2014976,-1.8538451,0.8079218,4.836841,-21.206251,36.2625,24.45,0.31766275,-0.6522364,0.6654823,1001.9324, , , , 
2025-11-24 19:37:54.492,14.237594,-19.454546,5.1735816,-1.6693692,1.0467632,4.6877947,-19.125,37.125,25.237501,0.28725758,-0.66982263,0.6656151,1001.9324, , , , 
2025-11-24 19:37:54.511,12.987942,-16.907087,5.547161,-0.93818504,1.151218,4.6792426,-12.8625,38.925003,27.300001,0.23512122,-0.6922874,0.6683475,1001.9436, , , , 
2025-11-24 19:37:54.531,12.810873,-14.747564,5.587839,-0.3229855,0.8787801,4.6407595,-8.887501,39.675003,28.181252,0.19429544,-0.7043208,0.67276573,1001.9436, , , , 
2025-11-24 19:37:54.551,13.234702,-12.729517,4.963013,0.3013004,0.5446467,4.426963,-5.3625,40.29375,28.893751,0.15707438,-0.7107067,0.6793225,1001.949, , , , 
2025-11-24 19:37:54.571,13.584054,-11.479567,4.098606,0.8999307,0.23006035,4.0732822,-2.1000001,40.96875,29.1,0.124767095,-0.7114057,0.6881344,1001.949, , , , 
2025-11-24 19:37:54.591,13.797315,-10.428819,3.0188448,1.3275238,-0.1388914,3.5681117,-2.3625002,42.1875,28.85625,0.09838924,-0.7071614,0.698719,1001.9568, , , , 
2025-11-24 19:37:54.611,13.612768,-9.339486,2.2408783,1.5645325,-0.42782214,3.1098998,0.39375,42.54375,28.35,0.07866965,-0.69934756,0.71011114,1001.9568, , , , 
2025-11-24 19:37:54.632,13.409378,-7.8023963,1.4700904,1.6390558,-0.53899634,2.500885,3.45,42.787502,27.35625,-0.06490938,0.6892938,-0.72156817,1001.97314, , , , 
2025-11-24 19:37:54.652,12.9353,-5.959026,0.8955139,1.3916627,-0.08025006,1.9059198,5.9812503,43.03125,26.118752,-0.054954942,0.6789953,-0.7318513,1001.97314, , , , 
2025-11-24 19:37:54.671,12.384652,-4.644469,0.81864446,0.9659022,0.81403035,1.2578108,7.8375,43.36875,24.956251,-0.045247853,0.6707623,-0.7397551,1001.97314,37.887512,127.74035701,145.61871337890625,0.0
2025-11-24 19:37:54.691,11.987144,-3.9598224,0.9601201,0.75271654,1.820783,0.55533653,9.9375,43.800003,23.79375,-0.029409884,0.6637134,-0.74699366,1001.97314, , , , 
2025-11-24 19:37:54.711,10.991431,-3.6173496,-0.20338993,0.7185091,2.6197712,0.009773556,11.025001,44.100002,22.800001,-0.013460009,0.6585774,-0.752318,1001.9758, , , , 
2025-11-24 19:37:54.731,9.684052,-3.4331024,-2.0662024,0.4417953,2.8793812,-0.29442838,11.418751,44.100002,22.06875,-0.0039509567,-0.65437025,0.75609285,1001.9758, , , , 
2025-11-24 19:37:54.751,9.46152,-3.4833515,-2.5833511,-0.060321167,2.6344316,-0.431869,11.306251,44.49375,21.91875,-0.017043967,-0.65321267,0.75647765,1001.97974, , , , 
2025-11-24 19:37:54.772,10.105488,-3.2488549,-1.1946167,-0.20509197,1.6173708,-0.69880927,9.84375,44.550003,22.125,-0.03335582,-0.6543889,0.75343007,1001.97974, , , , 
2025-11-24 19:37:54.791,10.5125675,-3.2560334,-0.3687938,-0.05482354,0.17752749,-1.2326897,8.587501,44.71875,22.78125,-0.033547334,-0.6554296,0.7510856,1001.9741, , , , 
2025-11-24 19:37:54.811,10.586744,-4.273581,-0.21774685,0.011147963,-0.7815027,-1.8380394,7.1625004,45.05625,23.212502,-0.019750584,-0.6563919,0.7494188,1001.9741, , , , 
2025-11-24 19:37:54.831,10.339985,-5.6644096,-0.124426775,-0.133012,-0.8871793,-2.2901428,5.9812503,45.131252,23.625,0.0022466348,-0.6579882,0.7468559,1001.98413, , , , 
2025-11-24 19:37:54.851,9.796515,-6.739385,0.28983065,-0.3932329,-0.4559211,-2.60534,5.025,45.525,23.85,0.019837003,-0.6598177,0.7435313,1001.98413, , , , 
2025-11-24 19:37:54.872,9.571589,-7.8550386,1.0175478,-0.51479155,0.0510821,-2.8594525,3.4875002,45.54375,23.8875,0.04646755,-0.66322273,0.7354593,1001.9883, , , , 
2025-11-24 19:37:54.891,9.416057,-8.9348,1.2616158,-0.44026816,0.25510508,-3.0958502,1.3875,45.3375,24.206251,0.06570194,-0.66465163,0.72797644,1001.9883, , , , 
2025-11-24 19:37:54.911,9.664909,-10.308878,1.0295119,-0.32603973,0.15675868,-3.2955973,-1.21875,45.018753,24.675001,0.085521124,-0.66450363,0.7200077,1001.98975, , , , 
2025-11-24 19:37:54.931,10.261022,-11.922538,0.65353966,-0.24907297,-0.13705885,-3.4702997,-3.9750001,44.41875,24.6375,0.101881504,-0.66363794,0.71351194,1001.98975, , , , 
2025-11-24 19:37:54.952,11.1015005,-13.722837,0.36161533,-0.29610822,-0.46569467,-3.6114054,-7.0875,43.85625,24.91875,0.1327877,-0.661624,0.7009927,1001.9944, , , , 
2025-11-24 19:37:54.972,11.671291,-14.989538,0.61764735,-0.49829865,-0.63734275,-3.7073083,-9.88125,43.143753,25.125002,0.16006924,-0.66043055,0.6885245,1001.9944, , , , 
2025-11-24 19:37:54.991,11.982359,-15.470795,1.2352947,-0.71392775,-0.4852418,-3.7060866,-12.50625,42.54375,25.06875,0.18718785,-0.659586,0.67392546,1001.99927, , , , 
2025-11-24 19:37:55.011,12.310474,-15.693327,1.9606191,-0.8312868,-0.08941277,-3.765339,-15.58125,41.41875,25.593752,0.21198212,-0.65809596,0.6579366,1001.99927, , , , 
2025-11-24 19:37:55.031,11.609078,-14.814563,2.6766713,-0.7114844,0.5061633,-3.7781668,-18.337502,40.2,25.95,0.23319437,-0.65408534,0.64210284,1001.99585, , , , 
2025-11-24 19:37:55.051,10.883454,-13.655839,2.8034909,-0.3816268,1.0443197,-3.788551,-20.75625,38.71875,26.38125,0.25039136,-0.6458569,0.62822086,1001.99585, , , , 
2025-11-24 19:37:55.071,10.0265255,-13.543376,2.1834507,0.0025961008,1.3101146,-3.8178718,-23.8875,36.525,27.018751,0.26553765,-0.6331352,0.6165036,1002.0061, , , , 
2025-11-24 19:37:55.092,8.867801,-13.399807,1.4318053,0.32512346,1.3131689,-3.6700468,-26.550001,34.36875,27.206251,0.27999648,-0.61710584,0.6065836,1002.0061, , , , 
2025-11-24 19:37:55.111,8.262117,-13.107583,0.4334,0.54075253,0.98873264,-3.4476984,-29.362501,32.25,27.150002,0.29465124,-0.60003394,0.597806,1002.0105, , , , 
2025-11-24 19:37:55.131,7.4479594,-12.336796,0.10049855,0.51387525,0.5067741,-3.2473404,-32.287502,30.225,26.38125,0.31073493,-0.5842509,0.58873385,1002.0105, , , , 
2025-11-24 19:37:55.151,6.789634,-11.405389,0.541077,0.44118443,0.063299045,-3.0475934,-34.85625,28.10625,25.5375,0.32800806,-0.57110214,0.57824147,1002.00854, , , , 
2025-11-24 19:37:55.171,6.107381,-10.534102,1.0271192,0.4613424,-0.17615308,-2.8466246,-37.050003,26.23125,24.975,0.34573096,-0.5599108,0.5669775,1002.00854, , , , 
2025-11-24 19:37:55.191,5.18076,-9.514162,1.2951152,0.58778775,-0.26106083,-2.6035073,-38.831253,24.187502,24.300001,0.36318514,-0.54944354,0.55613285,1002.00464, , , , 
2025-11-24 19:37:55.211,4.261617,-8.336295,1.0175478,0.72156334,-0.33619505,-2.3041923,-40.55625,22.331251,24.50625,0.3800587,-0.5391376,0.54680336,1002.00464, , , , 
2025-11-24 19:37:55.231,3.2847474,-7.2038918,0.8042875,0.79608667,-0.35268793,-2.0048008,-41.550003,20.456251,24.35625,0.3961682,-0.52929336,0.5390897,1002.0039, , , , 
2025-11-24 19:37:55.251,2.1308086,-6.1121664,0.6200402,0.8516738,-0.35452047,-1.6871601,-42.35625,18.768751,24.056252,0.41102764,-0.5200003,0.53298414,1002.0039, , , , 
2025-11-24 19:37:55.273,0.9553344,-5.130511,0.38554356,0.97139984,-0.28977066,-1.3224844,-43.0125,17.212502,23.868752,0.42758867,-0.5092401,0.52794826,1001.9995, , , , 
2025-11-24 19:37:55.291,-0.13160525,-4.694718,-0.31136605,1.1039537,-0.21585815,-0.94559157,-43.162502,15.543751,23.7,0.43912667,-0.5009351,0.5267556,1001.9995, , , , 
2025-11-24 19:37:55.311,-1.1180464,-4.5224347,-1.3764713,1.1461022,-0.25067645,-0.47035238,-43.3875,14.606251,23.6625,0.4490215,-0.49380696,0.52826357,1001.9951, , , , 
2025-11-24 19:37:55.331,-1.378864,-4.3740797,-2.1667008,1.0373714,-0.39972317,-0.028709821,-43.4625,14.00625,24.112501,0.4552609,-0.49035224,0.5306689,1001.9951, , , , 
2025-11-24 19:37:55.352,-0.84765744,-4.35733,-2.3198416,0.7466081,-0.6147414,0.4923429,-43.48125,13.856251,24.431252,0.46292666,-0.4897543,0.53546363,1001.99097, , , , 
2025-11-24 19:37:55.372,0.30897322,-4.7042894,-1.8361923,0.5163186,-0.7332458,0.85648423,-43.40625,14.493751,24.468752,0.46619776,-0.49375618,0.53938603,1001.99097, , , , 
2025-11-24 19:37:55.392,1.4270196,-5.5256257,-1.2137593,0.34589225,-0.8059366,1.1154834,-42.975002,15.4875,24.618752,0.46722555,-0.50062,0.5433468,1001.98413, , , , 
2025-11-24 19:37:55.411,2.219343,-6.509674,-0.57457656,0.30435464,-0.84503084,1.36532,-42.75,16.21875,24.6,0.4664047,-0.5094779,0.54762596,1001.98413, , , , 
2025-11-24 19:37:55.431,3.004488,-7.6947193,-0.4022933,0.37032616,-0.8615237,1.6438663,-42.09375,17.19375,24.900002,0.46402803,-0.519494,0.55308974,1001.9878, , , , 
2025-11-24 19:37:55.451,4.098606,-9.650553,-0.6942177,0.4381302,-0.89084435,1.9266886,-41.193752,18.150002,25.425001,0.46033514,-0.53039324,0.5600142,1001.9878, , , , 
2025-11-24 19:37:55.472,4.9989057,-11.218749,-0.76600236,0.46806172,-0.86824304,2.3274045,-40.3875,19.331251,26.025002,0.45486093,-0.54236406,0.5684149,1001.99316, , , , 
2025-11-24 19:37:55.491,6.0882382,-12.279367,-0.74207413,0.46378577,-0.79005456,2.6309955,-38.925003,21.206251,26.775002,0.44684377,-0.55530703,0.57834923,1001.99316, , , , 
2025-11-24 19:37:55.512,7.218249,-12.95205,-0.61764735,0.46378577,-0.58664244,2.8991575,-37.48125,22.9125,27.337502,0.4358704,-0.5684576,0.5896804,1001.99927, , , , 
2025-11-24 19:37:55.532,8.549256,-14.740386,-1.1324034,0.37032616,-0.3600181,3.0280461,-36.05625,24.712502,27.431252,0.42211205,-0.5810925,0.60192066,1001.99927, , , , 
2025-11-24 19:37:55.551,8.604291,-16.155441,-1.2999009,0.11010522,-0.18592663,3.2510817,-34.55625,26.56875,28.050001,0.40536192,-0.5941694,0.61378956,1002.00366, , , , 
2025-11-24 19:37:55.572,8.341081,-16.198511,-0.42861435,-0.09758285,-0.14133479,3.805731,-33.09375,28.425001,28.1625,0.38433826,-0.60922796,0.6250007,1002.00366, , , , 
2025-11-24 19:37:55.591,8.963513,-14.9656105,0.8234301,0.009315421,-0.17859647,4.2412653,-30.88125,30.4125,28.10625,0.35914898,-0.62562716,0.63626426,1002.0022, , , , 
2025-11-24 19:37:55.611,10.629815,-13.840385,1.89362,0.5242597,-0.24273543,4.425741,-28.518751,32.475002,28.331251,0.33213007,-0.64009,0.6487379,1002.0022, , , , 
2025-11-24 19:37:55.631,11.6019,-13.210773,1.8385851,1.1338853,-0.27938625,4.301739,-25.743752,34.3125,27.88125,0.30635166,-0.64932567,0.6633282,1002.0044, , , , 
2025-11-24 19:37:55.651,11.745469,-12.830016,-0.15792629,1.6176763,-0.23540527,4.082445,-22.706251,36.28125,27.675001,0.2833634,-0.6522906,0.68011355,1002.0044, , , , 
2025-11-24 19:37:55.671,11.637792,-11.680862,-2.1690936,1.474738,-0.003283304,3.8778112,-19.575,38.5125,27.225,0.26170665,-0.6521839,0.6963777,1002.0161,37.887512,127.74035701,145.61871337890625,0.0
2025-11-24 19:37:55.691,11.977572,-10.491032,-2.8896325,0.9823951,0.21417832,3.6157577,-15.843751,40.7625,26.156252,0.23988569,-0.6526817,0.7090833,1002.0161, , , , 
2025-11-24 19:37:55.711,11.767004,-8.834301,-2.1355941,0.21028417,0.5764108,3.0396523,-12.356251,42.862503,25.237501,0.21808526,-0.65561604,0.7167162,1002.0071, , , , 
2025-11-24 19:37:55.731,10.897812,-7.84786,-0.77796644,-0.30588177,0.9636879,2.5112693,-9.09375,44.2125,24.056252,0.19676016,-0.66080236,0.7199159,1002.0071, , , , 
2025-11-24 19:37:55.751,9.803694,-7.0435724,0.29940194,-0.6265766,1.4377817,2.1184947,-6.3562503,45.15,23.325,0.17482504,-0.6671336,0.7205544,1002.00415, , , , 
2025-11-24 19:37:55.771,8.927621,-6.4184475,0.9553344,-0.7750888,1.7749695,1.8387266,-4.425,45.05625,23.400002,0.15147792,-0.67382944,0.71979624,1002.00415, , , , 
2025-11-24 19:37:55.791,7.9746795,-5.836693,1.5011971,-0.8202915,1.9496717,1.6536399,-2.9437501,44.98125,23.643751,0.12722406,-0.6802488,0.71825147,1002.00757, , , , 
2025-11-24 19:37:55.811,7.52453,-5.3342,1.9247267,-0.70904094,1.9014148,1.5626236,-1.9312501,44.8125,24.393751,0.10283757,-0.68586016,0.71641964,1002.00757, , , , 
2025-11-24 19:37:55.832,7.7186475,-4.8649077,1.7979071,-0.45676103,1.7028894,1.5076474,-1.3312501,44.34375,25.181252,0.07951037,-0.6897635,0.7152434,1002.0088, , , , 
2025-11-24 19:37:55.851,8.068,-4.3262234,1.0031909,-0.23991026,1.460383,1.4202962,-0.80625004,44.0625,25.85625,0.058387976,-0.69163525,0.71518385,1002.0088, , , , 
2025-11-24 19:37:55.871,8.470293,-3.9000018,0.40947178,-0.19715095,1.2453649,1.2773579,-0.1875,43.537502,26.325,0.040007968,-0.6924977,0.7154277,1002.01, , , , 
2025-11-24 19:37:55.891,8.886943,-3.7325041,0.2970091,-0.22158484,1.0522608,1.101434,0.4875,43.55625,26.250002,0.02432641,-0.69332737,0.71517134,1002.01, , , , 
2025-11-24 19:37:55.911,9.416057,-3.761218,0.45972106,-0.17271706,0.78959644,0.84548897,0.80625004,43.443752,26.625002,0.011462779,-0.6941241,0.7145503,1002.0066, , , , 
2025-11-24 19:37:55.931,9.870992,-4.2161536,0.47168517,-0.057266932,0.43286163,0.5803813,1.21875,43.48125,26.737501,0.0025329867,-0.6944567,0.71413904,1002.0066, , , , 
2025-11-24 19:37:55.951,10.153345,-4.8290153,0.4142574,0.07101099,0.07734854,0.29626092,1.44375,43.162502,26.7,-0.0015845536,-0.6941937,0.7142539,1002.0083, , , , 
2025-11-24 19:37:55.971,11.127822,-6.0523458,0.12203395,0.15530792,-0.30198762,-0.040926766,1.5937501,42.975002,27.112501,-3.1385562E-4,-0.6931968,0.71510434,1002.0083, , , , 
2025-11-24 19:37:55.991,12.087942,-7.2565336,0.08135597,0.08506048,-0.6477272,-0.43919918,1.8375001,42.9,27.018751,0.006313526,-0.6927737,0.71536016,1002.0039, , , , 
2025-11-24 19:37:56.011,12.774981,-8.472686,0.4668995,-0.04382829,-0.90061796,-0.8441909,1.95,42.9375,26.925001,0.014847786,-0.6931453,0.71470153,1002.0039, , , , 
2025-11-24 19:37:56.031,13.344772,-10.062417,1.2999009,-0.20875706,-1.0612707,-1.3725737,2.0062501,43.10625,26.8875,0.03516787,-0.6949584,0.7116574,1001.99365, , , , 
2025-11-24 19:37:56.051,13.533805,-11.386247,1.9824536,-0.2893889,-1.0179006,-1.855754,1.81875,42.99375,26.643751,0.050243158,-0.69633675,0.70876515,1001.99365, , , , 
2025-11-24 19:37:56.071,12.499507,-11.72872,3.112464,-0.19165333,-0.74057597,-2.2015698,1.4250001,42.956253,26.587502,0.07784626,-0.69751877,0.7032607,1001.98706, , , , 
2025-11-24 19:37:56.091,11.805289,-11.084751,3.3254254,0.16324893,-0.37773266,-2.4526281,0.41250002,42.9,26.718752,0.09944033,-0.69532394,0.7003349,1001.98706, , , , 
2025-11-24 19:37:56.111,11.640184,-11.003395,2.300699,0.46806172,-0.14316733,-2.7818747,-1.0125,43.0875,27.075,0.12088136,-0.68959016,0.6992198,1001.9912, , , , 
2025-11-24 19:37:56.131,11.7311125,-11.580364,1.0462617,0.5358658,-0.0936887,-3.1276143,-2.7,43.10625,27.31875,0.14381118,-0.6816932,0.6980463,1001.9912, , , , 
2025-11-24 19:37:56.151,11.917752,-12.889836,0.3807579,0.3324536,-0.2060846,-3.628509,-5.0437503,42.825,27.281252,0.16940406,-0.67339087,0.6945146,1001.9861, , , , 
2025-11-24 19:37:56.172,11.874681,-14.503496,0.49800622,0.017256435,-0.3868954,-4.0719843,-7.51875,42.9375,26.906252,0.19814338,-0.66577625,0.6870354,1001.9861, , , , 
2025-11-24 19:37:56.191,10.919347,-15.437295,1.2759727,-0.23624517,-0.45714283,-4.375575,-10.125,42.600002,26.812502,0.22892107,-0.65857995,0.67569023,1001.9861, , , , 
2025-11-24 19:37:56.212,10.028918,-15.729219,2.0733807,-0.26678753,-0.48463094,-4.517292,-11.606251,42.05625,26.56875,0.25995737,-0.65070474,0.66189855,1001.9861, , , , 
2025-11-24 19:37:56.231,9.116654,-15.381961,2.3198416,-0.094528615,-0.37590012,-4.525233,-15.88125,41.23125,26.60625,0.29046503,-0.6407416,0.64758086,1001.9905, , , , 
2025-11-24 19:37:56.251,8.079964,-14.757135,1.474876,-0.027335415,0.073072605,-4.293111,-18.806252,39.581253,27.187502,0.31863445,-0.6280331,0.63442516,1001.9905, , , , 
2025-11-24 19:37:56.271,6.79442,-13.316058,1.0510473,-0.15316994,0.57152396,-4.0078454,-21.88125,37.6875,26.831251,0.33638456,-0.61757386,0.62532914,1001.9978, , , , 
2025-11-24 19:37:56.291,5.5830536,-11.628221,1.6830516,-0.15194826,0.9245937,-3.6431694,-25.050001,35.850002,26.79375,0.35790893,-0.59924495,0.61179566,1001.9978, , , , 
2025-11-24 19:37:56.311,4.872086,-10.024133,2.0949163,0.14003673,0.93864316,-3.200916,-27.937502,33.787502,26.85,0.37067893,-0.58402497,0.60282487,1001.9949, , , , 
2025-11-24 19:37:56.331,4.9319067,-9.078369,2.1260228,0.5010475,0.80608934,-2.9180937,-30.750002,31.612501,26.343752,0.38240087,-0.56796294,0.5961233,1001.9949, , , , 
2025-11-24 19:37:56.351,5.022834,-8.207083,1.6782659,1.0251545,0.42492062,-2.7757664,-33.318752,29.737501,26.2875,0.3957931,-0.5508371,0.5911464,1001.99976, , , , 
2025-11-24 19:37:56.371,4.479364,-7.886145,0.8138588,1.311031,0.12194038,-2.7623277,-35.193752,27.956251,25.743752,0.41274965,-0.53262717,0.5867309,1001.99976, , , , 
2025-11-24 19:37:56.391,3.3086755,-7.5723863,-0.32093734,1.3825,-0.027106347,-2.6841393,-37.143753,25.968752,25.181252,0.431989,-0.51403266,0.58222985,1001.99927, , , , 
2025-11-24 19:37:56.411,1.8170497,-7.2086773,-1.2376875,1.1821421,0.0846787,-2.5069935,-38.775,24.375002,24.562502,0.45038697,-0.4958476,0.5776725,1001.99927, , , , 
2025-11-24 19:37:56.431,0.28265217,-6.873383,-1.8720846,0.9542961,0.3082488,-2.2632654,-39.956253,22.9125,24.150002,0.46569774,-0.47862044,0.5733674,1001.99414, , , , 
2025-11-24 19:37:56.451,-1.2640085,-6.7537417,-2.6694927,0.68185824,0.4737884,-1.8618624,-41.193752,21.28125,23.456251,0.47706458,-0.4629484,0.569979,1001.99414, , , , 
2025-11-24 19:37:56.471,-2.082952,-7.012167,-3.5288153,0.26526043,0.48172942,-1.2626213,-42.3375,19.875,22.725,0.48402336,-0.45077807,0.567792,1001.9885, , , , 
2025-11-24 19:37:56.491,-1.7356937,-7.701898,-3.2775688,-0.23380178,0.30214033,-0.57969403,-43.050003,18.993752,22.125,0.48626167,-0.4446228,0.56630796,1001.9885, , , , 
2025-11-24 19:37:56.511,-0.38793638,-8.5372925,-1.7644076,-0.56182677,-0.07902836,0.08979455,-44.0625,17.868752,21.65625,0.48451266,-0.445826,0.56483835,1001.98267, , , , 
2025-11-24 19:37:56.531,1.0031909,-9.092726,-0.11964113,-0.56060505,-0.4748574,0.6921663,-44.5125,17.175001,21.6375,0.48058647,-0.45343077,0.5636544,1001.98267, , , , 
2025-11-24 19:37:56.551,1.6663018,-9.068798,0.8210373,-0.37918344,-0.7179746,1.2309335,-44.5125,16.85625,21.825,0.4759389,-0.46496347,0.5639643,1001.9856, , , , 
2025-11-24 19:37:56.571,2.2815564,-8.937193,1.0606186,-0.10246963,-0.79005456,1.7440453,-44.381252,16.650002,22.2,0.47052476,-0.4783038,0.56699747,1001.9856, , , , 
2025-11-24 19:37:56.591,3.8425741,-10.945967,0.0526421,-0.0071774554,-0.8468634,2.1759143,-43.612503,17.362501,22.425001,0.46420115,-0.492544,0.57304204,1001.98315, , , , 
2025-11-24 19:37:56.612,5.185546,-12.889836,-0.0741775,-0.110410646,-0.84503084,2.7256768,-42.862503,18.28125,23.081251,0.45315447,-0.51317406,0.5830049,1001.98315, , , , 
2025-11-24 19:37:56.632,6.7034926,-13.924134,0.35443684,-0.03283304,-0.83708984,3.1874774,-41.756252,19.63125,23.8125,0.44392413,-0.52726287,0.59017056,1001.9844, , , , 
2025-11-24 19:37:56.651,7.795218,-13.433307,0.38315073,0.1565296,-0.6819346,3.626142,-40.518753,21.2625,24.4125,0.42894524,-0.5462335,0.6018632,1001.9844, , , , 
2025-11-24 19:37:56.673,8.985049,-12.660126,-0.17467605,0.22555535,-0.32458895,3.750144,-38.90625,23.456251,25.218752,0.4065742,-0.56758016,0.6191684,1001.9961,37.887512,127.74035701,145.61871337890625,0.0
2025-11-24 19:37:56.692,9.363414,-12.942478,-0.88354975,0.14553437,0.03581092,3.6731772,-37.068752,26.025002,25.612501,0.38612643,-0.58198,0.63331765,1001.9961, , , , 
2025-11-24 19:37:56.712,9.368199,-13.694124,-1.1012967,-0.0022906773,0.13660072,3.6768425,-35.15625,28.5375,25.5375,0.36360696,-0.5954805,0.6462821,1001.9934, , , , 
2025-11-24 19:37:56.732,9.7247305,-14.199308,-0.9098708,-0.056045234,-0.0820826,3.7690804,-32.925003,31.143751,25.612501,0.34017268,-0.6094618,0.6572977,1001.9934, , , , 
2025-11-24 19:37:56.751,10.031311,-13.569697,-0.40947178,-0.014507622,-0.39605808,3.8436036,-30.54375,33.112503,25.312502,0.31748134,-0.6235974,0.66646016,1001.99365, , , , 
2025-11-24 19:37:56.772,10.124631,-12.477972,0.02632105,0.07040015,-0.5719821,3.8326085,-27.750002,35.025,25.087502,0.29634058,-0.63674384,0.6743014,1001.99365, , , , 
2025-11-24 19:37:56.792,9.98824,-11.347961,0.32333016,0.13087402,-0.48340926,3.7770214,-24.825,37.237503,25.331251,0.27594355,-0.6479801,0.681529,1001.99243, , , , 
2025-11-24 19:37:56.811,9.935597,-10.486246,0.5554339,0.17424418,-0.14988665,3.722656,-21.88125,38.925003,25.331251,0.2546074,-0.65709907,0.6886512,1001.99243, , , , 
2025-11-24 19:37:56.831,10.093524,-9.212367,0.3376871,0.22005773,0.26610035,3.6206443,-18.900002,40.6875,25.406252,0.23129366,-0.66395336,0.69604576,1001.9939, , , , 
2025-11-24 19:37:56.852,9.954741,-8.003393,-0.0071784677,0.06306998,0.6900283,3.367143,-15.4875,42.037502,25.556252,0.20632954,-0.66938716,0.7027447,1001.9939, , , , 
2025-11-24 19:37:56.871,9.413663,-7.1560354,0.06699903,-0.18187977,1.0785272,3.0921853,-12.093751,42.9375,25.48125,0.18016765,-0.6745914,0.707588,1001.9912, , , , 
2025-11-24 19:37:56.891,9.066405,-6.5575304,0.45732823,-0.35902548,1.3412678,2.9461927,-9.13125,43.66875,25.48125,0.1525054,-0.67999876,0.7106098,1001.9912, , , , 
2025-11-24 19:37:56.911,9.346664,-5.886942,0.86919284,-0.34986275,1.3333268,2.8050869,-6.4500003,44.1375,25.837502,0.12416664,-0.68502486,0.71250063,1001.9983, , , , 
2025-11-24 19:37:56.931,9.736694,-5.532804,0.91465646,-0.19287503,1.0608126,2.5821278,-4.70625,44.49375,25.66875,0.10418912,-0.68790036,0.71369004,1001.9983, , , , 
2025-11-24 19:37:56.953,10.103095,-5.3051867,0.6559325,-0.014507622,0.7285117,2.3322911,-2.98125,44.475002,25.800001,0.075669274,-0.6905997,0.715859,1002.0029, , , , 
2025-11-24 19:37:56.971,10.5029955,-5.0587263,0.48125646,0.13270657,0.5415925,2.1911855,-1.3125,44.53125,26.081251,0.05680356,-0.69111204,0.7179843,1002.0029, , , , 
2025-11-24 19:37:56.992,11.752647,-5.0659046,-0.1268196,0.32512346,0.29603186,1.937073,0.22500001,44.2125,25.63125,0.040994223,-0.6900814,0.7207934,1002.00464, , , , 
2025-11-24 19:37:57.011,12.882658,-5.006084,-0.85483587,0.33917293,0.095063105,1.593166,1.7437501,44.1375,25.725,0.02897676,-0.68813187,0.7238153,1002.00464, , , , 
2025-11-24 19:37:57.031,14.525032,-5.0252266,-1.8170497,0.09666658,-0.15233004,1.069059,2.8312502,43.85625,25.612501,0.021593057,-0.6868411,0.7256742,1002.0005, , , , 
2025-11-24 19:37:57.051,15.784255,-5.6524453,-1.7404794,-0.38956785,-0.5218926,0.37689275,4.21875,43.818752,25.29375,0.020422837,-0.6882054,0.7246081,1002.0005, , , , 
2025-11-24 19:37:57.071,16.4689,-6.5001025,-0.18185452,-0.81784815,-0.9830823,-0.38972056,5.3250003,43.875,25.237501,0.027152298,-0.69294965,0.71991026,1002.00146, , , , 
2025-11-24 19:37:57.091,16.777874,-7.4886374,1.5921243,-0.97422504,-1.216426,-1.2210836,6.3750005,43.725002,25.368752,0.042210784,-0.6993492,0.71290284,1002.00146, , , , 
2025-11-24 19:37:57.111,16.677376,-10.012168,2.4705894,-0.9711708,-1.0148463,-2.1319332,6.7312503,43.518753,25.518751,0.06423683,-0.7051953,0.7051453,1002.0073, , , , 
2025-11-24 19:37:57.131,14.254344,-11.326426,3.3397822,-0.9106969,-0.19020256,-2.761106,6.5062504,43.237503,25.95,0.08942538,-0.7093806,0.6972564,1002.0073, , , , 
2025-11-24 19:37:57.151,11.965609,-10.62503,3.7731822,-0.5679352,0.81769544,-2.9303107,5.7937503,42.768753,26.60625,0.11049052,-0.7105746,0.6909238,1002.00757, , , , 
2025-11-24 19:37:57.171,11.836396,-10.555638,3.0858438,-0.049325917,1.1487746,-3.1074564,3.825,42.412502,27.112501,0.12602296,-0.707449,0.6877036,1002.00757, , , , 
2025-11-24 19:37:57.191,12.1764765,-11.398211,1.5155541,0.39231664,0.9001598,-3.55704,1.9312501,42.318752,27.562502,0.1467937,-0.6977981,0.6863117,1002.0115, , , , 
2025-11-24 19:37:57.211,12.334402,-12.770195,0.28743783,0.486998,0.47684264,-3.965086,-0.71250004,42.2625,27.91875,0.16324368,-0.69009995,0.68499124,1002.0115, , , , 
2025-11-24 19:37:57.231,12.073585,-14.232808,-0.8282157,0.2481567,0.14759597,-4.3425894,-3.8625002,42.506252,28.031252,0.19023958,-0.6794301,0.68050236,1002.0073, , , , 
2025-11-24 19:37:57.251,11.170893,-15.348462,-0.92662054,-0.2936648,0.2190651,-4.508129,-7.3875003,42.45,27.956251,0.2197987,-0.6699376,0.6714143,1002.0073, , , , 
2025-11-24 19:37:57.271,10.634602,-15.7076845,-0.02632105,-0.62718743,0.6093965,-4.4458227,-9.4875,42.018753,27.900002,0.24639376,-0.661609,0.6586318,1002.001, , , , 
2025-11-24 19:37:57.291,9.619446,-15.020645,0.42622152,-0.7805864,1.2612469,-4.2179766,-15.262501,40.66875,27.562502,0.26719347,-0.6524693,0.6449809,1002.001, , , , 
2025-11-24 19:37:57.311,8.702696,-13.655839,1.0390832,-0.7879166,1.6039321,-4.0420527,-19.1625,38.90625,27.31875,0.28235707,-0.64186597,0.6315362,1002.00244, , , , 
2025-11-24 19:37:57.331,7.9794655,-11.999108,1.6663018,-0.60153186,1.8635423,-3.8019898,-22.650002,36.46875,27.281252,0.2954619,-0.6258885,0.61595595,1002.00244, , , , 
2025-11-24 19:37:57.351,7.8430743,-11.089537,2.2671995,-0.2313584,1.9698297,-3.6614947,-26.325,34.575,27.093752,0.30357417,-0.61022484,0.60515445,1002.00806, , , , 
2025-11-24 19:37:57.372,7.565208,-10.596316,2.1020947,0.34467056,1.8439952,-3.5912473,-29.587502,31.968752,26.737501,0.31223118,-0.59120494,0.5964014,1002.00806, , , , 
2025-11-24 19:37:57.391,7.036394,-10.292129,1.4796617,0.8687775,1.452442,-3.5613158,-32.98125,29.5125,26.00625,0.32415128,-0.5696831,0.5890594,1002.0105, , , , 
2025-11-24 19:37:57.411,6.114559,-10.007382,0.5913263,1.2615523,1.0168316,-3.4403682,-35.8875,27.562502,25.050001,0.3400763,-0.54711026,0.5824584,1002.0105, , , , 
2025-11-24 19:37:57.431,4.9175496,-9.432806,-0.15553348,1.450915,0.6906392,-3.240621,-38.475002,25.10625,24.187502,0.35850996,-0.5247194,0.57632965,1002.0022, , , , 
2025-11-24 19:37:57.451,3.694219,-8.656933,-0.7468598,1.5681976,0.3986542,-2.9901736,-40.818752,23.0625,22.800001,0.37796435,-0.50332254,0.57045305,1002.0022, , , , 
2025-11-24 19:37:57.471,2.4011974,-7.859824,-1.4557334,1.5407095,0.22639526,-2.7342286,-42.46875,21.150002,21.50625,0.39761943,-0.48324084,0.5648128,1001.9863, , , , 
2025-11-24 19:37:57.491,0.98644114,-7.1345,-1.907977,1.4044906,0.14209834,-2.453239,-44.025,19.143751,20.475,0.41600987,-0.46479842,0.5593135,1001.9863, , , , 
2025-11-24 19:37:57.511,-0.29222345,-6.8111696,-2.3461626,1.2285665,0.048027866,-2.0927627,-45.16875,17.400002,19.181252,0.4323478,-0.44863248,0.55405873,1001.9773, , , , 
2025-11-24 19:37:57.531,-1.16351,-7.1153574,-3.0499516,0.9927795,-0.10101887,-1.5912571,-45.84375,15.806251,18.4125,0.44619077,-0.43587315,0.54953766,1001.9773, , , , 
2025-11-24 19:37:57.551,-1.326222,-7.5846496,-3.370889,0.6128325,-0.29771167,-0.96819293,-46.3875,14.118751,18.28125,0.45679688,-0.4282122,0.5460482,1001.97363, , , , 
2025-11-24 19:37:57.571,-0.8572287,-8.367402,-2.8537402,0.2249445,-0.55060244,-0.2987043,-47.006252,12.843751,18.09375,0.46355197,-0.42689607,0.54348683,1001.97363, , , , 
2025-11-24 19:37:57.591,0.38793638,-9.284451,-1.5131612,0.04046863,-0.7998281,0.41171107,-47.15625,11.925,18.375,0.46672967,-0.4319965,0.54227334,1001.97314, , , , 
2025-11-24 19:37:57.611,1.4820545,-9.669696,-0.8138588,0.030084228,-0.976363,1.0635614,-47.4375,11.306251,18.806252,0.4673223,-0.4391357,0.54286516,1001.97314, , , , 
2025-11-24 19:37:57.631,2.396412,-9.928419,-0.7899306,0.04535541,-1.0179006,1.6053829,-47.287502,11.306251,19.44375,0.46560657,-0.45499632,0.5471805,1001.97705, , , , 
2025-11-24 19:37:57.651,3.72054,-11.49871,-1.4820545,-0.03771982,-1.003851,2.1862986,-46.48125,11.887501,20.19375,0.46140614,-0.47031894,0.5534832,1001.97705, , , , 
2025-11-24 19:37:57.671,4.6061835,-12.8467655,-1.6016957,-0.2881672,-0.9598701,2.7604952,-45.693752,13.200001,21.46875,0.4535822,-0.4885829,0.56175894,1001.97876,37.88752041,127.74037643,145.2813720703125,1.88
2025-11-24 19:37:57.691,5.9973106,-13.691731,-0.622433,-0.46042612,-0.91894335,3.3518717,-44.68125,14.83125,22.575,0.44087636,-0.5102216,0.57150483,1001.97876, , , , 
2025-11-24 19:37:57.711,6.6939216,-13.064512,0.4884349,-0.43721393,-0.8853468,3.8069527,-43.40625,17.118752,23.0625,0.4238132,-0.5338934,0.5826714,1001.9866, , , , 
2025-11-24 19:37:57.731,8.175976,-12.643375,1.0031909,-0.184934,-0.888401,4.1447515,-42.09375,19.518751,23.8125,0.4041254,-0.5572855,0.5953164,1001.9866, , , , 
2025-11-24 19:37:57.751,9.576375,-13.176975,0.7516454,0.07834116,-0.8279271,4.1991167,-40.2,22.10625,24.2625,0.38383263,-0.5785343,0.6088359,1001.99146, , , , 
2025-11-24 19:37:57.771,10.397712,-13.6606245,0.050249275,0.36910444,-0.70820105,4.2088904,-37.912502,24.7875,24.937502,0.36342084,-0.59653056,0.6230709,1001.99146, , , , 
2025-11-24 19:37:57.791,10.945967,-13.543376,-1.2329018,0.45462307,-0.5451048,4.27364,-35.30625,27.525002,25.556252,0.34254968,-0.6114419,0.6379765,1001.99146, , , , 
2025-11-24 19:37:57.811,11.22832,-12.772588,-1.9920249,0.08750387,-0.30137676,4.27364,-32.381252,30.075,25.987501,0.32022494,-0.6250938,0.65168935,1001.99146, , , , 
2025-11-24 19:37:57.831,11.216356,-11.434103,-1.2352947,-0.5196783,0.05780142,4.156968,-29.625002,32.41875,26.175001,0.2951128,-0.63957286,0.66172737,1001.99194, , , , 
2025-11-24 19:37:57.851,10.972288,-10.723136,0.59611195,-0.8691593,0.33146098,3.9877636,-26.7,34.706253,26.2875,0.26692903,-0.6549876,0.6676695,1001.99194, , , , 
2025-11-24 19:37:57.871,11.3575325,-10.277771,1.6280167,-0.77814305,0.5843518,3.838717,-24.075,36.787502,26.643751,0.23684897,-0.6691568,0.67191136,1001.9927, , , , 
2025-11-24 19:37:57.891,11.3575325,-9.224331,1.5490535,-0.5777088,0.6949151,3.5839937,-21.35625,38.568752,26.868752,0.20656532,-0.68017024,0.67634803,1001.9927, , , , 
2025-11-24 19:37:57.912,11.178071,-8.386544,1.1324034,-0.51845664,0.74439377,3.2913978,-20.15625,39.318752,27.13125,0.17809847,-0.6885407,0.6803838,1002.0093, , , , 
2025-11-24 19:37:57.931,10.684851,-7.467102,1.16351,-0.5276193,0.7492805,2.8551764,-16.181252,40.59375,27.862501,0.15183908,-0.6954103,0.68312675,1002.0093, , , , 
2025-11-24 19:37:57.951,9.856635,-6.789634,0.8596215,-0.5013529,0.64116055,2.5076044,-13.950001,40.96875,27.956251,0.1284429,-0.7011178,0.6846747,1002.0144, , , , 
2025-11-24 19:37:57.971,9.157332,-6.2054863,0.38793638,-0.61863554,0.57030225,2.1911855,-11.75625,41.325,28.25625,0.10305689,-0.7076639,0.68482876,1002.0144, , , , 
2025-11-24 19:37:57.991,8.640183,-5.944669,0.3999005,-0.7323295,0.48478365,1.968837,-9.918751,41.5125,28.500002,0.08500504,-0.7133011,0.6830958,1002.02, , , , 
2025-11-24 19:37:58.012,8.12782,-6.059524,0.581755,-0.7921925,0.41087115,1.8949245,-8.53125,41.8125,28.66875,0.0684048,-0.71915686,0.6802912,1002.02, , , , 
2025-11-24 19:37:58.031,8.183154,-5.7577295,1.0893325,-0.7891383,0.33573693,1.9511225,-6.80625,41.625,29.737501,0.05204824,-0.7249955,0.6770191,1002.0161, , , , 
2025-11-24 19:37:58.051,9.4686985,-5.4346986,1.4940187,-0.60153186,0.19524206,1.9309646,-5.45625,41.04375,30.206251,0.036235422,-0.7298721,0.6742979,1002.0161, , , , 
2025-11-24 19:37:58.071,10.823634,-5.3389854,1.3716856,-0.37551835,-0.060702946,1.7568731,-3.7875001,40.818752,30.69375,0.022817122,-0.7331098,0.6728008,1002.022, , , , 
2025-11-24 19:37:58.091,12.272189,-5.6261244,1.4126626,-0.17821468,-0.3251998,1.4618338,-2.30625,40.3875,31.29375,0.013378392,-0.7349937,0.6722974,1002.022, , , , 
2025-11-24 19:37:58.111,13.60559,-6.0116677,1.4054842,0.042301174,-0.5133408,1.1124293,-1.5937501,40.2,31.44375,0.009390597,-0.73544806,0.67270195,1002.0222, , , , 
2025-11-24 19:37:58.131,14.999109,-6.7633133,0.91226363,0.21272756,-0.5652628,0.5326588,0.61875004,40.48125,31.781252,0.008804492,-0.73439354,0.67480654,1002.0222, , , , 
2025-11-24 19:37:58.152,15.559329,-7.43121,0.8282157,0.13026318,-0.3716242,-0.15393351,1.7437501,40.275,31.781252,0.01331138,-0.73317856,0.6762763,1002.0154, , , , 
2025-11-24 19:37:58.172,14.994324,-7.158428,1.556232,0.05635066,-0.00633754,-0.839915,2.60625,40.29375,31.612501,0.020883774,-0.7323369,0.67658925,1002.0154, , , , 
2025-11-24 19:37:58.191,13.904991,-7.8574314,1.7117655,0.1565296,0.36872268,-1.4611466,3.0375001,40.5,31.650002,0.030859776,-0.73072845,0.67661715,1002.0127, , , , 
2025-11-24 19:37:58.211,12.28176,-9.808479,1.0725827,0.37460208,0.7413395,-1.9547112,2.4,40.66875,31.35,0.04235112,-0.7271918,0.6772978,1002.0127, , , , 
2025-11-24 19:37:58.231,10.117453,-9.040084,0.2970091,0.64032066,0.80120254,-1.9541004,1.44375,40.85625,31.031252,0.053144027,-0.72142166,0.6792283,1002.0183, , , , 
2025-11-24 19:37:58.251,9.993026,-8.59472,-0.57457656,0.8131904,0.24410984,-2.0292346,0.13125001,41.175003,30.656252,0.06482823,-0.7144537,0.6818357,1002.0183, , , , 
2025-11-24 19:37:58.271,11.178071,-9.715159,-1.2352947,0.9280297,-0.42904383,-2.3286262,-1.7062501,41.268753,29.79375,0.082336865,-0.70718366,0.6840907,1002.0061, , , , 
2025-11-24 19:37:58.291,12.07837,-10.842776,-2.5642085,0.68185824,-0.38506284,-2.7592735,-3.3750002,41.4375,29.04375,0.10548764,-0.6998683,0.68497795,1002.0061, , , , 
2025-11-24 19:37:58.311,12.219547,-12.73191,-3.1603205,-0.051769305,0.16714308,-3.3023167,-5.6062503,41.79375,28.5375,0.13032669,-0.6940923,0.6816174,1001.9956, , , , 
2025-11-24 19:37:58.332,11.254642,-14.304593,-1.4294125,-0.67910945,0.61000735,-3.7378507,-7.6875005,41.943752,28.237501,0.15320042,-0.6908623,0.67220366,1001.9956, , , , 
2025-11-24 19:37:58.351,10.64178,-15.157036,0.78035927,-0.7524875,0.51715857,-3.936376,-10.012501,41.850002,28.25625,0.17406848,-0.6882745,0.65895945,1001.98413, , , , 
2025-11-24 19:37:58.371,10.43839,-14.984753,2.2217357,-0.40667155,0.18241426,-4.037777,-12.825001,41.4,28.368752,0.1963032,-0.68413204,0.6448913,1001.98413, , , , 
2025-11-24 19:37:58.391,9.217153,-13.919349,1.9872392,-0.01267508,0.419423,-4.1764393,-15.6,40.162502,28.7625,0.22102469,-0.6761686,0.63243407,1001.9988, , , , 
2025-11-24 19:37:58.411,6.4184475,-12.777374,1.2065809,0.1577513,1.0437089,-4.2143116,-18.6,38.643753,28.63125,0.24466296,-0.6634479,0.6219594,1001.9988, , , , 
2025-11-24 19:37:58.431,4.084249,-11.381461,0.3999005,0.25915194,1.3938007,-3.7751124,-22.06875,36.5625,28.743752,0.2636548,-0.64774865,0.61310077,1002.00195, , , , 
2025-11-24 19:37:58.451,3.6870406,-9.904491,-0.1052842,0.26892552,1.4438902,-3.1111214,-25.968752,34.36875,28.593752,0.27712598,-0.63173616,0.6062038,1002.00195, , , , 
2025-11-24 19:37:58.471,4.28076,-8.257332,0.11246266,0.25243264,1.2013075,-2.6731439,-29.156252,32.34375,27.618752,0.28686625,-0.6171648,0.6004226,1002.0034, , , , 
2025-11-24 19:37:58.491,4.766503,-7.443174,0.974477,0.34833565,0.81280863,-2.572354,-32.325,30.2625,26.962502,0.29661337,-0.6041495,0.5942025,1002.0034, , , , 
2025-11-24 19:37:58.511,4.6636114,-7.1632137,1.4653047,0.6219952,0.3729986,-2.5870144,-34.6875,28.800001,26.23125,0.30899575,-0.5916049,0.58736396,1002.00073, , , , 
2025-11-24 19:37:58.531,4.436293,-7.5197444,0.98883396,0.8247965,0.07062922,-2.54059,-36.131252,27.206251,25.44375,0.32467535,-0.57886636,0.58063257,1002.00073, , , , 
2025-11-24 19:37:58.551,3.9981074,-7.7090764,0.60807604,0.8687775,-0.054594472,-2.3994844,-37.93125,25.875002,25.2,0.34174228,-0.56634283,0.5742332,1002.00073, , , , 
2025-11-24 19:37:58.571,3.5958142,-7.4240313,0.392722,0.8412894,-0.08635853,-2.1716383,-39.3375,24.16875,24.900002,0.36225984,-0.5515636,0.5668416,1002.00073, , , , 
2025-11-24 19:37:58.591,3.4283166,-7.43121,0.13399807,0.7795938,0.014431266,-2.0102983,-40.350002,22.66875,24.487501,0.37336463,-0.54303825,0.5629288,1002.011, , , , 
2025-11-24 19:37:58.612,3.098107,-8.089535,-0.2656033,0.6592569,0.18424681,-1.7977235,-41.193752,21.13125,24.16875,0.38890627,-0.5292022,0.55739,1002.011, , , , 
2025-11-24 19:37:58.631,2.9135606,-8.678469,-0.40947178,0.60916746,0.17630579,-1.5283399,-41.34375,20.362501,23.868752,0.39634115,-0.52167857,0.55469924,1002.0032, , , , 
2025-11-24 19:37:58.655,2.7388847,-9.432806,-1.1060823,0.5804576,0.052303795,-1.063485,-42.375,18.768751,23.475,0.40652445,-0.5115361,0.55176204,1002.0032, , , , 
2025-11-24 19:37:58.671,2.396412,-9.542876,-1.4820545,0.42896748,-0.031993125,-0.6841489,-43.03125,17.98125,23.325,0.41131017,-0.5073049,0.5510239,1001.99976,37.88752661,127.74038978,144.85626220703125,1.41
2025-11-24 19:37:58.691,1.8744774,-9.528519,-1.3477573,0.20600824,-0.13339376,-0.1808108,-43.5,17.306252,23.23125,0.41584924,-0.504659,0.55104244,1001.99976, , , , 
2025-11-24 19:37:58.711,2.1188445,-9.564411,-0.9601201,0.13453911,-0.17859647,0.40804598,-44.15625,16.725,22.800001,0.41566595,-0.5065667,0.5528692,1001.99365, , , , 
2025-11-24 19:37:58.731,3.7851462,-10.864312,-1.7165512,0.14248012,-0.2476222,0.9090171,-44.1375,16.5375,22.650002,0.4128434,-0.5111518,0.5571916,1001.99365, , , , 
2025-11-24 19:37:58.751,4.8673005,-12.07837,-2.5378876,-0.1085781,-0.2720561,1.3103437,-44.2125,16.331251,22.3125,0.40774497,-0.51840436,0.56307065,1001.999, , , , 
2025-11-24 19:37:58.771,5.18076,-12.121441,-1.7333009,-0.49341187,-0.18898088,1.6554724,-44.006252,16.85625,22.48125,0.39887083,-0.5288653,0.5691363,1001.999, , , , 
2025-11-24 19:37:58.791,4.805087,-11.443674,-0.33290145,-0.6033644,0.008933641,1.9022547,-43.237503,17.306252,23.081251,0.3859082,-0.5409079,0.5754474,1001.9883, , , , 
2025-11-24 19:37:58.811,4.625326,-12.099906,-0.54346985,-0.51112646,0.20929155,2.1746926,-42.675003,18.4125,23.85,0.3700994,-0.55240864,0.5834237,1001.9883, , , , 
2025-11-24 19:37:58.831,4.8098726,-13.033406,-1.4796617,-0.52945185,0.26365694,2.5589156,-41.5875,20.00625,24.206251,0.35170957,-0.56403154,0.5933483,1001.9971, , , , 
2025-11-24 19:37:58.851,5.0802617,-13.694124,-1.6758732,-0.6681142,0.06879667,3.0653079,-40.8375,21.375,24.206251,0.33062583,-0.5777943,0.60389847,1001.9971, , , , 
2025-11-24 19:37:58.871,6.131309,-14.316856,-0.8811569,-0.79463595,-0.34108183,3.654241,-40.0875,23.325,24.150002,0.30713487,-0.59509206,0.6141035,1001.99365, , , , 
2025-11-24 19:37:58.891,7.4072814,-14.484354,0.5267201,-0.78241897,-0.78944373,4.1930084,-38.5125,25.48125,24.16875,0.28202513,-0.6151989,0.62387305,1001.99365, , , , 
2025-11-24 19:37:58.911,8.482257,-13.823635,1.9800607,-0.3694099,-1.1712233,4.659085,-36.768753,27.31875,24.88125,0.25646812,-0.6353793,0.6341791,1001.99927, , , , 
2025-11-24 19:37:58.931,9.854242,-12.837194,2.0518453,0.20234315,-1.3367629,4.8569994,-34.125,29.718752,25.81875,0.2319945,-0.65231186,0.646498,1001.99927, , , , 
2025-11-24 19:37:58.951,10.90499,-11.429317,0.4645067,0.486998,-1.0692117,4.8722706,-31.087502,32.2125,26.643751,0.20897333,-0.6643002,0.6608237,1002.0183, , , , 
2025-11-24 19:37:58.971,11.379068,-10.239487,-0.4334,0.24632415,-0.43087637,4.718948,-27.712502,34.4625,27.093752,0.18465725,-0.6727135,0.67465806,1002.0183, , , , 
2025-11-24 19:37:58.991,11.2139635,-9.353843,-0.05503492,-0.2081462,0.14515258,4.4410124,-24.112501,36.7125,27.50625,0.15697576,-0.6802288,0.6849639,1002.01855, , , , 
2025-11-24 19:37:59.011,11.118251,-8.956335,0.9409775,-0.44087902,0.40598437,4.2040033,-20.400002,38.831253,27.487501,0.12667647,-0.6878208,0.6912444,1002.01855, , , , 
2025-11-24 19:37:59.031,11.249856,-8.134998,1.5442679,-0.2973299,0.49028128,3.9120185,-16.725,40.443752,27.562502,0.09616536,-0.69386274,0.6957693,1002.0227, , , , 
2025-11-24 19:37:59.051,11.22832,-7.359425,1.096511,-0.18065807,0.471345,3.5858262,-13.387501,41.568752,27.825,0.06768012,-0.6974406,0.6999962,1002.0227, , , , 
2025-11-24 19:37:59.071,11.158929,-6.672386,0.8258229,-0.24540788,0.4853945,3.254747,-10.40625,42.318752,27.862501,0.04179339,-0.6998524,0.7030568,1002.0325, , , , 
2025-11-24 19:37:59.091,11.132607,-6.387341,1.2951152,-0.20020519,0.3986542,2.969405,-7.6875005,42.525,28.10625,0.018104166,-0.7017781,0.70475453,1002.0325, , , , 
2025-11-24 19:37:59.111,11.290534,-6.033203,1.6471593,0.10766183,0.09017633,2.7159033,-5.25,42.6375,28.06875,-0.0026770406,-0.7020872,0.70676214,1002.0254, , , , 
2025-11-24 19:37:59.131,12.265011,-5.7409797,0.93619186,0.49982578,-0.23296188,2.3524492,-2.60625,42.7125,28.087502,-0.018689247,-0.6995785,0.71075475,1002.0254, , , , 
2025-11-24 19:37:59.151,12.623934,-5.2645087,-0.43100718,0.55296946,-0.21341476,1.84117,-0.35625002,42.675003,27.768751,-0.02939433,-0.69520813,0.7159541,1002.0254, , , , 
2025-11-24 19:37:59.171,12.818051,-5.657231,-1.2783655,0.16569231,-0.0014507623,1.2590326,1.5937501,42.768753,27.581251,-0.036710367,-0.6921169,0.7193262,1002.0254, , , , 
2025-11-24 19:37:59.191,13.109976,-6.4351974,-0.61764735,-0.30343837,0.063299045,0.737369,3.3750002,42.9,27.431252,-0.041746538,-0.6924646,0.719013,1002.0161, , , , 
2025-11-24 19:37:59.211,13.550554,-6.9499536,1.218545,-0.51479155,-0.29832253,0.092848785,4.6125,42.80625,27.4125,-0.04245156,-0.69642293,0.7151992,1002.0161, , , , 
2025-11-24 19:37:59.231,13.339986,-6.8685975,2.5498517,-0.42682952,-0.5487699,-0.55648184,5.5125003,42.825,27.35625,-0.035650916,-0.6999247,0.712051,1002.01416, , , , 
2025-11-24 19:37:59.251,12.78216,-7.2326055,3.0786655,-0.22158484,-0.39056048,-1.2510152,6.0375004,42.6375,27.35625,-0.023194583,-0.7022483,0.709928,1002.01416, , , , 
2025-11-24 19:37:59.271,12.253047,-8.944371,2.4562325,-0.11835165,0.120107844,-1.839872,6.0750003,42.73125,27.468752,-0.008355837,-0.70314807,0.70845556,1002.0115, , , , 
2025-11-24 19:37:59.291,11.635399,-9.98824,2.0685952,-0.057266932,0.5965687,-2.107423,5.55,42.65625,27.581251,0.002278241,-0.70318717,0.7071971,1002.0115, , , , 
2025-11-24 19:37:59.311,11.656935,-10.036097,1.5131612,0.02519745,0.7865422,-2.3939867,4.70625,42.787502,27.656252,0.014722297,-0.70219123,0.70541394,1002.01074, , , , 
2025-11-24 19:37:59.332,11.999108,-10.5125675,1.326222,0.11010522,0.59107107,-2.8954923,3.1875002,42.825,27.750002,0.03292663,-0.6995972,0.7023914,1002.01074, , , , 
2025-11-24 19:37:59.352,12.044572,-11.575579,1.1419746,0.18218519,0.35955995,-3.41288,0.7875,42.693752,27.73125,0.047747392,-0.6972017,0.6999043,1002.0193, , , , 
2025-11-24 19:37:59.372,12.087942,-13.847564,0.622433,0.14675605,0.20257223,-4.0561023,-1.9312501,42.6375,27.656252,0.0793381,-0.691941,0.6935609,1002.0193, , , , 
2025-11-24 19:37:59.392,11.52533,-15.207285,0.2321038,-0.036498122,0.303362,-4.4592614,-5.0625,42.5625,27.88125,0.108275406,-0.6869275,0.68544596,1002.0178, , , , 
2025-11-24 19:37:59.411,10.505388,-15.918253,0.34965122,-0.32237464,0.42125553,-4.685886,-8.400001,42.28125,27.750002,0.13731392,-0.68168366,0.6739007,1002.0178, , , , 
2025-11-24 19:37:59.431,10.012168,-16.184155,1.189831,-0.45553935,0.40720606,-4.718261,-11.4375,41.5875,27.843752,0.16516036,-0.67626154,0.6593228,1002.01416, , , , 
2025-11-24 19:37:59.451,9.660124,-15.4827585,1.9199411,-0.29061058,0.43408334,-4.592426,-14.981251,40.66875,27.843752,0.19188504,-0.669328,0.64382464,1002.01416, , , , 
2025-11-24 19:37:59.472,9.209974,-13.670196,1.2903296,-0.0022906773,0.80181336,-4.3993983,-18.431252,39.2625,27.73125,0.21654543,-0.65885794,0.63009924,1002.0137, , , , 
2025-11-24 19:37:59.491,8.132606,-11.936894,0.4022933,-0.02183779,1.5068074,-4.2949433,-21.84375,37.6875,27.900002,0.23739582,-0.64471525,0.6179001,1002.0137, , , , 
2025-11-24 19:37:59.511,6.88774,-10.7279215,0.32333016,-0.08597675,2.2819726,-4.175217,-25.66875,35.5875,27.375002,0.2519387,-0.62711054,0.6063485,1002.0061, , , , 
2025-11-24 19:37:59.531,6.090631,-10.186844,0.38315073,0.11438115,2.648481,-3.9821897,-29.493752,33.3375,26.8875,0.26105723,-0.6062561,0.59559405,1002.0061, , , , 
2025-11-24 19:37:59.551,5.4346986,-10.138988,0.038285162,0.45462307,2.48905,-3.7213578,-32.9625,30.712502,26.250002,0.2683721,-0.58299565,0.5861536,1002.0056, , , , 
2025-11-24 19:37:59.571,4.5822554,-9.731909,-0.43100718,0.7276718,1.8977497,-3.360347,-36.318752,28.050001,24.768751,0.27719304,-0.56013924,0.5776542,1002.0056, , , , 
2025-11-24 19:37:59.591,4.0244284,-8.930014,-0.4668995,0.838846,1.1408336,-2.957188,-39.112503,25.2,23.325,0.2884402,-0.5399397,0.56956196,1001.9978, , , , 
2025-11-24 19:37:59.612,4.0890346,-8.477471,0.02632105,0.91336936,0.6124507,-2.7079623,-41.4,22.35,21.525002,0.30186737,-0.5232233,0.5612809,1001.9978, , , , 
2025-11-24 19:37:59.631,4.194319,-8.372188,0.36161533,1.042869,0.15859123,-2.5265405,-43.7625,19.725,19.556252,0.3175172,-0.50904137,0.55293286,1001.99194, , , , 
2025-11-24 19:37:59.651,3.9071803,-8.475079,0.27038896,1.1790879,-0.08941277,-2.361001,-45.487503,17.00625,18.4125,0.33478767,-0.496221,0.5448638,1001.99194, , , , 
2025-11-24 19:37:59.671,3.478566,-8.350652,-0.4956134,1.23101,-0.2641151,-2.137431,-46.66875,14.94375,17.7,0.3525995,-0.48433152,0.5376933,1001.9905,37.88752661,127.74038978,144.85626220703125,1.41
2025-11-24 19:37:59.691,3.0667014,-8.398508,-1.1611172,1.0447016,-0.36734828,-1.8777444,-47.456253,13.25625,17.25,0.3697991,-0.47408098,0.53105694,1001.9905, , , , 
2025-11-24 19:37:59.711,2.547459,-8.616255,-1.4581263,0.74477553,-0.4027774,-1.5937005,-47.68125,11.681251,17.25,0.38473845,-0.46611652,0.5246133,1001.98096, , , , 
2025-11-24 19:37:59.731,1.9414765,-9.142975,-0.9194421,0.5199837,-0.3820086,-1.2613996,-47.86875,10.3125,17.475,0.39642835,-0.4608348,0.51844394,1001.98096, , , , 
2025-11-24 19:37:59.751,0.92662054,-9.059227,-0.9696914,0.44790375,-0.32397813,-0.79654485,-48.225002,9.3,17.6625,0.4048498,-0.45759532,0.5138803,1001.98267, , , , 
2025-11-24 19:37:59.771,0.07178468,-8.989835,-1.4222339,0.3361187,-0.25556323,-0.2736596,-48.281254,8.2875,18.018751,0.41001454,-0.45646054,0.5123025,1001.98267, , , , 
2025-11-24 19:37:59.791,-0.14356937,-9.229117,-1.8649062,0.09361234,-0.14499986,0.56327754,-48.525,7.5750003,18.1875,0.41071406,-0.4583771,0.51440585,1001.978, , , , 
2025-11-24 19:37:59.811,1.1874382,-11.015359,-1.9630119,-0.23074755,-0.20547375,1.3482163,-48.43125,7.425,18.300001,0.40615922,-0.46454355,0.5202031,1001.978, , , , 
2025-11-24 19:37:59.831,2.5929224,-11.709577,-0.7157531,-0.47875154,-0.42110282,2.152702,-48.093754,7.6125,18.6375,0.39639726,-0.47649902,0.52868724,1001.97705, , , , 
2025-11-24 19:37:59.852,4.4578285,-12.827623,0.70378894,-0.46042612,-0.64222956,2.7922592,-48.24375,8.606251,19.21875,0.38288003,-0.49329236,0.53939563,1001.97705, , , , 
2025-11-24 19:37:59.872,5.6524453,-13.330415,1.7213368,-0.15805672,-0.7851678,3.3604236,-47.756252,9.88125,19.837502,0.3672842,-0.5122391,0.5527574,1001.9817, , , , 
2025-11-24 19:37:59.892,7.2756763,-13.773386,1.0677971,0.38193226,-0.96536773,3.8753676,-47.175003,11.8125,20.475,0.3511854,-0.5310058,0.56962204,1001.9817, , , , 
2025-11-24 19:37:59.912,8.396115,-13.871492,-0.20338993,0.61466503,-1.0313393,4.134367,-46.21875,14.512501,21.0,0.33581546,-0.5484365,0.5893836,1001.9878, , , , 
2025-11-24 19:37:59.931,9.142975,-13.857135,-1.5538392,0.43202174,-0.932382,4.3805385,-44.550003,17.2875,21.1875,0.31990072,-0.564745,0.6100102,1001.9878, , , , 
2025-11-24 19:37:59.951,9.657731,-13.488341,-1.718944,0.035581853,-0.8187644,4.5442452,-42.787502,20.493752,21.712502,0.30100518,-0.5815678,0.6289507,1001.9863, , , , 
2025-11-24 19:37:59.971,10.119845,-12.966407,-0.79710907,-0.38223767,-0.7680641,4.65542,-40.8375,23.7,22.275002,0.27826697,-0.59980625,0.64454895,1001.9863, , , , 
2025-11-24 19:37:59.991,10.349556,-12.418151,0.11246266,-0.63573927,-0.7100336,4.6725235,-38.4375,26.625002,22.650002,0.2529196,-0.61866295,0.65675175,1001.9939, , , , 
2025-11-24 19:38:00.011,10.519746,-11.908181,0.9098708,-0.8086854,-0.5261686,4.605941,-35.081253,30.112501,23.85,0.21904647,-0.64107484,0.66827744,1001.9939, , , , 
2025-11-24 19:38:00.031,10.591531,-11.599507,1.2424731,-0.9491803,-0.16821207,4.5589056,-31.650002,33.46875,24.618752,0.18988648,-0.65707046,0.6753402,1002.0056, , , , 
2025-11-24 19:38:00.051,10.986645,-11.221142,1.5323038,-1.1354887,0.2838149,4.4697223,-27.6375,36.24375,25.06875,0.15796119,-0.671387,0.6804759,1002.0056, , , , 
2025-11-24 19:38:00.072,11.288141,-10.538888,1.975275,-1.2857571,0.6588751,4.282803,-24.018751,38.456253,26.118752,0.123633705,-0.68415254,0.6832811,1002.00757, , , , 
2025-11-24 19:38:00.091,11.414961,-9.52134,2.1667008,-1.385936,0.9765157,4.0470157,-21.018751,39.43125,26.456251,0.088207744,-0.6953142,0.6838758,1002.00757, , , , 
2025-11-24 19:38:00.111,11.438889,-8.475079,2.396412,-1.5392587,1.2856808,3.7806864,-17.775002,39.862503,27.2625,0.05225607,-0.70522624,0.6821154,1002.0132, , , , 
2025-11-24 19:38:00.131,11.479567,-7.632506,3.1986058,-1.6351618,1.4115154,3.4795387,-15.150001,40.237503,28.44375,0.016325954,-0.71428686,0.6778176,1002.0132, , , , 
2025-11-24 19:38:00.151,11.838789,-6.9020967,4.398008,-1.4238086,1.2025292,3.1832013,-12.750001,40.237503,29.212502,-0.01758109,-0.72174245,0.6724532,1002.0237, , , , 
2025-11-24 19:38:00.171,13.426127,-6.0858455,5.0395837,-0.91863793,0.91543096,2.7592735,-10.51875,40.3875,30.13125,-0.04646737,-0.7260105,0.6687504,1002.0237, , , , 
2025-11-24 19:38:00.192,14.749957,-5.0108695,4.781159,-0.36757734,0.9569686,2.1252139,-8.775001,40.331253,30.675001,-0.06878982,-0.72645116,0.6678893,1002.0288, , , , 
2025-11-24 19:38:00.211,14.838491,-4.8003016,3.4881372,-0.14339639,1.4292299,1.4642773,-7.4062505,40.050003,31.10625,-0.08659125,-0.72423905,0.6683807,1002.0288, , , , 
2025-11-24 19:38:00.232,14.19213,-4.8433723,2.6479573,-0.20692451,1.8372759,0.965215,-6.0750003,39.9,31.48125,-0.10340993,-0.72155744,0.6674171,1002.0283, , , , 
2025-11-24 19:38:00.251,14.129917,-4.9510493,2.5881367,-0.2301367,1.5471234,0.5442649,-5.4375,39.9375,31.781252,-0.11891212,-0.71928406,0.6648138,1002.0283, , , , 
2025-11-24 19:38:00.271,14.539389,-5.317151,2.8393831,-0.16233265,0.8421293,0.10384403,-5.45625,39.862503,32.15625,-0.12897909,-0.717751,0.6619841,1002.0222, , , , 
2025-11-24 19:38:00.291,15.051752,-5.5710893,3.1770704,-0.1085781,0.24472068,-0.42514968,-5.8875003,39.787502,32.2125,-0.13080485,-0.71740425,0.6597076,1002.0222, , , , 
2025-11-24 19:38:00.311,14.673387,-5.7720866,3.8473597,-0.17638214,0.07857023,-1.0702044,-6.4875,39.787502,32.175003,-0.12499766,-0.7185991,0.65703124,1002.01855, , , , 
2025-11-24 19:38:00.331,14.275879,-7.1273212,4.4434714,-0.17393875,0.25754848,-1.6144693,-7.2000003,39.131252,32.193752,-0.11416542,-0.7207087,0.6529968,1002.01855, , , , 
2025-11-24 19:38:00.351,12.949657,-9.786943,4.965406,0.10521844,0.51715857,-2.103147,-7.7812505,39.393753,32.381252,-0.10080138,-0.7217894,0.64830685,1002.0183, , , , 
2025-11-24 19:38:00.371,11.558829,-9.782158,4.781159,0.5981722,0.43347248,-2.1013145,-8.887501,39.05625,32.475002,-0.086595215,-0.7197469,0.645501,1002.0183, , , , 
2025-11-24 19:38:00.391,11.922538,-9.700802,4.1440697,1.0074399,-0.014278554,-2.2070675,-10.387501,38.79375,32.60625,-0.070494376,-0.7148683,0.6456154,1002.0176, , , , 
2025-11-24 19:38:00.411,12.894622,-10.526924,3.6460636,1.2927055,-0.43820655,-2.553418,-11.962501,38.925003,32.23125,-0.048926286,-0.7087951,0.647308,1002.0176, , , , 
2025-11-24 19:38:00.431,13.543376,-11.644971,3.0762727,1.3959388,-0.62573665,-3.0683622,-14.08125,38.41875,31.368752,-0.021313813,-0.70196885,0.648915,1002.0061, , , , 
2025-11-24 19:38:00.451,14.060525,-13.847564,2.2743778,1.3012574,-0.5561001,-3.6553864,-15.69375,38.34375,30.431252,0.011171082,-0.6947179,0.6483256,1002.0061, , , , 
2025-11-24 19:38:00.471,13.560126,-15.71247,1.8337995,1.0410365,-0.21952324,-4.2020946,-17.6625,37.96875,29.475,0.04602541,-0.6869843,0.64398855,1001.9946, , , , 
2025-11-24 19:38:00.491,12.198011,-16.947765,1.9728823,0.82357484,0.0052685575,-4.583874,-20.0625,37.65,28.9125,0.08051438,-0.67839426,0.63542515,1001.9946, , , , 
2025-11-24 19:38:00.511,10.601102,-17.364414,2.489732,0.8015843,-0.105294794,-4.743305,-22.63125,36.881252,28.312502,0.114557326,-0.66891104,0.62360096,1001.9851, , , , 
2025-11-24 19:38:00.531,9.325129,-16.710875,2.801098,0.9280297,-0.36062896,-4.5899825,-25.612501,35.550003,27.768751,0.148943,-0.6585146,0.6105574,1001.9851, , , , 
2025-11-24 19:38:00.551,8.815159,-15.214463,2.5522444,0.97506493,-0.17798562,-4.308382,-28.593752,33.9375,27.487501,0.18266183,-0.64689195,0.5982159,1001.9844, , , , 
2025-11-24 19:38:00.571,8.427222,-13.481163,2.260021,0.87305343,0.4102603,-4.1147437,-31.2,31.81875,26.906252,0.21261844,-0.6329313,0.58688444,1001.9844, , , , 
2025-11-24 19:38:00.591,7.7353973,-12.279367,2.4155545,0.86144733,1.135336,-4.048161,-33.65625,29.400002,26.550001,0.23700939,-0.6155648,0.5760873,1001.98584, , , , 
2025-11-24 19:38:00.611,6.593423,-11.510972,2.2552354,1.1235008,1.3253858,-3.9626424,-36.0,27.225,25.837502,0.25758743,-0.5948725,0.565698,1001.98584, , , , 
2025-11-24 19:38:00.631,5.6069818,-11.015359,1.6615162,1.4081557,1.2178004,-3.7641172,-38.268753,24.825,25.125002,0.277404,-0.57172024,0.55660325,1001.9783, , , , 
2025-11-24 19:38:00.651,4.5798626,-10.069596,0.62721866,1.6506621,0.70041275,-3.4312055,-40.612503,22.2,23.8875,0.30370614,-0.5429051,0.5468958,1001.9783, , , , 
2025-11-24 19:38:00.671,4.0962133,-9.396914,0.10049855,1.6537162,0.25693762,-3.1636543,-42.65625,19.78125,22.3875,0.32083294,-0.5273093,0.5412058,1001.9739,37.88754163,127.74040284,145.50323486328125,1.74
2025-11-24 19:38:00.691,3.5072799,-8.774481,0.12921242,1.5681976,0.07795938,-2.949247,-44.5875,17.4375,21.1875,0.3494111,-0.50396913,0.53133124,1001.9739, , , , 
2025-11-24 19:38:00.711,2.3629124,-8.436793,-0.25842485,1.5486505,0.101782426,-2.7629385,-45.600002,15.356251,20.0625,0.3657089,-0.4906859,0.5253863,1001.97, , , , 
2025-11-24 19:38:00.732,0.89312106,-8.197512,-0.9553344,1.5181081,0.12194038,-2.46118,-46.518753,13.33125,19.48125,0.38584092,-0.4732854,0.5182878,1001.97, , , , 
2025-11-24 19:38:00.751,-0.3185445,-7.900502,-2.3629124,1.2969815,0.2386122,-1.879577,-47.1375,11.2875,19.35,0.4068633,-0.45357865,0.51230174,1001.9612, , , , 
2025-11-24 19:38:00.771,-0.7683952,-7.673184,-2.8848467,0.89504397,0.28809083,-1.3267603,-47.41875,9.543751,19.087502,0.41837576,-0.44104126,0.5100119,1001.9612, , , , 
2025-11-24 19:38:00.791,-0.61764735,-8.3123665,-2.5064816,0.52303797,0.015042114,-0.7702784,-47.98125,7.9500003,18.4125,0.42559734,-0.43346998,0.5086333,1001.95605, , , , 
2025-11-24 19:38:00.811,0.03589234,-8.752945,-1.5155541,0.3556658,-0.5139516,-0.16737215,-48.35625,6.6562505,18.1875,0.43053722,-0.43257514,0.50765043,1001.95605, , , , 
2025-11-24 19:38:00.831,0.8500503,-8.724232,-0.79471624,0.3465031,-0.8621346,0.3738385,-48.562504,5.9812503,18.0,0.43460396,-0.43735033,0.50776005,1001.96265, , , , 
2025-11-24 19:38:00.851,0.9457632,-8.290832,-0.55304116,0.34528142,-0.85663694,0.897411,-48.3375,5.625,18.337502,0.43699253,-0.44507056,0.5103362,1001.96265, , , , 
2025-11-24 19:38:00.871,1.9295124,-9.294023,-0.7827521,0.31229568,-0.74424106,1.4227396,-48.075,5.83125,18.825,0.43646115,-0.4545303,0.51627314,1001.97266, , , , 
2025-11-24 19:38:00.891,3.3278182,-10.890634,-1.1012967,0.26831466,-0.6727719,1.9523442,-47.68125,6.5625005,19.368752,0.43260637,-0.46595937,0.52545464,1001.97266, , , , 
2025-11-24 19:38:00.911,5.111368,-11.953645,-1.1491531,0.11804623,-0.65688986,2.5057719,-47.081253,7.55625,20.025002,0.4254319,-0.47980312,0.537282,1001.97363, , , , 
2025-11-24 19:38:00.932,5.999704,-12.623934,-0.9457632,-0.09880454,-0.57931226,2.8600633,-46.725002,9.1125,20.71875,0.4148467,-0.49572173,0.5504784,1001.97363, , , , 
2025-11-24 19:38:00.951,6.5647087,-13.157832,-0.23928227,-0.25701398,-0.5536567,3.1758714,-46.10625,11.00625,21.487501,0.40060675,-0.5134293,0.56416416,1001.97363, , , , 
2025-11-24 19:38:00.971,7.335497,-14.125132,0.67028946,-0.18982078,-0.55182415,3.6108708,-45.487503,13.275001,22.050001,0.3830995,-0.53241616,0.57868403,1001.97363, , , , 
2025-11-24 19:38:00.991,8.640183,-14.836099,0.7851449,0.13331741,-0.5377747,4.1282587,-44.325,16.125,22.3875,0.36312827,-0.5511811,0.5954486,1001.9763, , , , 
2025-11-24 19:38:01.011,9.918848,-14.82892,0.031106694,0.32145837,-0.5542675,4.477052,-42.956253,18.6,22.78125,0.3416413,-0.5685821,0.6144826,1001.9763, , , , 
2025-11-24 19:38:01.031,10.7016,-14.268701,-0.21774685,0.31962582,-0.6086329,4.662139,-41.2125,21.65625,22.931252,0.31915885,-0.58504146,0.63356364,1001.9861, , , , 
2025-11-24 19:38:01.051,11.125429,-13.749458,-0.14117654,0.32939938,-0.59885937,4.783087,-38.90625,24.900002,23.306252,0.29565164,-0.60052073,0.6514217,1001.9861, , , , 
2025-11-24 19:38:01.071,11.283355,-13.009478,-0.1698904,0.30435464,-0.5420506,4.830122,-36.80625,28.125002,23.6625,0.2710661,-0.61446863,0.6680021,1001.99, , , , 
2025-11-24 19:38:01.091,11.156535,-12.274582,0.086141616,0.24998924,-0.53594214,4.7916384,-33.581253,31.650002,23.85,0.24578394,-0.6269286,0.6826651,1001.99, , , , 
2025-11-24 19:38:01.111,11.096715,-11.740684,0.23688944,0.18401773,-0.47852248,4.765983,-30.487501,34.537502,24.018751,0.22020218,-0.6379881,0.69526076,1001.9988, , , , 
2025-11-24 19:38:01.131,11.417354,-10.766207,0.29461628,0.11193776,-0.43698487,4.6890163,-26.98125,37.0875,24.13125,0.19407102,-0.6477234,0.70583266,1001.9988, , , , 
2025-11-24 19:38:01.151,11.996716,-9.471091,0.02871387,-0.05054761,-0.30137676,4.3811493,-23.1375,39.35625,24.281252,0.16851123,-0.656256,0.71393645,1002.00024, , , , 
2025-11-24 19:38:01.171,11.723933,-8.108678,-0.11006984,-0.4500417,0.10544751,3.8484905,-19.59375,41.006252,24.4125,0.13788871,-0.66608393,0.719518,1002.00024, , , , 
2025-11-24 19:38:01.191,11.197213,-7.5532436,0.34247273,-0.84167117,0.54037076,3.4398336,-15.20625,42.506252,24.806252,0.11928948,-0.6725231,0.71997046,1002.0022, , , , 
2025-11-24 19:38:01.211,10.445568,-7.400103,1.4844474,-1.0591328,0.9209286,3.096461,-11.4375,43.537502,24.993752,0.09328333,-0.68173826,0.7178198,1002.0022, , , , 
2025-11-24 19:38:01.231,10.287343,-7.400103,2.3102703,-0.88809556,0.98628926,2.9749024,-7.9125004,43.85625,25.518751,0.06631603,-0.6899308,0.714755,1002.0032, , , , 
2025-11-24 19:38:01.251,10.989038,-6.9355965,2.097309,-0.6216898,0.8580113,2.8502896,-5.0625,43.96875,26.04375,0.040070474,-0.69563025,0.71263456,1002.0032, , , , 
2025-11-24 19:38:01.271,12.320045,-6.439983,1.3884354,-0.49707696,0.7669951,2.5509746,-2.86875,43.875,26.625002,0.011050677,-0.7000233,0.7108553,1002.0137, , , , 
2025-11-24 19:38:01.291,13.064512,-6.1289163,1.3142579,-0.5813739,0.8390751,2.1643083,-0.63750005,43.237503,27.243752,-0.009028004,-0.70316714,0.7085466,1002.0137, , , , 
2025-11-24 19:38:01.311,13.971991,-6.1624155,1.6519449,-0.59236914,0.78593135,1.7379369,1.1625,43.3125,27.6375,-0.026506476,-0.70636195,0.7053354,1002.0154, , , , 
2025-11-24 19:38:01.331,14.577674,-6.3921266,2.1212373,-0.47875154,0.50799584,1.2547566,2.3812501,43.125,28.087502,-0.03965937,-0.70909035,0.7021704,1002.0154, , , , 
2025-11-24 19:38:01.351,15.097216,-6.48096,2.4801607,-0.23991026,0.08651124,0.7727981,3.3937502,42.862503,28.518751,-0.046965867,-0.71064955,0.7002458,1002.01953, , , , 
2025-11-24 19:38:01.371,15.544972,-6.0690956,2.7891338,0.007482879,-0.27511033,0.20341213,4.275,42.75,28.95,-0.047394156,-0.710819,0.7000819,1002.01953, , , , 
2025-11-24 19:38:01.391,15.717256,-5.8151574,2.801098,0.19440214,-0.24884391,-0.55403847,4.8187504,42.206253,29.175001,-0.04120704,-0.7098464,0.701277,1002.0178, , , , 
2025-11-24 19:38:01.411,15.063716,-7.6540413,2.3102703,0.2793099,0.085900396,-1.3658545,5.26875,42.037502,29.41875,-0.030171065,-0.7081892,0.70277697,1002.0178, , , , 
2025-11-24 19:38:01.431,13.265809,-8.573184,1.8816559,0.36299598,0.46767992,-1.8539214,5.08125,41.643753,29.2875,-0.01730482,-0.70582616,0.7040257,1002.0222, , , , 
2025-11-24 19:38:01.451,11.745469,-8.120642,1.5227325,0.4576773,0.56358296,-2.0903194,4.2562504,41.90625,29.306252,-0.0047101453,-0.70237315,0.7052156,1002.0222, , , , 
2025-11-24 19:38:01.471,11.616257,-8.460722,1.189831,0.55296946,0.29297763,-2.3762722,3.6375,42.0,29.437502,0.0058771046,-0.6991877,0.70601857,1002.01074, , , , 
2025-11-24 19:38:01.491,11.857932,-10.086346,0.7396813,0.6103891,-0.2189124,-2.8221908,1.3875,42.24375,28.575,0.030085573,-0.69318646,0.706663,1002.01074, , , , 
2025-11-24 19:38:01.511,12.22194,-12.164512,0.2536392,0.45095798,-0.48829603,-3.204581,-0.82500005,42.80625,27.993752,0.055578813,-0.68860483,0.7052886,1002.00903, , , , 
2025-11-24 19:38:01.531,12.238689,-13.636696,0.52911294,0.15836215,-0.5652628,-3.5075612,-3.05625,42.956253,27.300001,0.08419388,-0.68510604,0.7008027,1002.00903, , , , 
2025-11-24 19:38:01.551,12.298511,-14.493925,1.1515459,-0.10246963,-0.5689279,-3.7787776,-5.3812504,43.03125,26.625002,0.114118785,-0.68239975,0.6931035,1002.00024, , , , 
2025-11-24 19:38:01.571,12.568899,-15.556936,1.8170497,-0.25518143,-0.44309333,-4.086034,-7.9687505,42.825,26.456251,0.14483805,-0.67946863,0.682692,1002.00024, , , , 
2025-11-24 19:38:01.591,12.020643,-15.875182,2.0183458,-0.33398074,-0.044820916,-4.4372706,-10.78125,42.318752,26.550001,0.17534886,-0.67487866,0.67042106,1001.99976, , , , 
2025-11-24 19:38:01.611,10.809278,-15.607185,2.0805593,-0.37429667,0.29969692,-4.622968,-13.89375,41.325,26.737501,0.20419176,-0.66789204,0.6567107,1001.99976, , , , 
2025-11-24 19:38:01.631,9.736694,-15.307784,2.1044874,-0.39445463,0.7596649,-4.6382394,-17.60625,39.9375,27.075,0.22999342,-0.65843225,0.6422392,1002.00684, , , , 
2025-11-24 19:38:01.651,8.848659,-14.647065,2.449054,-0.23746687,1.2019184,-4.533174,-21.375,38.456253,27.300001,0.25176185,-0.6462342,0.62794185,1002.00684, , , , 
2025-11-24 19:38:01.671,7.9316087,-13.612768,2.3724837,0.08567133,1.5245221,-4.4299407,-25.06875,36.318752,27.281252,0.27029043,-0.63043314,0.6150824,1002.00806,37.88755004,127.74041415,146.21978759765625,1.27
2025-11-24 19:38:01.691,6.971489,-12.9688,1.6974086,0.40025768,1.6784556,-4.327929,-28.66875,33.84375,27.150002,0.28702778,-0.6108726,0.6039946,1002.00806, , , , 
2025-11-24 19:38:01.711,5.927919,-12.636197,1.3166506,0.67880404,1.6033213,-4.213701,-32.081253,31.218752,26.625002,0.30311796,-0.58872753,0.5939025,1002.0134, , , , 
2025-11-24 19:38:01.731,4.881657,-12.068799,0.77318084,0.9817843,1.2954544,-3.9504256,-34.85625,28.556252,25.9125,0.31979537,-0.56548035,0.58442765,1002.0134, , , , 
2025-11-24 19:38:01.751,4.388437,-11.187642,0.047856454,1.1601516,0.931313,-3.6260657,-37.706253,25.743752,25.06875,0.3375563,-0.5425547,0.57580644,1002.0078, , , , 
2025-11-24 19:38:01.771,4.086642,-10.131809,-0.4956134,1.1558757,0.6277219,-3.38417,-40.0875,23.23125,23.681252,0.3561858,-0.5211333,0.5672953,1002.0078, , , , 
2025-11-24 19:38:01.791,3.464209,-9.190832,-0.58893347,1.0740222,0.5037199,-3.216798,-41.98125,20.681252,22.5375,0.37462568,-0.5011261,0.55829096,1002.00024, , , , 
2025-11-24 19:38:01.811,2.6862426,-8.470293,-0.6008976,1.019046,0.39437827,-3.100737,-43.7625,17.962502,21.31875,0.39220864,-0.4819881,0.54871655,1002.00024, , , , 
2025-11-24 19:38:01.831,1.5059828,-8.305188,-0.42622152,1.0092723,0.20257223,-2.952912,-45.16875,15.637501,20.475,0.40943047,-0.46390328,0.53843063,1001.989, , , , 
2025-11-24 19:38:01.851,0.009571291,-8.252546,-0.5267201,1.1528215,-0.03504736,-2.5845711,-46.331253,12.975,20.025002,0.42640683,-0.44732484,0.5282389,1001.989, , , , 
2025-11-24 19:38:01.871,-0.86919284,-8.477471,-1.4222339,1.2920947,-0.3972798,-1.9644848,-47.325,10.78125,19.462502,0.44339627,-0.43348566,0.51984286,1001.9861, , , , 
2025-11-24 19:38:01.891,-1.2520444,-8.48465,-2.5136602,1.1925266,-0.6636092,-1.0909733,-47.850002,9.01875,19.181252,0.45949706,-0.42404413,0.51425296,1001.9861, , , , 
2025-11-24 19:38:01.911,-1.2400804,-8.178369,-3.0619156,0.86144733,-0.69231904,-0.39643988,-47.756252,7.4625,19.10625,0.4722538,-0.41984892,0.5118435,1001.9763, , , , 
2025-11-24 19:38:01.931,-0.689432,-7.845467,-2.1858435,0.43141088,-0.55060244,0.4807368,-47.7,6.61875,18.900002,0.48009107,-0.42205864,0.5131349,1001.9763, , , , 
2025-11-24 19:38:01.951,1.0893325,-9.186047,-1.5107684,0.31229568,-0.4968479,1.1961153,-47.41875,6.6562505,19.3875,0.48011047,-0.42875764,0.5181023,1001.96533, , , , 
2025-11-24 19:38:01.971,2.734099,-10.677672,-1.8122641,0.31840414,-0.51700586,1.9364622,-47.175003,6.8250003,20.1,0.47647598,-0.4392385,0.5269284,1001.96533, , , , 
2025-11-24 19:38:01.991,4.223332,-11.192428,-2.03031,0.13026318,-0.55976516,2.6200004,-46.96875,7.7812505,20.6625,0.46924743,-0.4536527,0.53920907,1001.9719, , , , 
2025-11-24 19:38:02.011,5.326722,-11.161322,-1.3334004,-0.08231167,-0.5334987,3.0677514,-46.74375,9.50625,21.5625,0.46110725,-0.46687517,0.54950005,1001.9719, , , , 
2025-11-24 19:38:02.031,7.278069,-12.2482605,-0.5626124,-0.15866758,-0.46691638,3.489923,-45.9375,11.400001,21.975,0.442628,-0.4914448,0.5678934,1001.97754, , , , 
2025-11-24 19:38:02.051,8.975478,-13.847564,-0.58654064,-0.021226943,-0.5047889,3.773967,-45.075,13.81875,22.44375,0.4251924,-0.5118079,0.5835451,1001.97754, , , , 
2025-11-24 19:38:02.071,10.215558,-14.891433,-1.6064813,0.11560284,-0.53227705,4.1203175,-43.725002,16.48125,23.081251,0.40638962,-0.53192526,0.6003371,1001.9856, , , , 
2025-11-24 19:38:02.091,11.319247,-14.920147,-2.6814568,-0.11529742,-0.56770617,4.404972,-42.075,19.518751,23.456251,0.38575098,-0.55256575,0.61700827,1001.9856, , , , 
2025-11-24 19:38:02.111,11.814861,-14.211273,-2.3509483,-0.6076403,-0.5328879,4.5607386,-40.59375,22.21875,23.925001,0.36228496,-0.5749395,0.63087547,1001.9873, , , , 
2025-11-24 19:38:02.131,11.798111,-13.109976,-1.1347961,-1.0915077,-0.36551574,4.566236,-38.23125,25.275002,24.112501,0.33536625,-0.5986462,0.6409579,1001.9873, , , , 
2025-11-24 19:38:02.151,11.264213,-12.135798,0.85483587,-1.26621,-0.26594764,4.481939,-35.86875,28.1625,24.281252,0.30570397,-0.6221997,0.64766055,1001.99756, , , , 
2025-11-24 19:38:02.171,10.818849,-11.297712,2.1308086,-0.94246095,-0.36551574,4.483772,-33.2625,30.562502,24.843752,0.27551824,-0.64338696,0.65325814,1001.99756, , , , 
2025-11-24 19:38:02.191,11.304891,-10.751849,1.8768703,-0.5392254,-0.40155572,4.5448565,-30.187502,32.98125,25.575,0.24624392,-0.6606252,0.66009283,1002.0083, , , , 
2025-11-24 19:38:02.211,11.78854,-10.036097,1.5490535,-0.26067907,-0.43820655,4.452008,-27.525002,35.04375,26.56875,0.21815053,-0.6741504,0.66759944,1002.0083, , , , 
2025-11-24 19:38:02.231,11.750255,-9.449555,1.6567305,-0.093917765,-0.6318451,4.138032,-24.656252,36.825,27.281252,0.19250843,-0.68472725,0.67442954,1002.01514, , , , 
2025-11-24 19:38:02.251,11.032109,-8.886943,2.111666,0.21761434,-0.98247147,3.7648044,-21.1875,38.5875,27.993752,0.17118284,-0.6925218,0.68040526,1002.01514, , , , 
2025-11-24 19:38:02.271,10.390533,-8.226225,2.193022,0.54075253,-1.1565629,3.5534513,-18.0,39.956253,28.368752,0.15401804,-0.6970828,0.68677515,1002.0149, , , , 
2025-11-24 19:38:02.291,10.277771,-7.809575,1.8026928,0.7710419,-1.0844829,3.3335462,-14.2875,41.04375,28.368752,0.13959485,-0.698395,0.6939791,1002.0149, , , , 
2025-11-24 19:38:02.311,10.524531,-7.5317082,1.4437693,0.8608365,-0.79738474,3.100737,-10.106251,42.131252,28.0125,0.12622431,-0.69724756,0.7014687,1002.01416, , , , 
2025-11-24 19:38:02.331,10.737493,-7.3713894,0.8258229,0.83151585,-0.3985015,2.9003792,-6.76875,42.7125,27.4125,0.112346105,-0.6946355,0.7086972,1002.01416, , , , 
2025-11-24 19:38:02.351,11.036895,-7.0435724,0.4214359,0.75393826,-0.03321482,2.6981888,-3.6375,43.425003,26.737501,0.09716351,-0.69160324,0.7150897,1002.0088, , , , 
2025-11-24 19:38:02.371,11.4699955,-6.7561345,-0.06460621,0.6843016,0.2606027,2.5222647,-0.63750005,44.081253,26.175001,0.08095553,-0.6884309,0.720661,1002.0088, , , , 
2025-11-24 19:38:02.391,12.34876,-6.2605214,-0.6966105,0.5376983,0.5641938,2.3542817,1.8750001,44.175003,25.837502,-0.063888595,0.68552536,-0.72523886,1002.0012, , , , 
2025-11-24 19:38:02.411,13.521841,-5.793622,-0.9026923,0.3733804,0.7957049,2.121549,4.36875,44.456253,25.29375,-0.046263833,0.683496,-0.7283946,1002.0012, , , , 
2025-11-24 19:38:02.431,15.200107,-5.532804,-0.9170493,0.2854184,0.71568394,1.7794744,6.6000004,44.5875,24.562502,-0.029453974,0.68210155,-0.7304376,1002.0039, , , , 
2025-11-24 19:38:02.451,16.674982,-4.927121,-0.79950184,0.26953635,0.28686914,1.1845092,8.306251,44.25,23.98125,-0.017189793,0.68072957,-0.7319975,1002.0039, , , , 
2025-11-24 19:38:02.471,17.651554,-4.587041,-0.8787641,0.19440214,-0.2060846,0.30175856,9.375,44.15625,23.5125,-0.013331277,0.6792118,-0.7334363,1002.00464, , , , 
2025-11-24 19:38:02.491,18.001205,-7.3139615,-0.72053874,-0.04871507,-0.4748574,-0.77272177,10.200001,44.268753,23.34375,-0.019835103,0.6786163,-0.7339245,1002.00464, , , , 
2025-11-24 19:38:02.511,16.308582,-8.9826565,0.09810573,-0.15988927,-0.48035502,-1.4495405,10.875,44.100002,23.38125,-0.03400406,0.67913175,-0.73311526,1002.0061, , , , 
2025-11-24 19:38:02.531,14.161023,-8.197512,0.9840483,-0.23074755,-0.7448519,-1.899735,10.70625,44.04375,23.04375,-0.0516674,0.6797279,-0.7316409,1002.0061, , , , 
2025-11-24 19:38:02.551,12.736696,-8.4679,2.1164517,-0.21730891,-1.2738456,-2.445298,9.993751,44.325,22.85625,0.07459458,-0.67991287,0.72940713,1002.01465, , , , 
2025-11-24 19:38:02.571,11.49153,-10.160523,2.9015965,-0.07986828,-1.7302248,-2.9272563,8.793751,44.49375,22.81875,0.10441401,-0.67851764,0.7267525,1002.01465, , , , 
2025-11-24 19:38:02.591,10.464711,-12.231511,2.9422746,0.04963134,-2.0209882,-3.1752603,7.05,45.0,22.893751,0.14836094,-0.67372733,0.7229511,1002.0171, , , , 
2025-11-24 19:38:02.611,10.277771,-13.3687,2.3653052,-0.016340164,-2.0918465,-3.228404,5.5125003,45.525,22.800001,0.1854101,-0.66840094,0.7187158,1002.0171, , , , 
2025-11-24 19:38:02.631,10.306485,-13.8092785,1.9968106,-0.35474956,-2.0600824,-3.277272,3.80625,46.03125,22.66875,0.21325628,-0.66478425,0.71377176,1002.01904, , , , 
2025-11-24 19:38:02.651,10.634602,-14.592031,2.4825535,-0.92169213,-2.1077285,-3.409215,1.95,46.068752,22.85625,0.25014755,-0.66196716,0.7033423,1002.01904, , , , 
2025-11-24 19:38:02.671,10.186844,-14.929718,4.8026943,-1.2466629,-2.2134051,-3.6382825,0.39375,46.0125,22.85625,0.29672822,-0.6607495,0.684297,1002.02124,37.88755666,127.74042476,146.486328125,1.32
2025-11-24 19:38:02.691,8.815159,-13.9217415,7.158428,-1.0976162,-2.429645,-3.8343647,-1.3875,45.99375,23.325,0.3350013,-0.6583295,0.66685367,1002.02124, , , , 
2025-11-24 19:38:02.711,7.548458,-12.51865,7.8287177,-0.6839962,-2.269603,-3.8361971,-3.075,45.300003,24.206251,0.37360325,-0.6517075,0.6506504,1002.03613, , , , 
2025-11-24 19:38:02.731,7.5580297,-12.152548,7.5293155,-0.46286952,-1.3752463,-3.8813999,-4.6875,44.5125,24.806252,0.40878657,-0.6406997,0.6377447,1002.03613, , , , 
2025-11-24 19:38:02.751,7.096215,-12.226726,7.1560354,-0.18310146,-0.33130828,-3.9015577,-6.9,43.725002,25.81875,0.43745208,-0.6256542,0.6294264,1002.0449, , , , 
2025-11-24 19:38:02.771,6.660422,-12.135798,6.3131633,0.056961507,0.58557343,-3.7384615,-9.675,42.375,26.75625,0.45882058,-0.60737413,0.62617356,1002.0449, , , , 
2025-11-24 19:38:02.791,6.4977098,-11.807682,5.262116,0.41064206,1.151218,-3.5148914,-12.76875,41.268753,27.16875,0.47362226,-0.5866746,0.6273958,1002.0447, , , , 
2025-11-24 19:38:02.811,6.79442,-11.685649,4.1751766,0.6812474,1.3504306,-3.3701208,-16.125,40.575,26.775002,0.48479956,-0.56410235,0.6312307,1002.0447, , , , 
2025-11-24 19:38:02.831,6.818348,-11.513365,3.5814574,0.94146836,1.1860363,-3.3145335,-19.5375,39.393753,26.2875,0.49517637,-0.5401114,0.635566,1002.0325, , , , 
2025-11-24 19:38:02.851,6.524031,-11.036895,3.330211,1.146713,0.75844324,-3.3114793,-22.44375,38.268753,25.593752,0.50731295,-0.5153328,0.6385582,1002.0325, , , , 
2025-11-24 19:38:02.871,6.107381,-10.653744,3.39721,1.378835,0.32290915,-3.3389676,-25.462502,37.350002,24.6,0.52232385,-0.48983395,0.6394793,1002.0337, , , , 
2025-11-24 19:38:02.891,5.7170515,-10.550853,3.0379875,1.6164546,0.04253024,-3.3438542,-28.087502,36.018753,23.7,0.53976226,-0.463153,0.63896424,1002.0337, , , , 
2025-11-24 19:38:02.911,5.19751,-10.806885,2.312663,1.7129685,-0.12972869,-3.3145335,-30.35625,34.537502,22.63125,0.5585784,-0.43552473,0.6373081,1002.0266, , , , 
2025-11-24 19:38:02.931,4.273581,-10.814063,1.16351,1.6341691,-0.053983625,-3.137388,-32.662502,33.46875,21.75,0.5769328,-0.40791082,0.63503647,1002.0266, , , , 
2025-11-24 19:38:02.951,2.4634109,-10.416854,0.20578274,1.2829319,0.20806985,-2.8906057,-34.706253,31.781252,20.90625,0.592438,-0.38142142,0.63305026,1002.0193, , , , 
2025-11-24 19:38:02.971,-0.3065804,-10.155738,0.02871387,0.80830365,0.38888064,-2.5124912,-36.6375,29.925001,20.025002,0.60362524,-0.3581154,0.6312547,1002.0193, , , , 
2025-11-24 19:38:02.991,-3.5168512,-9.511769,1.0749756,0.7081247,0.2410556,-1.8026103,-38.4375,28.725,19.275002,0.6107202,-0.34006274,0.62968254,1002.00073, , , , 
2025-11-24 19:38:03.011,-5.1352963,-9.099904,1.5227325,1.2401726,-0.49929127,-0.6810947,-40.125,27.13125,18.431252,0.6171751,-0.32840064,0.6285564,1002.00073, , , , 
2025-11-24 19:38:03.031,-3.8258243,-10.105488,0.031106694,1.8840057,-1.3166049,0.5638884,-41.15625,25.875002,17.79375,0.6267916,-0.3232087,0.62811595,1001.99414, , , , 
2025-11-24 19:38:03.051,-0.6056832,-10.818849,-1.7572291,2.135751,-1.6147747,1.6230975,-42.018753,25.29375,17.625,0.6381112,-0.3239604,0.6291558,1001.99414, , , , 
2025-11-24 19:38:03.071,2.9135606,-11.671291,-3.1842487,1.9873152,-1.4516785,2.261433,-41.7,25.25625,17.587502,0.6472519,-0.32932407,0.63205713,1001.97876, , , , 
2025-11-24 19:38:03.091,4.8529434,-12.648161,-3.6077783,1.5999616,-1.056384,2.6303847,-40.987503,26.362501,17.53125,0.6518239,-0.338054,0.6364739,1001.97876, , , , 
2025-11-24 19:38:03.111,5.681159,-13.354343,-3.2440693,1.3757807,-0.7363,3.069584,-39.75,28.331251,17.53125,0.65102565,-0.35028154,0.6421963,1001.9739, , , , 
2025-11-24 19:38:03.131,6.856633,-13.19881,-2.7317061,1.4784031,-0.5841991,3.5485644,-37.93125,30.656252,17.41875,0.645562,-0.3655881,0.6491746,1001.9739, , , , 
2025-11-24 19:38:03.151,8.288439,-12.992728,-3.409174,1.8125365,-0.5231143,3.8808653,-35.8875,33.225002,17.025002,0.63689566,-0.3815418,0.65724194,1001.968, , , , 
2025-11-24 19:38:03.171,9.365807,-12.765409,-5.0659046,1.8601826,-0.5408289,4.0561786,-32.98125,36.112503,16.48125,0.6265874,-0.39636853,0.6651956,1001.968, , , , 
2025-11-24 19:38:03.192,9.928419,-12.159726,-6.1600227,1.4124316,-0.5255577,4.114209,-29.7,38.943752,15.50625,0.6151671,-0.41152436,0.6708564,1001.97046, , , , 
2025-11-24 19:38:03.211,9.906884,-11.673684,-5.539983,0.6678088,-0.44492587,4.1013813,-25.893751,41.850002,14.3625,0.60252863,-0.42940584,0.6726797,1001.97046, , , , 
2025-11-24 19:38:03.231,9.74148,-11.3575325,-3.3254254,0.13209572,-0.34474692,4.145973,-22.368752,44.325,13.387501,-0.5879734,0.45104462,-0.6709996,1001.9741, , , , 
2025-11-24 19:38:03.252,9.784551,-11.331212,-1.0917253,-0.06215371,-0.31786963,4.2528715,-18.88125,46.18125,12.50625,-0.566682,0.4809427,-0.66612047,1001.9741, , , , 
2025-11-24 19:38:03.271,10.107881,-11.230713,0.12921242,0.057572354,-0.39789063,4.3481636,-14.83125,47.550003,12.150001,-0.5476468,0.5046669,-0.66101843,1001.9956, , , , 
2025-11-24 19:38:03.291,10.610673,-10.833205,1.1012967,0.4033119,-0.60496783,4.3157887,-11.118751,48.300003,12.0375,-0.52798855,0.52575064,-0.65544343,1001.9956, , , , 
2025-11-24 19:38:03.311,10.797313,-10.433604,1.3190435,0.8437328,-0.79005456,4.2162204,-6.8625,48.91875,11.775001,-0.5086358,0.5422226,-0.6501427,1002.00366, , , , 
2025-11-24 19:38:03.331,11.022537,-9.767801,1.230509,1.3201936,-0.97758466,4.0635085,-2.4750001,49.443752,11.493751,-0.48987505,0.5535535,-0.6454463,1002.00366, , , , 
2025-11-24 19:38:03.351,11.230713,-9.126225,0.31615168,1.714801,-0.8774057,3.9169054,1.2375001,49.725002,11.00625,-0.47110996,0.5597257,-0.64204514,1002.0105, , , , 
2025-11-24 19:38:03.372,11.503495,-8.302795,-0.7492526,1.9047744,-0.604357,3.722656,5.3625,49.875004,10.181251,-0.45131373,0.5624853,-0.6401142,1002.0105, , , , 
2025-11-24 19:38:03.391,11.805289,-7.2637124,-2.0542383,1.8082606,-0.18653747,3.442277,9.01875,49.406254,8.587501,-0.43045577,0.5638418,-0.6392435,1002.0061, , , , 
2025-11-24 19:38:03.411,11.874681,-6.238986,-2.7699914,1.466797,0.18424681,3.092796,12.168751,48.487503,7.0125003,-0.4093831,0.5660041,-0.63858664,1002.0061, , , , 
2025-11-24 19:38:03.431,12.061321,-5.4586267,-2.7963123,1.1515998,0.3613925,2.7232335,15.6,47.831253,5.2125,-0.38922536,0.56943905,-0.6377172,1001.99976, , , , 
2025-11-24 19:38:03.451,12.413365,-5.154439,-2.9614172,0.87732935,0.35833827,2.257157,18.54375,46.65,3.6000001,-0.3715626,0.57302433,-0.63668877,1001.99976, , , , 
2025-11-24 19:38:03.471,12.499507,-5.113761,-3.045166,0.5596888,0.25877017,1.7269416,21.243752,45.65625,2.60625,-0.35802856,0.57621634,-0.635385,1002.0044, , , , 
2025-11-24 19:38:03.491,12.475579,-5.0012984,-2.8585258,0.28358585,0.0846787,1.2639194,22.40625,45.225002,2.1937501,-0.35112837,0.5783189,-0.6341063,1002.0044, , , , 
2025-11-24 19:38:03.511,12.454043,-4.634897,-2.367698,-0.04566083,-0.2916032,0.6481853,25.25625,43.3125,1.0500001,-0.34665516,0.5806311,-0.6313098,1002.0176, , , , 
2025-11-24 19:38:03.531,12.674482,-4.493721,-1.4318053,-0.29122144,-0.6941516,0.0,26.306252,42.75,0.65625,-0.3505723,0.5804412,-0.62848073,1002.0176, , , , 
2025-11-24 19:38:03.551,12.940085,-5.391628,-0.5721837,-0.4811949,-1.012403,-0.9535326,26.85,42.318752,0.1875,-0.36182615,0.57719874,-0.62615794,1002.0176, , , , 
2025-11-24 19:38:03.571,12.28176,-9.174082,0.0526421,-0.6571189,-1.1070843,-1.767792,27.075,42.075,-0.31875002,-0.3800326,0.57074493,-0.6252334,1002.0176, , , , 
2025-11-24 19:38:03.591,10.220344,-11.582757,1.0319048,-0.7035433,-1.1333507,-1.9803668,26.737501,42.61875,-0.35625002,-0.4019839,0.56241035,-0.6250487,1002.0283, , , , 
2025-11-24 19:38:03.611,9.006584,-10.826027,1.7117655,-0.6406261,-1.2249779,-1.728087,25.893751,43.256252,-0.3,-0.4230098,0.5538278,-0.6241817,1002.0283, , , , 
2025-11-24 19:38:03.631,9.416057,-9.918848,2.3437698,-0.67055756,-1.3263785,-1.7048748,25.462502,43.55625,-0.3375,-0.4431118,0.54519236,-0.6220512,1002.03564, , , , 
2025-11-24 19:38:03.651,9.969097,-10.469497,4.0148573,-0.6223006,-1.4926053,-1.9858644,22.95,45.05625,-0.39375,-0.46439263,0.5352674,-0.6195167,1002.03564, , , , 
2025-11-24 19:38:03.671,10.076775,-11.917752,4.833801,-0.2521272,-1.741831,-2.2217278,21.225,45.75,-0.3375,-0.48683834,0.52186865,-0.6180162,1002.0525,37.88756419,127.74043478,146.16119384765625,1.31
2025-11-24 19:38:03.691,10.363914,-12.937693,4.220939,0.122322164,-2.225622,-2.3316803,19.81875,46.59375,-0.63750005,-0.51008886,0.5039112,-0.6171882,1002.0525, , , , 
2025-11-24 19:38:03.711,11.039288,-12.954443,3.0667014,0.020921519,-2.5976279,-2.4709535,17.775002,47.362503,-1.06875,-0.5357413,0.48221353,-0.6144355,1002.05835, , , , 
2025-11-24 19:38:03.731,11.573186,-12.681661,3.7109687,-0.5862607,-2.4039893,-2.6749766,16.21875,48.112503,-1.48125,-0.5643367,0.460007,-0.60842454,1002.05835, , , , 
2025-11-24 19:38:03.751,11.934502,-12.238689,6.143273,-0.98216605,-1.7589347,-2.9382517,14.043751,48.843754,-2.15625,-0.59269196,0.43990847,-0.60192287,1002.062, , , , 
2025-11-24 19:38:03.771,11.819647,-11.436496,7.9316087,-0.7604285,-1.0374477,-3.37684,11.53125,49.443752,-2.5500002,-0.61737263,0.41996357,-0.5997479,1002.062, , , , 
2025-11-24 19:38:03.791,11.180464,-11.1685,7.402496,-0.26128992,-0.28977066,-3.9088879,9.150001,49.968754,-2.1375,-0.6372234,0.3964718,-0.60468763,1002.0703, , , , 
2025-11-24 19:38:03.811,10.229915,-11.558829,5.209474,0.04046863,0.48111856,-4.3218207,5.9625,50.475002,-1.85625,-0.6522704,0.3689102,-0.61626995,1002.0703, , , , 
2025-11-24 19:38:03.831,9.277272,-12.05175,3.19382,0.041079476,1.2905675,-4.568603,2.79375,50.8875,-1.4250001,-0.662107,0.33977312,-0.632846,1002.0513, , , , 
2025-11-24 19:38:03.851,8.197512,-12.343974,2.181058,-0.071927264,1.7853538,-4.661452,-1.06875,50.775,-1.40625,-0.6668253,0.31149486,-0.65237194,1002.0513, , , , 
2025-11-24 19:38:03.871,7.402496,-12.650555,1.9319052,-0.08964183,1.9142426,-4.6174707,-5.26875,50.718754,-1.725,-0.66782415,0.284514,-0.6722098,1002.041, , , , 
2025-11-24 19:38:03.891,6.937989,-12.554543,1.6734804,0.06368083,1.7719152,-4.4562073,-9.5625,50.025,-1.8750001,-0.66655076,0.25807312,-0.69054604,1002.041, , , , 
2025-11-24 19:38:03.911,6.2437716,-12.071192,1.3286148,0.17180079,1.444501,-4.3144903,-13.89375,49.0875,-2.41875,-0.6645911,0.22464842,-0.7091609,1002.0239, , , , 
2025-11-24 19:38:03.931,5.4059844,-11.477174,1.3190435,0.22922044,1.0278269,-4.0787034,-18.075,47.9625,-2.775,-0.6641707,0.19798154,-0.71973526,1002.0239, , , , 
2025-11-24 19:38:03.951,4.896014,-10.885847,1.5370895,0.2738123,0.7853205,-3.7598412,-21.243752,45.600002,-3.6562502,-0.6641826,0.17244774,-0.727271,1002.01196, , , , 
2025-11-24 19:38:03.971,4.74736,-10.658529,1.6926229,0.34589225,0.6002338,-3.4134908,-25.29375,43.425003,-4.36875,0.66444266,-0.14847279,0.7323838,1002.01196, , , , 
2025-11-24 19:38:03.991,4.4985065,-10.363914,1.989632,0.44118443,0.58557343,-3.0414848,-28.95,41.325,-5.11875,0.663968,-0.12620729,0.7364495,1002.0056, , , , 
2025-11-24 19:38:04.011,4.398008,-10.351949,1.8625133,0.69102097,0.5696914,-2.685361,-31.987501,38.8125,-5.8875003,0.6626063,-0.10522164,0.74012387,1002.0056, , , , 
2025-11-24 19:38:04.032,3.7133617,-10.36152,0.7325028,0.9084826,0.62955445,-2.35306,-34.706253,36.61875,-6.6375003,0.6604759,-0.08463286,0.7438027,1001.99243, , , , 
2025-11-24 19:38:04.051,1.8457636,-9.760623,-0.21535404,1.030652,0.639328,-1.947992,-36.581253,34.443752,-7.36875,0.6576672,-0.06509441,0.7475399,1001.99243, , , , 
2025-11-24 19:38:04.071,-0.30897322,-8.503793,-1.3310076,1.1186141,0.53609484,-1.3072132,-38.15625,32.268753,-8.0625,0.6548737,-0.048243005,0.7509041,1001.98364, , , , 
2025-11-24 19:38:04.091,-0.86919284,-8.23101,-2.6694927,1.0556967,0.22822781,-0.5546493,-39.5625,30.54375,-9.01875,0.6533505,-0.035727464,0.75307983,1001.98364, , , , 
2025-11-24 19:38:04.111,0.32333016,-9.41127,-2.990131,0.9023741,-0.23907034,0.20829892,-40.21875,29.23125,-9.76875,0.6547347,-0.029374138,0.7527453,1001.98364, , , , 
2025-11-24 19:38:04.131,2.530709,-11.187642,-3.4139597,0.77348536,-0.69170815,0.84487814,-40.48125,28.312502,-10.556251,0.6592936,-0.029187463,0.74964565,1001.98364, , , , 
2025-11-24 19:38:04.151,3.382853,-12.712768,-3.789932,0.4369085,-0.9714762,1.3207282,-40.612503,27.768751,-10.931251,0.6663272,-0.03430197,0.7440384,1001.9719, , , , 
2025-11-24 19:38:04.171,2.9805596,-12.789338,-2.7699914,-0.047493376,-1.0209548,1.9413489,-40.162502,28.181252,-11.231251,0.67383474,-0.046233743,0.7372001,1001.9719, , , , 
2025-11-24 19:38:04.191,3.3565319,-12.5019,-0.5027919,-0.133012,-0.984304,2.7018538,-39.75,28.743752,-10.950001,-0.6800813,0.06562518,-0.73019344,1001.96826, , , , 
2025-11-24 19:38:04.211,4.4243293,-12.085549,0.59611195,0.39842513,-1.0319501,3.4874797,-39.075,30.2625,-10.06875,-0.6845183,0.08894615,-0.72309446,1001.96826, , , , 
2025-11-24 19:38:04.231,6.116952,-12.037394,0.27756742,1.0550859,-1.2207019,3.9804335,-38.0625,31.987501,-9.31875,-0.6878801,0.11215047,-0.7146979,1001.97656, , , , 
2025-11-24 19:38:04.251,8.046464,-12.133406,-1.0271192,1.5853014,-1.3337086,4.2369895,-36.412502,33.73125,-8.55,-0.69043463,0.13284796,-0.70417887,1001.97656, , , , 
2025-11-24 19:38:04.271,8.762517,-11.8028965,-2.1044874,1.7508409,-1.2878951,4.282192,-34.21875,36.075,-8.306251,-0.6914027,0.15072435,-0.69194615,1001.9944, , , , 
2025-11-24 19:38:04.291,8.692825,-10.967503,-3.004488,1.5883555,-1.0380585,4.289522,-31.725,38.175003,-8.94375,-0.6900549,0.16755846,-0.67879397,1001.9944, , , , 
2025-11-24 19:38:04.311,8.4655075,-10.083953,-2.7388847,1.1143382,-0.6623875,4.2754726,-28.706251,40.55625,-9.4875,-0.68594986,0.18606815,-0.6655154,1002.0039, , , , 
2025-11-24 19:38:04.331,8.460722,-9.53809,-1.9657038,0.7111789,-0.39972317,4.238211,-25.575,42.862503,-10.125,-0.6794279,0.20735233,-0.65232164,1002.0039, , , , 
2025-11-24 19:38:04.351,8.784052,-9.447163,-0.89312106,0.42896748,-0.31053948,4.1331453,-22.2,44.5875,-10.837501,-0.6713197,0.23063146,-0.6389682,1002.01294, , , , 
2025-11-24 19:38:04.371,8.99462,-9.703195,-0.15314065,0.28053162,-0.17981817,4.0818343,-18.112501,46.162502,-11.175,-0.662293,0.25446504,-0.625088,1002.01294, , , , 
2025-11-24 19:38:04.391,9.255438,-10.177273,0.6870392,0.21150586,0.17936003,4.1007705,-13.743751,47.2125,-11.85,-0.65088737,0.27904812,-0.61186254,1002.01636, , , , 
2025-11-24 19:38:04.411,9.353843,-10.390533,1.055833,0.2817533,0.31435728,4.1716285,-9.543751,47.9625,-12.39375,-0.6366698,0.30439577,-0.59935737,1002.01636, , , , 
2025-11-24 19:38:04.431,9.284451,-10.60828,1.3046865,0.45156884,0.46096063,4.2522607,-5.2125,48.487503,-12.88125,-0.61998516,0.32938674,-0.5869467,1002.02246, , , , 
2025-11-24 19:38:04.451,9.499805,-10.270593,1.4676976,0.6928535,0.471345,4.3719864,-1.3312501,48.393753,-13.1625,-0.600521,0.35358033,-0.57455695,1002.02246, , , , 
2025-11-24 19:38:04.471,10.201201,-9.854242,1.2496517,0.83518094,0.53181887,4.3561044,0.5625,48.45,-13.33125,-0.57887733,0.3760598,-0.56179625,1002.02466, , , , 
2025-11-24 19:38:04.491,11.419746,-9.75823,1.2616158,0.95612866,0.69186085,4.121539,6.7125,47.4375,-13.837501,-0.5559041,0.39655927,-0.549635,1002.02466, , , , 
2025-11-24 19:38:04.511,12.758231,-9.664909,0.85244304,1.154654,0.67597884,3.7348728,10.668751,46.518753,-14.512501,-0.53212124,0.41433552,-0.5393408,1002.0154, , , , 
2025-11-24 19:38:04.531,13.550554,-9.241081,-0.36640096,1.3256912,0.4438569,3.0982935,14.775001,45.45,-15.39375,-0.5039791,0.42982936,-0.52957404,1002.0154, , , , 
2025-11-24 19:38:04.551,13.830814,-9.099904,-1.4461622,1.1497673,0.16469969,2.4880571,17.831251,43.95,-16.143751,-0.48978615,0.43546033,-0.52481663,1002.00195, , , , 
2025-11-24 19:38:04.571,14.283057,-9.245867,-2.0662024,0.7417213,-0.012446013,1.969448,20.6625,42.73125,-16.987501,-0.47581914,0.44032183,-0.518669,1002.00195, , , , 
2025-11-24 19:38:04.591,14.7762785,-8.309974,-1.204188,0.08689302,-0.011224318,1.2987376,23.23125,41.04375,-17.6625,-0.4672265,0.44500914,-0.5109828,1001.99756, , , , 
2025-11-24 19:38:04.611,14.893826,-6.942775,0.3185445,-0.25701398,0.16103461,0.62924904,24.88125,39.787502,-18.337502,-0.46618313,0.44744238,-0.5076583,1001.99756, , , , 
2025-11-24 19:38:04.631,14.730814,-6.567102,1.704587,-0.33947837,0.5812975,-0.32252735,26.1,38.7,-18.900002,-0.46801177,0.4492947,-0.507584,1001.9946, , , , 
2025-11-24 19:38:04.651,13.090834,-8.388937,1.5011971,-0.17027368,1.1683217,-1.3872341,27.075,37.96875,-18.7875,-0.47253224,0.4481586,-0.5184931,1001.9946, , , , 
2025-11-24 19:38:04.671,10.296914,-8.846265,0.4022933,-0.084755056,1.708387,-1.7983344,27.35625,38.25,-18.5625,-0.4751105,0.44646475,-0.5346133,1002.0,37.88757525,127.74044067,145.47760009765625,1.5
2025-11-24 19:38:04.691,8.566006,-8.436793,-0.23688944,-0.15194826,1.9191294,-1.8032211,27.093752,38.68125,-17.831251,-0.47536176,0.4469048,-0.55306745,1002.0, , , , 
2025-11-24 19:38:04.711,8.599505,-7.919645,-0.325723,-0.22219568,1.5330739,-1.8331527,26.7,39.825,-16.7625,-0.4754185,0.44790986,-0.5706857,1002.0061, , , , 
2025-11-24 19:38:04.731,9.286844,-8.252546,0.17706887,-0.176993,0.55442023,-2.108034,25.95,40.706253,-15.843751,-0.47957164,0.444891,-0.58592135,1002.0061, , , , 
2025-11-24 19:38:04.751,10.2107725,-9.87817,0.24646074,-0.15866758,-0.60496783,-2.489279,24.675001,41.79375,-14.962501,-0.49103683,0.4345181,-0.5975301,1001.9971, , , , 
2025-11-24 19:38:04.771,11.087144,-11.66172,0.3687938,-0.3932329,-1.4327422,-2.888773,23.081251,42.862503,-14.231251,-0.5106944,0.4176855,-0.60463184,1001.9971, , , , 
2025-11-24 19:38:04.791,11.939288,-13.244273,1.0007981,-0.76287186,-1.8340689,-3.3530169,20.643751,43.6875,-14.025001,-0.5369161,0.39702043,-0.60801035,1001.99976, , , , 
2025-11-24 19:38:04.813,12.322438,-14.867206,2.4059832,-1.0456941,-1.9006512,-3.952258,17.90625,45.15,-13.9875,-0.5669469,0.37378323,-0.60984045,1001.99976, , , , 
2025-11-24 19:38:04.831,11.554043,-15.183357,3.0933216,-1.0573002,-1.7528262,-4.2986083,14.587501,46.275,-13.89375,-0.5974907,0.34786496,-0.61213654,1002.0, , , , 
2025-11-24 19:38:04.851,10.591531,-14.580067,3.2105699,-1.0322555,-1.1504544,-4.467202,10.856251,47.268753,-13.725,-0.62506366,0.32061896,-0.6160994,1002.0, , , , 
2025-11-24 19:38:04.871,9.29163,-13.509876,3.126821,-1.034088,-0.07658497,-4.4727,7.0312505,48.468754,-12.993751,-0.645927,0.2949299,-0.6242286,1002.0051, , , , 
2025-11-24 19:38:04.891,7.5870423,-12.114263,3.2703903,-0.8654942,1.1041827,-4.295554,2.9250002,48.9,-12.01875,-0.6578547,0.27276868,-0.6382253,1002.0051, , , , 
2025-11-24 19:38:04.911,7.103393,-11.44846,2.8848467,-0.5435014,1.7853538,-4.084812,-0.91875005,49.275,-10.837501,-0.66123074,0.25343886,-0.657076,1002.0088, , , , 
2025-11-24 19:38:04.931,6.8853474,-10.847563,2.530709,-0.122627586,1.9478391,-3.9821897,-4.8,49.518753,-10.25625,-0.65849733,0.23448497,-0.67858344,1002.0088, , , , 
2025-11-24 19:38:04.951,6.6652074,-10.500603,1.2687942,0.3556658,1.7120521,-3.9076662,-8.606251,49.031254,-9.918751,-0.653399,0.21319069,-0.6995369,1002.0127, , , , 
2025-11-24 19:38:04.971,6.2676997,-10.280165,0.39750767,0.5401417,1.226963,-3.8771238,-12.468751,48.15,-10.3125,-0.649108,0.18926112,-0.7172976,1002.0127, , , , 
