Time,Accel_X,Accel_Y,Accel_Z,Gyro_X,Gyro_Y,Gyro_Z,Mag_X,Mag_Y,Mag_Z,Orient_X,Orient_Y,Orient_Z,Pressure,Lat,Lng,Alt,Speed
2025-11-24 20:01:00.052,-1.538585,3.022135,8.769695,-0.43883,0.1466839,-0.35758498,-8.512501,-32.268753,-24.956251,0.1274317,-0.020810764,-0.62930876,999.3896,37.88760242,127.74021897,143.515625,0.52
2025-11-24 20:01:00.071,-1.227518,2.5435705,9.815358,-0.45471248,0.13996439,-0.13095413,-6.525,-32.68125,-25.7625,0.122397915,-0.011632981,-0.6326091,999.3737, , , , 
2025-11-24 20:01:00.094,-1.4763715,2.751746,9.372686,-0.25618142,-0.11415535,0.06207913,-4.5375004,-31.81875,-29.250002,0.12017798,-0.008814184,-0.6329981,999.3737, , , , 
2025-11-24 20:01:00.111,-0.7920243,3.158526,8.920443,-0.16882776,-0.5191587,0.15676318,-3.2812502,-30.806252,-31.612501,0.11722694,-0.009501047,-0.6325136,999.36615, , , , 
2025-11-24 20:01:00.132,0.023928227,3.3882368,8.867801,-0.1523344,-0.7738893,0.090178914,-5.7000003,-30.206251,-27.843752,0.11247578,-0.013565999,-0.6320839,999.36615, , , , 
2025-11-24 20:01:00.152,0.124426775,3.426522,8.602198,-0.19387321,-0.86674076,-0.057650365,-6.01875,-29.625002,-27.993752,0.10650433,-0.019104596,-0.6326192,999.36273, , , , 
2025-11-24 20:01:00.172,0.08135597,3.546163,8.712267,-0.24213153,-0.9357685,-0.116293386,-4.74375,-27.618752,-27.768751,0.09966513,-0.024831656,-0.63409716,999.36273, , , , 
2025-11-24 20:01:00.192,0.43070808,3.4480574,8.549556,-0.27328563,-0.84841484,-0.15905392,-4.2937503,-29.062502,-28.2,0.090610325,-0.031762276,-0.6364173,999.36346, , , , 
2025-11-24 20:01:00.212,0.552742,3.3619158,8.042277,-0.2842812,-0.693866,-0.17004949,-5.45625,-29.062502,-29.00625,0.084016144,-0.036148906,-0.63835716,999.36346, , , , 
2025-11-24 20:01:00.232,0.89013004,3.3523445,7.21436,-0.1834885,-0.71585715,-0.1419497,-3.2625,-28.331251,-28.518751,0.078251146,-0.040106997,-0.64009625,999.3571, , , , 
2025-11-24 20:01:00.252,0.9667004,3.2853456,6.7573314,0.019929463,-0.8917862,-0.09674571,-3.43125,-29.212502,-29.212502,0.07287083,-0.045412883,-0.6416475,999.3571, , , , 
2025-11-24 20:01:00.272,1.5170496,3.1082766,6.2979093,0.4719694,-1.3884193,0.008323032,-3.7125,-28.500002,-30.150002,0.06781232,-0.05442591,-0.64267135,999.36224, , , , 
2025-11-24 20:01:00.292,2.6273193,2.9503503,5.534599,1.0058652,-2.0664792,-0.03810269,-3.6937501,-28.48125,-31.237501,0.06275091,-0.070653796,-0.6431847,999.36224, , , , 
2025-11-24 20:01:00.312,2.8163524,2.3449662,5.395815,1.6613231,-3.0499716,-0.1786016,-3.2625,-28.556252,-31.743752,0.056879453,-0.09607661,-0.64411956,999.3625, , , , 
2025-11-24 20:01:00.332,0.7298109,1.6606189,2.2061825,2.2440882,-4.0029206,-0.19448407,-4.40625,-29.681252,-29.550001,0.047456287,-0.14370751,-0.64531624,999.3625, , , , 
2025-11-24 20:01:00.352,1.282553,1.0313065,2.8139594,2.0418918,-5.0383363,0.1512654,-5.175,-32.756252,-29.1375,0.035060626,-0.18970099,-0.64382815,999.36957, , , , 
2025-11-24 20:01:00.374,2.172683,0.22971097,3.9194436,2.01929,-5.4983177,0.49212793,-8.625,-33.862503,-28.875002,0.015881965,-0.23975183,-0.6388617,999.36957, , , , 
2025-11-24 20:01:00.392,2.4861426,-0.33020952,4.273581,2.1115305,-5.4097424,0.826271,-12.337501,-35.381252,-25.9125,-0.0054085744,-0.2906827,-0.62970704,999.37616, , , , 
2025-11-24 20:01:00.412,2.7062824,-0.9595219,3.629912,2.1567345,-5.1036987,1.2062289,-13.8,-37.29375,-23.493752,-0.025948003,-0.33983618,-0.6158079,999.37616, , , , 
2025-11-24 20:01:00.432,3.101098,-1.6007984,2.388037,1.8488586,-4.8288097,1.6631557,-18.618752,-37.59375,-18.0375,-0.046210643,-0.38540897,-0.5974858,999.3908, , , , 
2025-11-24 20:01:00.452,3.8955152,-2.524428,2.3425734,1.1793509,-4.6858673,2.26669,-22.612501,-38.268753,-15.712501,-0.07028423,-0.42578977,-0.575729,999.3908, , , , 
2025-11-24 20:01:00.472,5.749953,-3.1274192,3.3643086,0.4652499,-4.201452,3.0437102,-25.312502,-38.9625,-10.6125,-0.108424105,-0.46632206,-0.54422253,999.4008, , , , 
2025-11-24 20:01:00.492,8.410771,-3.2087753,4.802395,-0.022220206,-3.625406,3.4615417,-28.9125,-36.24375,-7.4437504,-0.14328487,-0.48940912,-0.5162298,999.4008, , , , 
2025-11-24 20:01:00.511,9.439685,-3.65384,5.6207404,-0.43944085,-2.898477,3.6875615,-32.11875,-34.706253,-7.3500004,-0.17917362,-0.50441015,-0.4877536,999.4111, , , , 
2025-11-24 20:01:00.532,11.016556,-4.2759743,5.515456,-1.0509166,-1.7518839,3.84883,-35.287502,-32.175003,-6.8625,-0.21439545,-0.5101395,-0.46051893,999.4111, , , , 
2025-11-24 20:01:00.553,11.782259,-4.965107,6.166304,-1.9696572,-0.8197042,3.9215229,-37.93125,-28.48125,-5.25,-0.2496449,-0.50455886,-0.43716124,999.41156, , , , 
2025-11-24 20:01:00.572,12.914063,-5.9820566,8.398808,-2.6483278,-0.269315,4.075461,-39.16875,-26.718752,-6.61875,-0.2872497,-0.4884975,-0.41858763,999.41156, , , , 
2025-11-24 20:01:00.592,13.339986,-5.7403817,10.205389,-2.9543712,-0.16119194,4.6001935,-42.825,-23.118752,-6.7500005,-0.33707738,-0.45878753,-0.39680058,999.4067, , , , 
2025-11-24 20:01:00.612,14.361721,-6.1854467,10.3441725,-2.9922447,-0.33467755,4.9893146,-44.5125,-18.431252,-7.14375,-0.37932822,-0.4314589,-0.37513024,999.4067, , , , 
2025-11-24 20:01:00.632,14.266008,-6.5491557,10.480563,-2.9171083,-0.70363986,5.0473466,-47.23125,-13.968751,-9.431251,-0.4217049,-0.40393955,-0.34995785,999.41644, , , , 
2025-11-24 20:01:00.652,16.13959,-6.9152575,11.645867,-2.2921937,-1.1202496,4.650895,-48.54375,-8.25,-10.856251,-0.4625255,-0.37942052,-0.32129675,999.41644, , , , 
2025-11-24 20:01:00.673,17.527426,-5.881558,11.172089,-1.3215296,-1.1397973,3.8879251,-49.275,-2.86875,-7.2187505,-0.494445,-0.3607153,-0.29258448,999.42426, , , , 
2025-11-24 20:01:00.693,16.249659,-1.1246266,10.411171,-0.38629562,-0.5576432,3.1561093,-48.693752,1.4250001,-7.51875,-0.5150627,-0.3472595,-0.26664624,999.42426, , , , 
2025-11-24 20:01:00.713,16.39562,0.9236295,8.23131,-0.056428634,-0.27603453,2.4407866,-49.818752,3.91875,-7.2375,-0.5254637,-0.3358133,-0.24569172,999.42426, , , , 
2025-11-24 20:01:00.733,15.309279,2.347359,7.3627152,-0.10957387,-0.09705114,1.6039019,-48.693752,7.275,-7.70625,-0.53148276,-0.3276699,-0.23134467,999.42426, , , , 
2025-11-24 20:01:00.753,15.617953,2.8953154,5.7858453,0.24594943,0.22731806,1.1543053,-48.318752,7.6875005,-7.7625003,-0.53421885,-0.32156822,-0.22300525,999.42523, , , , 
2025-11-24 20:01:00.774,16.59901,3.5964124,2.8570302,0.43776098,0.2022726,0.61918783,-48.037502,9.075001,-6.7875004,-0.5323253,-0.31595862,-0.21668406,999.42523, , , , 
2025-11-24 20:01:00.792,16.64926,3.400201,2.0315065,0.2862665,-0.051236283,-0.005726857,-49.3875,8.925,-6.95625,-0.52901745,-0.31619704,-0.21538891,999.43256, , , , 
2025-11-24 20:01:00.812,16.323835,1.969293,2.5411777,0.06513346,-0.36216646,-0.6740129,-48.225002,8.925,-6.9187503,-0.52584803,-0.3217476,-0.21799295,999.43256, , , , 
2025-11-24 20:01:00.832,15.936199,0.46899325,3.1393833,-0.02527453,-0.4256964,-1.10284,-48.300003,7.9125004,-5.625,-0.5226381,-0.33081758,-0.22373977,999.42596, , , , 
2025-11-24 20:01:00.852,15.27578,-0.75613195,3.4097722,-0.0900262,-0.3163516,-1.3777292,-49.95,6.99375,-5.86875,-0.5187858,-0.3412809,-0.23224427,999.42596, , , , 
2025-11-24 20:01:00.872,14.77568,-1.6534405,3.5700915,-0.13523018,-0.15386157,-1.545717,-48.862503,5.2312503,-4.6312504,-0.51432586,-0.351408,-0.24301887,999.4274, , , , 
2025-11-24 20:01:00.892,14.505291,-2.4095724,3.696911,-0.101632625,-0.087888174,-1.7723478,-48.750004,4.875,-6.3187504,-0.5076702,-0.36341372,-0.25889066,999.4274, , , , 
2025-11-24 20:01:00.912,14.251652,-3.1202407,3.4887354,-0.023441937,-0.0891099,-1.9733223,-51.018753,3.15,-5.2125,-0.50100464,-0.3737687,-0.27282757,999.4284, , , , 
2025-11-24 20:01:00.932,13.88555,-3.5653057,3.0412776,0.016264275,-0.067118764,-2.1498623,-49.312504,-0.01875,-6.3,-0.4931577,-0.38484827,-0.28757682,999.4284, , , , 
2025-11-24 20:01:00.952,13.789837,-3.8907297,2.7493532,0.0077121677,6.8722287E-4,-2.245768,-49.987503,-1.21875,-5.8500004,-0.48462757,-0.39606017,-0.30296317,999.4311, , , , 
2025-11-24 20:01:00.972,14.017155,-4.223332,2.3545375,-0.053985175,0.037949976,-2.3416739,-48.225002,-2.53125,-4.875,-0.47557366,-0.40695292,-0.3191038,999.4311, , , , 
2025-11-24 20:01:00.992,14.364115,-5.0919266,2.1248264,-0.17066035,0.05627592,-2.4992769,-48.375004,-5.4187503,-3.91875,-0.46642634,-0.41756645,-0.33618584,999.4257, , , , 
2025-11-24 20:01:01.012,14.802001,-6.606583,2.0315065,-0.39729118,-0.008475749,-2.6776495,-48.15,-8.118751,-6.4125004,-0.45759472,-0.42812997,-0.35449758,999.4257, , , , 
2025-11-24 20:01:01.032,14.266008,-8.662018,2.012364,-0.75098187,0.03367392,-2.7356815,-46.96875,-10.875,-5.0062504,-0.45010525,-0.43824843,-0.37413096,999.4223, , , , 
2025-11-24 20:01:01.052,11.392229,-9.401401,3.330809,-1.1272746,0.26030475,-2.5322635,-45.525,-13.312501,-7.0125003,-0.44355676,-0.44698086,-0.40048444,999.4223,37.88760242,127.74021897,143.515625,0.52
2025-11-24 20:01:01.072,8.894122,-8.590233,4.6564326,-1.0680207,0.47044224,-2.2152247,-45.75,-15.20625,-7.8187504,-0.4396471,-0.4497183,-0.4213759,999.4152, , , , 
2025-11-24 20:01:01.092,6.652047,-7.594819,5.474778,-0.6807324,0.71967506,-1.8456516,-45.018753,-17.362501,-7.6125,-0.43477333,-0.4496893,-0.43991023,999.4152, , , , 
2025-11-24 20:01:01.112,4.5798626,-6.8195443,4.709075,0.13355032,1.0006728,-1.6513966,-45.7125,-18.0375,-9.356251,-0.42609906,-0.44871533,-0.45554376,999.42035, , , , 
2025-11-24 20:01:01.132,3.2925239,-7.3363943,2.4095724,0.89774215,0.9267582,-1.3697879,-43.537502,-20.306252,-9.3,-0.4129725,-0.4493685,-0.46729356,999.42035, , , , 
2025-11-24 20:01:01.152,2.4311078,-7.4919276,0.25603202,1.2166135,0.6439278,-1.0393101,-42.99375,-21.88125,-8.8125,-0.39813167,-0.45243692,-0.4737179,999.4245, , , , 
2025-11-24 20:01:01.172,1.9597218,-7.4392858,-1.5744773,1.2019528,0.10881029,-0.6324741,-40.55625,-22.987501,-9.618751,-0.38270146,-0.45938036,-0.474498,999.4245, , , , 
2025-11-24 20:01:01.192,2.1415763,-7.5828547,-1.9381863,0.94477874,-0.2296088,-0.3050506,-41.25,-22.050001,-10.21875,-0.3753449,-0.4660184,-0.47125927,999.43353, , , , 
2025-11-24 20:01:01.212,2.4646072,-7.690532,-1.6247265,0.6485093,-0.30902123,-0.04054615,-40.612503,-22.275002,-6.24375,-0.37213808,-0.4716092,-0.46655446,999.43353, , , , 
2025-11-24 20:01:01.232,2.4670002,-7.7312098,-1.2921243,0.36018115,-0.21983497,0.2447277,-42.28125,-23.41875,-8.325001,-0.3718311,-0.4749841,-0.4614909,999.43256, , , , 
2025-11-24 20:01:01.252,2.292324,-7.5349984,-1.0839486,0.09689843,-0.10254893,0.54099715,-42.075,-23.04375,-7.14375,-0.37383983,-0.47555724,-0.4562994,999.43256, , , , 
2025-11-24 20:01:01.272,2.5268207,-7.3268228,-0.9092726,-0.16821688,0.016569708,0.8519273,-42.09375,-22.518751,-9.168751,-0.37830374,-0.4730783,-0.45084912,999.43256, , , , 
2025-11-24 20:01:01.292,3.0436704,-6.9320073,-0.66041905,-0.4229475,0.11491894,1.128649,-41.71875,-21.2625,-7.275,-0.38526264,-0.46760663,-0.44511923,999.43256, , , , 
2025-11-24 20:01:01.312,3.8141594,-6.7812595,-0.36131623,-0.6746238,0.17539455,1.3308452,-43.800003,-22.21875,-7.6125,-0.39697906,-0.457195,-0.4377684,999.42206, , , , 
2025-11-24 20:01:01.332,4.254439,-6.73101,0.023928227,-0.7937424,0.155236,1.4823397,-43.95,-20.85,-9.225,-0.40821645,-0.44698647,-0.43169633,999.42206, , , , 
2025-11-24 20:01:01.352,4.6971107,-6.7405815,0.25603202,-0.83650297,0.09048434,1.6399429,-43.18125,-19.275002,-9.243751,-0.42061386,-0.43597406,-0.42474604,999.42694, , , , 
2025-11-24 20:01:01.372,5.4341,-6.6831536,0.33260235,-0.9098067,0.03367392,1.8183154,-44.4,-16.03125,-11.306251,-0.43403307,-0.4244366,-0.41657585,999.42694, , , , 
2025-11-24 20:01:01.394,6.3361945,-6.812366,0.30867413,-1.1058943,0.02573268,2.0027966,-45.375,-15.637501,-9.84375,-0.45254856,-0.4086353,-0.40513754,999.4372, , , , 
2025-11-24 20:01:01.412,7.173682,-6.853044,0.701097,-1.3215296,0.034284785,2.1512368,-45.412502,-13.031251,-10.9125,-0.46496344,-0.3979076,-0.39794847,999.4372, , , , 
2025-11-24 20:01:01.434,8.224132,-6.800402,1.6414764,-1.6123012,0.088651754,2.4145193,-48.037502,-11.4375,-10.25625,-0.48789874,-0.3773642,-0.38564107,999.436, , , , 
2025-11-24 20:01:01.452,9.547362,-6.5491557,2.589034,-1.7112613,0.0721584,2.619159,-47.2125,-7.36875,-10.575001,-0.50781864,-0.35836816,-0.37498608,999.436, , , , 
2025-11-24 20:01:01.472,11.624332,-6.2787666,3.4695928,-1.7118722,-5.345067E-4,2.696739,-47.8875,-3.5625002,-11.962501,-0.5281018,-0.33842713,-0.36317363,999.43304, , , , 
2025-11-24 20:01:01.492,13.349558,-5.8265233,4.4458647,-1.5658755,-0.18562654,2.642372,-48.675003,-2.2875001,-10.556251,-0.54766744,-0.31937665,-0.35046002,999.43304, , , , 
2025-11-24 20:01:01.512,14.888143,-5.3312087,4.558327,-1.3294709,-0.3352884,2.5189772,-48.281254,2.49375,-11.34375,-0.5654664,-0.30261135,-0.3367751,999.4389, , , , 
2025-11-24 20:01:01.532,15.696917,-4.6731825,4.76411,-1.2549453,-0.3096321,2.3320527,-46.612503,4.89375,-11.493751,-0.5814367,-0.28772238,-0.32312623,999.4389, , , , 
2025-11-24 20:01:01.552,16.096518,-3.711268,5.276174,-1.1828632,-0.28397575,2.164065,-46.3875,6.0375004,-11.26875,-0.59578806,-0.27393043,-0.31082448,999.43353, , , , 
2025-11-24 20:01:01.572,17.185253,-2.9503503,5.261817,-1.1016183,-0.21433719,1.991801,-46.96875,8.212501,-11.34375,-0.6084723,-0.2611745,-0.2997625,999.43353, , , , 
2025-11-24 20:01:01.592,18.374485,-2.4095724,5.1589255,-1.05336,-0.015806125,1.7150792,-47.60625,11.625,-10.6875,-0.6195313,-0.24930885,-0.29064518,999.43964, , , , 
2025-11-24 20:01:01.612,18.91287,-2.050649,4.8909297,-1.1010075,0.15157083,1.273424,-46.162502,13.012501,-10.462501,-0.6309546,-0.2356786,-0.28407887,999.43964, , , , 
2025-11-24 20:01:01.632,18.800407,-1.861616,5.1732826,-1.1639265,0.17172936,0.8708641,-46.425003,13.2375,-9.975,-0.6389855,-0.22664031,-0.28270784,999.4465, , , , 
2025-11-24 20:01:01.652,18.269201,-1.1581261,6.862615,-1.0197624,0.0049632764,0.3852266,-44.53125,15.3,-10.9125,-0.64612794,-0.22036332,-0.28374043,999.4465, , , , 
2025-11-24 20:01:01.672,17.58246,-0.5407779,8.343773,-0.4143954,-0.17096578,-0.14256057,-47.081253,15.150001,-8.625,-0.6504403,-0.21869084,-0.28633466,999.4379, , , , 
2025-11-24 20:01:01.692,16.857435,-1.0193424,8.020741,0.42126763,-0.3249037,-0.72899073,-46.706253,14.812501,-8.493751,-0.6493151,-0.22340654,-0.28998253,999.4379, , , , 
2025-11-24 20:01:01.712,16.036697,-2.2755744,6.4031935,1.0919971,-0.48861545,-1.2604431,-48.375004,13.89375,-8.118751,-0.6423577,-0.23472184,-0.2943236,999.4433, , , , 
2025-11-24 20:01:01.732,14.8378935,-3.926622,4.347759,1.4817289,-0.6462186,-1.7301981,-47.268753,12.88125,-7.70625,-0.6279499,-0.2563955,-0.30035964,999.4433, , , , 
2025-11-24 20:01:01.752,13.409378,-4.922036,3.0915267,1.4743985,-0.72013324,-1.9830961,-46.725002,11.08125,-9.056251,-0.61453277,-0.2772453,-0.30561912,999.436, , , , 
2025-11-24 20:01:01.772,12.205789,-5.501099,2.8761728,1.3070215,-0.6792053,-2.1297038,-48.675003,8.00625,-7.9125004,-0.60117644,-0.29863328,-0.3117437,999.436, , , , 
2025-11-24 20:01:01.793,11.296515,-5.869594,3.3547373,1.2196679,-0.62239486,-2.2298856,-48.187504,7.5750003,-7.93125,-0.58801955,-0.31949067,-0.3189028,999.42816, , , , 
2025-11-24 20:01:01.814,10.162318,-6.2309103,3.644269,1.3015238,-0.5576432,-2.3221262,-48.43125,3.54375,-6.7500005,-0.57056046,-0.34501374,-0.32864067,999.42816, , , , 
2025-11-24 20:01:01.832,9.523434,-6.424729,3.5892339,1.4420227,-0.5961277,-2.3477824,-49.29375,0.71250004,-6.1875005,-0.5591782,-0.36035427,-0.33426577,999.4277, , , , 
2025-11-24 20:01:01.852,8.752945,-6.6089764,3.0963125,1.5861868,-0.7464004,-2.3801582,-50.025,-0.6,-4.9500003,-0.53883505,-0.38686207,-0.3421147,999.4277, , , , 
2025-11-24 20:01:01.872,8.429914,-6.6424756,2.6344976,1.6228386,-0.89300793,-2.403371,-48.225002,-3.2812502,-5.30625,-0.52625895,-0.40356344,-0.34575868,999.42596, , , , 
2025-11-24 20:01:01.892,8.078169,-6.63769,2.2636101,1.5916846,-0.9699769,-2.4559054,-48.300003,-6.525,-4.65,-0.50942045,-0.42647752,-0.34981456,999.42596, , , , 
2025-11-24 20:01:01.913,7.554141,-6.771688,1.8687944,1.4725659,-0.9669226,-2.507829,-49.687504,-7.4437504,-2.4375,-0.488385,-0.45500496,-0.35478216,999.4274, , , , 
2025-11-24 20:01:01.932,6.9391856,-6.869794,1.5960127,1.2758675,-0.8368084,-2.5316527,-46.74375,-10.875,-1.4625001,-0.47186452,-0.47671452,-0.35942578,999.4274, , , , 
2025-11-24 20:01:01.952,5.9916277,-7.0372915,1.1700903,1.0706168,-0.6236166,-2.5102725,-46.537502,-12.731251,-0.45000002,-0.45167285,-0.5009093,-0.36697444,999.42426, , , , 
2025-11-24 20:01:01.975,4.881358,-7.4105716,0.4761717,0.7254783,-0.27175847,-2.485227,-45.975002,-14.925,0.99375004,-0.43613172,-0.51718956,-0.3748795,999.4213, , , , 
2025-11-24 20:01:01.992,3.9625144,-7.6546397,-0.040677983,0.4841867,-0.0072540194,-2.4045928,-47.475002,-18.5625,1.9875001,-0.4249806,-0.52710044,-0.3822523,999.4213, , , , 
2025-11-24 20:01:02.012,2.268396,-7.460821,-0.20578274,0.16103923,0.28107417,-2.1187081,-44.90625,-19.66875,1.4625001,-0.40823087,-0.5385979,-0.39664385,999.4213, , , , 
2025-11-24 20:01:02.032,1.4548361,-7.5326056,-0.19142582,0.03825541,0.29145885,-1.7112613,-43.725002,-21.7875,2.0812502,-0.39752266,-0.54390687,-0.4077409,999.42426, , , , 
2025-11-24 20:01:02.052,1.6271194,-8.1020975,-0.019142581,0.05535962,-0.07200569,-0.9385174,-43.0875,-23.71875,1.5,-0.39062637,-0.5475466,-0.4152472,999.42426,37.88760242,127.74021897,143.515625,0.52
2025-11-24 20:01:02.072,2.6416762,-8.585447,0.22253251,0.1598175,-0.41836601,-0.3655262,-43.125,-24.712502,1.10625,-0.38823485,-0.550999,-0.41712195,999.42255, , , , 
2025-11-24 20:01:02.092,3.9074793,-9.006584,0.35174492,0.30398157,-0.7109702,0.28199047,-42.787502,-25.06875,2.79375,-0.38984168,-0.5546276,-0.41322047,999.42255, , , , 
2025-11-24 20:01:02.112,4.7808595,-9.040084,0.3493521,0.30520332,-0.8117629,0.7761801,-42.3375,-24.900002,3.9562502,-0.39467666,-0.55771035,-0.40474027,999.42206, , , , 
2025-11-24 20:01:02.132,5.8935223,-9.145369,0.4019942,0.20624322,-0.7109702,1.196455,-42.15,-22.518751,3.80625,-0.4023208,-0.5589875,-0.3934753,999.42206, , , , 
2025-11-24 20:01:02.152,7.01097,-9.71486,0.3278167,0.06146827,-0.44157887,1.5373176,-44.53125,-22.7625,3.7687502,-0.4120428,-0.55727,-0.38106388,999.41595, , , , 
2025-11-24 20:01:02.173,7.2909307,-9.671789,0.25603202,-0.18226677,0.0074067353,1.9630903,-44.775,-20.306252,4.275,-0.42639923,-0.549515,-0.36546808,999.41595, , , , 
2025-11-24 20:01:02.192,7.8580294,-9.786645,0.2847459,-0.3398699,0.23159412,2.190332,-44.756252,-18.806252,3.5625002,-0.43950826,-0.53862906,-0.35342434,999.4191, , , , 
2025-11-24 20:01:02.212,6.8721867,-8.563912,0.97866446,-0.4644863,0.43928814,2.4682755,-46.10625,-16.706251,4.2000003,-0.45378345,-0.5243915,-0.3416498,999.4191, , , , 
2025-11-24 20:01:02.233,7.176075,-7.570891,1.7228323,-0.40339983,0.53763735,2.6851325,-46.59375,-14.137501,3.0187502,-0.4685763,-0.50755984,-0.3292724,999.4257, , , , 
2025-11-24 20:01:02.252,8.221739,-7.422536,1.7922242,-0.23663375,0.58833915,2.691852,-48.656254,-12.618751,5.3250003,-0.48253828,-0.4898142,-0.31592903,999.4257, , , , 
2025-11-24 20:01:02.272,9.343972,-7.8197446,1.282553,-0.058872093,0.6121629,2.592281,-48.7125,-10.2375,1.7812501,-0.49462914,-0.47218874,-0.30203846,999.4262, , , , 
2025-11-24 20:01:02.292,9.6071825,-8.260024,-0.023928227,-0.058872093,0.54985464,2.4652212,-48.412502,-7.3500004,1.8937501,-0.5074765,-0.45126405,-0.2846011,999.4262, , , , 
2025-11-24 20:01:02.312,9.128618,-8.17149,-0.37088752,-0.22685991,0.46189013,2.3876414,-48.675003,-5.0062504,1.8000001,-0.51522195,-0.43927997,-0.27448088,999.4301, , , , 
2025-11-24 20:01:02.332,8.49452,-7.795816,0.11964113,-0.50541425,0.326889,2.4279585,-48.131252,-2.4375,-0.73125005,-0.52981114,-0.41943705,-0.25826785,999.4301, , , , 
2025-11-24 20:01:02.352,8.200203,-7.1976104,1.0049855,-0.6440806,0.29817837,2.5544074,-49.36875,0.16875,0.1875,-0.5431426,-0.4029643,-0.24517608,999.4311, , , , 
2025-11-24 20:01:02.372,8.49452,-6.32423,1.7659031,-0.6764564,0.36598435,2.6894085,-49.312504,1.1625,-0.0375,-0.55695844,-0.3853055,-0.23165064,999.4311, , , , 
2025-11-24 20:01:02.392,8.829515,-5.706882,2.0434706,-0.6135373,0.5113702,2.7248387,-49.631252,3.8812501,-0.76875,-0.5701135,-0.36629444,-0.21814921,999.4233, , , , 
2025-11-24 20:01:02.411,9.020942,-5.259424,1.9118652,-0.53840095,0.64881474,2.7340016,-48.787502,5.08125,-1.2375001,-0.57903916,-0.35124686,-0.20836663,999.4233, , , , 
2025-11-24 20:01:02.431,9.702896,-4.6229334,1.3519448,-0.5096903,0.7581596,2.6942954,-48.131252,10.5,-1.7625,-0.5923269,-0.32502127,-0.19281547,999.41376, , , , 
2025-11-24 20:01:02.452,10.454242,-4.273581,1.2394822,-0.5353466,0.769766,2.5550182,-48.24375,12.0,-2.775,-0.602113,-0.30415404,-0.18131647,999.41376, , , , 
2025-11-24 20:01:02.471,10.676775,-4.0701914,1.2753744,-0.56100297,0.77037686,2.4456735,-46.48125,14.175,-3.075,-0.6090011,-0.28902656,-0.17345347,999.4191, , , , 
2025-11-24 20:01:02.492,11.054841,-3.333202,1.3184453,-0.65385437,0.79908746,2.16773,-45.45,16.275002,-4.3875003,-0.6197105,-0.26504698,-0.16240948,999.4191, , , , 
2025-11-24 20:01:02.512,12.2584305,-3.1848469,1.4548361,-0.8218422,0.93347776,1.6692643,-45.956253,18.84375,-4.8,-0.62973106,-0.24336405,-0.15587957,999.4191, , , , 
2025-11-24 20:01:02.531,12.35175,-3.141776,1.7587247,-0.8285617,1.0189989,1.4010947,-44.006252,18.9375,-6.24375,-0.63512576,-0.23126921,-0.15482762,999.4191, , , , 
2025-11-24 20:01:02.551,12.375679,-3.0005996,1.9908284,-0.76625353,0.96402097,1.1610249,-45.05625,19.575,-6.0,-0.63984114,-0.22012487,-0.15517685,999.4196, , , , 
2025-11-24 20:01:02.571,12.9954195,-2.952743,1.9597218,-0.62208945,0.7190642,0.8598685,-42.9,20.775002,-6.15,-0.64612526,-0.20494264,-0.15676373,999.4196, , , , 
2025-11-24 20:01:02.591,14.076976,-3.8691943,1.8975084,-0.4577668,0.38125598,0.41882417,-44.456253,22.5,-7.0125003,-0.6505181,-0.19565251,-0.15901738,999.42377, , , , 
2025-11-24 20:01:02.612,14.773287,-4.9603214,2.0027926,-0.3569741,0.18150319,0.11217005,-41.775,23.90625,-9.525001,-0.6528462,-0.19251862,-0.16147889,999.42377, , , , 
2025-11-24 20:01:02.631,15.110675,-5.5776696,2.1870399,-0.28367034,0.05933024,-0.068035066,-42.318752,23.7,-5.6062503,-0.65394413,-0.19240254,-0.16373174,999.4267, , , , 
2025-11-24 20:01:02.651,15.268601,-6.8506513,2.8019953,-0.017333288,-0.3578904,-0.43211046,-42.525,23.212502,-8.325001,-0.6541904,-0.19698782,-0.16730651,999.4267, , , , 
2025-11-24 20:01:02.672,14.629718,-7.2909307,3.2231321,0.25266895,-0.57230395,-0.8242857,-42.6375,22.181252,-5.4750004,-0.6522992,-0.20554547,-0.17010361,999.4272, , , , 
2025-11-24 20:01:02.691,14.419149,-7.5254273,3.1441689,0.40660688,-0.6162862,-1.0075451,-42.600002,22.2,-7.3500004,-0.64954126,-0.21403502,-0.17256263,999.4272, , , , 
2025-11-24 20:01:02.711,14.328222,-8.408379,2.4335005,0.528169,-0.37988153,-1.278769,-40.78125,21.243752,-5.625,-0.6412007,-0.2330383,-0.17984107,999.43353, , , , 
2025-11-24 20:01:02.732,13.823337,-8.530413,2.2420747,0.57154036,-0.18196134,-1.446146,-43.912502,20.175001,-5.55,-0.63589936,-0.24224357,-0.18559024,999.43353, , , , 
2025-11-24 20:01:02.752,12.717853,-8.336594,2.053042,0.67050046,-0.15752676,-1.6226859,-46.29375,17.8125,-5.30625,-0.62572896,-0.2576647,-0.19700682,999.43744, , , , 
2025-11-24 20:01:02.771,11.79183,-7.685746,2.201397,0.83299047,-0.3426188,-1.7466915,-45.75,16.987501,-4.55625,-0.61641586,-0.27135316,-0.20606081,999.43744, , , , 
2025-11-24 20:01:02.792,11.564512,-7.367501,2.036292,1.0871103,-0.68592477,-2.0093634,-46.3875,16.575,-6.1687503,-0.6055954,-0.28785366,-0.2140049,999.4401, , , , 
2025-11-24 20:01:02.811,11.4903345,-7.7383885,1.5002998,1.1824051,-0.9186643,-2.2653158,-46.612503,13.312501,-6.5625005,-0.59630984,-0.30282512,-0.21947728,999.4401, , , , 
2025-11-24 20:01:02.831,11.129018,-8.927621,0.64606214,1.0663408,-1.2515856,-2.70636,-46.21875,10.9875,-4.93125,-0.57966334,-0.33255768,-0.22877434,999.44086, , , , 
2025-11-24 20:01:02.852,10.566705,-10.145568,0.6867401,0.7431934,-1.4360667,-2.9946883,-48.393753,6.8812504,-3.54375,-0.5636159,-0.3661548,-0.2396322,999.44086, , , , 
2025-11-24 20:01:02.872,9.693324,-10.612168,0.9379865,0.50434524,-1.4623339,-3.0893722,-48.16875,6.01875,-1.35,-0.5548422,-0.38676763,-0.24709658,999.446, , , , 
2025-11-24 20:01:02.893,8.353344,-10.600204,1.6486548,0.2948186,-1.4409536,-3.0307293,-49.331253,3.16875,-0.91875005,-0.5468086,-0.40675706,-0.25504348,999.446, , , , 
2025-11-24 20:01:02.911,6.7166533,-9.614362,2.2301106,0.15615231,-1.4024692,-2.7527857,-49.312504,-0.20625001,1.2750001,-0.5349531,-0.4375213,-0.26757917,999.44525, , , , 
2025-11-24 20:01:02.932,5.994021,-8.930014,2.361716,0.09445497,-1.3267219,-2.4821727,-46.518753,-3.15,-0.39375,-0.5266274,-0.45953336,-0.2760814,999.44525, , , , 
2025-11-24 20:01:02.951,5.144569,-8.16431,2.6488547,0.100563616,-0.9443206,-2.2249987,-48.787502,-5.4,3.6750002,-0.5168726,-0.48334768,-0.28572106,999.44574, , , , 
2025-11-24 20:01:02.972,3.9098723,-7.8436728,2.4717858,0.16348268,-0.32062766,-2.0307436,-47.8125,-10.03125,3.3750002,-0.50597316,-0.5012944,-0.2963003,999.44574, , , , 
2025-11-24 20:01:02.992,1.9669002,-7.7671022,1.5768701,0.26671883,0.2700786,-1.708207,-45.7125,-10.44375,3.9562502,-0.49598545,-0.5105885,-0.3058524,999.4455, , , , 
2025-11-24 20:01:03.011,0.90448695,-7.60439,0.3900301,0.27710354,0.5132028,-1.3484076,-45.487503,-10.05,3.7500002,-0.48597437,-0.51570326,-0.31488562,999.4455, , , , 
2025-11-24 20:01:03.031,0.59342,-7.5732837,-0.23449662,0.24900375,0.5577959,-1.093677,-44.49375,-12.543751,2.1000001,-0.48159721,-0.51702195,-0.31876805,999.44305, , , , 
2025-11-24 20:01:03.051,0.46660042,-7.058827,-0.4331009,0.22518003,0.24869832,-0.5457313,-47.2125,-13.575001,3.525,-0.47357553,-0.518579,-0.3253962,999.44305,37.8875845,127.74023103,143.20928955078125,1.47
2025-11-24 20:01:03.072,1.3208381,-6.745367,-0.44985065,0.2948186,-0.20150901,-0.22075126,-45.975002,-11.94375,1.9125,-0.46985275,-0.5204178,-0.32595396,999.44354, , , , 
2025-11-24 20:01:03.091,2.1128623,-6.7764735,-0.5407779,0.279547,-0.45318532,-0.0674242,-47.1375,-14.681251,3.2625,-0.4691884,-0.52340186,-0.32279783,999.44354, , , , 
2025-11-24 20:01:03.112,2.6129622,-6.74776,-0.2536392,0.16898046,-0.55642146,0.027870705,-45.825,-14.043751,2.325,-0.46999368,-0.52670753,-0.3184581,999.45013, , , , 
2025-11-24 20:01:03.132,2.9096723,-7.0205417,-0.009571291,0.093233235,-0.5814669,0.076739885,-46.706253,-13.05,6.2250004,-0.47134396,-0.52902204,-0.31503582,999.45013, , , , 
2025-11-24 20:01:03.151,3.2470603,-8.17149,0.4019942,-0.009392046,-0.5637518,0.23678645,-45.600002,-14.043751,5.8500004,-0.47487763,-0.5320563,-0.3091437,999.4421, , , , 
2025-11-24 20:01:03.172,3.546163,-9.631111,0.526421,-0.08147409,-0.39393142,0.53794277,-46.068752,-14.962501,5.64375,-0.48032948,-0.5326359,-0.30235147,999.4421, , , , 
2025-11-24 20:01:03.192,3.6275191,-10.269995,0.6652047,-0.1333976,-0.2485456,0.83543396,-47.475002,-13.89375,7.275,-0.4847867,-0.5308418,-0.29756984,999.4433, , , , 
2025-11-24 20:01:03.211,3.940979,-11.145768,0.8709874,-0.1523344,-0.040240716,1.3833797,-45.65625,-12.20625,6.20625,-0.4924998,-0.5253384,-0.28970218,999.4433, , , , 
2025-11-24 20:01:03.231,5.5704913,-12.277573,0.82313097,-0.11446079,0.08620829,1.7938808,-44.925003,-11.606251,4.70625,-0.50201344,-0.5163458,-0.27964398,999.4423, , , , 
2025-11-24 20:01:03.251,6.869794,-13.155739,0.24646074,-0.11568252,0.1344666,2.0968697,-49.3875,-10.35,6.5062504,-0.5127529,-0.5048491,-0.26745746,999.4423, , , , 
2025-11-24 20:01:03.272,7.381858,-13.328022,0.0047856453,-0.2201404,0.06788235,2.4542255,-47.4375,-6.525,5.30625,-0.52811795,-0.4878093,-0.24990836,999.43964, , , , 
2025-11-24 20:01:03.292,7.446464,-13.253844,0.0071784677,-0.3655262,0.20166174,2.754771,-49.55625,-4.6312504,6.1875005,-0.5424554,-0.47209546,-0.23405455,999.43964, , , , 
2025-11-24 20:01:03.312,7.489535,-10.461421,1.1700903,-0.37102398,0.2749655,3.0614252,-49.593754,0.22500001,5.925,-0.56182265,-0.44879106,-0.21331878,999.4394, , , , 
2025-11-24 20:01:03.331,8.140383,-8.331808,1.0767702,-0.16332997,0.4154644,3.0437102,-48.7125,2.41875,6.0,-0.5797191,-0.42344087,-0.19187826,999.4394, , , , 
2025-11-24 20:01:03.351,8.874979,-8.1020975,0.41874397,-0.09124792,0.47655088,2.9691846,-49.65,2.71875,4.2375,-0.58587277,-0.41323814,-0.18346028,999.43646, , , , 
2025-11-24 20:01:03.372,9.372686,-8.226524,-1.7156538,-0.15661046,0.38003424,2.560516,-48.768753,7.0312505,3.9,-0.60129577,-0.38462475,-0.16084455,999.43646, , , , 
2025-11-24 20:01:03.392,9.329616,-8.379665,-1.9094725,-0.34781113,0.21998768,2.4676647,-50.081253,8.64375,4.7250004,-0.6064543,-0.37613103,-0.15390734,999.4328, , , , 
2025-11-24 20:01:03.411,9.377472,-8.681161,-0.66759753,-0.68745196,0.06055197,2.388863,-45.54375,11.3625,3.0,-0.6211092,-0.35646573,-0.13724759,999.4328, , , , 
2025-11-24 20:01:03.432,9.346365,-8.506484,1.3734802,-0.75342536,0.07032581,2.4365106,-46.331253,14.118751,4.6312504,-0.6368758,-0.3369856,-0.121453665,999.4362, , , , 
2025-11-24 20:01:03.452,9.676575,-8.319844,2.0027926,-0.7063888,0.17722714,2.4652212,-46.4625,15.712501,5.4750004,-0.6429667,-0.32884622,-0.11512839,999.4362, , , , 
2025-11-24 20:01:03.472,10.554741,-7.233503,3.2757742,-0.3746892,0.5803979,2.4517822,-46.74375,18.675001,5.9625,-0.656169,-0.30642965,-0.10060537,999.4311, , , , 
2025-11-24 20:01:03.491,11.263016,-5.761917,2.3545375,-0.035048366,0.92981255,2.361985,-45.881252,19.893751,3.6375,-0.66474915,-0.28176984,-0.088450775,999.4311, , , , 
2025-11-24 20:01:03.511,12.57189,-4.634897,1.146162,0.16165009,1.2444079,2.0809872,-43.800003,21.993752,0.82500005,-0.6693867,-0.2560876,-0.079918094,999.43036, , , , 
2025-11-24 20:01:03.532,12.693924,-3.723232,0.39720857,0.24228424,1.3745221,1.6949207,-43.068752,23.4375,0.975,-0.6705079,-0.24126305,-0.0776433,999.43036, , , , 
2025-11-24 20:01:03.552,12.332608,-3.3020952,-0.4331009,0.18547381,1.3378702,1.2428807,-41.98125,26.6625,0.99375004,-0.67077136,-0.22409502,-0.07775419,999.43036, , , , 
2025-11-24 20:01:03.572,11.743974,-2.833102,-0.7393822,0.14515674,1.0971895,0.8134428,-42.46875,25.63125,-0.13125001,-0.67051077,-0.21037942,-0.08002388,999.43036, , , , 
2025-11-24 20:01:03.593,11.057234,-2.7684958,-1.0887343,0.023594651,0.87972164,0.4078286,-40.59375,27.581251,-1.21875,-0.6697937,-0.19858319,-0.08438801,999.4294, , , , 
2025-11-24 20:01:03.611,10.485349,-2.8474588,-0.849452,-0.12851068,0.83390677,0.22090398,-38.025,28.593752,-2.15625,-0.66970307,-0.19205809,-0.089300804,999.4294, , , , 
2025-11-24 20:01:03.632,10.442278,-2.8474588,-0.49292147,-0.20181446,0.8302416,0.117056966,-39.28125,27.35625,-3.35625,-0.6699359,-0.18924809,-0.09225078,999.4311, , , , 
2025-11-24 20:01:03.651,10.463814,-3.1202407,0.21774685,-0.21097742,0.7117338,-0.108963005,-41.737503,27.581251,-2.1750002,-0.6706096,-0.1835487,-0.10083997,999.4311, , , , 
2025-11-24 20:01:03.671,10.760524,-3.7686956,0.5168497,-0.051541716,0.3653735,-0.28000516,-39.675003,27.45,-5.3250003,-0.67031735,-0.18149117,-0.109382205,999.4255, , , , 
2025-11-24 20:01:03.691,11.834901,-4.546363,0.18903299,0.09445497,0.0043524117,-0.4559342,-39.61875,29.081251,-6.6562505,-0.6689348,-0.18381451,-0.114607334,999.4255, , , , 
2025-11-24 20:01:03.712,13.028919,-5.9700923,0.08853444,0.10789399,-0.29436046,-0.72227126,-40.29375,25.893751,-4.8562503,-0.6664074,-0.19162937,-0.12013922,999.42474, , , , 
2025-11-24 20:01:03.731,13.323236,-6.95115,0.5407779,0.07429643,-0.41958773,-1.0435861,-40.162502,27.150002,-5.25,-0.6641451,-0.20131494,-0.1251496,999.42474, , , , 
2025-11-24 20:01:03.752,13.024134,-8.2456665,1.1796615,0.03642281,-0.3737729,-1.3673445,-41.268753,26.04375,-5.53125,-0.66139936,-0.21321814,-0.13207658,999.42474, , , , 
2025-11-24 20:01:03.772,12.136396,-9.408579,1.9262222,0.082848534,-0.28153232,-1.6336815,-42.375,24.300001,-4.0875,-0.65776074,-0.22616696,-0.14140767,999.42474, , , , 
2025-11-24 20:01:03.792,11.504691,-10.894522,2.065006,0.2202931,-0.21311545,-1.7644066,-42.15,23.325,-2.8125,-0.6527744,-0.23951624,-0.15210053,999.4316, , , , 
2025-11-24 20:01:03.812,11.306087,-11.875579,1.9118652,0.3363574,-0.18196134,-1.812054,-44.643753,20.456251,-2.5500002,-0.6466268,-0.25290555,-0.16298382,999.4316, , , , 
2025-11-24 20:01:03.832,11.0811615,-12.631711,1.5074782,0.4304306,-0.20456335,-1.8157192,-43.706253,20.681252,-2.8125,-0.6395069,-0.26631483,-0.17363249,999.44086, , , , 
2025-11-24 20:01:03.851,10.2723875,-12.35175,1.1437693,0.4927388,-0.38110328,-1.7564653,-46.425003,18.150002,-2.5500002,-0.6319244,-0.27999467,-0.18311177,999.44086, , , , 
2025-11-24 20:01:03.871,9.420543,-10.882557,1.7467605,0.5599339,-0.71768975,-1.6984332,-44.5875,16.987501,-4.21875,-0.62460583,-0.29490128,-0.19012608,999.445, , , , 
2025-11-24 20:01:03.892,9.343972,-10.147961,2.2301106,0.73097605,-1.0310634,-1.7741804,-46.78125,14.775001,-4.1625004,-0.61874413,-0.30762547,-0.19373578,999.445, , , , 
2025-11-24 20:01:03.912,9.382257,-10.018748,2.0291135,0.90995944,-1.254029,-1.9684354,-46.068752,12.075001,-0.99375004,-0.6072545,-0.3324495,-0.19771214,999.4545, , , , 
2025-11-24 20:01:03.932,8.829515,-10.3848505,1.3423735,0.9056834,-1.1691189,-2.1877358,-48.675003,11.56875,-0.39375,-0.59378844,-0.35960537,-0.20193644,999.4545, , , , 
2025-11-24 20:01:03.951,7.7886376,-10.179068,1.1844472,0.81527543,-1.1055889,-2.2451572,-47.30625,9.712501,0.50625,-0.58236194,-0.38113183,-0.2067124,999.4577, , , , 
2025-11-24 20:01:03.972,6.6711893,-9.678967,1.3064811,0.6778308,-1.050611,-2.2390485,-48.2625,5.7375,1.7625,-0.5711821,-0.40184623,-0.21215963,999.4577, , , , 
2025-11-24 20:01:03.991,5.383851,-8.958728,1.5840486,0.55565786,-0.94309884,-2.178573,-48.093754,2.3812501,3.4687502,-0.5578704,-0.4261609,-0.2194226,999.456, , , , 
2025-11-24 20:01:04.012,4.24726,-8.415557,1.6007984,0.49701485,-0.76106113,-2.1284819,-46.875,2.625,3.16875,-0.54740316,-0.44395334,-0.22585438,999.456, , , , 
2025-11-24 20:01:04.032,3.4767714,-8.193025,1.4452649,0.42798713,-0.61689705,-2.0313544,-50.362503,-0.09375,4.6312504,-0.5396847,-0.45590982,-0.23108356,999.45233, , , , 
2025-11-24 20:01:04.051,2.1918256,-7.475178,1.3950156,0.36384633,-0.2778671,-1.7815108,-48.80625,-1.0500001,4.51875,-0.5301322,-0.46905553,-0.23828763,999.45233,37.88757303,127.740239,143.16162109375,1.47
2025-11-24 20:01:04.072,1.7204394,-7.288538,1.1222339,0.33941174,-0.031077746,-1.4479786,-48.281254,-2.7562501,5.3250003,-0.5189836,-0.48097417,-0.24717031,999.4567, , , , 
2025-11-24 20:01:04.092,1.4356936,-7.070791,1.038485,0.36506808,0.14607304,-1.1602613,-48.131252,-3.4875002,5.2125,-0.5110027,-0.4872146,-0.25332743,999.4567, , , , 
2025-11-24 20:01:04.112,1.0719845,-7.0731835,1.1653047,0.47502372,0.1625664,-0.795575,-46.575,-3.80625,4.2937503,-0.50379217,-0.4912702,-0.25785026,999.44965, , , , 
2025-11-24 20:01:04.131,1.4500505,-7.068398,0.863809,0.66866785,-0.002367101,-0.5408444,-48.768753,-7.4062505,4.5750003,-0.4955923,-0.49519303,-0.25959858,999.44965, , , , 
2025-11-24 20:01:04.151,1.7587247,-6.95115,0.45224348,0.75235635,-0.1721875,-0.39668033,-48.225002,-6.8625,5.4,-0.48957968,-0.49896288,-0.2578353,999.4411, , , , 
2025-11-24 20:01:04.172,2.1272194,-7.2789664,-0.2105684,0.68943727,-0.30841035,-0.30566147,-46.443752,-7.425,5.4,-0.4842697,-0.50324124,-0.2545142,999.4411, , , , 
2025-11-24 20:01:04.191,2.1918256,-7.5349984,-0.4019942,0.5794816,-0.37927067,-0.23846634,-47.60625,-6.675,5.49375,-0.48123428,-0.50655746,-0.25156438,999.43866, , , , 
2025-11-24 20:01:04.212,2.6871397,-8.02792,-0.4354937,0.3229184,-0.472733,-0.08758274,-47.8875,-7.8375,8.043751,-0.4790962,-0.5106169,-0.24729884,999.43866, , , , 
2025-11-24 20:01:04.231,3.2973096,-9.02812,-0.26799613,0.04497492,-0.4342485,0.06940951,-47.850002,-7.5937505,8.8125,-0.47967955,-0.5143161,-0.242046,999.43256, , , , 
2025-11-24 20:01:04.251,3.897908,-10.724631,0.019142581,-0.31604618,-0.23816091,0.3644572,-45.1875,-6.9187503,6.4875,-0.48388052,-0.5148339,-0.23750705,999.43256, , , , 
2025-11-24 20:01:04.271,4.2831526,-11.492727,0.6795616,-0.51885325,-0.09338595,0.6485093,-47.175003,-7.275,7.9500003,-0.49008542,-0.5120613,-0.23417336,999.42865, , , , 
2025-11-24 20:01:04.292,4.3764725,-11.679367,1.026521,-0.57016593,-0.03291034,0.81588626,-48.45,-7.0312505,8.0625,-0.49402052,-0.5095888,-0.23237646,999.42865, , , , 
2025-11-24 20:01:04.312,5.0273204,-12.306287,1.2562319,-0.5897136,0.088651754,1.165301,-47.381252,-5.30625,8.15625,-0.50315934,-0.5025599,-0.22784586,999.4272, , , , 
2025-11-24 20:01:04.333,5.5633125,-12.547962,1.0552348,-0.57138765,0.2248746,1.5177699,-49.0875,-5.8500004,7.9125004,-0.5136293,-0.492916,-0.2216659,999.4272, , , , 
2025-11-24 20:01:04.352,6.3074803,-11.351551,0.8207382,-0.63491756,0.38797548,1.9368231,-45.787502,-4.2375,4.3875003,-0.5316177,-0.473691,-0.20954376,999.4274, , , , 
2025-11-24 20:01:04.371,7.4943204,-10.162318,0.69152576,-0.68256503,0.5987238,2.046779,-48.956253,-3.0937502,6.80625,-0.54448545,-0.45807356,-0.2009495,999.4274, , , , 
2025-11-24 20:01:04.392,8.04467,-8.956335,0.6053841,-0.71433,0.80153096,1.9447644,-49.068752,0.01875,6.95625,-0.5567931,-0.441042,-0.19369866,999.4311, , , , 
2025-11-24 20:01:04.411,7.989635,-8.3581295,0.37088752,-0.7583123,0.96402097,1.8195372,-47.831253,1.7625,6.2625003,-0.5680616,-0.4233902,-0.18856592,999.4311, , , , 
2025-11-24 20:01:04.431,7.8628154,-8.334201,0.19381863,-0.804738,1.0550399,1.761505,-49.575,3.2062502,5.2875004,-0.57861924,-0.40521574,-0.18510768,999.4289, , , , 
2025-11-24 20:01:04.451,7.769495,-8.178668,0.47856453,-0.9079741,1.0501529,1.833587,-48.562504,6.5625005,3.6000001,-0.5917269,-0.38176405,-0.18189864,999.4289, , , , 
2025-11-24 20:01:04.471,7.2933235,-8.216953,0.37088752,-1.0338123,1.0159445,2.0229552,-47.325,7.5750003,2.325,-0.6029197,-0.3620791,-0.17889415,999.4218, , , , 
2025-11-24 20:01:04.491,7.834101,-9.085547,0.43070808,-1.0924553,0.905378,2.1982732,-46.6875,9.13125,1.2375001,-0.61233896,-0.34659943,-0.17536211,999.4218, , , , 
2025-11-24 20:01:04.511,8.298309,-9.229117,0.79920274,-1.1510984,0.98356867,2.3161702,-46.893753,12.4875,0.45000002,-0.6254203,-0.32520178,-0.16951165,999.4318, , , , 
2025-11-24 20:01:04.532,8.796016,-8.161918,1.8951155,-1.120555,1.2059234,2.3729806,-46.55625,14.868751,0.90000004,-0.64453965,-0.29001632,-0.16156806,999.4318, , , , 
2025-11-24 20:01:04.551,9.430114,-6.2261243,2.5603201,-0.88292867,1.1753802,2.302731,-44.25,18.75,-2.8125,-0.65552306,-0.2658701,-0.15681447,999.43695, , , , 
2025-11-24 20:01:04.572,9.91825,-5.070391,2.4119651,-0.6624065,1.1155155,2.1432955,-45.375,16.875,-1.5,-0.6620436,-0.2487231,-0.15326382,999.43695, , , , 
2025-11-24 20:01:04.591,10.253245,-4.3262234,1.5050855,-0.42844528,0.99456424,1.7358487,-44.943752,20.41875,-2.2125,-0.6682224,-0.22847869,-0.14919524,999.44965, , , , 
2025-11-24 20:01:04.611,9.212367,-3.5676985,0.5599205,-0.49502954,0.86628264,1.4059817,-43.818752,21.54375,-3.61875,-0.6725948,-0.21207963,-0.14670676,999.44965, , , , 
2025-11-24 20:01:04.632,8.836694,-3.3284163,0.7298109,-0.70211273,0.8406263,1.264261,-42.768753,23.6625,-5.55,-0.67740196,-0.19776487,-0.14544393,999.45526, , , , 
2025-11-24 20:01:04.652,8.980264,-3.5700915,2.4263222,-0.75525796,0.7453314,1.0767255,-42.375,25.66875,-4.6312504,-0.68569136,-0.17767215,-0.14552698,999.45526, , , , 
2025-11-24 20:01:04.671,8.939586,-3.9146578,2.7900312,-0.6617956,0.55474156,0.9704351,-41.68125,24.750002,-4.9500003,-0.68934864,-0.16906865,-0.14560379,999.4582, , , , 
2025-11-24 20:01:04.691,9.590433,-4.3932223,2.87378,-0.6049852,0.31772605,0.86292285,-39.54375,26.718752,-4.51875,-0.69469225,-0.157567,-0.14456084,999.4582, , , , 
2025-11-24 20:01:04.711,10.669596,-4.8215375,3.4791641,-0.48525572,0.13874267,0.72120225,-40.162502,27.900002,-5.7562504,-0.69852436,-0.15075478,-0.1431832,999.4631, , , , 
2025-11-24 20:01:04.731,10.207782,-3.5509489,3.7184465,-0.32643086,-0.10499238,0.78228873,-39.7125,27.206251,-5.6062503,-0.70143056,-0.14589342,-0.1411428,999.4631, , , , 
2025-11-24 20:01:04.752,11.25823,-3.9146578,3.3834512,-0.24396412,-0.36216646,0.80061466,-40.29375,27.2625,-4.93125,-0.70376194,-0.14264059,-0.13664496,999.4589, , , , 
2025-11-24 20:01:04.772,11.954542,-4.615755,2.885744,-0.27145302,-0.55703235,0.7914517,-39.3375,28.462502,-3.7125,-0.70491856,-0.14182895,-0.13366374,999.4589, , , , 
2025-11-24 20:01:04.792,13.531412,-7.2358956,2.4095724,-0.4455495,-0.74701124,0.5990293,-38.550003,30.16875,-4.05,-0.7088847,-0.14186727,-0.1250292,999.4604, , , , 
2025-11-24 20:01:04.811,15.4217415,-10.241281,2.8833513,-0.20975569,-0.7952696,-0.03199404,-38.006252,31.35,-4.6312504,-0.7129308,-0.14589289,-0.11810404,999.4604, , , , 
2025-11-24 20:01:04.831,15.996019,-11.985648,3.17049,0.39561132,-0.5106066,-1.2634975,-36.825,30.843752,-3.3375,-0.71169484,-0.15772924,-0.11853627,999.47235, , , , 
2025-11-24 20:01:04.851,12.614961,-9.54497,3.0963125,0.6973785,-0.56680614,-1.6568943,-40.237503,27.112501,-1.06875,-0.7086917,-0.16525276,-0.122126944,999.47235, , , , 
2025-11-24 20:01:04.872,11.772687,-11.700903,1.282553,1.0119739,-0.6822596,-2.0844996,-41.1375,29.268751,-1.10625,-0.6955281,-0.19361943,-0.133416,999.4958, , , , 
2025-11-24 20:01:04.892,11.274981,-12.282358,0.5407779,1.0260237,-0.6425534,-2.1626904,-40.612503,26.081251,-0.82500005,-0.6903176,-0.20392336,-0.13760339,999.4958, , , , 
2025-11-24 20:01:04.911,9.664611,-11.722438,0.44745782,0.9380592,-0.5344303,-2.1266494,-41.23125,23.6625,-1.7062501,-0.6744928,-0.23385471,-0.15096784,999.5063, , , , 
2025-11-24 20:01:04.932,8.79123,-9.999606,1.119841,0.99425876,-0.5661953,-2.0844996,-42.600002,19.66875,-2.5687501,-0.6638989,-0.25262558,-0.15945563,999.5063, , , , 
2025-11-24 20:01:04.952,8.367701,-8.958728,1.3734802,1.1610249,-0.6718749,-2.237216,-45.318752,17.8875,-2.1750002,-0.64915204,-0.2768308,-0.16931292,999.5141, , , , 
2025-11-24 20:01:04.972,8.135597,-9.056833,1.0073783,1.2929716,-0.7885501,-2.466901,-45.1875,18.525002,-1.4625001,-0.6354894,-0.29822752,-0.17717116,999.5141, , , , 
2025-11-24 20:01:04.992,7.8436728,-9.480363,0.5479564,1.3351213,-0.84719306,-2.5945718,-45.65625,15.4875,-1.3875,-0.62426734,-0.3155907,-0.18319945,999.51654, , , , 
2025-11-24 20:01:05.011,6.862615,-10.009177,-0.2105684,1.3088541,-0.96509,-2.6898668,-46.0125,13.725,-2.325,-0.60457706,-0.34580415,-0.19313565,999.51654, , , , 
2025-11-24 20:01:05.031,6.0370917,-9.968499,-0.38763726,1.1707987,-1.0371721,-2.6141195,-48.24375,11.587501,0.80625004,-0.58923787,-0.3698278,-0.20031562,999.51556, , , , 
2025-11-24 20:01:05.051,5.493921,-9.695718,-0.18903299,0.975322,-1.109865,-2.4094799,-47.30625,5.9812503,0.09375,-0.5751545,-0.39288932,-0.20643705,999.51556,37.88756077,127.74024581,143.2353515625,1.55
2025-11-24 20:01:05.072,5.5106707,-9.710074,-0.02632105,0.86292285,-1.0909282,-2.2860851,-46.96875,7.74375,0.88125,-0.5656262,-0.40919307,-0.21032515,999.5158, , , , 
2025-11-24 20:01:05.092,5.1613183,-9.348758,0.4354937,0.66805696,-0.96509,-2.101604,-47.756252,3.91875,1.9687501,-0.5541448,-0.42911634,-0.21523252,999.5158, , , , 
2025-11-24 20:01:05.111,4.046263,-8.606983,1.0671989,0.4615847,-0.6651554,-1.8413755,-48.45,-0.76875,4.1625004,-0.53896487,-0.45429647,-0.22314444,999.50214, , , , 
2025-11-24 20:01:05.131,3.7256248,-8.415557,1.2083755,0.41027206,-0.49411324,-1.7130939,-49.031254,-0.71250004,4.6687503,-0.53212965,-0.46441367,-0.22738169,999.50214, , , , 
2025-11-24 20:01:05.152,2.902494,-8.283952,1.3399807,0.35285076,-0.19112432,-1.4956261,-47.7,-2.8125,4.65,-0.5256746,-0.4726305,-0.23183584,999.48553, , , , 
2025-11-24 20:01:05.171,1.5744773,-8.571091,0.9284152,0.2410625,0.3354411,-1.0234276,-49.162502,-3.24375,8.08125,-0.5160435,-0.48095053,-0.23948275,999.48553, , , , 
2025-11-24 20:01:05.192,1.2227324,-9.025727,0.74416786,0.18303037,0.69707304,-0.47120583,-48.9,-4.3125,6.1125,-0.50912094,-0.4813712,-0.24635747,999.4736, , , , 
2025-11-24 20:01:05.211,1.4452649,-9.145369,0.51445687,0.22273657,0.78564847,-0.15661046,-48.80625,-3.91875,4.9875,-0.5062974,-0.4785753,-0.24905245,999.4736, , , , 
2025-11-24 20:01:05.232,2.0458634,-9.0544405,0.17706887,0.3345248,0.7453314,0.11522437,-47.925003,-4.70625,4.6312504,-0.502789,-0.4719437,-0.25068024,999.46063, , , , 
2025-11-24 20:01:05.252,2.0051854,-8.635697,-0.038285162,0.428598,0.64881474,0.1598175,-48.91875,-4.5375004,3.6562502,-0.5000765,-0.46667072,-0.25022745,999.46063, , , , 
2025-11-24 20:01:05.271,1.4931214,-8.346166,-0.40917268,0.49884745,0.4588358,0.18852814,-48.54375,-3.5062501,3.3937502,-0.4979697,-0.4634644,-0.24899416,999.45575, , , , 
2025-11-24 20:01:05.291,1.4237294,-8.676374,-1.1150553,0.51106477,0.13263401,0.2777144,-46.74375,-3.54375,-0.65625,-0.49453032,-0.45920917,-0.2438798,999.45575, , , , 
2025-11-24 20:01:05.311,1.98365,-9.408579,-1.8735801,0.47563457,-0.3285689,0.18608469,-48.24375,-4.33125,1.5562501,-0.4934842,-0.45871848,-0.2386022,999.44794, , , , 
2025-11-24 20:01:05.331,2.0315065,-11.047662,-2.0315065,0.07063124,-0.15935935,0.4548652,-48.881252,-3.7875001,2.68125,-0.49440235,-0.45939532,-0.2325145,999.44794, , , , 
2025-11-24 20:01:05.352,2.4430718,-12.318251,-1.5936198,-0.28061602,-0.1862374,0.884914,-48.43125,-2.1375,3.7687502,-0.5012914,-0.45528993,-0.22432657,999.44086, , , , 
2025-11-24 20:01:05.372,2.8187451,-11.96172,-0.2632105,-0.49808386,-0.18684827,1.3424517,-48.393753,-2.11875,2.3812501,-0.5104734,-0.4494136,-0.21621187,999.44086, , , , 
2025-11-24 20:01:05.392,4.3525443,-12.51207,-0.0047856453,-0.542677,-0.15263984,1.684536,-47.756252,-1.9125,1.06875,-0.52195275,-0.44101882,-0.20582008,999.43304, , , , 
2025-11-24 20:01:05.411,4.938786,-12.847065,0.18185452,-0.55183995,-0.054901473,1.8348087,-48.15,0.75,4.3500004,-0.5280988,-0.43600184,-0.20011735,999.43304, , , , 
2025-11-24 20:01:05.432,5.9318075,-12.966706,-0.28953153,-0.60254174,0.13629921,2.199495,-50.23125,1.1812501,2.53125,-0.5441799,-0.4207317,-0.18470696,999.434, , , , 
2025-11-24 20:01:05.452,6.6759753,-13.036098,-0.33020952,-0.88170695,0.38858637,2.4114652,-47.0625,5.9812503,2.8500001,-0.5618879,-0.4012395,-0.16895881,999.434, , , , 
2025-11-24 20:01:05.471,6.410372,-11.741581,1.0217353,-1.089401,0.566348,2.5983896,-49.162502,5.7562504,3.0937502,-0.5777126,-0.38237205,-0.15733333,999.4367, , , , 
2025-11-24 20:01:05.491,6.9966135,-9.501899,3.8356948,-1.0411427,0.9560797,2.6723044,-50.568752,7.5937505,3.9,-0.5939026,-0.3602911,-0.14675628,999.4367, , , , 
2025-11-24 20:01:05.512,8.025527,-8.932407,4.6205406,-0.58727014,1.388572,2.4609451,-47.287502,12.69375,0.95625,-0.60966223,-0.3297307,-0.13646543,999.43353, , , , 
2025-11-24 20:01:05.532,8.018349,-8.815159,3.6251264,-0.20853396,1.5742749,2.2660792,-48.300003,13.575001,1.7812501,-0.615501,-0.31100187,-0.13200787,999.43353, , , , 
2025-11-24 20:01:05.551,7.9944205,-6.640083,1.3854443,-0.16760603,1.6726241,2.154902,-46.350002,15.7875,-0.8625,-0.62177134,-0.2804048,-0.1255852,999.4443, , , , 
2025-11-24 20:01:05.571,8.126026,-9.183653,-0.60777694,-0.34658942,1.2511275,1.9441535,-45.412502,18.768751,-3.3000002,-0.62638587,-0.25695443,-0.12230062,999.4443, , , , 
2025-11-24 20:01:05.592,8.525627,-7.685746,0.43788654,-0.642248,0.82046777,1.9594251,-45.65625,20.587502,-1.6875001,-0.63158894,-0.24245965,-0.117954336,999.4416, , , , 
2025-11-24 20:01:05.612,8.877372,-7.2765737,1.3543376,-0.66851515,0.44967285,1.8311435,-44.15625,20.75625,-2.30625,-0.6375973,-0.22980255,-0.112693034,999.4416, , , , 
2025-11-24 20:01:05.631,8.499306,-6.3194447,2.4023938,-0.6110939,0.17661628,1.5684717,-44.381252,24.712502,-2.04375,-0.6470742,-0.2144238,-0.10229058,999.43304, , , , 
2025-11-24 20:01:05.651,7.436893,-5.532206,2.6249263,-0.4767036,0.4313469,1.4236968,-42.15,25.556252,-2.325,-0.65469885,-0.20062363,-0.09388656,999.43304, , , , 
2025-11-24 20:01:05.671,7.4679995,-5.2977095,2.3928227,-0.43272135,0.55901766,1.4279728,-41.71875,26.118752,-3.9562502,-0.6583708,-0.19158238,-0.08996691,999.43085, , , , 
2025-11-24 20:01:05.692,7.9657063,-4.6085763,2.3545375,-0.3759109,0.82963073,1.3534473,-40.36875,27.750002,-4.18125,-0.6636019,-0.17486396,-0.08532283,999.43085, , , , 
2025-11-24 20:01:05.712,7.884351,-4.007978,2.062613,-0.33376125,0.8113048,1.168966,-39.1875,29.118752,-4.8562503,-0.66766196,-0.15819757,-0.083027564,999.4194, , , , 
2025-11-24 20:01:05.732,8.563912,-4.199404,1.7491534,-0.3569741,0.7728203,0.9973131,-36.9375,31.48125,-6.15,-0.6697905,-0.1491782,-0.08229493,999.4194, , , , 
2025-11-24 20:01:05.751,8.874979,-4.6492543,1.3926228,-0.4730384,0.68607754,0.713261,-40.03125,30.13125,-3.7500002,-0.67346454,-0.13662575,-0.08276837,999.4118, , , , 
2025-11-24 20:01:05.772,9.059227,-5.0416775,1.6247265,-0.5170207,0.57245666,0.541608,-36.581253,31.0125,-6.9375005,-0.675968,-0.13071428,-0.084045194,999.4118, , , , 
2025-11-24 20:01:05.792,9.640682,-5.656633,1.7898313,-0.46876237,0.07032581,0.29054257,-37.66875,30.900002,-4.9500003,-0.6800463,-0.12472003,-0.08594016,999.4035, , , , 
2025-11-24 20:01:05.812,10.707881,-5.9270215,2.0865414,-0.4174497,-0.30718863,0.10361794,-35.23125,31.1625,-7.0875,-0.682971,-0.12460622,-0.08586448,999.4035, , , , 
2025-11-24 20:01:05.832,11.784652,-6.6017976,2.7110682,-0.3105484,-0.58452123,-0.3050506,-37.03125,32.568752,-4.8187504,-0.6857195,-0.1306478,-0.0853516,999.40985, , , , 
2025-11-24 20:01:05.851,12.134004,-7.1808605,3.196811,-0.20181446,-0.58452123,-0.58360493,-37.893753,30.375002,-5.83125,-0.686473,-0.13676417,-0.08614136,999.40985, , , , 
2025-11-24 20:01:05.872,12.416357,-8.30788,3.0556345,-0.03199404,-0.4012618,-0.9263001,-37.55625,30.0375,-4.6125,-0.6858956,-0.1465185,-0.08969648,999.41595, , , , 
2025-11-24 20:01:05.891,12.27518,-9.303294,2.440679,0.11094832,-0.06467531,-1.3337469,-38.5875,30.675001,-5.0062504,-0.6827914,-0.15955605,-0.09910507,999.41595, , , , 
2025-11-24 20:01:05.912,12.143575,-9.667004,2.103291,0.16103923,0.039171703,-1.6251293,-39.375,28.968752,-4.9875,-0.67885685,-0.17062998,-0.11026349,999.4357, , , , 
2025-11-24 20:01:05.932,12.473784,-10.602597,1.6582261,0.19708025,0.19616395,-1.9623268,-41.325,26.531252,-4.6312504,-0.6739477,-0.18272066,-0.12381437,999.4357, , , , 
2025-11-24 20:01:05.952,11.679367,-11.205588,0.97866446,0.16898046,0.40813404,-2.2384377,-40.987503,26.175001,-3.2625,-0.6680484,-0.19557974,-0.14039333,999.4406, , , , 
2025-11-24 20:01:05.971,10.803595,-11.3371935,0.7680961,0.13110685,0.6109411,-2.2891395,-41.831253,24.112501,-4.14375,-0.6632364,-0.20487782,-0.15451023,999.4406, , , , 
2025-11-24 20:01:05.991,9.269794,-11.13859,1.0839486,0.1372155,0.841848,-2.2280529,-43.068752,22.368752,-4.0687504,-0.6547245,-0.21772811,-0.179878,999.44574, , , , 
2025-11-24 20:01:06.011,7.884351,-10.210175,1.1796615,0.22884522,0.6824123,-2.1095452,-43.65,20.7,-6.05625,-0.6453916,-0.22872639,-0.20445251,999.44574, , , , 
2025-11-24 20:01:06.032,7.2670026,-9.573684,1.6295122,0.38400486,0.3672061,-1.9769875,-44.381252,17.6625,-8.137501,-0.637625,-0.23829001,-0.22110671,999.44574, , , , 
2025-11-24 20:01:06.051,7.355537,-9.49472,1.6965113,0.56970775,0.082543105,-1.9165119,-45.581253,17.6625,-6.76875,-0.6314021,-0.24665292,-0.23127237,999.44574,37.88755139,127.74025168,143.1734619140625,1.19
2025-11-24 20:01:06.072,7.537391,-10.210175,0.8757731,0.78473216,-0.3249037,-2.0319653,-45.393753,14.08125,-8.2875,-0.61989933,-0.2640117,-0.24470493,999.45526, , , , 
2025-11-24 20:01:06.091,7.164111,-10.750952,0.58624154,0.8030581,-0.46845692,-2.0991604,-47.34375,11.868751,-6.0937505,-0.61267316,-0.27626616,-0.25167698,999.45526, , , , 
2025-11-24 20:01:06.111,6.15434,-11.320444,0.5766702,0.73830646,-0.52160215,-2.0276892,-46.987503,9.918751,-7.425,-0.6031389,-0.2933678,-0.26018655,999.45526, , , , 
2025-11-24 20:01:06.132,4.8287163,-10.667203,0.9403793,0.74808025,-0.98097247,-1.8004476,-48.525,8.15625,-7.3125005,-0.59253263,-0.31473988,-0.26797324,999.45526, , , , 
2025-11-24 20:01:06.151,4.1084766,-9.671789,1.5936198,0.7566324,-1.2747984,-1.5389974,-48.91875,6.3562503,-5.0062504,-0.58377075,-0.33747536,-0.27026302,999.45087, , , , 
2025-11-24 20:01:06.172,3.7591243,-8.616554,1.9238294,0.807945,-1.3035091,-1.3270273,-49.162502,5.9437504,-4.18125,-0.5775012,-0.3554043,-0.26910505,999.45087, , , , 
2025-11-24 20:01:06.191,3.6586258,-7.6666036,1.6893328,0.8213841,-1.1758384,-1.1926371,-48.693752,3.8812501,-3.80625,-0.57117516,-0.3721193,-0.26682833,999.45306, , , , 
2025-11-24 20:01:06.212,3.6203406,-7.1880393,1.524228,0.81283194,-1.0768782,-1.1755329,-49.575,4.125,-1.10625,-0.5679218,-0.37991667,-0.26573622,999.45306, , , , 
2025-11-24 20:01:06.231,3.2685957,-6.5850477,0.87338024,0.80000377,-0.78427404,-1.1908045,-48.393753,2.0062501,-0.7875,-0.5572776,-0.40116552,-0.2641617,999.44037, , , , 
2025-11-24 20:01:06.252,2.6991038,-6.4366927,0.10767702,0.7547998,-0.621784,-1.0906227,-48.487503,0.13125001,-0.375,-0.5516265,-0.4104681,-0.26416495,999.44037, , , , 
2025-11-24 20:01:06.272,2.2995026,-6.3864436,-0.57427746,0.6246856,-0.5472585,-0.92996526,-48.15,-0.3375,0.075,-0.5447503,-0.42110193,-0.26424485,999.4389, , , , 
2025-11-24 20:01:06.291,2.6512475,-6.5252275,-0.44745782,0.519006,-0.63522303,-0.78824466,-49.143753,-1.5562501,1.1812501,-0.5381611,-0.43265814,-0.26367855,999.4389, , , , 
2025-11-24 20:01:06.311,3.0795627,-6.9248285,-0.15074782,0.645455,-0.6132319,-0.7198278,-48.656254,-2.1375,0.39375,-0.5323361,-0.4439019,-0.26181576,999.43134, , , , 
2025-11-24 20:01:06.331,3.1513474,-7.7001033,-1.308874,0.66805696,-0.38599017,-0.56588984,-47.756252,-2.6625001,0.63750005,-0.52560544,-0.45384648,-0.25894654,999.43134, , , , 
2025-11-24 20:01:06.351,3.0556345,-8.087741,-1.6319051,0.5031235,-0.25282165,-0.4663189,-47.98125,-3.5812502,3.1875002,-0.5232484,-0.4568518,-0.25792524,999.4206, , , , 
2025-11-24 20:01:06.371,3.101098,-8.729017,-0.7465607,0.18669555,-0.041462447,-0.30077454,-47.86875,-4.4437504,3.525,-0.5197281,-0.46113336,-0.25665268,999.4206, , , , 
2025-11-24 20:01:06.391,3.4289148,-9.363115,0.2105684,0.12072215,0.11980586,-0.23907721,-49.031254,-5.8125,4.96875,-0.5186796,-0.46175107,-0.25671792,999.4152, , , , 
2025-11-24 20:01:06.412,3.5318062,-10.5690975,0.19142582,0.10789399,0.30673048,-0.12667808,-48.80625,-5.64375,1.8375001,-0.5173418,-0.46084562,-0.25733513,999.4152, , , , 
2025-11-24 20:01:06.431,3.1848469,-10.858629,-0.0023928226,0.102396205,0.4001928,0.0077121677,-48.656254,-3.3937502,2.775,-0.5166039,-0.4589833,-0.2576596,999.4152, , , , 
2025-11-24 20:01:06.451,2.778067,-11.3683,-0.49052864,-0.15111268,0.61949325,0.68943727,-48.9,-4.03125,0.99375004,-0.51824135,-0.4490327,-0.25621572,999.41034, , , , 
2025-11-24 20:01:06.471,3.345166,-11.777473,-0.5312066,-0.2115883,0.6634755,0.88369226,-48.300003,-5.3250003,0.84375006,-0.5201038,-0.44445124,-0.2550253,999.4162, , , , 
2025-11-24 20:01:06.491,4.347759,-11.880364,-0.86141616,-0.34536767,0.5596285,1.4554617,-48.468754,-2.49375,2.4,-0.52926284,-0.42710167,-0.24813639,999.4162, , , , 
2025-11-24 20:01:06.511,5.0273204,-12.387643,-1.1389836,-0.5463422,0.6378192,1.9166646,-49.48125,-1.10625,0.73125005,-0.53834504,-0.41302818,-0.24033915,999.41644, , , , 
2025-11-24 20:01:06.531,4.8861437,-11.571691,-0.64606214,-0.66973686,0.5156462,2.2422554,-48.7125,0.4875,-0.20625001,-0.55001235,-0.3961077,-0.23085153,999.41644, , , , 
2025-11-24 20:01:06.551,4.6731825,-10.351351,0.31345975,-0.68256503,0.16378812,2.6362634,-47.7,3.2062502,-1.2375001,-0.563648,-0.37849063,-0.21803287,999.41815, , , , 
2025-11-24 20:01:06.571,5.4029937,-9.870394,1.3926228,-0.659963,0.19738568,2.9013786,-46.800003,5.4187503,-2.7,-0.5781473,-0.36028922,-0.20209783,999.41815, , , , 
2025-11-24 20:01:06.592,6.573084,-9.633504,1.9477576,-0.41561714,0.155236,2.9820127,-46.85625,8.025001,-2.53125,-0.59188545,-0.34077144,-0.1845832,999.41766, , , , 
2025-11-24 20:01:06.611,7.322037,-9.29133,1.6007984,-0.18165591,0.13752094,2.9392521,-46.96875,9.75,-1.06875,-0.60044825,-0.3265011,-0.1705606,999.41766, , , , 
2025-11-24 20:01:06.631,8.662018,-9.705289,0.1268196,-0.027717989,0.20166174,2.6338198,-47.2125,13.70625,-0.0375,-0.61171967,-0.30432588,-0.14777967,999.4262, , , , 
2025-11-24 20:01:06.652,9.032906,-9.597611,-0.8757731,-0.13461933,0.061773703,2.4707189,-45.975002,15.450001,-1.0500001,-0.62290096,-0.28000095,-0.12305501,999.4262, , , , 
2025-11-24 20:01:06.672,9.123833,-9.382257,-1.0025927,-0.23846634,-0.016416991,2.435289,-46.162502,18.675001,-3.2250001,-0.6268201,-0.2726427,-0.1150161,999.4289, , , , 
2025-11-24 20:01:06.692,9.533006,-8.458628,-0.33738798,-0.6172025,-0.16302454,2.3180027,-44.90625,20.6625,-1.44375,-0.6379802,-0.25559393,-0.0953528,999.4289, , , , 
2025-11-24 20:01:06.711,9.592826,-7.987242,0.7704889,-0.80046195,-0.12331833,2.2147665,-44.025,23.625,-1.40625,-0.6456077,-0.24591249,-0.084471636,999.43134, , , , 
2025-11-24 20:01:06.731,9.731609,-6.893722,2.7038896,-0.7974076,0.111253746,2.0296745,-43.21875,23.19375,-1.6125001,-0.6582908,-0.22953582,-0.069284946,999.43134, , , , 
2025-11-24 20:01:06.751,10.234102,-5.7427745,3.7686956,-0.37530005,0.53763735,1.7089705,-40.893753,26.79375,-0.99375004,-0.6677818,-0.21248873,-0.058359057,999.42914, , , , 
2025-11-24 20:01:06.771,10.246066,-4.575077,2.536392,0.0034361144,0.8699478,1.3192389,-39.45,28.181252,-0.6,-0.67183256,-0.19532989,-0.052719485,999.42914, , , , 
2025-11-24 20:01:06.791,10.033105,-4.2257247,1.6151553,0.092011504,0.9737948,1.1304816,-39.412502,28.95,-2.1937501,-0.67227274,-0.18876049,-0.052004922,999.4274, , , , 
2025-11-24 20:01:06.814,9.9038925,-3.5006995,0.3469593,0.043142326,0.923093,0.7547998,-38.756252,30.018751,-2.79375,-0.67241216,-0.17120335,-0.05335707,999.4274, , , , 
2025-11-24 20:01:06.831,9.54497,-3.1633115,-0.16749759,-0.058872093,0.8064179,0.52083856,-40.143753,30.6,-0.50625,-0.6725581,-0.16441461,-0.055283867,999.41864, , , , 
2025-11-24 20:01:06.851,9.875179,-3.4193435,-0.37088752,-0.30260715,0.7056252,0.23006694,-36.6375,31.612501,-4.9500003,-0.6738282,-0.15626344,-0.059919465,999.41864, , , , 
2025-11-24 20:01:06.871,10.021141,-4.0007997,-0.038285162,-0.5665007,0.7813724,-0.005726857,-38.23125,31.706251,-4.9500003,-0.67625064,-0.15156531,-0.066020384,999.40424, , , , 
2025-11-24 20:01:06.892,10.468599,-4.6803613,0.8111669,-0.7112757,0.77037686,-0.18898629,-37.706253,31.500002,-4.0687504,-0.6788267,-0.14861123,-0.07206561,999.40424, , , , 
2025-11-24 20:01:06.912,11.514262,-6.0634127,1.375873,-0.7625883,0.63537574,-0.47242755,-36.28125,32.025,-4.2375,-0.6833968,-0.14587021,-0.08387344,999.3945, , , , 
2025-11-24 20:01:06.932,12.626925,-7.743174,1.9621146,-0.7069996,0.33116508,-0.83161604,-38.456253,31.425001,-3.2062502,-0.6866744,-0.14703919,-0.094279125,999.3945, , , , 
2025-11-24 20:01:06.951,13.138989,-8.815159,2.2612174,-0.59215707,0.041615162,-1.184085,-38.49375,30.431252,-4.5375004,-0.6889401,-0.15270604,-0.10495689,999.3942, , , , 
2025-11-24 20:01:06.971,13.356736,-10.018748,2.333002,-0.48281226,-0.16607887,-1.6226859,-39.24375,28.85625,-5.1375003,-0.68981445,-0.16315131,-0.11630234,999.3942, , , , 
2025-11-24 20:01:06.991,13.153346,-11.648261,2.3856442,-0.38751733,-0.1514181,-2.0130286,-39.1875,27.750002,-4.78125,-0.689314,-0.1769145,-0.12931852,999.393, , , , 
2025-11-24 20:01:07.011,12.533605,-13.086347,2.6273193,-0.23357943,-0.059177525,-2.314185,-40.331253,24.2625,-4.2937503,-0.6865411,-0.19628741,-0.1484137,999.393, , , , 
2025-11-24 20:01:07.031,12.000006,-14.175081,2.5268207,-0.010002911,0.0410043,-2.444299,-42.9375,23.75625,-3.99375,-0.6820866,-0.21242216,-0.16510957,999.38983, , , , 
2025-11-24 20:01:07.051,10.358529,-13.720445,2.4933212,0.2709949,0.1485165,-2.4027603,-43.3125,21.73125,-5.2312503,-0.67543447,-0.22816794,-0.18199915,999.38983,37.88754369,127.74025833,143.32489013671875,1.14
2025-11-24 20:01:07.072,8.812766,-11.983255,2.4909284,0.5745947,0.13202316,-2.2396593,-43.125,19.875,-4.21875,-0.6690471,-0.23929726,-0.19376212,999.3935, , , , 
2025-11-24 20:01:07.091,8.037491,-10.10489,1.9525433,0.87514013,0.040393434,-2.1040473,-45.6375,18.6,-0.95625,-0.6588385,-0.25374392,-0.20718764,999.3935, , , , 
2025-11-24 20:01:07.112,7.958528,-9.403793,1.3591232,1.0785581,-0.122707464,-2.136423,-45.375,15.281251,-3.73125,-0.6471204,-0.26884592,-0.21864432,999.3942, , , , 
2025-11-24 20:01:07.132,7.920243,-9.796216,0.3397808,1.1665226,-0.33834273,-2.2757003,-47.006252,13.650001,-5.4750004,-0.62772053,-0.29449478,-0.23368976,999.3942, , , , 
2025-11-24 20:01:07.152,7.834101,-10.080962,0.02871387,1.1506401,-0.39881834,-2.3209043,-47.081253,11.25,-3.16875,-0.62107074,-0.30383784,-0.2383346,999.40424, , , , 
2025-11-24 20:01:07.171,6.364908,-10.080962,-0.32303107,1.0046434,-0.56924963,-2.322737,-46.29375,9.225,-4.05,-0.6015417,-0.33282357,-0.25155118,999.40424, , , , 
2025-11-24 20:01:07.191,5.0512486,-9.664611,0.0741775,0.8916335,-0.6743184,-2.1516948,-47.4375,7.8750005,-5.1000004,-0.58677375,-0.35650176,-0.26084456,999.40814, , , , 
2025-11-24 20:01:07.211,4.1347976,-8.9826565,0.40677986,0.84581864,-0.7103594,-2.014861,-48.393753,5.2875004,-5.0062504,-0.58132577,-0.3655091,-0.2639089,999.40814, , , , 
2025-11-24 20:01:07.231,3.2757742,-8.020741,0.8781659,0.81527543,-0.63522303,-1.6953788,-49.48125,3.0375001,-1.81875,-0.5687077,-0.38612697,-0.26979098,999.41547, , , , 
2025-11-24 20:01:07.252,2.7684958,-7.2957163,0.8662018,0.80122554,-0.61567533,-1.4766892,-48.093754,0.45000002,-2.5875,-0.5592737,-0.40034303,-0.27315283,999.41547, , , , 
2025-11-24 20:01:07.272,2.5698915,-6.65444,0.8135597,0.8018364,-0.5191587,-1.319697,-48.937504,0.09375,-0.31875002,-0.55040133,-0.41319677,-0.27545565,999.4262, , , , 
2025-11-24 20:01:07.292,1.9812572,-5.989235,0.83030945,0.83176875,-0.5814669,-1.1645373,-47.625,-2.3625002,-2.9437501,-0.53975433,-0.42775488,-0.27712622,999.4262, , , , 
2025-11-24 20:01:07.311,1.8927227,-6.094519,0.35653058,0.9246202,-0.60284716,-0.99593866,-49.162502,-3.05625,1.7437501,-0.5315687,-0.43899786,-0.2767556,999.43134, , , , 
2025-11-24 20:01:07.332,1.7754744,-6.1208405,-0.54317075,0.9093486,-0.5906299,-0.87620914,-47.71875,-4.7625003,-0.01875,-0.52556,-0.447008,-0.2755877,999.43134, , , , 
2025-11-24 20:01:07.352,1.969293,-6.192625,-1.2897314,0.76579535,-0.60223633,-0.7283799,-47.49375,-5.8500004,-0.75,-0.5185229,-0.4568141,-0.27336875,999.42816, , , , 
2025-11-24 20:01:07.372,2.400001,-6.5946193,-1.6654046,0.50373435,-0.6462186,-0.5115229,-47.8875,-4.6687503,1.6875001,-0.51238453,-0.46758464,-0.26986662,999.42816, , , , 
2025-11-24 20:01:07.391,2.6895328,-6.9559355,-1.5457634,0.32352927,-0.63277954,-0.38018698,-48.693752,-5.0062504,2.5687501,-0.5104149,-0.47304004,-0.26752567,999.4372, , , , 
2025-11-24 20:01:07.411,3.1393833,-7.5493555,-1.0959128,0.07429643,-0.5961277,-0.21525347,-47.362503,-5.7375,1.3875,-0.5098777,-0.48010546,-0.26364946,999.4372, , , , 
2025-11-24 20:01:07.432,3.3667014,-8.147561,-0.6269195,-0.1211803,-0.47823077,-0.06436988,-46.29375,-5.4,3.4125001,-0.51148057,-0.48376685,-0.26089928,999.4416, , , , 
2025-11-24 20:01:07.451,4.199404,-9.753145,-0.30867413,-0.36491534,-0.26320636,0.10545053,-49.0875,-6.05625,4.36875,-0.5155951,-0.4852266,-0.25822836,999.4416, , , , 
2025-11-24 20:01:07.471,4.342973,-10.693524,0.32303107,-0.5445096,-0.05856666,0.2483929,-48.581253,-7.2562504,4.3875003,-0.5203691,-0.48381844,-0.25704527,999.4433, , , , 
2025-11-24 20:01:07.491,4.17069,-11.102697,0.86859465,-0.62208945,0.16562071,0.44570222,-47.98125,-5.7000003,4.5375004,-0.52627826,-0.479609,-0.2565053,999.4433, , , , 
2025-11-24 20:01:07.511,3.8380876,-11.009377,1.591227,-0.5768854,0.5284744,0.81405365,-49.050003,-6.5625005,4.8562503,-0.53453445,-0.46966675,-0.25580874,999.44916, , , , 
2025-11-24 20:01:07.531,4.4721856,-11.91865,1.4763715,-0.39118254,0.769766,1.1585814,-48.881252,-4.51875,1.7812501,-0.54113823,-0.45827615,-0.25405788,999.44916, , , , 
2025-11-24 20:01:07.552,4.6564326,-12.095718,1.2634103,-0.29955283,0.8583414,1.332067,-47.5875,-3.9,1.9312501,-0.5443356,-0.45159146,-0.252518,999.45135, , , , 
2025-11-24 20:01:07.572,5.304888,-12.409178,0.078963146,-0.16332997,1.0055598,1.7694461,-48.693752,-2.1375,1.63125,-0.55234367,-0.43217275,-0.2462375,999.45135, , , , 
2025-11-24 20:01:07.591,4.948357,-12.157932,-0.33020952,-0.28061602,1.0697006,2.135965,-49.74375,-1.6125001,0.63750005,-0.5617088,-0.40912086,-0.23704675,999.4572, , , , 
2025-11-24 20:01:07.611,4.082155,-10.786844,0.33499518,-0.4107302,1.0385464,2.5592945,-48.54375,1.3687501,0.65625,-0.5713093,-0.38776702,-0.22766331,999.4572, , , , 
2025-11-24 20:01:07.632,4.546363,-9.62154,1.3974084,-0.42416924,0.99700767,2.940474,-47.550003,4.0875,-0.22500001,-0.5824384,-0.36388537,-0.21572277,999.4582, , , , 
2025-11-24 20:01:07.651,5.8887367,-9.346365,1.5218352,-0.35086545,0.92981255,3.0406559,-46.987503,7.4062505,-2.79375,-0.5908101,-0.3451258,-0.20528774,999.4582, , , , 
2025-11-24 20:01:07.672,8.030313,-9.801002,0.72263247,-0.24518585,0.80153096,2.8580072,-49.537502,8.625,-1.2,-0.60321295,-0.31506166,-0.18703619,999.4692, , , , 
2025-11-24 20:01:07.692,8.451449,-10.265209,0.02871387,-0.2738965,0.7105121,2.6582544,-48.7125,13.425,-1.725,-0.60971344,-0.29858887,-0.17657678,999.4692, , , , 
2025-11-24 20:01:07.712,8.482556,-10.193424,-0.7585248,-0.69966924,0.75266176,2.5849507,-43.987503,16.181252,-5.625,-0.62315196,-0.26716664,-0.15746914,999.4731, , , , 
2025-11-24 20:01:07.731,8.6141615,-9.5760765,0.29910284,-1.0393101,0.8241329,2.5910592,-45.412502,17.79375,-6.6375003,-0.63434654,-0.24519876,-0.14650056,999.4731, , , , 
2025-11-24 20:01:07.751,8.953942,-8.097312,2.2564318,-1.2091305,0.7447205,2.5373032,-45.3375,19.78125,-4.2937503,-0.6467703,-0.22250637,-0.13663173,999.4826, , , , 
2025-11-24 20:01:07.771,9.389436,-7.0803623,3.6323047,-1.121166,0.6591995,2.3839762,-40.987503,22.35,-6.1312504,-0.6587264,-0.20106296,-0.12703167,999.4826, , , , 
2025-11-24 20:01:07.793,9.377472,-6.003592,3.792624,-0.73082334,0.66958416,2.1066434,-40.65,24.862501,-4.2937503,-0.66996133,-0.176865,-0.1164196,999.4775, , , , 
2025-11-24 20:01:07.813,9.066405,-5.465207,3.3236306,-0.42844528,0.7868702,1.8641303,-41.287502,26.775002,-4.3500004,-0.6755935,-0.1592858,-0.109634034,999.4775, , , , 
2025-11-24 20:01:07.831,8.848659,-4.9052863,2.4741786,-0.22747077,0.8711695,1.7083597,-39.99375,28.050001,-5.625,-0.6789277,-0.1424874,-0.10440572,999.47626, , , , 
2025-11-24 20:01:07.851,8.843872,-4.666004,2.3042881,-0.19142975,0.83635026,1.6723187,-37.74375,28.9125,-6.6937504,-0.6806106,-0.13033862,-0.1010619,999.47626, , , , 
2025-11-24 20:01:07.871,10.073783,-5.316852,2.1822543,-0.058261227,0.80153096,1.4615704,-38.53125,30.187502,-5.90625,-0.68211657,-0.115073405,-0.09683738,999.4704, , , , 
2025-11-24 20:01:07.892,10.3681,-4.4674,1.9621146,0.013820816,0.8571196,1.079169,-37.0125,31.612501,-8.775001,-0.6824076,-0.10206054,-0.09461414,999.4704, , , , 
2025-11-24 20:01:07.912,10.119247,-5.022535,1.1485549,-0.12606722,0.8754456,0.5501601,-35.756252,31.987501,-9.243751,-0.68193954,-0.08924238,-0.09660086,999.4628, , , , 
2025-11-24 20:01:07.931,9.580862,-4.922036,1.3447664,-0.24640758,0.73494667,0.4267654,-35.23125,32.53125,-8.55,-0.68226516,-0.083345875,-0.09936589,999.4628, , , , 
2025-11-24 20:01:07.952,10.516456,-6.2213387,2.2995026,-0.29527676,0.2474766,0.28076872,-34.4625,33.2625,-10.837501,-0.68369013,-0.07815253,-0.10165989,999.4633, , , , 
2025-11-24 20:01:07.971,10.96152,-6.175875,3.1322048,-0.1211803,-0.3835467,-0.08452842,-34.631252,31.85625,-8.7375,-0.68511367,-0.079232335,-0.10263101,999.4633, , , , 
2025-11-24 20:01:07.991,12.078969,-7.2358956,2.6991038,0.08834632,-0.9736421,-0.50663596,-35.11875,31.66875,-8.212501,-0.6849732,-0.08881634,-0.101793416,999.4555, , , , 
2025-11-24 20:01:08.011,12.390036,-8.676374,2.536392,0.1042288,-1.1049781,-0.9024764,-33.862503,32.68125,-9.01875,-0.68410164,-0.10204874,-0.10116471,999.4555, , , , 
2025-11-24 20:01:08.031,12.378072,-9.595219,2.7565317,0.18852814,-1.0603849,-1.157207,-35.4375,33.6375,-8.90625,-0.6833748,-0.109884575,-0.10175367,999.4565, , , , 
2025-11-24 20:01:08.051,11.557333,-10.387243,2.658426,0.2606102,-1.01457,-1.5756494,-38.193752,30.975,-6.9187503,-0.6799735,-0.13189021,-0.10625134,999.4565,37.88753558,127.74026547,143.44140625,1.17
2025-11-24 20:01:08.071,11.394622,-11.676974,2.2731814,0.18608469,-0.8038217,-1.9525529,-36.2625,29.56875,-8.587501,-0.6743686,-0.16068792,-0.1165725,999.46185, , , , 
2025-11-24 20:01:08.091,11.140983,-12.265609,1.9381863,0.08651373,-0.6559924,-2.0667846,-38.756252,29.79375,-5.7000003,-0.67240214,-0.17033894,-0.12133099,999.46185, , , , 
2025-11-24 20:01:08.111,10.667203,-13.184453,2.0889342,0.010155627,-0.14836378,-2.1559708,-39.99375,27.300001,-5.4375,-0.6675954,-0.1924351,-0.1363681,999.4655, , , , 
2025-11-24 20:01:08.131,9.827323,-13.179667,2.225325,0.118889555,0.2022726,-2.2152247,-42.16875,24.581251,-4.59375,-0.6614171,-0.21042101,-0.15557338,999.4655, , , , 
2025-11-24 20:01:08.151,8.329415,-11.10509,2.5722845,0.38950264,0.2022726,-2.2207224,-41.5125,23.2875,-6.6000004,-0.6545861,-0.22340688,-0.17204592,999.4709, , , , 
2025-11-24 20:01:08.171,8.047063,-10.377672,2.239682,0.6161335,0.01962403,-2.314185,-41.775,23.400002,-7.18125,-0.64580077,-0.23738606,-0.18728338,999.4709, , , , 
2025-11-24 20:01:08.192,8.015956,-10.124033,1.9262222,0.7114284,-0.1306487,-2.4119232,-42.487503,20.7,-5.71875,-0.6407378,-0.24539505,-0.19443123,999.4726, , , , 
2025-11-24 20:01:08.211,8.123632,-10.6408825,0.8709874,0.7590758,-0.5435933,-2.823646,-45.73125,14.887501,-4.59375,-0.62695295,-0.26943594,-0.21154714,999.4726, , , , 
2025-11-24 20:01:08.231,7.920243,-11.52862,0.5455636,0.7297543,-0.79404783,-2.9965208,-47.9625,12.543751,-5.15625,-0.61267024,-0.2983301,-0.22818878,999.48285, , , , 
2025-11-24 20:01:08.251,6.3050876,-11.045269,0.2727818,0.6430115,-0.9400445,-3.1431284,-46.6875,8.700001,-5.0625,-0.59780467,-0.3295226,-0.24476475,999.48285, , , , 
2025-11-24 20:01:08.271,5.558527,-10.487741,0.39960137,0.5660426,-1.059774,-2.9036694,-47.775,7.5937505,-5.49375,-0.58937883,-0.348287,-0.25364265,999.4865, , , , 
2025-11-24 20:01:08.291,5.204389,-9.700503,0.89013004,0.52022773,-1.0726022,-2.6452737,-48.506252,5.0062504,-2.1937501,-0.58164203,-0.36610195,-0.2610577,999.4865, , , , 
2025-11-24 20:01:08.312,4.8454657,-8.384451,2.2588246,0.65461797,-0.89667314,-2.3844342,-46.85625,0.69375,-3.6562502,-0.5669136,-0.39809212,-0.27279535,999.49164, , , , 
2025-11-24 20:01:08.331,4.5320063,-7.9369926,1.9860427,0.75418895,-0.6437751,-2.3942082,-47.831253,-0.3,-0.73125005,-0.55540264,-0.41731054,-0.2803029,999.49164, , , , 
2025-11-24 20:01:08.351,3.3643086,-7.7647095,1.0480564,0.7199805,-0.19234605,-2.309298,-47.287502,-1.9687501,-1.4625001,-0.54236513,-0.43415287,-0.28918368,999.4904, , , , 
2025-11-24 20:01:08.371,2.143969,-7.5996046,0.46899325,0.63629204,0.1711185,-2.0680063,-47.4,-5.34375,-0.4875,-0.52912354,-0.4474278,-0.29920956,999.4904, , , , 
2025-11-24 20:01:08.391,1.0313065,-7.4129643,-0.2416751,0.55382526,0.52236575,-1.5341105,-45.693752,-7.9125004,-1.7437501,-0.5136698,-0.45815405,-0.31155527,999.48334, , , , 
2025-11-24 20:01:08.411,0.92602235,-7.3172517,-0.3493521,0.5300016,0.57062405,-1.3532946,-47.943752,-8.64375,0.69375,-0.5081993,-0.46062294,-0.31586105,999.48334, , , , 
2025-11-24 20:01:08.432,1.2059826,-6.707082,-0.5694918,0.51778424,0.4539489,-0.9055307,-48.05625,-9.28125,0.112500004,-0.49670768,-0.4638768,-0.32412508,999.4836, , , , 
2025-11-24 20:01:08.452,1.0193424,-6.836294,-0.6269195,0.5165625,0.43501207,-0.75098187,-46.55625,-9.243751,-0.95625,-0.4908529,-0.46572718,-0.32731453,999.4836, , , , 
2025-11-24 20:01:08.471,0.91884387,-7.4512496,-0.61734825,0.4389827,0.6109411,-0.2598466,-48.2625,-10.425,-0.5625,-0.4829329,-0.46590763,-0.33113533,999.46747, , , , 
2025-11-24 20:01:08.492,1.39023,-7.975278,-0.8709874,0.45853037,0.5022072,0.12805253,-45.206253,-9.337501,-4.03125,-0.47646365,-0.4619058,-0.3312168,999.46747, , , , 
2025-11-24 20:01:08.511,1.8711873,-8.504091,-1.026521,0.42248935,0.30917394,0.29909468,-46.96875,-9.150001,-1.5375,-0.47478363,-0.45964968,-0.32930106,999.457, , , , 
2025-11-24 20:01:08.531,2.7565317,-9.353543,-1.2993027,0.33085963,-0.03718639,0.56421,-46.8375,-11.38125,-2.04375,-0.47466782,-0.45713606,-0.32442048,999.457, , , , 
2025-11-24 20:01:08.551,3.4576287,-10.057034,-1.6558332,0.13965896,-0.21861324,0.7737366,-46.95,-9.900001,-2.7375002,-0.4772321,-0.4550344,-0.31718025,999.44745, , , , 
2025-11-24 20:01:08.571,3.5676985,-10.269995,-1.0839486,-0.13278674,-0.2748128,1.0614539,-48.206253,-9.4125,-0.7875,-0.4844629,-0.45112085,-0.30650035,999.44745, , , , 
2025-11-24 20:01:08.592,3.8524444,-10.590633,-0.3900301,-0.22685991,-0.2748128,1.3180171,-47.325,-7.9500003,-0.65625,-0.49071118,-0.44729877,-0.29927617,999.4338, , , , 
2025-11-24 20:01:08.611,5.2737813,-11.810972,0.009571291,-0.20609051,-0.15202898,1.6998076,-48.187504,-7.1625004,-1.6875001,-0.5029445,-0.4382237,-0.28499606,999.4338, , , , 
2025-11-24 20:01:08.631,5.960521,-12.320643,-0.6580262,-0.18287764,-0.002367101,2.010738,-48.187504,-6.43125,-1.10625,-0.5132817,-0.42830735,-0.2716442,999.4316, , , , 
2025-11-24 20:01:08.651,6.3338017,-12.58864,-1.5074782,-0.39606944,0.16806418,2.403524,-48.750004,-1.9875001,-1.9125,-0.5277393,-0.41200656,-0.25342354,999.4316, , , , 
2025-11-24 20:01:08.671,6.2979093,-11.358729,-1.2562319,-0.6734021,0.22426373,2.6839108,-48.093754,-0.93750006,-1.4250001,-0.53820807,-0.39999795,-0.24187861,999.42426, , , , 
2025-11-24 20:01:08.692,6.6855464,-9.568898,0.07178468,-0.91835886,0.2578613,2.926424,-47.9625,1.81875,-2.2125,-0.55421555,-0.38153735,-0.22617723,999.42426, , , , 
2025-11-24 20:01:08.711,8.547162,-9.29133,1.5170496,-0.9226349,0.25358525,2.9142067,-49.65,2.3812501,0.09375,-0.57512337,-0.35641885,-0.20647885,999.4284, , , , 
2025-11-24 20:01:08.733,10.279566,-9.188439,1.4811572,-0.7088322,0.39897105,2.6576436,-48.300003,8.887501,-2.5875,-0.5897662,-0.33670655,-0.1915355,999.4284, , , , 
2025-11-24 20:01:08.752,10.918449,-9.037691,0.32063824,-0.6141482,0.36415178,2.276464,-48.187504,10.875,-2.4,-0.6014106,-0.3182419,-0.17889857,999.4191, , , , 
2025-11-24 20:01:08.771,10.719846,-8.781659,-0.31585258,-0.6770672,0.18944444,2.0534983,-47.15625,10.9875,-2.0625,-0.6092577,-0.3064777,-0.1705473,999.4191, , , , 
2025-11-24 20:01:08.792,9.944571,-7.893922,0.33260235,-1.0393101,-0.46173742,1.8262566,-45.1875,14.793751,-3.0937502,-0.6263949,-0.28958458,-0.15384038,999.40497, , , , 
2025-11-24 20:01:08.811,10.164711,-7.776674,1.5194423,-1.1743112,-0.65415984,1.824424,-46.800003,15.731251,-0.20625001,-0.6328441,-0.285291,-0.1478759,999.40497, , , , 
2025-11-24 20:01:08.831,11.033305,-7.135397,3.9170506,-1.0545816,-0.5924625,1.6851468,-44.04375,18.393751,-1.40625,-0.64584523,-0.27753907,-0.13578644,999.4013, , , , 
2025-11-24 20:01:08.852,11.042876,-6.2309103,4.7018967,-0.32215482,-0.031077746,1.327791,-46.125,19.893751,0.41250002,-0.6592543,-0.26641768,-0.12105489,999.4013, , , , 
2025-11-24 20:01:08.872,10.222138,-5.692525,3.4217365,-0.07170025,0.25908303,1.2337178,-44.568752,18.9375,0.91875005,-0.66200536,-0.26027182,-0.116196126,999.4028, , , , 
2025-11-24 20:01:08.891,9.085547,-4.534399,0.33020952,-0.22502731,1.2101995,1.128649,-46.2,21.75,1.0875001,-0.6647794,-0.24313904,-0.11286375,999.4028, , , , 
2025-11-24 20:01:08.911,8.894122,-4.2951164,0.023928227,-0.44493863,1.5254058,1.1133775,-43.85625,21.525002,-1.7625,-0.666149,-0.23539431,-0.114168264,999.39667, , , , 
2025-11-24 20:01:08.931,9.085547,-3.8763726,0.6987042,-0.70333445,1.6610177,1.0199151,-43.5,23.925001,-2.5500002,-0.6711498,-0.21339616,-0.12097809,999.39667, , , , 
2025-11-24 20:01:08.952,9.781859,-3.591627,1.4452649,-0.70211273,1.3775765,0.771904,-41.568752,22.518751,-3.45,-0.6765196,-0.19308032,-0.12904394,999.38666, , , , 
2025-11-24 20:01:08.972,10.092926,-3.591627,1.6701902,-0.6868411,1.1387283,0.5067887,-41.025,25.706251,-6.7875004,-0.6801351,-0.18053807,-0.13554299,999.38666, , , , 
2025-11-24 20:01:08.991,10.229317,-3.751946,1.8520447,-0.71677345,1.0538181,0.39011353,-41.025,25.706251,-6.4687505,-0.68183875,-0.17543502,-0.13894148,999.39105, , , , 
2025-11-24 20:01:09.012,11.126625,-4.101298,3.7016966,-0.68439764,0.7422771,0.09628756,-40.612503,26.250002,-6.8625,-0.6868876,-0.16385578,-0.14951909,999.39105, , , , 
2025-11-24 20:01:09.031,11.822937,-4.398008,4.2041893,-0.5683333,0.6408735,-0.03810269,-41.9625,26.118752,-6.7125,-0.6887179,-0.16022903,-0.15474556,999.3962, , , , 
2025-11-24 20:01:09.051,12.346965,-4.8622155,4.8358946,-0.21769693,0.41424268,-0.39729118,-40.66875,26.00625,-7.2937503,-0.6892453,-0.1584221,-0.16223006,999.3962,37.88752672,127.74027096,143.3837890625,1.04
2025-11-24 20:01:09.071,12.49532,-6.195018,3.7471602,0.15737404,0.0074067353,-0.7583123,-39.5625,25.612501,-7.8562503,-0.6871991,-0.16161245,-0.16943511,999.4018, , , , 
2025-11-24 20:01:09.092,12.9021,-7.9298143,2.737389,0.302149,-0.2277762,-1.0356449,-42.956253,24.88125,-6.525,-0.68169934,-0.17382233,-0.17882557,999.4018, , , , 
2025-11-24 20:01:09.112,13.30888,-8.95155,2.7278178,0.31009024,-0.20273075,-1.3484076,-43.237503,23.493752,-6.43125,-0.6773122,-0.18448205,-0.18579851,999.40204, , , , 
2025-11-24 20:01:09.131,13.043276,-9.413364,2.9910283,0.32536185,-0.1514181,-1.5506039,-43.93125,22.29375,-5.0437503,-0.6735145,-0.19349153,-0.19245575,999.40204, , , , 
2025-11-24 20:01:09.151,12.849458,-10.243673,3.17049,0.37423104,-0.09338595,-1.7277547,-42.2625,23.212502,-6.20625,-0.67061424,-0.19989477,-0.19762552,999.40814, , , , 
2025-11-24 20:01:09.171,11.834901,-11.916257,3.17049,0.57520556,0.10636683,-1.8951316,-45.1875,20.41875,-5.4187503,-0.65962285,-0.21984926,-0.21547788,999.40814, , , , 
2025-11-24 20:01:09.191,10.777273,-12.344572,3.196811,0.88002706,0.19677481,-1.8633666,-44.268753,18.91875,-8.83125,-0.6475057,-0.23549342,-0.23100406,999.4296, , , , 
2025-11-24 20:01:09.211,9.071191,-11.641082,2.9383862,1.1720204,0.12408191,-1.7479132,-44.23125,17.04375,-7.5000005,-0.6358319,-0.2477061,-0.24215691,999.4296, , , , 
2025-11-24 20:01:09.231,7.5732837,-9.987641,2.900101,1.4163663,-0.09460768,-1.586034,-46.162502,14.7375,-7.3125005,-0.6229102,-0.2603214,-0.25061458,999.44086, , , , 
2025-11-24 20:01:09.252,6.7166533,-8.059027,2.5579274,1.6912555,-0.4776199,-1.4363722,-45.7125,12.656251,-6.61875,-0.6055842,-0.27816832,-0.2559802,999.44086, , , , 
2025-11-24 20:01:09.272,7.0205417,-8.02792,2.3808584,1.7853286,-0.58574295,-1.4534764,-47.2125,12.50625,-5.8500004,-0.5983582,-0.28608423,-0.25696427,999.4528, , , , 
2025-11-24 20:01:09.291,7.070791,-8.575876,1.3375878,1.8800128,-0.71585715,-1.5921427,-48.037502,9.806251,-6.675,-0.579316,-0.30748153,-0.25853172,999.4528, , , , 
2025-11-24 20:01:09.311,6.300302,-9.068798,-0.02632105,1.7694461,-0.9534836,-1.6617813,-47.831253,7.9687505,-7.0687504,-0.5637733,-0.32617682,-0.25932914,999.45624, , , , 
2025-11-24 20:01:09.331,5.845666,-9.052048,-0.4881358,1.4102577,-1.181947,-1.6819398,-47.8125,5.8500004,-7.1062503,-0.5469817,-0.3512743,-0.25906053,999.45624, , , , 
2025-11-24 20:01:09.351,6.068198,-8.82473,0.65084773,0.9893719,-1.3658173,-1.640401,-47.025,4.8,-5.7375,-0.53416693,-0.37632158,-0.2587448,999.45526, , , , 
2025-11-24 20:01:09.372,6.276374,-8.051848,1.7204394,0.853149,-1.3291655,-1.7405828,-46.95,2.9437501,-6.0937505,-0.5276593,-0.39108983,-0.25902504,999.45526, , , , 
2025-11-24 20:01:09.392,6.15434,-7.7216387,1.8281165,0.7932843,-1.2008837,-1.8658102,-48.675003,0.50625,-2.3812501,-0.5209225,-0.4056724,-0.2603226,999.45135, , , , 
2025-11-24 20:01:09.411,5.0129633,-7.3292155,1.0624132,0.5605448,-0.78244144,-1.9751549,-46.256252,-2.8500001,-3.2062502,-0.50891364,-0.4282405,-0.2656036,999.45135, , , , 
2025-11-24 20:01:09.431,3.7304106,-7.190432,-0.12921242,0.23861906,-0.44524407,-1.8829143,-47.9625,-3.05625,-0.09375,-0.49973568,-0.44295746,-0.27281997,999.43524, , , , 
2025-11-24 20:01:09.451,3.3834512,-6.977471,-0.20817557,-0.29833108,-0.024358233,-1.6550617,-48.862503,-7.5000005,0.26250002,-0.4915515,-0.45583457,-0.2846124,999.43524, , , , 
2025-11-24 20:01:09.472,3.2327034,-6.8075805,0.8111669,-0.46326458,0.3165043,-1.5634321,-47.175003,-6.3375,0.46875003,-0.4872177,-0.46120408,-0.29658967,999.42255, , , , 
2025-11-24 20:01:09.491,2.5866413,-6.778867,1.3710874,-0.38385215,0.6304888,-1.44187,-48.281254,-7.4437504,0.80625004,-0.48262265,-0.4632816,-0.30991742,999.42255, , , , 
2025-11-24 20:01:09.511,1.9118652,-6.812366,1.146162,-0.14561489,0.6940187,-1.256167,-48.0,-11.15625,0.99375004,-0.47548056,-0.46363613,-0.32559273,999.42523, , , , 
2025-11-24 20:01:09.531,1.68694,-6.795616,0.91166544,0.01809687,0.6414844,-1.0985639,-47.025,-10.89375,-2.0625,-0.47072977,-0.4636197,-0.33332312,999.42523, , , , 
2025-11-24 20:01:09.551,1.8233309,-7.0899334,0.35413775,0.23984079,0.52297664,-0.8413899,-48.05625,-11.625,-2.2125,-0.4643268,-0.46375218,-0.34114075,999.4179, , , , 
2025-11-24 20:01:09.572,2.0841484,-7.5589266,-0.6771688,0.34613127,0.28779367,-0.5103012,-45.5625,-12.712501,-6.43125,-0.45709574,-0.46443632,-0.34668335,999.4179, , , , 
2025-11-24 20:01:09.592,2.6679974,-8.092526,-1.012164,0.3210858,0.066049755,-0.2702313,-47.193752,-11.775001,-2.7562501,-0.4533733,-0.46538317,-0.34770924,999.4162, , , , 
2025-11-24 20:01:09.611,3.0532417,-8.597412,-1.6797615,0.24167338,-0.11537708,0.021151192,-46.893753,-13.9875,-3.7500002,-0.45207983,-0.46656668,-0.34604093,999.4162, , , , 
2025-11-24 20:01:09.631,3.5294135,-9.367901,-2.160719,0.039477136,-0.21555892,0.3888918,-44.775,-12.900001,-3.2625,-0.45310876,-0.46682614,-0.3431941,999.4074, , , , 
2025-11-24 20:01:09.652,4.26401,-9.169296,-1.8329022,-0.27633995,-0.19051345,0.86536634,-46.29375,-12.431251,-3.1312501,-0.45973393,-0.46429396,-0.33597597,999.4074, , , , 
2025-11-24 20:01:09.671,4.9722853,-8.944371,-1.2011969,-0.5493965,-0.08055779,1.2636502,-44.98125,-12.656251,-5.1000004,-0.46868807,-0.45881742,-0.32899946,999.40717, , , , 
2025-11-24 20:01:09.692,5.453243,-9.135797,-1.0504491,-0.61964595,-0.038408123,1.3754385,-47.193752,-11.26875,-5.5687504,-0.47408175,-0.45495182,-0.32525727,999.40717, , , , 
2025-11-24 20:01:09.711,6.843473,-10.392029,-0.9451649,-0.8872047,0.16073379,1.7932699,-47.756252,-9.46875,-2.53125,-0.49291715,-0.43920532,-0.31320122,999.41034, , , , 
2025-11-24 20:01:09.731,7.2957163,-10.427921,-0.4953143,-1.0209842,0.13568833,2.0889285,-46.725002,-7.4812503,-5.0625,-0.51526594,-0.4182447,-0.29950118,999.41034, , , , 
2025-11-24 20:01:09.752,7.5900335,-10.51167,-0.4354937,-1.0570252,0.021456625,2.2104905,-47.4,-6.3187504,-3.35625,-0.52338225,-0.41076308,-0.2941357,999.414, , , , 
2025-11-24 20:01:09.771,7.6019974,-9.195618,0.07178468,-1.1327723,-0.26137376,2.3522112,-47.86875,-2.775,-2.2687502,-0.5448107,-0.39242503,-0.27871776,999.414, , , , 
2025-11-24 20:01:09.793,7.63789,-8.563912,0.19621146,-1.211574,-0.33467755,2.3772566,-49.65,-1.575,-3.6937501,-0.5581989,-0.3818764,-0.26854715,999.4135, , , , 
2025-11-24 20:01:09.812,8.396415,-9.401401,1.7802601,-1.2592214,-0.5289325,2.3693154,-50.2125,2.34375,-2.325,-0.58542424,-0.3605489,-0.24828961,999.4135, , , , 
2025-11-24 20:01:09.831,8.908479,-9.970892,2.7110682,-1.0228167,-0.8587995,2.4279585,-50.325,3.3187501,-1.125,-0.5984822,-0.35117462,-0.23651412,999.4167, , , , 
2025-11-24 20:01:09.852,10.30828,-10.195817,3.5365918,-0.44493863,-1.3016765,2.6118288,-48.693752,6.3375,-0.69375,-0.6141654,-0.34116402,-0.21664028,999.4167, , , , 
2025-11-24 20:01:09.872,12.586247,-9.056833,2.8809586,0.1909716,-1.3920845,2.642372,-47.15625,9.6,-0.58125,-0.6291072,-0.33182353,-0.18577203,999.4213, , , , 
2025-11-24 20:01:09.892,13.464413,-7.9154572,2.0554347,0.2966512,-1.0982585,2.4334562,-47.362503,10.06875,-0.28125,-0.6353095,-0.32697773,-0.16690205,999.4213, , , , 
2025-11-24 20:01:09.912,13.318451,-6.1232333,1.7611175,0.16775873,-0.32979062,1.9637012,-46.29375,13.1625,-0.112500004,-0.6412546,-0.31969717,-0.14666685,999.4194, , , , 
2025-11-24 20:01:09.931,11.200803,-4.666004,1.8711873,-0.029550584,0.8070287,1.3962078,-47.04375,15.543751,3.54375,-0.64595145,-0.30674058,-0.1341384,999.4194, , , , 
2025-11-24 20:01:09.952,9.119047,-4.106084,1.4787644,-0.13950625,1.497306,1.1842377,-44.756252,15.69375,-0.112500004,-0.64854836,-0.28832182,-0.1337276,999.41327, , , , 
2025-11-24 20:01:09.972,8.396415,-3.7758741,0.9523434,-0.19998185,1.6842306,1.1732422,-45.61875,18.09375,0.61875004,-0.6493664,-0.27965748,-0.13538915,999.41327, , , , 
2025-11-24 20:01:09.991,8.063812,-3.1250265,0.74177504,-0.44249517,1.65552,1.128649,-45.15,18.018751,-1.5937501,-0.65275484,-0.2517563,-0.14233665,999.41376, , , , 
2025-11-24 20:01:10.011,8.391629,-2.7278178,0.9595219,-0.49319696,1.3989567,0.96493727,-43.66875,20.175001,-2.6437502,-0.6558031,-0.23440409,-0.14700335,999.41376, , , , 
2025-11-24 20:01:10.031,8.532805,-3.0987053,0.7537391,-0.5756637,1.0538181,0.7370847,-44.2125,20.1375,-5.5125003,-0.65975595,-0.216895,-0.1524081,999.4213, , , , 
2025-11-24 20:01:10.051,8.46102,-3.3930225,1.0624132,-0.633085,0.7887028,0.6460659,-42.487503,20.7,-5.71875,-0.66253453,-0.20881541,-0.15512352,999.4213,37.88751767,127.74027728,143.2630615234375,1.09
2025-11-24 20:01:10.071,8.628518,-3.7304106,1.875973,-0.61659163,0.45211628,0.6662244,-42.6375,22.181252,-5.9437504,-0.6666758,-0.2002948,-0.15716521,999.4233, , , , 
2025-11-24 20:01:10.092,9.415757,-4.0773697,2.3425734,-0.52068585,0.25053093,0.73341954,-42.956253,23.5125,-5.83125,-0.6697512,-0.19510087,-0.15708771,999.4233, , , , 
2025-11-24 20:01:10.111,11.954542,-4.847859,2.778067,-0.22075126,-0.08605558,0.7547998,-42.5625,24.7875,-5.025,-0.6738082,-0.18847123,-0.15424158,999.42596, , , , 
2025-11-24 20:01:10.131,13.615161,-5.2689953,2.656033,0.041920595,-0.36277732,0.6417898,-41.41875,25.1625,-6.8625,-0.6754324,-0.18607612,-0.15012485,999.42596, , , , 
2025-11-24 20:01:10.151,16.362122,-6.5204415,2.321038,0.27160576,-0.5655844,0.18486296,-43.3875,25.181252,-3.1125002,-0.6751577,-0.18792896,-0.14418891,999.41815, , , , 
2025-11-24 20:01:10.171,16.924435,-7.082755,2.2157538,0.37239844,-0.580856,-0.40339983,-43.125,24.975,-4.2000003,-0.6728979,-0.1942201,-0.1421791,999.41815, , , , 
2025-11-24 20:01:10.192,15.8715925,-7.5326056,1.8089739,0.3937787,-0.48189595,-1.0105994,-41.943752,24.225,-5.0625,-0.6699177,-0.20187695,-0.14371637,999.41254, , , , 
2025-11-24 20:01:10.211,14.239688,-8.987442,1.4380864,0.28565565,-0.25098908,-1.5585451,-43.068752,23.85,-3.05625,-0.66353345,-0.21776433,-0.15232794,999.41254, , , , 
2025-11-24 20:01:10.232,11.952149,-10.114461,1.7682959,0.18547381,0.05688678,-1.7882303,-44.41875,22.21875,-3.6000001,-0.656524,-0.23386264,-0.16664277,999.4157, , , , 
2025-11-24 20:01:10.251,10.949556,-10.076176,2.1391835,0.23678645,0.17172936,-1.7821217,-45.75,19.96875,-3.16875,-0.65350217,-0.23966971,-0.17315866,999.4157, , , , 
2025-11-24 20:01:10.271,9.954143,-10.2317095,2.0793629,0.4579195,0.22182028,-1.7265329,-44.98125,18.675001,-3.4875002,-0.6446188,-0.25287485,-0.18937308,999.41693, , , , 
2025-11-24 20:01:10.291,9.02812,-9.702896,1.9118652,0.63629204,0.062384564,-1.6843833,-44.5125,17.25,-4.8562503,-0.6340089,-0.26604968,-0.20379187,999.41693, , , , 
2025-11-24 20:01:10.312,8.439486,-8.997013,2.036292,0.75113463,-0.13675736,-1.6715552,-44.925003,15.95625,-4.5750003,-0.627122,-0.27484694,-0.2109707,999.4255, , , , 
2025-11-24 20:01:10.331,8.118847,-8.427522,2.07697,0.92950714,-0.4757873,-1.7057636,-45.393753,15.056251,-5.86875,-0.61733556,-0.28843024,-0.21854144,999.4255, , , , 
2025-11-24 20:01:10.352,8.305488,-8.896515,1.4955142,1.0022,-0.7311288,-1.8627558,-44.568752,13.275001,-6.4687505,-0.6041958,-0.30874756,-0.22559851,999.42645, , , , 
2025-11-24 20:01:10.372,8.157132,-9.432507,0.9092726,0.9594395,-0.78732836,-1.9623268,-48.506252,9.8625,-4.1625004,-0.59606427,-0.32228965,-0.22959974,999.42645, , , , 
2025-11-24 20:01:10.391,7.123433,-9.877572,0.25842485,0.7267,-0.9852485,-2.0753367,-47.15625,9.262501,-5.1937504,-0.58317864,-0.34603179,-0.23667388,999.4267, , , , 
2025-11-24 20:01:10.411,5.9964137,-9.729217,0.4019942,0.5275581,-1.1764492,-2.019748,-45.46875,6.7125,-5.8500004,-0.574478,-0.36572608,-0.24178652,999.4267, , , , 
2025-11-24 20:01:10.431,5.501099,-9.025727,0.91166544,0.3662898,-1.3835324,-1.8309908,-49.500004,1.6500001,-0.65625,-0.56598926,-0.3902651,-0.24628824,999.434, , , , 
2025-11-24 20:01:10.451,5.802595,-8.200203,1.0073783,0.25450155,-1.3426044,-1.7729586,-49.48125,3.2625,0.63750005,-0.5604635,-0.4092808,-0.24864532,999.434, , , , 
2025-11-24 20:01:10.472,7.578069,-6.9320073,0.68195444,0.15370885,-1.2308161,-1.9055163,-50.775,2.0062501,1.1437501,-0.55651224,-0.4228756,-0.2509958,999.4401, , , , 
2025-11-24 20:01:10.492,4.895715,-7.6977105,1.2394822,-0.11323906,-0.70547247,-1.9678246,-48.487503,-2.5125,3.1875002,-0.5489116,-0.44393235,-0.25944492,999.4401, , , , 
2025-11-24 20:01:10.511,3.6323047,-7.597212,1.4356936,-0.11262819,-0.42019862,-1.8792491,-50.04375,-3.54375,4.4812503,-0.5445169,-0.4538614,-0.26608038,999.4506, , , , 
2025-11-24 20:01:10.531,2.87378,-7.7216387,1.6917256,-0.072921984,-0.21555892,-1.6336815,-48.54375,-5.7375,2.7562501,-0.53849876,-0.46444604,-0.27526203,999.4506, , , , 
2025-11-24 20:01:10.551,2.3904297,-7.5469627,1.835295,0.076739885,-0.018249584,-1.3447424,-48.487503,-6.2250004,1.5375,-0.53251076,-0.47239172,-0.2833394,999.45526, , , , 
2025-11-24 20:01:10.571,2.0745773,-7.5661054,1.8400806,0.3265836,0.3287216,-0.99777126,-47.8875,-7.425,3.54375,-0.524404,-0.47873726,-0.29142442,999.45526, , , , 
2025-11-24 20:01:10.592,1.8281165,-7.32443,1.0336994,0.55504704,0.53763735,-0.6752347,-48.15,-8.8125,3.35625,-0.51517045,-0.4812167,-0.297398,999.4609, , , , 
2025-11-24 20:01:10.612,1.8233309,-7.2215385,0.22492532,0.6155226,0.5309178,-0.50358164,-48.6375,-8.25,3.525,-0.509563,-0.4816244,-0.2996289,999.4609, , , , 
2025-11-24 20:01:10.631,2.251646,-7.300502,-0.70588267,0.5971967,0.34582582,-0.23907721,-48.61875,-9.618751,3.9,-0.50015396,-0.4816426,-0.3009354,999.44354, , , , 
2025-11-24 20:01:10.651,2.3928227,-7.396215,-0.9499506,0.58375764,0.2474766,-0.15783219,-46.143753,-8.3625,2.34375,-0.49777064,-0.4817061,-0.30042565,999.44354, , , , 
2025-11-24 20:01:10.671,2.9718857,-8.252846,-1.9573289,0.5159517,-0.09033163,0.02481638,-49.93125,-10.25625,4.70625,-0.49358505,-0.48261616,-0.29703525,999.4384, , , , 
2025-11-24 20:01:10.692,3.0723844,-8.664411,-2.292324,0.4560869,-0.19540037,0.1042288,-48.412502,-10.087501,2.98125,-0.49274313,-0.483315,-0.2948674,999.4384, , , , 
2025-11-24 20:01:10.711,3.1441689,-9.186047,-3.0388846,0.16348268,-0.5490911,0.5183951,-49.162502,-10.1625,3.075,-0.49416772,-0.4853242,-0.28570828,999.43304, , , , 
2025-11-24 20:01:10.731,3.6753755,-9.296116,-3.1202407,-0.019776747,-0.75128734,0.7230348,-48.862503,-9.39375,3.15,-0.49794525,-0.48600987,-0.2792619,999.43304, , , , 
2025-11-24 20:01:10.752,5.515456,-9.647861,-2.321038,-0.26229006,-1.2161554,1.137812,-47.25,-7.74375,5.5125003,-0.5118461,-0.4872896,-0.262195,999.4289, , , , 
2025-11-24 20:01:10.771,6.431907,-9.894321,-2.1487548,-0.23663375,-1.3328305,1.2538763,-48.393753,-6.99375,4.8187504,-0.5204378,-0.48799723,-0.2517638,999.4289, , , , 
2025-11-24 20:01:10.791,7.594819,-11.267802,-2.993421,-0.24457498,-1.1245257,1.4420227,-47.362503,-4.55625,7.9687505,-0.53495324,-0.48849267,-0.23286901,999.43695, , , , 
2025-11-24 20:01:10.812,7.4919276,-11.653047,-3.3044882,-0.36125016,-0.8875102,1.6130648,-47.9625,-6.20625,5.8125,-0.54402953,-0.48677585,-0.2217821,999.43695, , , , 
2025-11-24 20:01:10.832,6.489335,-10.547563,-2.2971098,-0.78519034,-0.25159994,2.276464,-48.825,-3.7125,8.681251,-0.56178045,-0.47723234,-0.20469546,999.4484, , , , 
2025-11-24 20:01:10.852,6.812366,-8.970692,-0.5599205,-0.9415717,0.15584688,2.7291148,-48.506252,-2.1750002,8.56875,-0.57905245,-0.46221676,-0.19182819,999.4484, , , , 
2025-11-24 20:01:10.872,8.676374,-7.8221374,1.1509477,-0.8444442,0.5193114,2.9252024,-48.693752,1.2750001,8.85,-0.59688073,-0.44188857,-0.17953351,999.4565, , , , 
2025-11-24 20:01:10.892,9.578469,-7.8029947,1.4859428,-0.70211273,0.6408735,2.8299074,-47.456253,3.0187502,8.475,-0.6050253,-0.43089664,-0.1737275,999.4565, , , , 
2025-11-24 20:01:10.911,9.992428,-8.815159,0.9164511,-0.045433067,0.84978926,2.3564873,-48.600002,6.76875,8.53125,-0.62519026,-0.39349958,-0.15644324,999.45624, , , , 
2025-11-24 20:01:10.932,9.427721,-9.492328,-0.50009996,0.0816268,0.79908746,2.2605815,-49.275,6.8437505,5.1937504,-0.63036686,-0.378981,-0.1493376,999.45624, , , , 
2025-11-24 20:01:10.951,9.174082,-9.525827,-1.3567305,-0.13217586,0.6268236,2.0724351,-45.693752,12.187501,5.1375003,-0.6400634,-0.3525069,-0.13502134,999.455, , , , 
2025-11-24 20:01:10.971,8.908479,-8.776874,-0.6556334,-0.3068832,0.55474156,2.0889285,-47.7,13.743751,3.7125,-0.6456816,-0.33987013,-0.12833692,999.455, , , , 
2025-11-24 20:01:10.991,8.882157,-7.501499,0.40917268,-0.42233664,0.5767327,1.9343797,-46.800003,15.31875,3.99375,-0.65561026,-0.31912512,-0.11801815,999.46185, , , , 
2025-11-24 20:01:11.011,8.228917,-6.3888364,1.1676974,-0.44310603,0.75449437,1.6882012,-45.112503,17.00625,2.025,-0.6628353,-0.30318314,-0.112059504,999.46185, , , , 
2025-11-24 20:01:11.031,7.183254,-5.639883,1.3064811,-0.41806057,1.0544289,1.6008475,-44.287502,18.956251,2.4375,-0.67038107,-0.2827742,-0.1080252,999.4687, , , , 
2025-11-24 20:01:11.053,6.987042,-5.2163534,1.2107682,-0.41317368,1.2273037,1.598404,-42.75,20.737501,1.8750001,-0.6743835,-0.26935595,-0.10701693,999.4687,37.88750889,127.74028218,143.3966064453125,1.0
2025-11-24 20:01:11.072,6.884151,-4.319045,1.3974084,-0.29588762,1.1295654,1.5910736,-43.85625,21.225,3.6562502,-0.67917585,-0.2509236,-0.1062182,999.46967, , , , 
2025-11-24 20:01:11.091,7.4153576,-3.4504502,1.0480564,-0.053985175,0.7893137,1.5330415,-43.48125,22.78125,0.28125,-0.6835114,-0.23014115,-0.103164814,999.46967, , , , 
2025-11-24 20:01:11.111,7.958528,-3.1609187,0.5910272,0.064522594,0.58956087,1.4719551,-41.943752,23.831251,-1.0125,-0.68462217,-0.22309919,-0.10105346,999.4753, , , , 
2025-11-24 20:01:11.131,9.315259,-3.1393833,0.0023928226,0.07735075,0.29512405,1.1726313,-42.0,26.437502,-0.84375006,-0.68665564,-0.20644046,-0.09342119,999.4753, , , , 
2025-11-24 20:01:11.151,9.822537,-3.4121652,0.09810573,0.028481571,0.24869832,1.0223585,-42.581253,26.493752,-0.16875,-0.68752784,-0.20037463,-0.090086,999.4731, , , , 
2025-11-24 20:01:11.171,10.817951,-4.290331,0.22253251,-0.09491312,0.26335907,0.76823884,-42.525,26.737501,-0.1875,-0.6887343,-0.19379656,-0.087065786,999.4731, , , , 
2025-11-24 20:01:11.191,11.976077,-5.508278,0.3397808,-0.29344416,0.2694677,0.43653923,-41.287502,28.500002,-1.35,-0.6907572,-0.18776552,-0.08628013,999.4714, , , , 
2025-11-24 20:01:11.211,12.674782,-6.3960147,0.5910272,-0.416228,0.2627482,0.2202931,-39.206253,27.73125,-2.9250002,-0.69182926,-0.18623084,-0.08708058,999.4714, , , , 
2025-11-24 20:01:11.232,13.452449,-8.243274,1.7371893,-0.5530617,0.27068946,-0.19142975,-39.018753,28.85625,-0.675,-0.69496,-0.18480168,-0.09208749,999.4621, , , , 
2025-11-24 20:01:11.251,13.816158,-9.178867,2.4861426,-0.4492147,0.27618724,-0.49869475,-39.05625,27.862501,-2.1750002,-0.69724804,-0.18627633,-0.10033203,999.4621, , , , 
2025-11-24 20:01:11.271,13.653446,-9.602397,2.6249263,-0.28733552,0.22792892,-0.84872025,-39.6375,26.325,-3.0937502,-0.69738865,-0.18977682,-0.108827464,999.4638, , , , 
2025-11-24 20:01:11.291,13.406985,-10.444671,2.4717858,-0.07353285,0.100869045,-1.3343577,-40.36875,26.250002,-4.1062503,-0.6957246,-0.19651265,-0.11882425,999.4638, , , , 
2025-11-24 20:01:11.312,11.966506,-11.119447,1.835295,0.13782637,0.020845762,-1.6642247,-41.2125,25.25625,-0.09375,-0.6908559,-0.20966128,-0.1331918,999.46625, , , , 
2025-11-24 20:01:11.332,11.253445,-11.109876,1.3950156,0.2618319,0.0025198173,-1.7247003,-40.818752,25.687502,-1.85625,-0.68680507,-0.21873036,-0.14203414,999.46625, , , , 
2025-11-24 20:01:11.351,10.107283,-10.320244,1.0025927,0.45853037,-0.13187043,-1.7863977,-42.75,21.88125,-1.5937501,-0.67858726,-0.23479737,-0.1560711,999.47284, , , , 
2025-11-24 20:01:11.371,9.109476,-9.119047,0.9164511,0.5916989,-0.36766425,-1.8175519,-41.568752,21.88125,-2.9625,-0.67098296,-0.24917403,-0.16570808,999.47284, , , , 
2025-11-24 20:01:11.391,8.71466,-7.865208,0.8781659,0.8213841,-0.761672,-1.9733223,-44.1375,17.8875,-2.4562502,-0.6602613,-0.270264,-0.17511609,999.4731, , , , 
2025-11-24 20:01:11.411,8.678768,-7.879565,0.53359944,0.8904118,-0.8783472,-2.0759475,-44.175003,16.893751,-3.3187501,-0.65540797,-0.27995294,-0.17826732,999.4731, , , , 
2025-11-24 20:01:11.432,8.537591,-8.56152,-0.44745782,0.91728985,-1.0958151,-2.4687335,-48.037502,14.7375,0.3,-0.64200026,-0.30731857,-0.18585813,999.4655, , , , 
2025-11-24 20:01:11.451,7.716853,-9.554541,-0.95712906,0.7920625,-1.281518,-2.7362924,-45.956253,12.69375,0.50625,-0.6275083,-0.33842698,-0.19452599,999.4655, , , , 
2025-11-24 20:01:11.472,6.3888364,-9.174082,-0.2943172,0.6937133,-1.480049,-2.5805218,-48.15,9.975,1.81875,-0.6161398,-0.36456063,-0.20123512,999.4604, , , , 
2025-11-24 20:01:11.491,6.161518,-10.329815,-0.4546363,0.5929206,-1.4330124,-2.4601815,-47.5875,7.0312505,3.15,-0.6060276,-0.3901107,-0.20545647,999.4604, , , , 
2025-11-24 20:01:11.512,5.197211,-9.276974,0.16749759,0.4334849,-1.313283,-2.209727,-48.16875,5.6062503,3.3000002,-0.5965121,-0.41330397,-0.20967935,999.467, , , , 
2025-11-24 20:01:11.531,4.847859,-8.4705925,0.94277215,0.35651594,-1.1330779,-2.002033,-47.30625,3.5625002,5.49375,-0.58805877,-0.4336732,-0.21357223,999.467, , , , 
2025-11-24 20:01:11.552,4.792824,-8.130812,1.2155539,0.35162905,-0.9895246,-1.9122359,-46.518753,2.2875001,4.3875003,-0.58399457,-0.44281122,-0.21553609,999.46625, , , , 
2025-11-24 20:01:11.572,4.5726843,-7.405786,1.038485,0.39133525,-0.48678288,-1.7521893,-48.3375,0.075,7.9500003,-0.5712152,-0.46567106,-0.22262791,999.46625, , , , 
2025-11-24 20:01:11.592,4.601398,-6.9128647,-0.20338993,0.4096612,0.051999863,-1.6837724,-47.2125,-0.91875005,7.89375,-0.5592107,-0.4795733,-0.23103562,999.4643, , , , 
2025-11-24 20:01:11.613,4.505685,-6.6975107,-0.9595219,0.3662898,0.24808747,-1.6886593,-48.093754,-3.8812501,7.5375004,-0.55154765,-0.48599574,-0.23748374,999.4643, , , , 
2025-11-24 20:01:11.631,3.9984066,-6.439086,-2.062613,0.19830199,0.30428702,-1.7228677,-47.193752,-4.40625,7.7812505,-0.53888756,-0.49534625,-0.24969687,999.45526, , , , 
2025-11-24 20:01:11.651,3.1154552,-6.5228343,-2.3521447,-0.2079231,0.24258968,-1.6849941,-47.193752,-6.7500005,6.3750005,-0.5283123,-0.5040095,-0.26333156,999.45526, , , , 
2025-11-24 20:01:11.671,2.6919255,-6.8458657,-1.6175481,-0.49319696,0.16317725,-1.5695407,-47.8125,-9.056251,6.7312503,-0.52388114,-0.50840455,-0.2720965,999.4526, , , , 
2025-11-24 20:01:11.692,2.4837499,-7.109076,-1.012164,-0.60070914,0.124692775,-1.4882957,-46.65,-9.056251,6.4500003,-0.5217527,-0.5109594,-0.27794772,999.4526, , , , 
2025-11-24 20:01:11.711,1.9788643,-8.063812,0.7800602,-0.58543754,-0.0072540194,-1.0991749,-45.787502,-11.231251,7.8750005,-0.5181641,-0.5166959,-0.2938612,999.44476, , , , 
2025-11-24 20:01:11.732,2.0793629,-8.652447,1.0767702,-0.42905614,-0.09155336,-0.8395573,-46.631252,-11.8125,7.36875,-0.51730406,-0.51882493,-0.29954746,999.44476, , , , 
2025-11-24 20:01:11.753,2.507678,-9.9756775,0.4881358,-0.108963005,-0.13125958,-0.23846634,-47.0625,-12.468751,7.7625003,-0.5168734,-0.5218047,-0.30454683,999.45306, , , , 
2025-11-24 20:01:11.772,2.8881369,-10.597812,-0.15553348,-0.014889829,-0.026190827,0.2239583,-47.0625,-12.468751,7.7625003,-0.518131,-0.5214381,-0.30340216,999.45306, , , , 
2025-11-24 20:01:11.791,3.237489,-10.526027,-0.5240282,0.05108357,0.14179699,0.97898716,-46.18125,-13.25625,6.9375005,-0.5226132,-0.5161626,-0.2975966,999.4462, , , , 
2025-11-24 20:01:11.812,4.098905,-10.521241,-0.7106683,0.08223767,0.20593779,1.3931534,-46.48125,-14.025001,6.4125004,-0.5270444,-0.51036954,-0.2917186,999.4462, , , , 
2025-11-24 20:01:11.832,5.9270215,-11.004591,-0.9236295,0.17264566,0.3024544,1.8952843,-48.0,-9.20625,6.6000004,-0.53645575,-0.4972587,-0.27866527,999.44696, , , , 
2025-11-24 20:01:11.851,6.707082,-11.408978,-1.294517,0.25755587,0.36659524,2.1164174,-46.65,-9.075001,6.7500005,-0.5446316,-0.48464355,-0.26612055,999.44696, , , , 
2025-11-24 20:01:11.872,6.91765,-11.614761,-1.8281165,0.25450155,0.4050797,2.2868485,-46.275,-7.2937503,6.3,-0.55299985,-0.47057945,-0.2522529,999.44037, , , , 
2025-11-24 20:01:11.891,6.4677997,-11.224731,-2.065006,0.17447825,0.41118836,2.4230716,-48.2625,-4.7625003,6.8437505,-0.5574825,-0.46299317,-0.24496129,999.44037, , , , 
2025-11-24 20:01:11.912,5.1876397,-9.434899,-1.2394822,-0.0674242,0.38492116,2.8286858,-48.225002,-1.9875001,2.49375,-0.5706872,-0.44182545,-0.2257574,999.4357, , , , 
2025-11-24 20:01:11.931,6.0418773,-8.657232,0.45942193,-0.008170316,0.30001098,3.1719918,-48.393753,0.975,4.3500004,-0.5864294,-0.4174272,-0.20404348,999.4357, , , , 
2025-11-24 20:01:11.952,7.30768,-8.815159,0.66041905,0.23373213,0.22609633,3.2733953,-48.881252,2.79375,3.075,-0.5982004,-0.39690807,-0.18415359,999.4367, , , , 
2025-11-24 20:01:11.971,8.755338,-9.276974,-0.019142581,0.5617665,0.11491894,3.220861,-47.775,9.0,3.525,-0.6097783,-0.3721172,-0.156801,999.4367, , , , 
2025-11-24 20:01:11.993,9.590433,-9.556933,-0.552742,0.6118574,0.10453424,3.193372,-47.193752,9.806251,3.8812501,-0.61350894,-0.36266807,-0.14552073,999.434, , , , 
2025-11-24 20:01:12.011,11.129018,-8.853444,-0.80877405,0.60086185,-0.023136504,3.0571492,-47.625,12.8625,5.30625,-0.6230624,-0.33526435,-0.11182813,999.434, , , , 
2025-11-24 20:01:12.032,12.4115715,-7.487142,-0.72741807,0.5587122,-0.10315979,2.7486625,-44.49375,15.712501,1.25625,-0.6282433,-0.31913412,-0.090354666,999.4328, , , , 
2025-11-24 20:01:12.051,12.725031,-6.613762,-0.8039884,0.46586075,-0.065286174,2.3998587,-44.943752,19.5,4.18125,-0.6303183,-0.31217664,-0.08078326,999.4328,37.88750038,127.74028901,143.46734619140625,1.08
2025-11-24 20:01:12.071,11.815758,-5.4460645,-0.49292147,0.1512654,0.44295332,1.5067743,-43.875,21.225,4.74375,-0.63500315,-0.29480428,-0.061027035,999.4218, , , , 
2025-11-24 20:01:12.092,10.100104,-5.163711,-0.5982057,-0.11568252,1.2218059,1.1396446,-41.60625,22.837502,2.1000001,-0.6381967,-0.27997273,-0.05632434,999.4218, , , , 
2025-11-24 20:01:12.112,9.568898,-5.103891,-0.7920243,-0.2702313,1.6121485,1.0736712,-44.662502,23.53125,0.675,-0.6404828,-0.2686106,-0.057931438,999.4157, , , , 
2025-11-24 20:01:12.132,9.176475,-4.644469,-0.36610186,-0.4785362,1.9841652,0.96738076,-42.99375,25.087502,-0.975,-0.64436287,-0.25050834,-0.06397969,999.4157, , , , 
2025-11-24 20:01:12.152,9.162118,-4.273581,-0.19381863,-0.50358164,1.8430554,0.8073342,-42.43125,24.281252,-0.99375004,-0.6483716,-0.23181972,-0.072118774,999.4194, , , , 
2025-11-24 20:01:12.173,9.21476,-4.031906,-0.25603202,-0.5567269,1.3036618,0.496404,-41.643753,24.993752,-4.2000003,-0.65287924,-0.21271619,-0.08190109,999.4194, , , , 
2025-11-24 20:01:12.192,9.288938,-4.2855453,0.124426775,-0.6807324,0.9078214,0.21235187,-41.34375,25.781252,-4.125,-0.6575882,-0.20067412,-0.090513416,999.42255, , , , 
2025-11-24 20:01:12.211,9.257831,-4.615755,0.634098,-0.7754165,0.78320503,0.039477136,-40.818752,26.831251,-5.175,-0.6607257,-0.19592768,-0.09574126,999.42255, , , , 
2025-11-24 20:01:12.231,9.305687,-4.9316072,0.9834501,-0.82917255,0.76487905,-0.06314815,-40.612503,27.225,-4.2937503,-0.6640142,-0.19211449,-0.10142391,999.42084, , , , 
2025-11-24 20:01:12.251,9.454042,-5.682954,1.5433706,-0.91408277,0.79847664,-0.26045746,-40.21875,26.906252,-5.2312503,-0.66958004,-0.18688191,-0.112435184,999.42084, , , , 
2025-11-24 20:01:12.271,9.84168,-6.802795,2.2731814,-0.8878156,0.8839977,-0.39545858,-40.725002,24.993752,-6.61875,-0.67479485,-0.182318,-0.12549472,999.4235, , , , 
2025-11-24 20:01:12.292,10.327422,-7.4416785,2.6344976,-0.7528145,0.98356867,-0.4418843,-39.768753,26.94375,-5.90625,-0.6772261,-0.17957553,-0.1340628,999.4235, , , , 
2025-11-24 20:01:12.312,11.454442,-8.080562,2.4023938,-0.50541425,1.167439,-0.5493965,-40.66875,25.25625,-6.9375005,-0.6790699,-0.1746357,-0.14960772,999.4213, , , , 
2025-11-24 20:01:12.331,12.169896,-8.719446,1.6103697,-0.33498296,1.2975532,-0.7784708,-41.662502,24.768751,-6.6562505,-0.6783387,-0.170962,-0.16397928,999.4213, , , , 
2025-11-24 20:01:12.352,12.421143,-9.698111,0.8662018,-0.29649848,1.2957206,-1.008156,-41.775,23.400002,-7.18125,-0.67688096,-0.16910128,-0.17608948,999.4262, , , , 
2025-11-24 20:01:12.372,11.243874,-10.743773,0.8350951,-0.21708608,0.9854013,-1.3410772,-41.756252,24.150002,-8.475,-0.6737504,-0.16900733,-0.19755268,999.4262, , , , 
2025-11-24 20:01:12.391,10.07139,-11.480763,1.0289137,-0.022831071,0.3995819,-1.4766892,-43.575,22.35,-8.325001,-0.6698962,-0.174298,-0.21666312,999.4274, , , , 
2025-11-24 20:01:12.411,8.595019,-10.908878,1.820938,0.2606102,-0.33834273,-1.4400374,-42.300003,21.2625,-10.40625,-0.66640806,-0.18372536,-0.22719514,999.4274, , , , 
2025-11-24 20:01:12.432,8.26481,-9.942178,2.4598217,0.6436224,-0.9980767,-1.3661227,-42.825,20.831251,-11.25,-0.66330105,-0.19410206,-0.23104578,999.42303, , , , 
2025-11-24 20:01:12.451,8.496913,-9.162118,2.28036,0.97593284,-1.434845,-1.387503,-42.881252,19.81875,-10.575001,-0.65928894,-0.20746645,-0.23159623,999.42303, , , , 
2025-11-24 20:01:12.471,9.128618,-9.064013,0.5024927,1.1683552,-1.6254349,-1.7589087,-44.41875,17.643751,-5.9625,-0.648273,-0.24120125,-0.22830516,999.4301, , , , 
2025-11-24 20:01:12.491,8.784052,-9.329616,-0.3182454,1.0266346,-1.4495058,-1.9562181,-44.9625,16.35,-7.3875003,-0.63977224,-0.26561293,-0.22783107,999.4301, , , , 
2025-11-24 20:01:12.511,7.7551384,-9.645468,-0.83988076,0.7065415,-1.1055889,-2.115043,-47.4375,14.45625,-4.3875003,-0.63140243,-0.28887525,-0.23068911,999.4357, , , , 
2025-11-24 20:01:12.532,6.754938,-9.24826,-0.7585248,0.39500043,-0.8227585,-2.0802236,-46.631252,10.425,-4.2375,-0.6221209,-0.3144354,-0.23797885,999.4357, , , , 
2025-11-24 20:01:12.552,6.458228,-8.796016,-0.70588267,0.19646938,-0.6645445,-2.0490696,-48.15,8.775001,-3.525,-0.61735487,-0.32775432,-0.24362397,999.435, , , , 
2025-11-24 20:01:12.571,6.1208405,-7.9346,-0.3493521,-0.0881936,-0.41836601,-2.0692282,-47.79375,7.8187504,-2.2687502,-0.61186445,-0.34352544,-0.2527565,999.435, , , , 
2025-11-24 20:01:12.592,5.8360944,-7.5326056,-0.04546363,-0.2164752,-0.2625955,-2.1187081,-49.0875,7.18125,-1.7812501,-0.6081075,-0.35405082,-0.26113403,999.4328, , , , 
2025-11-24 20:01:12.611,5.1326046,-7.0468626,0.19142582,-0.3447568,0.16623157,-2.1889577,-49.74375,1.8750001,-0.95625,-0.6015133,-0.36913106,-0.27821022,999.4328, , , , 
2025-11-24 20:01:12.632,4.3525443,-6.8458657,-0.124426775,-0.37346745,0.5125919,-2.182849,-47.86875,-0.01875,-4.4437504,-0.5919898,-0.38292226,-0.30271244,999.4272, , , , 
2025-11-24 20:01:12.651,4.0558343,-6.8051877,-0.39960137,-0.38079783,0.6146063,-2.1449754,-47.4,-0.4875,-2.9250002,-0.5884863,-0.38661978,-0.31137428,999.4272, , , , 
2025-11-24 20:01:12.672,3.6203406,-6.867401,-0.91884387,-0.4333322,0.6164389,-2.0545673,-48.468754,-1.575,-4.59375,-0.5797021,-0.39452136,-0.33299848,999.42694, , , , 
2025-11-24 20:01:12.692,3.4073794,-7.0205417,-1.1389836,-0.47975793,0.5639045,-1.9629376,-49.0125,-3.5062501,-3.9750001,-0.57648706,-0.39736536,-0.34129494,999.42694, , , , 
2025-11-24 20:01:12.711,3.2614172,-7.207182,-1.3064811,-0.655687,0.417297,-1.6666682,-48.2625,-5.53125,-3.7687502,-0.5690303,-0.40452883,-0.36401296,999.425, , , , 
2025-11-24 20:01:12.731,3.1058838,-7.271788,-0.9882358,-0.75159276,0.33483025,-1.4137702,-46.36875,-8.56875,-5.0437503,-0.5656978,-0.40852043,-0.3804935,999.425, , , , 
2025-11-24 20:01:12.752,2.981457,-7.219146,-0.8039884,-0.7558688,0.26763514,-1.1639265,-46.6875,-9.58125,-6.1875005,-0.5647441,-0.40995708,-0.389099,999.4257, , , , 
2025-11-24 20:01:12.772,3.4600215,-7.628319,-0.8566305,-0.75159276,0.17172936,-0.81390095,-46.912502,-9.8625,-5.68125,-0.56482893,-0.41089642,-0.4006787,999.4257, , , , 
2025-11-24 20:01:12.792,3.6849468,-7.9704924,-0.93559366,-0.7570905,0.16317725,-0.6428588,-46.6875,-11.08125,-6.8625,-0.56586814,-0.41053835,-0.40610552,999.4272, , , , 
2025-11-24 20:01:12.812,4.1228333,-8.827123,-1.0456635,-0.7937424,0.17539455,-0.24640758,-45.675003,-10.2375,-5.3250003,-0.56914955,-0.40785643,-0.41309625,999.4272, , , , 
2025-11-24 20:01:12.832,3.9960139,-8.970692,-0.87338024,-0.8230639,0.21937682,0.0956767,-47.34375,-11.38125,-6.7875004,-0.5732309,-0.40347865,-0.41690564,999.4338, , , , 
2025-11-24 20:01:12.852,3.9960139,-8.956335,-0.7465607,-0.8371138,0.27740896,0.32536185,-46.350002,-11.64375,-8.56875,-0.5757477,-0.40038627,-0.41821322,999.4338, , , , 
2025-11-24 20:01:12.871,4.9938207,-9.489935,-1.0719845,-0.8902591,0.5486329,0.83115786,-46.237503,-9.01875,-9.50625,-0.5861894,-0.3841076,-0.42049524,999.43524, , , , 
2025-11-24 20:01:12.892,5.1732826,-9.731609,-1.1844472,-0.9360739,0.6262128,0.96432644,-46.3875,-9.88125,-10.837501,-0.5895362,-0.377863,-0.42078325,999.43524, , , , 
2025-11-24 20:01:12.912,5.6590257,-10.219746,-1.2705889,-1.0875684,0.7715986,1.2489893,-46.03125,-7.36875,-11.175,-0.59889346,-0.35913593,-0.4210839,999.4338, , , , 
2025-11-24 20:01:12.932,6.2811594,-11.263016,-1.1796615,-1.3068688,0.85162187,1.5800781,-46.725002,-7.8187504,-10.14375,-0.6098553,-0.33608118,-0.42075136,999.4338, , , , 
2025-11-24 20:01:12.951,5.979664,-10.80838,-0.3397808,-1.4455352,0.74777484,1.8232023,-47.568752,-5.64375,-11.71875,-0.62016726,-0.31505424,-0.41940394,999.43964, , , , 
2025-11-24 20:01:12.971,5.8624153,-10.329815,0.32063824,-1.4546981,0.647593,1.942321,-46.40625,-5.025,-12.656251,-0.6258369,-0.3040144,-0.41805753,999.43964, , , , 
2025-11-24 20:01:12.991,6.343373,-9.35833,1.6534405,-1.1889719,0.3928624,2.208658,-48.468754,-0.63750005,-11.606251,-0.6433322,-0.270896,-0.41016302,999.4443, , , , 
2025-11-24 20:01:13.011,7.0372915,-9.521041,1.6558332,-0.9879974,0.336052,2.2758532,-46.893753,1.1625,-13.725,-0.6538235,-0.24964102,-0.40202934,999.4443, , , , 
2025-11-24 20:01:13.031,8.3581295,-10.327422,0.85184485,-0.74792755,0.29512405,2.263025,-45.075,4.33125,-14.400001,-0.6649596,-0.22443812,-0.39006007,999.4587, , , , 
2025-11-24 20:01:13.052,8.975478,-10.468599,0.72263247,-0.6752347,0.245644,2.199495,-46.29375,5.5687504,-13.875001,-0.6727428,-0.2052695,-0.3800637,999.4587,37.887491,127.74029905,143.30462646484375,1.25
2025-11-24 20:01:13.072,8.535198,-9.521041,0.22492532,-0.7393755,0.3287216,2.16773,-46.18125,8.325001,-14.212501,-0.68155736,-0.18219006,-0.3676421,999.4628, , , , 
2025-11-24 20:01:13.092,8.365308,-8.568698,0.5455636,-1.0044907,0.48754644,2.1738386,-44.831253,11.325001,-14.981251,-0.68691343,-0.16748057,-0.36096933,999.4628, , , , 
2025-11-24 20:01:13.111,8.769695,-7.446464,2.009971,-1.3080906,0.89621496,2.0418918,-44.025,14.418751,-16.78125,-0.69630927,-0.14023615,-0.35290122,999.46185, , , , 
2025-11-24 20:01:13.131,8.733803,-6.920043,2.8091738,-1.351462,1.2535709,1.919108,-43.78125,15.562501,-17.34375,-0.7010556,-0.1223092,-0.3511145,999.46185, , , , 
2025-11-24 20:01:13.151,8.432307,-6.02752,3.8093736,-1.2311217,1.6316962,1.8067089,-43.575,17.4375,-15.468751,-0.7054094,-0.097157486,-0.35192633,999.4638, , , , 
2025-11-24 20:01:13.172,9.41815,-4.7162533,4.8191447,-0.65080005,1.8833724,1.887954,-40.912502,20.34375,-18.075,-0.7066279,-0.065197945,-0.35549033,999.4638, , , , 
2025-11-24 20:01:13.191,11.964113,-3.330809,2.9862428,-0.055817768,2.2315655,1.9832488,-39.412502,20.38125,-19.1625,-0.7009026,-0.033199828,-0.3602284,999.46185, , , , 
2025-11-24 20:01:13.211,14.534005,-2.6536403,0.6580262,0.023594651,2.5522695,1.7181336,-36.61875,23.0625,-22.5375,-0.69247484,-0.007972508,-0.366727,999.46185, , , , 
2025-11-24 20:01:13.231,15.960127,-1.7300107,-1.2514462,-0.33559385,2.9273403,0.99120444,-36.0,23.868752,-23.56875,-0.68341076,0.016031148,-0.3785149,999.45746, , , , 
2025-11-24 20:01:13.252,15.778273,-1.8735801,-1.1820544,-0.91347194,2.874195,0.1512654,-32.175003,26.775002,-24.750002,-0.6760701,0.03796405,-0.3955815,999.45746, , , , 
2025-11-24 20:01:13.272,15.110675,-2.0985055,-0.011964113,-1.1236094,2.6329036,-0.27633995,-33.825,25.10625,-25.10625,-0.6726751,0.051736772,-0.4101372,999.4572, , , , 
2025-11-24 20:01:13.292,14.4693985,-2.5004997,1.0504491,-1.2054653,2.38306,-0.62208945,-30.618752,25.687502,-25.95,-0.67124957,0.05923125,-0.42007628,999.4572, , , , 
2025-11-24 20:01:13.311,13.3352,-3.9170506,2.9599216,-1.0649664,2.3354125,-1.1315507,-31.0125,26.41875,-28.575,-0.667942,0.075516544,-0.45099849,999.45135, , , , 
2025-11-24 20:01:13.332,13.026526,-5.0440702,3.2446675,-0.7784708,2.5070653,-1.315421,-30.187502,26.1375,-29.250002,-0.6620526,0.08584142,-0.47962344,999.45135, , , , 
2025-11-24 20:01:13.351,12.957134,-5.7930236,3.251846,-0.56588984,2.5260022,-1.4766892,-28.7625,25.687502,-32.15625,-0.6548066,0.09249849,-0.5038584,999.4477, , , , 
2025-11-24 20:01:13.372,13.438092,-6.7740808,3.1680973,-0.41683885,2.3934445,-1.6959897,-28.237501,24.0,-32.11875,-0.64645827,0.096830666,-0.5283086,999.4477, , , , 
2025-11-24 20:01:13.391,13.414164,-7.609176,3.0532417,-0.39301512,2.3378558,-1.8523711,-27.88125,24.16875,-33.09375,-0.6400697,0.098390706,-0.5465651,999.45575, , , , 
2025-11-24 20:01:13.411,13.406985,-8.415557,4.666004,-0.2946659,2.1869724,-1.9806527,-26.812502,24.300001,-35.0625,-0.6292006,0.09934867,-0.576674,999.45575, , , , 
2025-11-24 20:01:13.431,13.959727,-7.7647095,6.04427,0.20441063,1.8369467,-2.1486404,-22.21875,24.187502,-39.5625,-0.6174436,0.09561026,-0.6050829,999.4494, , , , 
2025-11-24 20:01:13.452,14.392828,-8.047063,5.6279187,0.52022773,1.8363359,-2.4198644,-22.85625,19.518751,-40.29375,-0.6094845,0.08988164,-0.6218577,999.4494, , , , 
2025-11-24 20:01:13.471,14.16551,-8.937193,4.938786,0.7303652,2.003102,-2.7839398,-21.65625,18.7875,-42.24375,-0.5971402,0.07915781,-0.6456255,999.45355, , , , 
2025-11-24 20:01:13.491,11.365908,-11.196017,3.2398818,0.9020182,2.391612,-3.1755042,-22.10625,15.750001,-42.6375,-0.5737868,0.059816483,-0.68516314,999.45355, , , , 
2025-11-24 20:01:13.511,10.025927,-11.559726,2.7278178,0.920955,2.4288747,-3.1235807,-22.462502,14.718751,-43.0125,-0.56489885,0.053427342,-0.69853735,999.4484, , , , 
2025-11-24 20:01:13.532,7.9920278,-11.038091,2.4095724,0.907516,2.2712717,-2.6874232,-23.94375,12.562501,-41.34375,-0.54189456,0.039150972,-0.7294795,999.4484, , , , 
2025-11-24 20:01:13.552,7.941778,-10.289138,2.7684958,0.94600046,2.1100032,-2.5182137,-22.050001,11.6625,-43.65,-0.52840316,0.031457663,-0.7456509,999.44794, , , , 
2025-11-24 20:01:13.571,7.5661054,-8.425129,3.4839497,1.2233331,1.7117195,-2.331289,-21.825,8.85,-46.74375,-0.5028698,0.014169612,-0.77328724,999.44794, , , , 
2025-11-24 20:01:13.592,6.6735826,-7.393822,2.7397819,1.3430625,1.6121485,-2.223166,-18.056252,5.7562504,-47.287502,-0.48637417,3.8983295E-4,-0.7892128,999.4538, , , , 
2025-11-24 20:01:13.611,6.096912,-6.728617,1.9884356,1.2825869,1.6836197,-2.0851107,-16.743752,5.64375,-47.71875,-0.46950698,-0.0131988255,-0.8039665,999.4538, , , , 
2025-11-24 20:01:13.631,5.8432727,-6.020342,1.7682959,1.1347576,1.7257694,-1.8939099,-19.35,2.3812501,-45.412502,-0.45217496,-0.024886841,-0.8178181,999.4506, , , , 
2025-11-24 20:01:13.651,5.8193445,-5.2283173,1.9932213,1.0162499,1.6732349,-1.7692934,-14.400001,2.15625,-46.6875,-0.43935207,-0.0324257,-0.8274698,999.4506, , , , 
2025-11-24 20:01:13.671,5.84088,-4.4458647,2.2564318,0.8464295,1.5626684,-1.694768,-11.19375,0.375,-49.3875,-0.415005,-0.04559042,-0.84497,999.4499, , , , 
2025-11-24 20:01:13.691,5.6590257,-3.9361932,2.603391,0.7572433,1.4417173,-1.6782746,-9.75,-1.2,-49.7625,-0.39978513,-0.05354183,-0.8555912,999.4499, , , , 
2025-11-24 20:01:13.711,5.3240304,-3.5700915,2.754139,0.65278536,1.3317616,-1.640401,-8.85,-3.3375,-50.812504,-0.3855761,-0.061030995,-0.865354,999.4465, , , , 
2025-11-24 20:01:13.733,5.111069,-3.0149565,2.8881369,0.545884,1.2334124,-1.6080252,-9.243751,-3.7687502,-49.66875,-0.37234595,-0.06782433,-0.87431496,999.4465, , , , 
2025-11-24 20:01:13.751,4.9459643,-2.6632116,3.2566316,0.4994583,1.1191807,-1.6080252,-8.175,-5.025,-49.706253,-0.36312616,-0.072539784,-0.8805633,999.4433, , , , 
2025-11-24 20:01:13.771,4.8358946,-2.4358935,3.2350962,0.46891508,1.0580941,-1.6061926,-5.49375,-5.6062503,-51.35625,-0.35172662,-0.078873046,-0.8882724,999.4433, , , , 
2025-11-24 20:01:13.791,4.807181,-2.2564318,3.2183464,0.31558803,1.0916917,-1.5701516,-3.8812501,-5.45625,-49.818752,-0.33490035,-0.08731127,-0.8992192,999.44257, , , , 
2025-11-24 20:01:13.811,4.6971107,-2.2612174,3.3954153,0.23128867,1.0330487,-1.5426626,-3.2250001,-7.36875,-50.4,-0.3294047,-0.08950521,-0.90273523,999.44257, , , , 
2025-11-24 20:01:13.832,4.685147,-2.268396,3.5653057,0.1268308,0.8907172,-1.4834088,-5.175,-6.7125,-48.843754,-0.3218123,-0.092289485,-0.9076784,999.4345, , , , 
2025-11-24 20:01:13.851,4.5128636,-2.1631117,4.345366,-0.08758274,0.5767327,-1.3575706,-1.125,-6.4125004,-50.2125,-0.3102913,-0.0959123,-0.91599554,999.4345, , , , 
2025-11-24 20:01:13.872,4.6731825,-1.7682959,5.5800624,-0.19998185,0.32994333,-1.1926371,-1.3125,-7.3125005,-50.1375,-0.30546224,-0.09704952,-0.9203152,999.4211, , , , 
2025-11-24 20:01:13.891,5.515456,-1.4835501,6.9344,-0.23113596,0.26702428,-1.0674099,1.25625,-5.55,-50.98125,-0.3017561,-0.097433835,-0.92455405,999.4211, , , , 
2025-11-24 20:01:13.911,6.2380886,-1.4596218,6.95115,-0.25373796,0.41302094,-1.0466404,1.5375,-5.0062504,-52.74375,-0.29940426,-0.09737321,-0.92694664,999.4274, , , , 
2025-11-24 20:01:13.932,6.599405,-1.8735801,6.869794,-0.43211046,0.45944667,-1.0784054,2.3625002,-6.5437503,-50.737503,-0.29426035,-0.09606174,-0.9313406,999.4274, , , , 
2025-11-24 20:01:13.952,6.4677997,-2.321038,6.862615,-0.62514377,0.20715952,-1.0515274,0.3,-5.775,-49.631252,-0.29100946,-0.09339996,-0.93473417,999.42377, , , , 
2025-11-24 20:01:13.972,5.946164,-2.0602202,7.4153576,-0.7680861,-0.28275403,-0.8933134,1.63125,-6.61875,-52.031254,-0.29116553,-0.0894002,-0.9370985,999.42377, , , , 
2025-11-24 20:01:13.991,5.9342003,-1.8041883,8.056634,-0.818177,-0.5191587,-0.76625353,0.46875003,-4.89375,-48.61875,-0.2941901,-0.08583484,-0.93782824,999.4196, , , , 
2025-11-24 20:01:14.012,6.7501526,-1.4476577,8.733803,-0.67156947,-0.30108,-0.52251846,0.80625004,-4.1062503,-50.4,-0.30245212,-0.07859756,-0.93790287,999.4196, , , , 
2025-11-24 20:01:14.032,6.498906,-1.6342978,7.618747,-0.61598074,0.088651754,-0.4455495,-0.4875,-3.9750001,-50.8875,-0.30393186,-0.0751192,-0.9384524,999.4184, , , , 
2025-11-24 20:01:14.052,5.163711,-2.1487548,5.278567,-0.71555173,0.3843103,-0.27939427,-0.3,-3.8437502,-51.075,-0.3019503,-0.06806787,-0.9405721,999.4184,37.88748109,127.74030681,143.384033203125,1.14
2025-11-24 20:01:14.071,3.5318062,-2.656033,3.4983068,-0.86093754,-0.24976733,0.08773545,0.75,-1.48125,-50.850002,-0.3014777,-0.0585296,-0.941949,999.4118, , , , 
2025-11-24 20:01:14.092,3.1465619,-2.8259234,3.0675986,-0.9079741,-0.6590467,0.26610798,1.0500001,-1.4625001,-51.187504,-0.30406642,-0.05424592,-0.9414574,999.4118, , , , 
2025-11-24 20:01:14.112,2.5674987,-3.0436704,2.1367905,-0.94523686,-1.9779038,0.84765124,-1.0500001,0.43125,-50.60625,-0.32351446,-0.040651467,-0.9353002,999.4079, , , , 
2025-11-24 20:01:14.131,2.6225336,-3.2015967,2.0386848,-0.9201914,-2.3468661,1.047404,-1.7062501,1.6125001,-50.456253,-0.33904582,-0.033717453,-0.92953444,999.4079, , , , 
2025-11-24 20:01:14.152,2.7302105,-3.3667014,1.8448663,-0.79313153,-2.7384305,1.3650537,-2.4750001,2.68125,-52.912502,-0.3633847,-0.024688987,-0.91946095,999.40936, , , , 
2025-11-24 20:01:14.171,2.821138,-3.534199,1.4189439,-0.70455617,-2.9045856,1.5183808,-5.4,1.3687501,-51.600002,-0.38311288,-0.018316759,-0.9103999,999.40936, , , , 
2025-11-24 20:01:14.191,2.7062824,-4.2185464,-0.55513483,-0.85421807,-2.8911467,1.7847178,-9.69375,4.275,-48.99375,-0.42391986,-0.0053856163,-0.8891972,999.40717, , , , 
2025-11-24 20:01:14.212,2.5531418,-4.895715,-1.1126626,-1.1425462,-2.786078,1.9594251,-11.56875,5.1937504,-48.075,-0.4439168,0.0032115576,-0.8775788,999.40717, , , , 
2025-11-24 20:01:14.231,2.8689942,-6.343373,-0.79920274,-1.6581161,-2.7213264,2.2886813,-13.781251,5.83125,-47.8875,-0.476287,0.023916263,-0.85674125,999.41034, , , , 
2025-11-24 20:01:14.251,4.022335,-8.362915,0.8566305,-2.0796127,-2.8777077,2.7761514,-16.425001,9.525001,-46.125,-0.5087374,0.052452333,-0.83257884,999.41034, , , , 
2025-11-24 20:01:14.272,4.807181,-9.2793665,1.6462619,-2.1706316,-2.9467354,3.0235517,-18.35625,10.931251,-45.375,-0.5283564,0.07226276,-0.8158265,999.4118, , , , 
