Time,Accel_X,Accel_Y,Accel_Z,Gyro_X,Gyro_Y,Gyro_Z,Mag_X,Mag_Y,Mag_Z,Orient_X,Orient_Y,Orient_Z,Pressure,Lat,Lng,Alt,Speed
2025-11-24 20:07:33.240,2.3808584,1.253839,8.88455,-0.32582,-0.5643627,-0.29038984,-3.6562502,23.737501,-42.24375,0.12498608,0.02252581,0.58888066,999.3737,37.88742967,127.74020769,145.37548828125,0.0
2025-11-24 20:07:33.259,1.6295122,0.53599226,10.006784,-0.7583123,-0.63400126,-0.36308277,-3.8625002,24.093752,-43.0125,0.12425673,0.0067600124,0.5827739,999.37054, , , , 
2025-11-24 20:07:33.280,1.1126626,0.3924229,11.586047,-0.79313153,-0.29863653,-0.23785548,-5.3250003,24.187502,-42.881252,0.119624585,-0.0020447192,0.57989895,999.37054, , , , 
2025-11-24 20:07:33.300,0.81595254,0.4139583,11.782259,-0.57138765,-0.012751802,-0.06131555,-5.0062504,26.587502,-41.8125,0.1134678,-0.00744997,0.5785299,999.37616, , , , 
2025-11-24 20:07:33.320,0.63888365,0.6149554,10.975878,-0.34658942,0.12286018,0.17325652,-5.3625,26.2875,-40.987503,0.10805922,-0.009798895,0.5789374,999.37616, , , , 
2025-11-24 20:07:33.340,0.7609176,1.0863415,10.329815,-0.12851068,0.1955531,0.46036297,-6.05625,26.475,-41.68125,0.104028285,-0.010206846,0.581373,999.3781, , , , 
2025-11-24 20:07:33.360,1.2897314,1.4524434,9.616755,0.040698867,0.18028148,0.63751376,-7.70625,25.66875,-39.768753,0.10178539,-0.009475892,0.5856511,999.3781, , , , 
2025-11-24 20:07:33.382,1.8592232,1.8017955,9.068798,0.12866339,0.12041672,0.6869938,-5.90625,27.337502,-39.600002,0.10149777,-0.008477756,0.59094965,999.37933, , , , 
2025-11-24 20:07:33.400,2.5196424,2.1367905,8.513663,0.14271328,0.00923933,0.55077094,-4.0875,27.31875,-43.331253,0.10282073,-0.007918681,0.5960838,999.37933, , , , 
2025-11-24 20:07:33.420,2.7158537,2.2444677,8.391629,0.046807513,-0.054290608,0.33757916,-4.3500004,26.906252,-42.05625,0.105378695,-0.008431334,0.60067976,999.3864, , , , 
2025-11-24 20:07:33.440,2.469393,2.2420747,8.659625,-0.0655916,-0.07628174,0.14149155,-5.3812504,27.768751,-39.975002,0.10684975,-0.00963598,0.602477,999.3864, , , , 
2025-11-24 20:07:33.460,2.4023938,2.1463618,8.937193,-0.19448407,-0.053068876,-0.046654798,-5.7562504,28.743752,-40.93125,0.10739547,-0.01124712,0.6028501,999.3874, , , , 
2025-11-24 20:07:33.480,1.9908284,1.9214365,9.315259,-0.29894194,0.0074067353,-0.13217586,-4.6687503,28.35,-40.0875,0.10659679,-0.013001151,0.6021332,999.3874, , , , 
2025-11-24 20:07:33.500,1.6295122,1.7611175,9.760324,-0.3588067,0.01962403,-0.10529782,-6.3,26.812502,-39.525,0.103874676,-0.015095974,0.6008492,999.394, , , , 
2025-11-24 20:07:33.520,1.6438692,1.6151553,10.009177,-0.34597853,-0.023136504,-0.03810269,-5.8125,29.85,-40.987503,0.10195143,-0.016513014,0.60032344,999.394, , , , 
2025-11-24 20:07:33.540,1.9310079,1.4691931,10.279566,-0.2787834,-0.11843141,0.06146827,-6.61875,29.00625,-38.53125,0.09949946,-0.019500416,0.60018414,999.39374, , , , 
2025-11-24 20:07:33.560,1.9621146,1.4596218,10.459028,-0.18654284,-0.15569416,0.14393501,-6.1687503,28.29375,-38.381252,0.098664716,-0.022173045,0.6007831,999.39374, , , , 
2025-11-24 20:07:33.580,2.1343977,1.4931214,10.449456,-0.07353285,-0.12087487,0.2551124,-5.3625,29.268751,-39.91875,0.09872371,-0.024390925,0.6021498,999.40155, , , , 
2025-11-24 20:07:33.600,2.3258235,1.7682959,10.516456,-0.016722424,-0.0041996953,0.32230753,-5.925,30.206251,-38.98125,0.099052586,-0.025672903,0.60426074,999.40155, , , , 
2025-11-24 20:07:33.620,2.457429,1.9788643,10.57149,0.033979353,0.1711185,0.31436628,-5.0062504,29.79375,-37.96875,0.09913495,-0.025623841,0.60678566,999.4145, , , , 
2025-11-24 20:07:33.639,2.2612174,2.1487548,10.30828,0.06269,0.27435464,0.29909468,-6.0375004,29.906252,-36.018753,0.09882433,-0.02419484,0.6092921,999.4145, , , , 
2025-11-24 20:07:33.661,2.0817556,2.065006,10.2723875,0.14454588,0.3598757,0.32841617,-4.7625003,30.187502,-38.175003,0.09802633,-0.020919247,0.61255795,999.4294, , , , 
2025-11-24 20:07:33.681,1.8975084,2.1008983,9.944571,0.25572327,0.34032804,0.35712683,-4.3125,30.337502,-36.99375,0.09785442,-0.017337801,0.6154978,999.4294, , , , 
2025-11-24 20:07:33.700,1.8089739,2.0578275,9.229117,0.3033707,0.28962627,0.3730093,-1.6125001,31.893751,-39.84375,0.098582104,-0.013480467,0.61857027,999.43207, , , , 
2025-11-24 20:07:33.721,1.9118652,2.0267208,8.389236,0.20807582,0.25847217,0.36690065,-3.45,29.56875,-36.73125,0.0994664,-0.010070355,0.62163997,999.43207, , , , 
2025-11-24 20:07:33.741,2.1080768,2.2157538,7.5230346,-0.11934771,0.20715952,0.2917643,-2.325,31.425001,-38.04375,0.0995368,-0.008085771,0.624436,999.43036, , , , 
2025-11-24 20:07:33.760,1.6821543,2.2707887,8.58784,-0.34536767,0.08681916,0.21479532,-2.9625,31.237501,-37.350002,0.097707115,-0.008212617,0.62652415,999.43036, , , , 
2025-11-24 20:07:33.780,1.7180467,1.902294,9.2793665,-0.24824017,-0.21983497,0.25083634,-2.325,32.175003,-37.162502,0.09585157,-0.010314544,0.6280882,999.41425, , , , 
2025-11-24 20:07:33.800,2.4478576,1.8711873,8.7577305,0.050472703,-0.40004006,0.35468337,-0.6,31.968752,-37.78125,0.0974072,-0.014615194,0.63038045,999.41425, , , , 
2025-11-24 20:07:33.820,3.17049,1.8687944,6.936793,0.34552038,-0.6059015,0.36140287,-1.8750001,31.593752,-36.862503,0.10250392,-0.017682618,0.6326632,999.4106, , , , 
2025-11-24 20:07:33.840,4.2041893,1.5529419,4.709075,0.36934412,-0.8728494,0.22640176,-0.84375006,31.462502,-38.662502,0.11098295,-0.021761715,0.63426834,999.4106, , , , 
2025-11-24 20:07:33.862,4.4004006,1.5720844,3.7423747,0.09628756,-1.2937353,0.013820816,-3.1125002,31.10625,-38.25,0.12084716,-0.028863423,0.63416755,999.41254, , , , 
2025-11-24 20:07:33.880,3.7567315,1.672583,4.139583,-0.27939427,-1.8765002,-0.116293386,-3.8437502,30.187502,-41.362503,0.13142338,-0.041012555,0.63202095,999.41254, , , , 
2025-11-24 20:07:33.900,2.7996025,1.3543376,5.2402816,-0.56100297,-2.351753,-0.066813335,-6.39375,30.656252,-40.2,0.14228421,-0.05881319,0.62818235,999.4025, , , , 
2025-11-24 20:07:33.920,2.778067,0.634098,5.845666,-0.5762746,-2.6327507,0.24045165,-7.3500004,30.431252,-38.850002,0.15332174,-0.080745235,0.6243541,999.4025, , , , 
2025-11-24 20:07:33.940,4.005585,0.31345975,5.651847,-0.28916812,-2.8447208,0.6430115,-9.431251,30.843752,-40.65,0.16900672,-0.1105313,0.6222429,999.4025, , , , 
2025-11-24 20:07:33.960,3.979264,0.7513463,4.706682,-0.22197299,-2.9442918,0.8116102,-11.75625,30.243752,-40.537502,0.18434745,-0.13488385,0.6223144,999.4025, , , , 
2025-11-24 20:07:33.980,3.7591243,0.28235307,4.706682,-0.60803956,-3.1306057,0.8244384,-12.20625,29.550001,-38.5875,0.1997702,-0.16093245,0.62185395,999.394, , , , 
2025-11-24 20:07:34.000,2.9431717,-0.18185452,5.2833524,-0.9024764,-3.7762897,1.4517965,-16.331251,28.743752,-37.96875,0.21294756,-0.19191675,0.621267,999.394, , , , 
2025-11-24 20:07:34.020,2.359323,-0.047856454,4.7545385,-0.96111935,-5.096979,2.5366924,-17.8875,30.581251,-37.29375,0.2274679,-0.2309111,0.623462,999.4008, , , , 
2025-11-24 20:07:34.040,2.6105695,-0.03589234,3.5796626,-0.83283776,-6.1323953,3.2489607,-19.556252,31.987501,-34.10625,0.24708985,-0.27956197,0.62771344,999.4008, , , , 
2025-11-24 20:07:34.060,4.54397,-0.08853444,6.7262244,-1.685605,-6.318098,3.4572656,-23.19375,34.4625,-31.237501,0.26913005,-0.33545578,0.62946606,999.39935, , , , 
2025-11-24 20:07:34.080,7.331609,-1.7324036,7.9274216,-0.63613933,-4.6596003,3.5757732,-23.081251,36.91875,-26.1375,0.2838497,-0.38785613,0.63070875,999.39935, , , , 
2025-11-24 20:07:34.100,8.920443,-2.036292,8.784052,0.2013563,-2.7854671,2.8830526,-23.90625,37.3125,-24.056252,0.29431096,-0.42807359,0.64036757,999.40155, , , , 
2025-11-24 20:07:34.120,8.645268,0.37088752,8.530413,0.25266895,-1.4904337,2.33022,-23.400002,38.475002,-23.41875,0.29756078,-0.44321483,0.6497687,999.40155, , , , 
2025-11-24 20:07:34.140,11.772687,0.65084773,6.5611196,-0.07475458,-0.8197042,2.399248,-21.88125,38.11875,-21.54375,0.2962105,-0.45300514,0.6593098,999.413, , , , 
2025-11-24 20:07:34.160,15.684953,1.268196,6.9702926,-0.72227126,-0.78060883,2.2905138,-21.150002,40.3125,-21.75,0.29074186,-0.46389726,0.667073,999.413, , , , 
2025-11-24 20:07:34.180,20.60938,1.9070797,9.992428,-1.206687,-0.91560996,1.6814817,-19.06875,40.518753,-20.587502,0.28461918,-0.47788912,0.6694353,999.4233, , , , 
2025-11-24 20:07:34.200,22.509283,2.1678972,12.373286,-0.9208023,-1.019457,0.7144827,-19.3875,42.7125,-18.825,0.28183034,-0.4904434,0.66711473,999.4233, , , , 
2025-11-24 20:07:34.220,21.884756,2.3976083,11.834901,-0.15722132,-1.1330779,-0.47548187,-17.625,43.612503,-16.743752,0.28917935,-0.49753237,0.6603803,999.44354, , , , 
2025-11-24 20:07:34.240,19.501505,2.1248264,9.556933,0.24717116,-0.9363794,-1.3160318,-19.29375,42.581253,-16.81875,0.30301985,-0.49629244,0.6528228,999.44354,37.88742967,127.74020769,145.37548828125,0.0
2025-11-24 20:07:34.260,15.543776,1.3351951,7.379465,0.42004588,-0.5887973,-1.8279365,-20.925001,42.412502,-17.400002,0.31902656,-0.4904202,0.6441037,999.4653, , , , 
2025-11-24 20:07:34.280,13.01217,0.55034924,5.773881,0.4994583,-0.33284494,-2.0099742,-23.1,42.5625,-17.04375,0.3306627,-0.48415232,0.63736326,999.4653, , , , 
2025-11-24 20:07:34.300,10.978271,-0.45942193,3.3044882,0.5648208,-0.15447243,-2.0979388,-25.368752,39.3375,-17.081251,0.34876895,-0.47178575,0.6264879,999.49384, , , , 
2025-11-24 20:07:34.321,9.879965,-1.2634103,2.0219352,0.44692394,-0.14897464,-2.1352015,-25.0125,38.1375,-17.362501,0.3624362,-0.4617396,0.61745584,999.49384, , , , 
2025-11-24 20:07:34.340,8.8701935,-2.4478576,1.0767702,0.27160576,-0.21250458,-2.165134,-25.25625,38.362503,-17.962502,0.37527603,-0.452883,0.60734195,999.49457, , , , 
2025-11-24 20:07:34.360,8.049456,-3.3882368,1.0313065,0.14332415,-0.40431613,-2.0948844,-29.268751,36.7125,-16.987501,0.38729107,-0.44585702,0.5960473,999.49457, , , , 
2025-11-24 20:07:34.383,7.3268228,-4.8933225,0.45942193,0.07979421,-0.67309666,-1.9183445,-29.38125,33.84375,-18.50625,0.40197718,-0.439966,0.58108884,999.48553, , , , 
2025-11-24 20:07:34.400,6.963114,-5.828916,0.21535404,0.0022143847,-0.91011214,-1.6996549,-31.1625,33.65625,-19.087502,0.41346306,-0.43804038,0.56888825,999.48553, , , , 
2025-11-24 20:07:34.420,6.6352973,-6.5276203,0.2009971,-0.1107956,-1.114141,-1.3337469,-34.518753,33.1875,-17.475,0.42416,-0.43930432,0.5569362,999.4892, , , , 
2025-11-24 20:07:34.440,6.317052,-7.274181,0.2632105,-0.2494619,-1.2051599,-0.7937424,-36.3375,32.362503,-15.075001,0.43298072,-0.44372854,0.5462001,999.4892, , , , 
2025-11-24 20:07:34.460,6.4941206,-8.12124,0.148355,-0.4767036,-1.0921499,-0.3001637,-36.525,31.462502,-13.9125,0.43862003,-0.45112237,0.5375718,999.49725, , , , 
2025-11-24 20:07:34.480,6.472585,-8.834301,0.23449662,-0.6776781,-0.83375406,0.118889555,-38.025,30.562502,-13.856251,0.43974277,-0.4609051,0.53137875,999.49725, , , , 
2025-11-24 20:07:34.500,5.721239,-9.042477,0.15314065,-0.96356285,-0.38965538,0.8085559,-35.49375,32.175003,-14.062501,0.43351412,-0.47541815,0.52819467,999.4953, , , , 
2025-11-24 20:07:34.520,4.9363933,-8.463413,0.29671,-1.2396737,-0.07933606,1.2160027,-36.65625,32.41875,-12.4125,0.4254977,-0.48511857,0.52858067,999.4953, , , , 
2025-11-24 20:07:34.540,3.9649072,-7.647461,1.3447664,-1.3899465,0.124692775,1.7059163,-36.206253,33.225002,-12.187501,0.4057636,-0.5026777,0.5319239,999.4919, , , , 
2025-11-24 20:07:34.560,3.8500516,-7.24786,1.847259,-1.2818234,0.11247548,2.0932045,-35.71875,34.350002,-9.075001,0.38671923,-0.5174168,0.5370602,999.4919, , , , 
2025-11-24 20:07:34.580,4.5942197,-6.920043,1.9525433,-1.0283145,0.02451095,2.3283875,-32.86875,36.881252,-8.887501,0.36711603,-0.53217614,0.5442049,999.4963, , , , 
2025-11-24 20:07:34.600,5.613562,-7.503892,1.2227324,-0.74670583,-0.17524183,2.4389539,-32.8875,38.381252,-8.212501,0.34869277,-0.5462954,0.55261606,999.4963, , , , 
2025-11-24 20:07:34.620,6.1854467,-7.8556366,0.6771688,-0.6141482,-0.4067596,2.4817145,-29.812502,40.66875,-6.4875,0.33184743,-0.56025666,0.56135434,999.4924, , , , 
2025-11-24 20:07:34.640,6.853044,-8.336594,0.18664017,-0.65385437,-0.61689705,2.4878232,-27.50625,41.268753,-5.53125,0.31645024,-0.5747607,0.5693597,999.4924, , , , 
2025-11-24 20:07:34.661,7.4153576,-8.736196,0.44745782,-0.8108466,-0.7769436,2.4676647,-24.075,42.881252,-7.0687504,0.29794478,-0.59416,0.5771167,999.4941, , , , 
2025-11-24 20:07:34.680,7.7216387,-8.666803,0.90448695,-0.9745584,-0.8453605,2.4872124,-21.618752,45.09375,-4.9875,0.28302154,-0.61049473,0.5814179,999.4941, , , , 
2025-11-24 20:07:34.700,7.948957,-8.788837,1.6151553,-1.0790163,-0.7225767,2.520199,-21.150002,46.0125,-4.1625004,0.2670424,-0.6267259,0.5847155,999.49506, , , , 
2025-11-24 20:07:34.720,7.8580294,-8.618947,2.4358935,-1.1407136,-0.5613084,2.6356525,-18.65625,47.5125,-3.5812502,0.24935667,-0.64221984,0.5876983,999.49506, , , , 
2025-11-24 20:07:34.740,8.315059,-8.1738825,3.196811,-1.0649664,-0.33651012,2.8384595,-16.5375,47.325,-0.69375,0.22967634,-0.6564931,0.59131134,999.4953, , , , 
2025-11-24 20:07:34.760,8.817552,-7.609176,3.6323047,-0.94462603,-0.17279838,3.004004,-13.087501,47.7,-1.85625,0.20825358,-0.6689212,0.5961203,999.4953, , , , 
2025-11-24 20:07:34.780,10.253245,-7.1042905,4.4195433,-0.71860605,-0.123929195,3.0424883,-11.418751,48.206253,1.03125,0.1804828,-0.68161356,0.6037357,999.50165, , , , 
2025-11-24 20:07:34.800,11.207981,-6.431907,4.718646,-0.30810493,-0.17157665,2.9545238,-7.425,49.74375,-0.24375,0.16493088,-0.6871706,0.6093402,999.50165, , , , 
2025-11-24 20:07:34.820,12.543177,-5.0847483,3.5964124,0.13477205,-0.21678063,2.8470116,-4.5375004,49.66875,1.1437501,0.14282522,-0.69256943,0.6208218,999.4982, , , , 
2025-11-24 20:07:34.840,13.66541,-3.926622,2.0003998,0.26244277,-0.03901899,2.5623486,-0.95625,50.550003,-0.65625,0.12774737,-0.6940554,0.63074124,999.4982, , , , 
2025-11-24 20:07:34.860,14.471791,-3.1274192,0.5838487,-0.14317143,0.22853978,2.2776856,-1.06875,49.518753,2.025,0.11376049,-0.6954511,0.638199,999.4914, , , , 
2025-11-24 20:07:34.881,15.187245,-2.4909284,1.105484,-0.6941715,0.67508197,1.8586324,1.9875001,49.968754,0.15,0.098606296,-0.6981009,0.64142567,999.4914, , , , 
2025-11-24 20:07:34.901,15.883556,-1.7946169,2.254039,-1.0008255,0.95730144,1.4927244,4.2000003,50.062504,0.056250002,0.0825807,-0.70165354,0.6408139,999.48285, , , , 
2025-11-24 20:07:34.920,17.309679,-1.9908284,2.914458,-1.1376593,1.0831397,0.9160681,6.3,51.018753,0.71250004,0.06751172,-0.7052589,0.63743424,999.48285, , , , 
2025-11-24 20:07:34.940,17.891134,-2.5507488,3.8213377,-1.0796272,0.93164515,0.1042288,5.9812503,48.3375,4.7625003,0.054554652,-0.7090363,0.62979156,999.4748, , , , 
2025-11-24 20:07:34.960,17.328821,-3.1752756,4.6779685,-0.8236748,0.5486329,-0.4088976,6.8812504,49.068752,3.54375,0.051270083,-0.71123606,0.6224083,999.4748, , , , 
2025-11-24 20:07:34.981,16.962719,-3.5318062,5.015356,-0.45654505,0.1882227,-0.6434697,5.175,49.500004,5.55,0.05363997,-0.71230114,0.61601025,999.4638, , , , 
2025-11-24 20:07:35.002,17.407785,-3.8620157,4.8885365,-0.050319985,0.09231694,-0.81451184,5.4375,50.1375,6.7125,0.059760127,-0.7117708,0.611493,999.4638, , , , 
2025-11-24 20:07:35.021,18.178274,-4.8215375,4.314259,0.26427537,0.22976151,-0.99288434,5.3812504,49.893753,6.7312503,0.068022355,-0.70902246,0.608672,999.45844, , , , 
2025-11-24 20:07:35.040,19.068403,-5.8097734,3.3834512,0.49701485,0.29512405,-1.1651483,4.3875003,50.025,6.525,0.07751829,-0.70403796,0.6071526,999.45844, , , , 
2025-11-24 20:07:35.060,18.355343,-5.575277,3.2135608,0.6503419,0.042836893,-1.5909209,1.5,49.3875,4.8562503,0.08951085,-0.69785315,0.605781,999.4577, , , , 
2025-11-24 20:07:35.080,15.991234,-4.87418,3.8763726,0.88247055,-0.23755004,-2.0411284,0.8625,50.550003,4.70625,0.10645301,-0.6911742,0.60360044,999.4577, , , , 
2025-11-24 20:07:35.100,13.823337,-5.3886366,4.182654,1.1903464,-0.25709772,-2.4644575,-0.056250002,50.343754,4.5,0.13358176,-0.68053555,0.60071784,999.4545, , , , 
2025-11-24 20:07:35.120,12.607782,-6.9296145,3.778267,1.5367067,-0.021303909,-2.738125,-2.71875,49.331253,2.98125,0.15770806,-0.66871125,0.5991065,999.4545, , , , 
2025-11-24 20:07:35.140,11.408978,-8.652447,2.4263222,1.8989495,0.06421716,-2.8175375,-6.2812505,50.475002,1.44375,0.18251146,-0.6535047,0.59887886,999.44867, , , , 
2025-11-24 20:07:35.160,10.576276,-9.406186,1.119841,2.0113487,-0.10071633,-2.783329,-7.55625,49.85625,0.69375,0.20794702,-0.63667566,0.59951705,999.44867, , , , 
2025-11-24 20:07:35.180,9.518648,-9.35833,-0.1698904,1.8225914,-0.59124076,-2.5994587,-10.668751,49.55625,-1.125,0.2341161,-0.62102216,0.5993432,999.4428, , , , 
2025-11-24 20:07:35.200,9.281759,-8.9108715,0.2416751,1.4218642,-0.9711986,-2.4119232,-14.250001,47.7,-2.1937501,0.26020956,-0.6089871,0.5967352,999.4428, , , , 
2025-11-24 20:07:35.220,8.863015,-8.609376,1.6462619,1.1078796,-1.0078505,-2.2738678,-15.31875,47.23125,-4.6875,0.29081815,-0.5981699,0.5901345,999.42865, , , , 
2025-11-24 20:07:35.240,8.480164,-8.580662,2.4526432,1.0357976,-0.86002123,-2.2262204,-18.45,47.662502,-5.15625,0.3074994,-0.59218425,0.58561283,999.42865,37.88742967,127.74020769,145.37548828125,0.0
2025-11-24 20:07:35.260,7.7144604,-8.250452,2.6751757,1.1011602,-0.70547247,-2.1975098,-20.925001,44.8125,-5.6625004,0.33321583,-0.58090734,0.5786755,999.4277, , , , 
2025-11-24 20:07:35.281,7.0301127,-7.853244,2.2444677,1.1659118,-0.78183055,-2.1981206,-23.53125,44.287502,-5.0437503,0.35336155,-0.570847,0.57356364,999.4277, , , , 
2025-11-24 20:07:35.301,6.285945,-7.140183,2.1535404,1.1634684,-1.2638029,-2.2702026,-23.550001,42.675003,-6.4875,0.37533513,-0.561844,0.5670378,999.4179, , , , 
2025-11-24 20:07:35.320,6.573084,-7.1617184,0.863809,1.0919971,-1.3963605,-2.4045928,-26.343752,42.412502,-8.34375,0.39883617,-0.5532534,0.55876684,999.4179, , , , 
2025-11-24 20:07:35.340,5.582455,-6.04427,2.5938199,1.0345758,-1.8545091,-2.2769222,-30.54375,39.975002,-6.3750005,0.42974296,-0.545549,0.54480207,999.415, , , , 
2025-11-24 20:07:35.360,5.2833524,-6.786045,1.3686945,1.2392156,-1.5307508,-2.4638467,-30.13125,39.24375,-4.51875,0.4487556,-0.53980196,0.53651476,999.415, , , , 
2025-11-24 20:07:35.380,4.0845485,-7.4416785,1.0887343,1.0913863,-1.3963605,-2.3264022,-34.0875,37.612503,-5.86875,0.4732472,-0.5302586,0.526057,999.3984, , , , 
2025-11-24 20:07:35.400,3.6921253,-7.408179,0.66759753,1.0480149,-0.96264654,-2.114432,-35.53125,34.10625,-5.83125,0.4946162,-0.52076334,0.5166792,999.3984, , , , 
2025-11-24 20:07:35.420,2.6991038,-7.865208,-0.28713873,0.7236457,-0.39759663,-1.6196316,-33.7125,33.5625,-7.9875,0.51460963,-0.50863355,0.50869846,999.39545, , , , 
2025-11-24 20:07:35.440,2.5316064,-8.26481,-0.5240282,0.47563457,0.10453424,-1.1181116,-36.15,32.325,-8.2875,0.52394325,-0.50060594,0.50559115,999.39545, , , , 
2025-11-24 20:07:35.459,2.2037897,-9.29133,-1.1772687,0.16714787,0.4643336,-0.51763153,-36.61875,29.2875,-7.9125004,0.52739656,-0.4943797,0.50579053,999.3869, , , , 
2025-11-24 20:07:35.481,2.6943183,-9.597611,-1.3016955,-0.07108939,0.46860963,0.04130973,-36.375,30.431252,-9.075001,0.52590865,-0.49166268,0.50823796,999.3869, , , , 
2025-11-24 20:07:35.499,3.1274192,-10.009177,-1.1796615,-0.25679228,0.349491,0.5397754,-37.050003,30.618752,-9.637501,0.52101254,-0.49296948,0.51189256,999.3874, , , , 
2025-11-24 20:07:35.520,4.503292,-10.801202,-1.1724831,-0.37163487,0.3012327,0.96432644,-35.34375,29.56875,-10.9875,0.5135015,-0.49801677,0.51644754,999.3874, , , , 
2025-11-24 20:07:35.539,5.493921,-11.906686,-1.7587247,-0.54023355,0.3653735,1.3241258,-33.5625,31.743752,-12.075001,0.50340044,-0.5057139,0.52216566,999.39716, , , , 
2025-11-24 20:07:35.559,5.1206403,-11.755938,-1.2562319,-0.8358921,0.40752316,1.8042655,-32.025,32.15625,-11.962501,0.48610473,-0.51909316,0.5304184,999.39716, , , , 
2025-11-24 20:07:35.579,4.6755753,-10.3681,-0.12203395,-0.99593866,0.3824777,2.3173919,-31.050001,34.237503,-10.63125,0.46809912,-0.53302145,0.53787404,999.40643, , , , 
2025-11-24 20:07:35.599,5.5633125,-8.99462,1.3208381,-0.84688765,0.30001098,2.6949062,-29.85,34.987503,-11.26875,0.44754115,-0.5486946,0.54656404,999.40643, , , , 
2025-11-24 20:07:35.621,7.166504,-8.305488,1.1916257,-0.46692976,0.2700786,2.7993643,-28.800001,36.581253,-11.775001,0.42688647,-0.5635884,0.5568847,999.4113, , , , 
2025-11-24 20:07:35.640,7.9274216,-8.063812,-0.02871387,-0.29772022,0.358654,2.6839108,-25.181252,37.706253,-12.20625,0.40256503,-0.5790866,0.5710066,999.4113, , , , 
2025-11-24 20:07:35.659,7.810173,-8.331808,-1.4141582,-0.36858055,0.4484511,2.646037,-22.85625,39.16875,-11.15625,0.38816696,-0.5871368,0.57929957,999.42303, , , , 
2025-11-24 20:07:35.681,7.489535,-8.8701935,-1.8281165,-0.62331116,0.4954877,2.7871468,-20.925001,41.49375,-10.875,0.36781663,-0.5983512,0.58920324,999.42303, , , , 
2025-11-24 20:07:35.699,7.568498,-9.169296,-1.3064811,-0.9238566,0.44906196,3.1591635,-17.25,43.74375,-11.231251,0.33857593,-0.6149181,0.5998878,999.434, , , , 
2025-11-24 20:07:35.719,8.224132,-8.965906,-0.069391854,-1.016708,0.33177593,3.4340527,-16.10625,43.706253,-9.337501,0.312299,-0.63004136,0.60743195,999.434, , , , 
2025-11-24 20:07:35.740,9.099904,-8.609376,0.930808,-0.9586759,0.27191117,3.5916557,-13.875001,45.43125,-8.4375,0.28495973,-0.6452372,0.6146529,999.4516, , , , 
2025-11-24 20:07:35.759,10.0163555,-8.338987,1.7994026,-0.7625883,0.33666286,3.6026514,-9.13125,46.40625,-8.53125,0.2572783,-0.65889776,0.62202054,999.4516, , , , 
2025-11-24 20:07:35.779,10.734202,-7.7647095,1.7706888,-0.4993056,0.33666286,3.5440085,-6.7125,48.375004,-6.43125,0.23008262,-0.66998327,0.63002396,999.47186, , , , 
2025-11-24 20:07:35.799,11.380264,-7.257431,1.2873386,-0.30932665,0.36231917,3.4633741,-3.6000001,47.193752,-5.2875004,0.20413376,-0.6785065,0.6385383,999.47186, , , , 
2025-11-24 20:07:35.819,12.222538,-6.4438715,0.6436693,-0.19998185,0.4502837,3.3210428,2.0625,49.031254,-6.6000004,0.17304349,-0.68631077,0.6490734,999.48016, , , , 
2025-11-24 20:07:35.839,13.294522,-5.7260246,0.02632105,-0.26045746,0.5474112,3.1548874,3.3187501,49.425003,-7.5375004,0.14893264,-0.69107187,0.65656614,999.48016, , , , 
2025-11-24 20:07:35.859,14.091332,-4.76411,-0.8207382,-0.5628355,0.7312815,2.7853143,8.606251,48.093754,-6.4687505,0.12560603,-0.6956061,0.66173834,999.4919, , , , 
2025-11-24 20:07:35.879,14.392828,-4.4434714,-0.23928227,-1.0417535,1.0202205,2.2569163,11.3625,47.362503,-5.025,0.10304493,-0.70124024,0.6626873,999.4919, , , , 
2025-11-24 20:07:35.899,12.878172,-4.278367,1.9238294,-1.2152392,1.0910809,1.9673663,14.606251,48.937504,-4.6687503,0.080904946,-0.70759326,0.6601322,999.4958, , , , 
2025-11-24 20:07:35.919,13.036098,-3.7328033,2.7182465,-0.94768035,0.9579123,1.8311435,17.5125,46.612503,-4.8562503,0.060228314,-0.71317047,0.65719545,999.4958, , , , 
2025-11-24 20:07:35.940,14.986248,-3.6323047,2.1104696,-0.6727912,0.5950587,1.5727477,17.625,47.475002,-1.66875,0.042590346,-0.71688825,0.6555628,999.5019, , , , 
2025-11-24 20:07:35.959,16.07259,-3.8787656,1.698904,-0.4803688,0.14546217,1.0529019,19.650002,45.7125,-3.9375002,0.028563542,-0.7202719,0.65403754,999.5019, , , , 
2025-11-24 20:07:35.983,17.120646,-5.0679984,2.0338993,-0.34109163,-0.37743807,0.415159,19.9125,46.4625,-1.5375,0.024796132,-0.72279894,0.6524278,999.50116, , , , 
2025-11-24 20:07:36.000,17.357536,-5.9820566,2.3712873,-0.21036656,-0.7360157,-0.107741274,20.0625,46.59375,-0.31875002,0.02831054,-0.7252147,0.6504156,999.50116, , , , 
2025-11-24 20:07:36.019,16.08934,-6.4366927,2.4358935,-0.17127122,-1.019457,-0.542677,21.243752,45.862503,-1.5,0.038132146,-0.72743446,0.64790905,999.497, , , , 
2025-11-24 20:07:36.041,15.567704,-8.518449,2.7708886,-0.22136213,-1.0927607,-0.70333445,22.237501,46.331253,-1.7812501,0.05085048,-0.72984684,0.64480466,999.497, , , , 
2025-11-24 20:07:36.059,16.29273,-10.928021,3.2039895,-0.20242532,-0.7445678,-1.0356449,19.63125,46.66875,0.16875,0.0639917,-0.7321405,0.64103454,999.50287, , , , 
2025-11-24 20:07:36.079,17.783459,-12.863814,2.8929226,0.07429643,-0.1220966,-1.875584,20.625,44.8125,-2.60625,0.077832565,-0.7324125,0.63716555,999.50287, , , , 
2025-11-24 20:07:36.099,12.952349,-8.930014,2.7230322,0.50923216,0.31528258,-2.5811327,17.325,46.706253,-1.7437501,0.09947664,-0.7262973,0.6334569,999.51215, , , , 
2025-11-24 20:07:36.119,11.650654,-9.274581,0.7106683,0.83421224,0.61582804,-3.0466118,15.843751,48.037502,-2.2875001,0.119166695,-0.7172166,0.631827,999.51215, , , , 
2025-11-24 20:07:36.140,10.423136,-9.430114,-0.2727818,0.9667699,0.81863517,-3.3007314,12.225,49.55625,-4.4625,0.13449562,-0.7085555,0.6306892,999.5175, , , , 
2025-11-24 20:07:36.159,9.454042,-10.514063,-1.2873386,0.9820415,0.6769145,-3.460778,8.306251,49.031254,-3.3937502,0.16096221,-0.6919802,0.6280076,999.5175, , , , 
2025-11-24 20:07:36.180,8.29113,-10.923235,-0.8135597,0.9007965,0.32261297,-3.4827693,6.1125,48.937504,-5.175,0.18386577,-0.67909545,0.6238817,999.51044, , , , 
2025-11-24 20:07:36.200,7.7312098,-11.504691,-0.2536392,0.83971,0.09720386,-3.4400086,1.8750001,48.881252,-6.2625003,0.20765577,-0.66681755,0.6182818,999.51044, , , , 
2025-11-24 20:07:36.219,7.094719,-11.566905,0.715454,0.86170113,-0.17524183,-3.3575418,-1.48125,47.662502,-4.4625,0.23177682,-0.65495557,0.6117198,999.51263, , , , 
2025-11-24 20:07:36.239,6.6831536,-11.547762,1.2873386,0.9692133,-0.5032762,-3.2836273,-4.5375004,46.987503,-5.34375,0.25674638,-0.64318573,0.60472184,999.51263,37.88744348,127.74019957,145.48785400390625,1.61
2025-11-24 20:07:36.259,6.1878395,-11.236695,1.5601203,1.0864993,-0.8117629,-3.252473,-7.6875005,47.0625,-8.71875,0.2900212,-0.6285147,0.5954415,999.5202, , , , 
2025-11-24 20:07:36.279,5.151747,-10.719846,1.5409778,1.1433098,-0.8832341,-3.1455717,-12.731251,45.393753,-6.5437503,0.31748375,-0.61650145,0.58764875,999.5202, , , , 
2025-11-24 20:07:36.299,4.2975097,-10.059426,1.2370893,1.1359794,-0.7225767,-2.9201627,-13.81875,44.081253,-10.5375,0.34356478,-0.6041264,0.5802084,999.5246, , , , 
2025-11-24 20:07:36.319,3.5030923,-9.233903,0.50009996,1.0205259,-0.33956447,-2.5970151,-17.56875,42.956253,-10.6875,0.3661007,-0.59139746,0.57392347,999.5246, , , , 
2025-11-24 20:07:36.340,2.9575288,-8.635697,0.12921242,0.8445969,0.07276927,-2.2091162,-19.3875,42.75,-8.94375,0.38348863,-0.5787183,0.569272,999.5214, , , , 
2025-11-24 20:07:36.359,2.605784,-8.082955,-0.18424734,0.67722,0.33666286,-1.8059454,-21.862501,41.268753,-10.293751,0.39599848,-0.5667024,0.56620276,999.5214, , , , 
2025-11-24 20:07:36.380,2.2755744,-7.7910304,-0.47138608,0.5788707,0.34154978,-1.4339287,-21.900002,39.412502,-13.275001,0.40705165,-0.5533971,0.56397617,999.5109, , , , 
2025-11-24 20:07:36.401,1.9357935,-7.5062847,-0.7393822,0.5141191,0.16500984,-1.120555,-25.06875,39.075,-11.38125,0.41393363,-0.5449565,0.5628408,999.5109, , , , 
2025-11-24 20:07:36.419,1.753939,-7.338787,-0.74895346,0.45242172,-0.053679742,-0.8395573,-22.6875,38.34375,-13.593751,0.42005557,-0.53892267,0.5617801,999.5068, , , , 
2025-11-24 20:07:36.439,1.8496519,-7.3746796,-0.7752745,0.40294167,-0.25954118,-0.57016593,-25.743752,37.893753,-11.700001,0.42565677,-0.5352768,0.5607455,999.5068, , , , 
2025-11-24 20:07:36.459,2.1272194,-7.752745,-0.71306115,0.32414013,-0.40248352,-0.303218,-28.275002,37.0125,-11.700001,0.43053463,-0.53389245,0.5598353,999.49945, , , , 
2025-11-24 20:07:36.479,2.8833513,-8.559127,-0.97866446,0.1928042,-0.44157887,-0.03565923,-28.143751,36.9,-11.55,0.43416318,-0.53446335,0.5593071,999.49945, , , , 
2025-11-24 20:07:36.499,3.1728828,-9.391829,-1.1916257,-0.017333288,-0.34628397,0.24594943,-26.6625,35.550003,-10.856251,0.4357674,-0.5369259,0.5591309,999.5036, , , , 
2025-11-24 20:07:36.519,3.5892339,-10.0881405,-1.0576276,-0.2690096,-0.18990259,0.6118574,-28.218752,38.006252,-10.837501,0.4339885,-0.5414884,0.55968136,999.5036, , , , 
2025-11-24 20:07:36.539,4.6636114,-11.571691,-0.96909314,-0.53290313,0.01962403,1.0443497,-27.487501,38.081253,-10.6125,0.4260054,-0.55024964,0.5619171,999.51166, , , , 
2025-11-24 20:07:36.559,5.697311,-13.201202,-1.1126626,-0.7540362,0.16439898,1.4444661,-26.493752,37.93125,-10.2375,0.4148347,-0.55960166,0.5651045,999.51166, , , , 
2025-11-24 20:07:36.579,5.9844494,-13.832908,-0.8279166,-0.9739475,0.18761185,1.8940626,-24.91875,39.956253,-10.368751,0.3996801,-0.5713698,0.5691129,999.5131, , , , 
2025-11-24 20:07:36.599,4.84068,-11.547762,0.8470592,-1.0325905,0.085597426,2.5037057,-23.34375,41.23125,-9.993751,0.38107646,-0.5856188,0.5738696,999.5131, , , , 
2025-11-24 20:07:36.619,5.4029937,-9.224331,2.2636101,-0.81634444,0.051999863,2.9471934,-20.400002,41.4,-8.90625,0.3600068,-0.60102993,0.58034176,999.5236, , , , 
2025-11-24 20:07:36.640,7.135397,-8.379665,2.2731814,-0.510912,0.17478369,3.0235517,-20.15625,42.787502,-6.8625,0.33804184,-0.6149531,0.5891522,999.5236, , , , 
2025-11-24 20:07:36.659,8.848659,-8.647661,0.5072784,-0.2372446,0.4710531,2.8292966,-18.2625,44.831253,-6.7125,0.3164489,-0.62539476,0.5996802,999.5241, , , , 
2025-11-24 20:07:36.679,9.059227,-9.573684,-1.0073783,-0.24579671,0.6628646,2.637485,-14.700001,45.075,-7.2562504,0.2951716,-0.6331107,0.610277,999.5241, , , , 
2025-11-24 20:07:36.699,9.717253,-11.394622,-1.7946169,-0.3331504,0.41668615,2.5507421,-14.45625,47.2125,-4.93125,0.26908812,-0.64195216,0.62166244,999.529, , , , 
2025-11-24 20:07:36.719,9.757931,-12.016755,-2.1511476,-0.4559342,-0.13370302,2.7260604,-12.225,48.05625,-5.2125,0.2500777,-0.6506642,0.6285655,999.529, , , , 
2025-11-24 20:07:36.739,10.126426,-10.738988,-1.5218352,-0.8041271,-0.58452123,3.0730317,-8.85,49.518753,-5.175,0.2317611,-0.6626658,0.63311434,999.52606, , , , 
2025-11-24 20:07:36.759,11.753545,-8.618947,0.89013004,-1.2543344,-0.78244144,3.2147522,-4.0125003,50.268753,-5.11875,0.21276239,-0.67782164,0.6346346,999.52606, , , , 
2025-11-24 20:07:36.779,13.406985,-6.8817577,4.1371903,-1.3050362,-0.4739547,2.9875107,-2.8875,48.750004,-2.98125,0.1930747,-0.6935789,0.6335285,999.53046, , , , 
2025-11-24 20:07:36.800,14.328222,-5.156533,6.2380886,-0.68500847,0.17905974,2.637485,1.63125,50.943752,-1.2750001,0.17325729,-0.70528525,0.6332757,999.53046, , , , 
2025-11-24 20:07:36.819,14.971891,-3.0317063,4.436293,0.23556472,0.99578595,2.195219,0.41250002,48.693752,-0.09375,0.14883383,-0.7090337,0.6399966,999.53265, , , , 
2025-11-24 20:07:36.839,14.567504,-1.3926228,1.3854443,0.6295725,1.2725077,1.7407355,5.34375,49.0875,-1.5562501,0.13517967,-0.7062814,0.6470452,999.53265, , , , 
2025-11-24 20:07:36.859,12.921243,-0.31106696,-1.3926228,0.5623774,1.1503347,1.1170427,6.0937505,49.162502,-1.63125,0.117217325,-0.69917136,0.6580155,999.5295, , , , 
2025-11-24 20:07:36.880,11.535798,0.1268196,-2.6823542,0.19830199,0.7453314,0.7786235,9.525001,49.275,-3.6937501,0.107550316,-0.69512194,0.6633099,999.5295, , , , 
2025-11-24 20:07:36.899,10.892129,-0.13160525,-2.1942184,-0.30627233,0.49304423,0.5312233,9.09375,48.61875,-3.61875,0.100939736,-0.6946413,0.66435397,999.5195, , , , 
2025-11-24 20:07:36.920,10.518848,-1.1772687,0.06699903,-0.6312524,0.41179922,0.28565565,11.75625,48.6375,-4.6687503,0.09559911,-0.69694734,0.6618494,999.5195, , , , 
2025-11-24 20:07:36.940,10.277173,-1.8376877,1.861616,-0.5585595,0.2041052,0.14698933,11.118751,47.8125,-2.8500001,0.091695495,-0.6999991,0.6580431,999.51385, , , , 
2025-11-24 20:07:36.959,11.499906,-2.5866413,2.3449662,-0.16577344,-0.12637265,0.21784966,11.8125,49.875004,-1.6500001,0.09010625,-0.7025113,0.6549617,999.51385, , , , 
2025-11-24 20:07:36.980,13.287344,-3.3523445,1.1078769,0.12194388,-0.70058554,0.1702022,12.375001,50.437504,-2.3625002,0.09230462,-0.7031065,0.6545742,999.5131, , , , 
2025-11-24 20:07:36.999,14.94557,-3.7950168,0.80877405,0.25999933,-0.5955168,-0.3239874,10.3125,48.45,0.58125,0.09724358,-0.70301694,0.65478444,999.5131, , , , 
2025-11-24 20:07:37.019,16.256838,-5.0344987,1.3663018,0.3210858,-0.3835467,-1.0160972,11.8125,49.125004,-1.7625,0.10983462,-0.7010955,0.6538075,999.51117, , , , 
2025-11-24 20:07:37.040,17.510675,-7.735996,1.5864414,0.44325876,-0.27542365,-1.5829797,9.88125,50.30625,-3.6375,0.123132624,-0.6975084,0.6524062,999.51117, , , , 
2025-11-24 20:07:37.059,16.295122,-8.683554,1.4787644,0.5238929,0.1882227,-2.2023966,9.65625,47.68125,-4.2375,0.13930494,-0.691756,0.65014744,999.51556, , , , 
2025-11-24 20:07:37.079,15.043676,-9.9015,0.6149554,0.44142616,0.43073604,-2.4895031,8.00625,50.49375,-3.3000002,0.15565355,-0.68402857,0.6470986,999.51556, , , , 
2025-11-24 20:07:37.100,13.10549,-10.547563,0.5886344,0.2935969,0.6127737,-2.625726,3.3000002,49.631252,-3.6937501,0.17502064,-0.67372775,0.6412847,999.5412, , , , 
2025-11-24 20:07:37.120,12.038291,-10.542776,1.134198,0.28382304,0.49304423,-2.6440518,1.66875,49.48125,-4.89375,0.18606664,-0.66748506,0.6369745,999.5412, , , , 
2025-11-24 20:07:37.139,11.19841,-10.238888,1.713261,0.41088292,0.23403756,-2.625726,-1.9687501,48.843754,-4.1625004,0.2016528,-0.6591009,0.6309121,999.57245, , , , 
2025-11-24 20:07:37.159,10.796415,-9.736395,1.2705889,0.55443615,-0.04696023,-2.7179666,-4.4812503,47.98125,-4.93125,0.2237364,-0.64803445,0.62344444,999.57245, , , , 
2025-11-24 20:07:37.179,9.765109,-9.446864,0.72502524,0.44570222,-0.09460768,-2.8254788,-6.0,49.068752,-6.3750005,0.24329354,-0.6388906,0.6164051,999.601, , , , 
2025-11-24 20:07:37.199,8.116454,-8.437093,1.2251252,0.24411684,0.07399099,-2.7173557,-10.9875,48.54375,-3.6750002,0.2618428,-0.6302616,0.6079987,999.601, , , , 
2025-11-24 20:07:37.219,7.298109,-7.568498,1.4285151,0.004657844,0.1955531,-2.6397758,-14.118751,46.725002,-4.1625004,0.27761495,-0.6217808,0.59906006,999.61395, , , , 
2025-11-24 20:07:37.240,6.3361945,-7.1186476,2.0386848,-0.21769693,0.43623382,-2.6092327,-13.837501,46.0125,-3.6937501,0.29087254,-0.61386734,0.5889241,999.61395,37.88745334,127.74019665,145.6513671875,1.21
2025-11-24 20:07:37.260,4.867001,-7.056434,2.5555346,-0.33009607,0.69707304,-2.5169919,-16.987501,45.45,-5.9437504,0.30122986,-0.60567343,0.578323,999.62396, , , , 
2025-11-24 20:07:37.279,3.4695928,-6.62094,2.9383862,-0.20486878,0.95730144,-2.1052692,-19.556252,44.325,-5.925,0.30954894,-0.59408903,0.5672181,999.62396, , , , 
2025-11-24 20:07:37.299,3.07717,-6.094519,3.0652058,0.06024654,1.1240675,-1.7607414,-19.85625,43.55625,-6.15,0.3135122,-0.5842126,0.56115705,999.6369, , , , 
2025-11-24 20:07:37.319,2.8761728,-6.084948,2.2755744,0.27160576,1.0232749,-1.636125,-22.0125,41.5875,-6.43125,0.31682238,-0.57290924,0.55773735,999.6369, , , , 
2025-11-24 20:07:37.339,3.249453,-7.0636125,1.6558332,0.5122865,0.89621496,-1.5628211,-19.44375,42.487503,-8.606251,0.32101616,-0.56143266,0.5553251,999.63104, , , , 
2025-11-24 20:07:37.359,2.9910283,-8.444271,0.6987042,0.71936965,0.5132028,-1.4039963,-23.493752,42.075,-7.8562503,0.32684636,-0.5500629,0.5538889,999.63104, , , , 
2025-11-24 20:07:37.383,2.8259234,-9.332008,0.27996024,0.86414456,0.12408191,-1.1187224,-24.562502,40.237503,-9.806251,0.33441558,-0.54058355,0.55314976,999.6103, , , , 
2025-11-24 20:07:37.399,3.266203,-10.226924,-0.2943172,0.94844395,-0.23816091,-0.86826795,-24.487501,41.25,-11.1,0.3453685,-0.5318539,0.5533327,999.6103, , , , 
2025-11-24 20:07:37.419,3.2063823,-10.884951,-0.26081768,0.8904118,-0.6107884,-0.58727014,-25.85625,38.006252,-12.168751,0.35479125,-0.52765065,0.5536496,999.582, , , , 
2025-11-24 20:07:37.441,3.1657043,-10.516456,0.05503492,0.7963386,-0.987692,-0.16760603,-26.775002,37.162502,-11.55,0.36391872,-0.52722335,0.5540936,999.582, , , , 
2025-11-24 20:07:37.460,3.8691943,-10.346565,0.36370903,0.75174546,-1.0542762,0.14210242,-25.48125,37.66875,-12.4875,0.37221354,-0.52923375,0.5551878,999.5461, , , , 
2025-11-24 20:07:37.480,4.5008993,-10.262816,0.57427746,0.68760467,-0.88445586,0.37545276,-26.56875,38.0625,-13.012501,0.37873036,-0.53233725,0.55730957,999.5461, , , , 
2025-11-24 20:07:37.499,4.5942197,-10.403993,-0.019142581,0.5965858,-0.6333904,0.6124683,-28.050001,35.90625,-11.34375,0.38268548,-0.5354539,0.56089747,999.52875, , , , 
2025-11-24 20:07:37.519,4.6301117,-10.621739,-0.34217364,0.4145481,-0.3456731,0.920955,-25.575,37.18125,-12.918751,0.3832081,-0.5388486,0.5659919,999.52875, , , , 
2025-11-24 20:07:37.540,5.838487,-11.62194,-0.6652047,0.29237515,-0.17951788,1.2398264,-26.550001,38.30625,-10.875,0.37994882,-0.5431442,0.5724778,999.5014, , , , 
2025-11-24 20:07:37.559,6.7764735,-13.658232,-1.7467605,0.010155627,-0.10682498,1.6368885,-25.556252,38.662502,-13.462501,0.37129402,-0.5506205,0.5820385,999.5014, , , , 
2025-11-24 20:07:37.580,7.338787,-13.615161,-2.1774685,-0.44677123,-0.04940369,2.1103086,-23.962502,40.18125,-11.71875,0.35971597,-0.560279,0.5896899,999.4887, , , , 
2025-11-24 20:07:37.600,7.554141,-12.052648,-0.18664017,-0.8432225,0.06666062,2.5916703,-23.04375,41.04375,-12.468751,0.34304592,-0.5733127,0.59675455,999.4887, , , , 
2025-11-24 20:07:37.620,8.867801,-10.8969145,1.1557333,-0.818177,0.21693335,2.8347943,-19.893751,42.975002,-11.53125,0.32262236,-0.5872204,0.6042843,999.47577, , , , 
2025-11-24 20:07:37.639,9.193225,-9.399008,1.430908,-0.5512291,0.34888014,2.9930084,-19.5,44.362503,-8.868751,0.30052266,-0.59961057,0.6132447,999.47577, , , , 
2025-11-24 20:07:37.659,10.688739,-8.149954,0.50009996,-0.15538873,0.40324712,3.1109052,-14.231251,44.4,-8.962501,0.27852848,-0.609391,0.6243081,999.4733, , , , 
2025-11-24 20:07:37.679,11.75833,-6.9056864,-1.3543376,-0.24640758,0.4606684,3.0333254,-11.94375,46.256252,-9.46875,0.25712228,-0.61697465,0.63614243,999.4733, , , , 
2025-11-24 20:07:37.700,13.002598,-5.986842,-0.7298109,-0.73326683,0.6726385,2.6442046,-9.543751,47.25,-8.83125,0.22992012,-0.6270424,0.6467669,999.4755, , , , 
2025-11-24 20:07:37.719,12.7082815,-5.922236,1.820938,-0.8218422,0.60177815,2.2495859,-3.6562502,48.093754,-9.825001,0.20873594,-0.63497746,0.6513281,999.4755, , , , 
2025-11-24 20:07:37.739,11.736795,-5.697311,3.3523445,-0.4174497,0.4246274,2.0693808,-2.68125,48.581253,-9.4875,0.19051903,-0.6411698,0.65537655,999.4726, , , , 
2025-11-24 20:07:37.759,10.968699,-4.7210393,2.2827528,0.11522437,0.32322383,1.9630903,-1.35,48.693752,-8.08125,0.17577274,-0.6440212,0.6616535,999.4726, , , , 
2025-11-24 20:07:37.780,10.389636,-3.5653057,0.68195444,0.11155918,0.4814378,1.8574107,1.4250001,49.36875,-8.868751,0.16278665,-0.6446681,0.6691703,999.48724, , , , 
2025-11-24 20:07:37.799,9.470792,-2.0147567,-0.0071784677,-0.18593197,0.7074578,1.7242422,2.1000001,48.43125,-7.65,0.14919323,-0.64544183,0.67537594,999.48724, , , , 
2025-11-24 20:07:37.820,9.114262,-1.4955142,0.6987042,-0.6068178,0.932256,1.4963896,3.9,47.86875,-8.2875,0.12993374,-0.6478005,0.6796316,999.49774, , , , 
2025-11-24 20:07:37.840,8.62134,-1.2873386,2.0602202,-0.82795084,1.0849723,1.2227222,6.8625,50.287502,-7.9500003,0.11366479,-0.6507988,0.68010455,999.49774, , , , 
2025-11-24 20:07:37.859,7.501499,-1.3854443,2.7708886,-0.8652136,0.98173606,1.0168608,6.8625,48.037502,-7.8187504,0.098173164,-0.65379137,0.6790906,999.51556, , , , 
2025-11-24 20:07:37.879,6.5084777,-1.5194423,2.6416762,-0.9366848,0.8852194,0.9686025,9.88125,49.331253,-6.675,0.0840897,-0.6570201,0.6772953,999.51556, , , , 
2025-11-24 20:07:37.899,6.2979093,-2.0171494,3.0388846,-1.1462114,0.9047671,1.0162499,8.6625,50.062504,-3.3375,0.069689035,-0.661196,0.67452323,999.5151, , , , 
2025-11-24 20:07:37.920,7.501499,-4.1443686,3.940979,-1.3129774,0.9200387,1.0834451,8.700001,50.30625,-3.05625,0.05379516,-0.66613555,0.67068243,999.5151, , , , 
2025-11-24 20:07:37.941,9.097511,-4.505685,5.759524,-1.1498766,0.78381586,1.0125847,12.76875,50.11875,-4.0875,0.037997134,-0.6714599,0.6662936,999.51874, , , , 
2025-11-24 20:07:37.959,10.449456,-4.6803613,5.680561,-0.6428588,0.41851872,0.7560215,10.837501,48.656254,-1.8000001,0.025502037,-0.6749671,0.663294,999.51874, , , , 
2025-11-24 20:07:37.979,12.579068,-5.575277,4.35733,-0.24701844,-0.13614649,0.3888918,13.650001,48.187504,-0.52500004,0.018806836,-0.6769928,0.66211855,999.5317, , , , 
2025-11-24 20:07:37.999,14.761323,-6.5443697,3.8069808,-0.19387321,-0.4134791,-0.10468695,14.212501,48.750004,-1.5375,0.020583777,-0.67861927,0.66115665,999.5317, , , , 
2025-11-24 20:07:38.019,14.823536,-7.2550383,4.005585,-0.28794637,-0.26137376,-0.6966149,13.35,48.15,-0.16875,0.026631905,-0.68051076,0.65812725,999.5302, , , , 
2025-11-24 20:07:38.039,14.624932,-8.295917,4.063013,-0.4400517,0.0721584,-1.0179298,13.181251,48.0,-0.61875004,0.033617806,-0.6822247,0.6528866,999.5302, , , , 
2025-11-24 20:07:38.059,14.569897,-9.8321085,3.4480574,-0.5603921,0.35193446,-1.1981349,11.606251,48.956253,0.26250002,0.039576925,-0.6836333,0.645993,999.52924, , , , 
2025-11-24 20:07:38.080,15.64906,-10.705488,3.656233,-0.5121338,0.44906196,-1.4162136,9.675,49.631252,0.75,0.044863634,-0.68482447,0.63807994,999.52924, , , , 
2025-11-24 20:07:38.099,14.77568,-10.21496,4.486542,-0.08452842,0.35193446,-1.8157192,10.856251,48.881252,0.35625002,0.052324474,-0.68448526,0.630126,999.50385, , , , 
2025-11-24 20:07:38.119,12.026326,-8.504091,4.65404,0.71387184,0.09659299,-2.1064909,6.1875005,48.506252,2.71875,0.068637,-0.6793948,0.62335587,999.50385, , , , 
2025-11-24 20:07:38.140,10.583454,-7.795816,3.6466618,1.3088541,-0.25709772,-2.1920118,4.275,49.93125,3.15,0.082390755,-0.6735383,0.6220569,999.4853, , , , 
2025-11-24 20:07:38.159,10.475778,-7.9800634,2.2229323,1.8128176,-0.77999794,-2.3209043,3.6562502,50.8875,-0.71250004,0.11176348,-0.6611432,0.62311953,999.4853, , , , 
2025-11-24 20:07:38.180,12.1866455,-8.647661,0.45942193,1.9765294,-1.1935534,-2.6196172,1.48125,48.05625,-1.7062501,0.14056498,-0.6502098,0.62455153,999.45844, , , , 
2025-11-24 20:07:38.199,7.1617184,-8.070991,-2.952743,1.5990149,-0.9510401,-2.6049564,-1.48125,49.893753,-4.125,0.17249979,-0.6395722,0.6236841,999.45844, , , , 
2025-11-24 20:07:38.220,7.786245,-7.8963146,-1.7970098,0.85131645,-0.80076736,-2.377104,-2.7,48.15,-4.05,0.1987478,-0.631397,0.6197588,999.43256, , , , 
2025-11-24 20:07:38.239,7.645068,-7.609176,-0.76331043,0.27710354,-0.57108223,-2.196899,-8.175,47.850002,-4.5375004,0.21967381,-0.62642527,0.61261755,999.43256,37.88746163,127.74019172,145.3988037109375,0.96
2025-11-24 20:07:38.260,7.1880393,-6.927222,1.3136597,-0.0045051277,-0.32612544,-2.1859033,-9.4875,47.71875,-6.7125,0.2399518,-0.6222764,0.6008761,999.43134, , , , 
2025-11-24 20:07:38.279,6.195018,-6.1304116,2.0291135,0.05780308,-0.16607887,-2.2164464,-10.8,46.4625,-4.8,0.25422442,-0.61802226,0.5911851,999.43134, , , , 
2025-11-24 20:07:38.300,5.089534,-5.558527,2.7062824,0.30642503,-0.04329504,-2.1571927,-13.06875,46.0875,-4.3875003,0.26801372,-0.6120977,0.5823993,999.4357, , , , 
2025-11-24 20:07:38.319,4.9866424,-5.615955,2.7038896,0.658894,-0.110490166,-2.0478477,-13.9125,45.412502,-6.2625003,0.2820634,-0.6042707,0.57562196,999.4357, , , , 
2025-11-24 20:07:38.342,5.1014977,-6.046663,1.6941184,0.9160681,-0.2589303,-2.0093634,-17.362501,44.41875,-4.7625003,0.30155718,-0.5927963,0.5695661,999.44183, , , , 
2025-11-24 20:07:38.359,4.8358946,-6.5611196,1.2323036,0.96127206,-0.3523926,-2.0246348,-19.518751,42.112503,-8.587501,0.31413066,-0.5856255,0.5662148,999.44183, , , , 
2025-11-24 20:07:38.379,4.2352962,-7.34118,1.0480564,0.956996,-0.5136609,-1.9617159,-18.91875,39.9375,-9.6,0.33561915,-0.57405496,0.5601987,999.43304, , , , 
2025-11-24 20:07:38.401,3.7998023,-7.793423,0.91166544,0.875751,-0.608345,-1.798615,-22.087502,41.100002,-7.9500003,0.35254708,-0.566031,0.5550112,999.43304, , , , 
2025-11-24 20:07:38.419,3.4719856,-8.152347,0.78723866,0.7651845,-0.50999576,-1.5780928,-23.868752,39.318752,-10.275001,0.36780158,-0.55909353,0.5500553,999.4223, , , , 
2025-11-24 20:07:38.440,3.2685957,-8.372486,0.4881358,0.5959749,-0.3096321,-1.3227513,-22.612501,38.2125,-10.96875,0.38017258,-0.5529161,0.54597855,999.4223, , , , 
2025-11-24 20:07:38.459,3.4791641,-8.786445,0.1052842,0.33757916,-0.026801692,-1.0301471,-24.825,38.100002,-11.19375,0.3889296,-0.5475826,0.54287905,999.4135, , , , 
2025-11-24 20:07:38.479,4.2257247,-9.726824,-0.45942193,0.048029244,0.23098324,-0.7613666,-26.56875,38.287502,-9.7875,0.3936673,-0.54340243,0.54063326,999.4135, , , , 
2025-11-24 20:07:38.500,4.6636114,-10.482956,-0.7082755,-0.24518585,0.38492116,-0.48953176,-26.60625,37.29375,-11.26875,0.39409837,-0.5409061,0.53903806,999.404, , , , 
2025-11-24 20:07:38.519,5.130212,-10.978271,-0.5814559,-0.57138765,0.4344012,-0.1107956,-27.150002,36.75,-11.175,0.3904705,-0.5408109,0.53788084,999.404, , , , 
2025-11-24 20:07:38.539,5.278567,-11.02852,-0.38763726,-0.7870229,0.38186684,0.2239583,-27.300001,36.112503,-10.81875,0.38369703,-0.54334307,0.53703094,999.40204, , , , 
2025-11-24 20:07:38.559,5.6063833,-11.356337,-0.29671,-0.9818888,0.29023713,0.6405681,-26.493752,37.18125,-10.5,0.3716754,-0.5501106,0.53654295,999.40204, , , , 
2025-11-24 20:07:38.580,6.0921264,-12.167503,-0.2321038,-1.1608721,0.16684245,1.1555271,-27.225,37.350002,-8.587501,0.35917914,-0.55856025,0.53693575,999.3991, , , , 
2025-11-24 20:07:38.599,6.867401,-12.729816,0.05742774,-1.2714387,0.03367392,1.6857578,-24.54375,39.84375,-6.6937504,0.34368995,-0.5698932,0.5385128,999.3991, , , , 
2025-11-24 20:07:38.619,6.9966135,-12.30868,0.91405827,-1.2922081,-0.1306487,2.2165992,-24.468752,39.375,-8.981251,0.32544556,-0.5838502,0.54151076,999.39716, , , , 
2025-11-24 20:07:38.640,6.570691,-10.710274,2.3856442,-1.0692425,-0.27603453,2.714454,-22.125,40.331253,-6.20625,0.30516368,-0.5992517,0.54652566,999.39716, , , , 
2025-11-24 20:07:38.659,6.9535427,-9.272188,3.7040894,-0.5237402,-0.38110328,3.153055,-21.6375,42.862503,-4.3875003,0.28432116,-0.614065,0.5548337,999.403, , , , 
2025-11-24 20:07:38.680,8.772088,-8.236095,3.3164523,0.29420775,-0.4880046,3.4468808,-19.275002,44.568752,-2.5687501,0.26010597,-0.62845474,0.57179457,999.403, , , , 
2025-11-24 20:07:38.700,10.490134,-8.23131,1.8711873,0.76457363,-0.44707665,3.4389396,-16.837502,45.581253,-4.125,0.24342938,-0.6357767,0.58929974,999.4189, , , , 
2025-11-24 20:07:38.720,11.241481,-8.188239,0.22971097,0.84948385,-0.33834273,3.3399796,-13.275001,46.443752,-5.0062504,0.22810091,-0.64023024,0.6075798,999.4189, , , , 
2025-11-24 20:07:38.740,11.62194,-7.8604226,-0.32063824,0.4493674,-0.23816091,3.2410195,-11.0625,47.30625,-4.8187504,0.21229075,-0.6441965,0.62397975,999.4362, , , , 
2025-11-24 20:07:38.759,12.382857,-6.613762,1.713261,0.16714787,-0.4030944,3.1188464,-7.6687503,48.037502,-6.15,0.19563137,-0.6496434,0.63681346,999.4362, , , , 
2025-11-24 20:07:38.779,13.543376,-5.3982077,4.113262,0.47074768,-0.7207441,2.790812,-6.0,46.95,-5.34375,0.18112838,-0.6550163,0.64758307,999.44037, , , , 
2025-11-24 20:07:38.799,13.828122,-3.5270207,4.546363,1.0913863,-0.91499907,2.2007167,-1.8750001,47.756252,-6.1312504,0.17277339,-0.65692574,0.65887666,999.44037, , , , 
2025-11-24 20:07:38.820,13.304094,-2.3641088,2.4071796,1.4988331,-0.41897687,1.463403,-0.35625002,48.768753,-5.5687504,0.17063582,-0.65234196,0.67441684,999.44525, , , , 
2025-11-24 20:07:38.841,11.655439,-1.6821543,0.56470615,1.3962078,0.49915287,1.0651191,1.9125,49.65,-8.175,0.16869757,-0.64416313,0.6868299,999.44525, , , , 
2025-11-24 20:07:38.860,10.052248,-0.7369894,-1.4931214,1.0302998,1.3781873,0.94111353,2.5687501,49.968754,-9.0375,0.16147713,-0.63473934,0.6980906,999.45087, , , , 
2025-11-24 20:07:38.880,9.138189,-0.0023928226,-3.07717,0.5122865,1.7196608,0.8103885,4.425,50.193752,-11.71875,0.14922544,-0.6261697,0.70715266,999.45087, , , , 
2025-11-24 20:07:38.899,8.377272,0.2416751,-3.6777685,3.8179048E-4,1.460654,0.66866785,3.9750001,48.131252,-9.69375,0.13585262,-0.6205227,0.7126743,999.4482, , , , 
2025-11-24 20:07:38.919,7.838887,-0.3900301,-3.7088752,-0.5005273,0.9933425,0.6350703,5.0062504,48.0,-11.64375,0.12391768,-0.61916965,0.7141993,999.4482, , , , 
2025-11-24 20:07:38.940,7.3603225,-2.725425,-3.6801612,-1.0606903,0.42340565,0.84826213,6.1312504,49.350002,-10.293751,0.113642566,-0.62283546,0.7120482,999.45184, , , , 
2025-11-24 20:07:38.960,6.6448684,-5.2977095,-2.28036,-1.6171881,-0.3438405,1.5544218,5.7375,48.937504,-8.85,0.10338573,-0.6326105,0.7067545,999.45184, , , , 
2025-11-24 20:07:38.980,8.374879,-6.862615,-0.31585258,-1.8694752,-0.9693661,2.1518476,8.3625,48.318752,-6.76875,0.09216211,-0.6481346,0.69990623,999.44965, , , , 
2025-11-24 20:07:39.000,13.000205,-7.2119675,4.0534415,-1.477911,-1.2295945,2.05472,12.806251,50.1375,-5.9437504,0.07905516,-0.6692291,0.6911357,999.44965, , , , 
2025-11-24 20:07:39.019,16.173088,-8.176275,5.5226345,-0.5933788,-1.2967895,1.2587632,14.062501,49.237503,-3.7125,0.07443551,-0.68064266,0.6869594,999.4489, , , , 
2025-11-24 20:07:39.039,16.256838,-7.8293157,2.926422,0.53672105,-1.5185335,-0.036880963,13.63125,48.35625,-6.0750003,0.0805387,-0.683842,0.68709207,999.4489, , , , 
2025-11-24 20:07:39.059,15.400207,-8.539984,-0.98584294,0.5629883,-1.0781,-0.78396857,15.31875,48.881252,-4.9125004,0.095639504,-0.68231136,0.688881,999.45526, , , , 
2025-11-24 20:07:39.079,13.194024,-8.985049,-3.141776,-0.06620247,-0.703029,-1.0203732,12.337501,48.581253,-5.1937504,0.11037584,-0.68111867,0.6877559,999.45526, , , , 
2025-11-24 20:07:39.100,12.124433,-10.0163555,-0.7082755,-0.73571026,-0.054290608,-1.211574,10.81875,47.68125,-4.2000003,0.12421414,-0.68429357,0.6799353,999.4416, , , , 
2025-11-24 20:07:39.119,11.499906,-10.554741,1.3782659,-0.79862934,0.35926485,-1.3282491,8.587501,47.568752,-3.35625,0.12925784,-0.6867745,0.67363906,999.4416, , , , 
2025-11-24 20:07:39.141,10.765309,-10.930414,1.7922242,-0.5316814,0.5608502,-1.4424808,9.9375,49.818752,-4.5375004,0.13581029,-0.68838394,0.66443247,999.4296, , , , 
2025-11-24 20:07:39.159,10.284351,-11.117054,1.4907285,-0.39668033,0.6616429,-1.5438844,8.34375,49.275,-3.1125002,0.14106923,-0.6874443,0.65843105,999.4296, , , , 
2025-11-24 20:07:39.179,9.65504,-10.226924,1.8687944,-0.2543488,0.6378192,-1.6935463,6.61875,48.600002,-4.125,0.14676346,-0.6852673,0.6528441,999.4355, , , , 
2025-11-24 20:07:39.199,9.238688,-9.042477,3.0197423,-0.0674242,0.6219367,-1.8969642,6.2812505,50.04375,-1.2375001,0.15421385,-0.6818805,0.6475763,999.4355, , , , 
2025-11-24 20:07:39.219,8.650054,-8.303095,2.6799614,0.19585852,0.4380664,-2.1877358,3.9750001,50.062504,-3.16875,0.16398527,-0.6764921,0.64289933,999.4355, , , , 
2025-11-24 20:07:39.240,8.563912,-8.989835,1.5050855,0.3491856,0.27252206,-2.449797,1.0125,50.643753,-3.35625,0.17730859,-0.6695928,0.63823134,999.4355,37.88747029,127.74018726,145.66534423828125,0.9
2025-11-24 20:07:39.259,8.1020975,-9.930214,0.3900301,0.3174206,-0.010919208,-2.7124686,-2.1000001,50.568752,-2.25,0.19780014,-0.6603526,0.6308589,999.4394, , , , 
2025-11-24 20:07:39.279,8.523234,-10.052248,0.16271193,0.20257804,-0.39209884,-2.9183302,-4.5750003,50.04375,-0.88125,0.2169595,-0.653906,0.6224767,999.4394, , , , 
2025-11-24 20:07:39.299,6.5539412,-9.74836,0.17228323,0.1805869,-0.77999794,-3.1791694,-6.6000004,49.125004,-5.08125,0.23995994,-0.6481333,0.6114329,999.4362, , , , 
2025-11-24 20:07:39.319,6.6305118,-10.112068,1.174876,0.033979353,-0.8087086,-3.0753224,-8.925,47.775,-5.08125,0.26400992,-0.64325124,0.5986423,999.4362, , , , 
2025-11-24 20:07:39.339,5.680561,-9.564112,1.4787644,0.10911572,-0.6303361,-2.837085,-12.1125,44.9625,-5.34375,0.286149,-0.6382487,0.5860256,999.4382, , , , 
2025-11-24 20:07:39.359,4.476971,-8.812766,1.4739788,0.17447825,-0.3664425,-2.490114,-13.931251,46.143753,-5.2312503,0.3052378,-0.63204736,0.57521605,999.4382, , , , 
2025-11-24 20:07:39.380,4.2041893,-8.087741,1.079163,0.279547,-0.07506001,-2.1352015,-17.1375,44.0625,-4.78125,0.32458082,-0.6232247,0.56480396,999.4362, , , , 
2025-11-24 20:07:39.399,4.3764725,-7.8891363,0.4977071,0.31375542,0.10025818,-1.9647702,-16.087502,43.2,-7.7625003,0.33709985,-0.6154034,0.5586766,999.4362, , , , 
2025-11-24 20:07:39.419,3.7686956,-7.6019974,0.18424734,0.3125337,0.16684245,-1.8401538,-18.900002,42.412502,-6.9750004,0.34813744,-0.6072942,0.5533264,999.434, , , , 
2025-11-24 20:07:39.439,2.8929226,-7.0468626,0.33499518,0.34735298,0.21693335,-1.6391792,-23.081251,42.206253,-4.8187504,0.35786584,-0.59928507,0.5487595,999.434, , , , 
2025-11-24 20:07:39.460,2.416751,-6.5108705,0.22492532,0.4218785,0.3757582,-1.4119376,-22.85625,42.375,-7.4812503,0.36619064,-0.5912235,0.54556894,999.436, , , , 
2025-11-24 20:07:39.479,1.9645073,-6.245267,-0.14117654,0.36690065,0.62071496,-1.1920263,-25.031252,41.90625,-5.83125,0.37248924,-0.58270746,0.54400057,999.436, , , , 
2025-11-24 20:07:39.499,2.1415763,-6.62094,-0.47377887,0.3540725,0.86261743,-0.8420007,-25.575,42.09375,-5.775,0.3756078,-0.57412434,0.5442949,999.4367, , , , 
2025-11-24 20:07:39.519,2.115255,-7.446464,-0.3278167,0.28199047,0.96096665,-0.45654505,-25.650002,40.85625,-7.2562504,0.37566176,-0.56623685,0.5465026,999.4367, , , , 
2025-11-24 20:07:39.541,2.8474588,-8.255239,-0.552742,0.24228424,1.0507637,-0.14011711,-26.04375,40.95,-9.225,0.3723613,-0.55961084,0.55067337,999.4423, , , , 
2025-11-24 20:07:39.561,2.8259234,-9.466006,-0.7800602,0.26977316,0.8571196,0.17264566,-26.156252,39.693752,-9.3,0.36635318,-0.55321956,0.55733,999.4423, , , , 
2025-11-24 20:07:39.579,2.1798615,-9.858429,-1.0217353,0.12744166,0.83451766,0.69860023,-26.718752,40.3875,-10.35,0.3595421,-0.5504612,0.5640971,999.4516, , , , 
2025-11-24 20:07:39.600,2.0937197,-9.420543,-0.92602235,-0.14011711,0.7410553,1.358945,-25.875002,40.350002,-9.20625,0.34889197,-0.5509738,0.5723418,999.4516, , , , 
2025-11-24 20:07:39.619,3.4863427,-9.784252,-0.45702913,-0.30932665,0.70318174,1.7816635,-24.69375,41.081253,-9.056251,0.33452964,-0.55480224,0.5815831,999.4682, , , , 
2025-11-24 20:07:39.640,5.139783,-10.162318,-0.58624154,-0.4730384,0.62071496,2.0339506,-23.737501,41.550003,-9.0375,0.3175611,-0.5607176,0.5912775,999.4682, , , , 
2025-11-24 20:07:39.659,6.5276203,-10.822737,-0.9834501,-0.61842424,0.6427061,2.1084762,-20.868752,43.237503,-10.668751,0.29915795,-0.5679345,0.6004858,999.48505, , , , 
2025-11-24 20:07:39.680,6.6711893,-11.152946,-1.7587247,-1.044197,0.647593,2.1286347,-17.94375,43.275,-10.05,0.27426136,-0.5786396,0.6098161,999.48505, , , , 
2025-11-24 20:07:39.700,6.1878395,-10.858629,-1.4835501,-1.60436,0.7483857,2.2587488,-18.28125,45.3375,-8.2875,0.2512749,-0.5899053,0.6141967,999.48724, , , , 
2025-11-24 20:07:39.719,6.4199433,-10.363315,0.6412765,-2.0460153,0.8064179,2.4194064,-15.7875,45.35625,-8.38125,0.22420181,-0.60363114,0.6159351,999.48724, , , , 
2025-11-24 20:07:39.739,7.6259255,-9.801002,2.7230322,-2.0038655,0.656756,2.4774384,-13.743751,47.775,-5.8125,0.19529995,-0.6179663,0.61636674,999.488, , , , 
2025-11-24 20:07:39.760,9.305687,-9.894321,2.7493532,-1.8193843,0.54313517,2.3283875,-11.19375,48.15,-4.2375,0.16805169,-0.6312037,0.6165287,999.488, , , , 
2025-11-24 20:07:39.779,9.45165,-9.970892,2.8546374,-1.6660573,0.3898081,2.1255803,-7.2000003,48.43125,-3.7500002,0.14338075,-0.6429004,0.6161238,999.50336, , , , 
2025-11-24 20:07:39.799,8.71466,-9.645468,3.792624,-1.423544,-0.027412556,2.1280239,-5.53125,49.575,-1.21875,0.12169235,-0.6537643,0.61541885,999.50336, , , , 
2025-11-24 20:07:39.819,8.46102,-8.219346,5.369494,-0.79801846,-0.70425075,2.3143375,-5.6062503,47.831253,-0.7875,0.10010506,-0.6664744,0.6169259,999.4987, , , , 
2025-11-24 20:07:39.840,9.370294,-6.647261,5.046463,-0.13584106,-1.0878738,2.4169629,-0.99375004,49.537502,-1.21875,0.091010645,-0.6724864,0.6208584,999.4987, , , , 
2025-11-24 20:07:39.859,10.234102,-4.733003,3.2446675,0.44509134,-1.1239148,2.2544727,2.98125,49.818752,0.0375,0.08156317,-0.6781836,0.6318458,999.5146, , , , 
2025-11-24 20:07:39.880,10.5284195,-3.6586258,1.4883357,0.5306124,-0.761672,1.9789728,0.90000004,50.362503,-0.39375,0.07646775,-0.679574,0.6416494,999.5146, , , , 
2025-11-24 20:07:39.900,10.707881,-2.7469604,-0.11724831,0.20257804,-0.14897464,1.6582688,5.0625,50.025,0.90000004,0.07038529,-0.67971975,0.6497598,999.5241, , , , 
2025-11-24 20:07:39.919,10.978271,-2.9599216,-0.4881358,-0.3569741,0.562072,1.526322,5.08125,50.025,0.112500004,0.06048132,-0.68016344,0.6545959,999.5241, , , , 
2025-11-24 20:07:39.940,11.428121,-2.7637103,0.29192436,-0.7124974,0.97990346,1.0516801,7.51875,48.412502,0.88125,0.046899464,-0.68181956,0.6553397,999.51263, , , , 
2025-11-24 20:07:39.960,10.399207,-3.897908,1.0456635,-0.89697856,1.1875975,0.65156364,7.2375,49.125004,0.26250002,0.033303022,-0.68371385,0.6528095,999.51263, , , , 
2025-11-24 20:07:39.979,10.140782,-4.426722,1.7682959,-0.9354631,1.0171663,0.40843946,7.8187504,48.562504,2.0812502,0.01777015,-0.686334,0.6471656,999.49994, , , , 
2025-11-24 20:07:39.999,10.279566,-5.271388,2.3521447,-0.9263001,0.8076396,0.29787293,10.462501,48.581253,2.11875,0.008045065,-0.6889729,0.64189786,999.49994, , , , 
2025-11-24 20:07:40.019,11.251052,-6.13759,3.345166,-0.7937424,0.5938369,0.24533857,7.4062505,48.112503,4.78125,-4.5906465E-5,-0.6916816,0.6367203,999.4843, , , , 
2025-11-24 20:07:40.039,11.533405,-6.2955165,4.074977,-0.5897136,0.39530587,0.15554145,9.525001,49.312504,6.1875005,-0.0056814435,-0.6938624,0.63244003,999.4843, , , , 
2025-11-24 20:07:40.059,13.25863,-6.6592255,3.885944,-0.23419029,0.10942116,-0.014278964,10.05,48.2625,5.4187503,-0.00832016,-0.69492185,0.6297501,999.48114, , , , 
2025-11-24 20:07:40.079,13.899907,-7.2526455,3.534199,-0.03138318,-0.06956223,-0.27939427,10.40625,49.29375,5.4750004,-0.0069190376,-0.69515353,0.6281594,999.48114, , , , 
2025-11-24 20:07:40.100,14.187045,-7.960921,3.0005996,0.09995275,-0.13981168,-0.65263265,11.306251,49.275,4.4625,-5.22553E-4,-0.6946982,0.6263073,999.47064, , , , 
2025-11-24 20:07:40.120,13.96212,-9.006584,2.672783,0.099341884,-0.1514181,-1.0160972,10.012501,50.250004,5.6062503,0.0054654013,-0.69424367,0.6246309,999.47064, , , , 
2025-11-24 20:07:40.139,12.930814,-10.645668,2.8689942,0.07185297,-0.056734066,-1.2720495,8.3625,49.8375,3.3375,0.01762703,-0.69343925,0.6201877,999.4672, , , , 
2025-11-24 20:07:40.159,12.047862,-11.73201,3.2087753,0.1372155,-0.024969097,-1.3337469,8.231251,49.95,3.9750001,0.027827036,-0.6923052,0.6160502,999.4672, , , , 
2025-11-24 20:07:40.180,10.904093,-11.210374,3.3260236,0.302149,-0.14164427,-1.2873212,6.61875,49.406254,5.55,0.038238958,-0.69045025,0.6126098,999.46185, , , , 
2025-11-24 20:07:40.199,9.853643,-9.635897,3.562913,0.5116756,-0.34445137,-1.2372303,3.0187502,48.91875,5.0437503,0.04966433,-0.68802774,0.6103948,999.46185, , , , 
2025-11-24 20:07:40.219,9.032906,-7.3842506,3.5437703,0.75113463,-0.49716756,-1.27938,3.99375,49.162502,2.2875001,0.0628395,-0.6848565,0.60960305,999.4533, , , , 
2025-11-24 20:07:40.239,8.669196,-6.161518,3.1776686,0.97776544,-0.5319869,-1.4516438,1.1812501,49.218754,4.275,0.07819707,-0.6805248,0.6097889,999.4533,37.88748055,127.74017911,145.657958984375,1.22
2025-11-24 20:07:40.262,8.413164,-6.4175506,2.0985055,1.133536,-0.47456557,-1.7228677,1.44375,48.787502,0.88125,0.10029134,-0.67302287,0.61036295,999.4543, , , , 
2025-11-24 20:07:40.279,7.826923,-7.367501,1.2514462,1.1628574,-0.46357,-1.9012402,-1.5,50.100002,0.1875,0.11951903,-0.66591996,0.610196,999.4543, , , , 
2025-11-24 20:07:40.299,7.1880393,-8.087741,0.72502524,1.1274273,-0.49228066,-1.9806527,-2.1000001,49.93125,-0.50625,0.13932474,-0.65861326,0.60918224,999.4543, , , , 
2025-11-24 20:07:40.319,6.3481584,-8.484949,0.5479564,1.024802,-0.4464658,-2.0075307,-5.8125,48.825,-2.8312502,0.15905498,-0.651419,0.6073214,999.4543, , , , 
2025-11-24 20:07:40.339,5.852844,-8.477771,0.7728817,0.90812683,-0.3096321,-2.002033,-7.425,49.0125,-0.675,0.17766334,-0.6442898,0.6046748,999.4511, , , , 
2025-11-24 20:07:40.359,5.003392,-8.432307,1.4045869,0.83543396,-0.06406444,-1.9751549,-11.137501,48.6375,-1.6500001,0.19459657,-0.6367932,0.6015046,999.4511, , , , 
2025-11-24 20:07:40.380,4.130012,-8.17149,1.0001999,0.79511684,0.13263401,-1.8413755,-11.15625,47.662502,-3.6000001,0.21254238,-0.6261015,0.5980147,999.44867, , , , 
2025-11-24 20:07:40.400,3.9361932,-7.8077803,0.19860429,0.6558397,0.003130682,-1.7020984,-11.2875,46.800003,-6.9375005,0.22516708,-0.61805093,0.5951998,999.44867, , , , 
2025-11-24 20:07:40.420,4.3645086,-7.322037,-0.4881358,0.45242172,-0.35361436,-1.6507857,-15.993751,46.912502,-3.5062501,0.23768851,-0.61219466,0.59106565,999.4477, , , , 
2025-11-24 20:07:40.440,3.4600215,-7.183254,-0.9451649,-0.036270097,-1.2295945,-1.6617813,-14.250001,48.112503,-6.24375,0.25223833,-0.6108916,0.58338165,999.4477, , , , 
2025-11-24 20:07:40.459,2.361716,-7.0803623,2.3449662,-0.003894263,-0.6113993,-1.5383866,-16.556252,44.756252,-5.49375,0.2663886,-0.61231595,0.573511,999.4467, , , , 
2025-11-24 20:07:40.479,3.103491,-7.3028946,1.1988041,0.18730642,-0.5319869,-1.311145,-18.35625,44.568752,-4.6687503,0.27688354,-0.6105611,0.566935,999.4467, , , , 
2025-11-24 20:07:40.499,2.725425,-7.420143,0.6843473,0.24289511,-0.6602685,-1.2170718,-17.04375,46.575,-6.0,0.28769,-0.60896647,0.56121737,999.43134, , , , 
2025-11-24 20:07:40.519,2.5028925,-7.7096744,0.16510476,0.2013563,-0.6468294,-1.0234276,-20.456251,45.09375,-4.6312504,0.298187,-0.6079645,0.55595636,999.43134, , , , 
2025-11-24 20:07:40.540,2.6416762,-8.367701,-0.0741775,0.130496,-0.5106066,-0.74853843,-20.1375,43.7625,-4.4437504,0.30680162,-0.6077014,0.55148774,999.4235, , , , 
2025-11-24 20:07:40.559,3.182454,-9.193225,-0.53359944,0.06330086,-0.26015204,-0.3850739,-22.706251,44.9625,-2.3812501,0.31319445,-0.60800767,0.5480352,999.4235, , , , 
2025-11-24 20:07:40.579,3.3044882,-9.944571,-0.19142582,0.035201084,0.051389,3.8179048E-4,-23.681252,42.375,-1.9875001,0.31429154,-0.60854894,0.5475139,999.42694, , , , 
2025-11-24 20:07:40.600,3.7710886,-10.109675,-0.8446664,-0.0075594517,0.37087128,0.43592837,-25.143751,42.975002,-2.79375,0.31105143,-0.60904354,0.5498617,999.42694, , , , 
2025-11-24 20:07:40.619,4.0151563,-10.191031,-1.0887343,-0.16760603,0.78564847,0.84887296,-21.862501,45.318752,-4.3500004,0.3031659,-0.60961974,0.55451566,999.43134, , , , 
2025-11-24 20:07:40.640,4.4745784,-10.463814,-1.0863415,-0.3068832,1.0715332,1.1671336,-24.35625,42.5625,-2.7,0.2905995,-0.61034906,0.56082344,999.43134, , , , 
2025-11-24 20:07:40.660,4.9674997,-11.152946,-1.2299109,-0.43760824,1.2047017,1.4188098,-21.525002,44.23125,-3.54375,0.2743089,-0.611399,0.56819385,999.43866, , , , 
2025-11-24 20:07:40.679,5.235496,-11.497513,-1.0671989,-0.6288089,1.2615122,1.684536,-20.587502,44.456253,-3.9750001,0.25014606,-0.61400926,0.577691,999.43866, , , , 
2025-11-24 20:07:40.699,4.776074,-11.420942,-0.44985065,-0.83161604,1.3384811,1.9294927,-19.03125,45.73125,-3.1312501,0.22769116,-0.6171231,0.5851343,999.4389, , , , 
2025-11-24 20:07:40.719,4.0295134,-10.286744,1.282553,-0.88537216,1.2150865,2.2165992,-17.175001,46.912502,-2.775,0.20279573,-0.62114745,0.59250027,999.4389, , , , 
2025-11-24 20:07:40.739,4.180261,-9.611969,2.3784657,-0.7076105,0.89621496,2.4982078,-14.94375,47.025,-3.9375002,0.17756017,-0.62554425,0.60080016,999.44086, , , , 
2025-11-24 20:07:40.759,5.3766723,-9.60479,2.8570302,-0.37407833,0.4973203,2.6594763,-10.33125,46.631252,-4.0875,0.15423231,-0.62978977,0.6105846,999.44086, , , , 
2025-11-24 20:07:40.779,7.1186476,-9.789038,2.8881369,0.09628756,0.027565273,2.678413,-9.8625,48.281254,-3.3000002,0.1343943,-0.63320947,0.62188613,999.44867, , , , 
2025-11-24 20:07:40.799,8.405986,-9.815358,2.0315065,0.532445,-0.48495027,2.610607,-6.9,48.45,-3.0187502,0.11950182,-0.6354629,0.6346019,999.44867, , , , 
2025-11-24 20:07:40.819,9.164511,-9.171689,0.23449662,0.6595049,-0.92782724,2.4688864,-1.81875,49.612503,-4.21875,0.10820106,-0.6377012,0.65101653,999.45087, , , , 
2025-11-24 20:07:40.841,9.178867,-7.9561353,-0.3469593,0.40721774,-1.0047961,2.3149486,-1.25625,48.91875,-2.7,0.102084674,-0.64052767,0.66209024,999.45087, , , , 
2025-11-24 20:07:40.859,9.119047,-6.6759753,0.014356935,-0.010613776,-0.84902567,2.1341324,-0.54375005,48.6375,-5.3812504,0.09571119,-0.644876,0.6699986,999.46136, , , , 
2025-11-24 20:07:40.879,9.559326,-5.881558,0.7848458,-0.48525572,-0.3841576,1.833587,3.3000002,50.381252,-3.5812502,0.08756262,-0.6506061,0.67421454,999.46136, , , , 
2025-11-24 20:07:40.900,9.114262,-5.5274205,2.2660031,-0.76686436,0.27801985,1.4524074,3.9750001,50.081253,-3.61875,0.07665798,-0.65629554,0.67521375,999.46747, , , , 
2025-11-24 20:07:40.920,8.286345,-5.3647084,2.9479575,-0.7393755,0.71723163,1.2660936,6.24375,48.318752,-3.3000002,0.063560106,-0.660579,0.67477524,999.46747, , , , 
2025-11-24 20:07:40.939,8.262417,-5.252246,2.7589245,-0.66851515,1.000062,1.2202787,7.2187505,49.537502,-3.16875,0.04887111,-0.662966,0.6745025,999.4775, , , , 
2025-11-24 20:07:40.960,8.315059,-4.7808595,3.1226335,-0.597044,1.1924844,1.1988984,7.33125,49.406254,-1.9312501,0.028954944,-0.664019,0.67450356,999.4775, , , , 
2025-11-24 20:07:40.980,8.922835,-4.8239303,4.1228333,-0.42416924,1.1564434,1.1756856,10.25625,48.600002,-2.49375,0.012886356,-0.66346747,0.675014,999.47235, , , , 
2025-11-24 20:07:40.999,9.961321,-4.651647,4.709075,-0.030161448,0.9371429,1.1842377,9.5625,49.125004,0.7875,-0.0012271424,-0.6612942,0.67711365,999.47235, , , , 
2025-11-24 20:07:41.019,11.430513,-4.0438704,3.8500516,0.34124434,0.66652983,1.0803907,12.543751,49.93125,-0.95625,-0.012182643,-0.65711844,0.68152404,999.48773, , , , 
2025-11-24 20:07:41.039,12.325429,-3.6586258,3.3355947,0.5000692,0.44539678,0.8537599,14.531251,48.9,-0.65625,-0.019373177,-0.65203553,0.6868453,999.48773, , , , 
2025-11-24 20:07:41.059,13.3639145,-3.7328033,2.2660031,0.5293907,0.15767947,0.5049561,12.281251,48.018753,1.03125,-0.022471428,-0.64704263,0.69192797,999.4904, , , , 
2025-11-24 20:07:41.080,14.1726885,-4.237689,1.4835501,0.3907244,-0.12454005,0.10789399,16.368752,48.468754,-1.8937501,-0.021753918,-0.64332145,0.6954993,999.4904, , , , 
2025-11-24 20:07:41.099,14.636896,-5.6733823,1.6606189,0.06391173,-0.24793474,-0.41317368,14.775001,47.925003,-0.46875003,-0.015844973,-0.64183086,0.69628024,999.4975, , , , 
2025-11-24 20:07:41.119,14.07219,-6.597012,2.6249263,-0.08697187,-0.41958773,-0.78641206,14.85,48.187504,-2.1937501,-0.010102283,-0.64262265,0.69448155,999.4975, , , , 
2025-11-24 20:07:41.139,13.148561,-7.9800634,3.5270207,-0.16332997,-0.63400126,-1.1767546,16.893751,47.925003,-5.0062504,0.0033981788,-0.64552087,0.6891232,999.4987, , , , 
2025-11-24 20:07:41.159,12.753745,-9.827323,3.9314077,-0.17982332,-0.7903827,-1.382616,14.325001,49.031254,-5.11875,0.017041378,-0.64849544,0.6835542,999.4987, , , , 
2025-11-24 20:07:41.180,12.315858,-11.133803,4.6037908,-0.08147409,-0.92416203,-1.5029564,9.7875,49.518753,0.90000004,0.032397855,-0.65154713,0.67746335,999.5014, , , , 
2025-11-24 20:07:41.199,12.004791,-11.578869,4.290331,0.05108357,-0.9547053,-1.5127302,9.7875,50.025,-1.1437501,0.048806403,-0.6537976,0.671891,999.5014, , , , 
2025-11-24 20:07:41.219,10.521241,-10.796415,4.7162533,0.21418446,-1.0249548,-1.4638611,8.025001,49.4625,0.61875004,0.065573886,-0.65514433,0.6668959,999.4941, , , , 
2025-11-24 20:07:41.239,9.188439,-8.812766,4.7832522,0.52511466,-0.9944115,-1.3948333,7.2000003,50.268753,-1.5,0.08274152,-0.65498245,0.6635297,999.4941,37.88749057,127.74017101,145.82403564453125,1.1
2025-11-24 20:07:41.260,8.310273,-7.381858,3.7136607,0.8403209,-1.032896,-1.4186571,4.96875,49.93125,-3.73125,0.10499737,-0.6516511,0.66193444,999.49164, , , , 
2025-11-24 20:07:41.279,8.238488,-7.1282187,2.3258235,0.9863175,-1.1923317,-1.5658755,3.5062501,51.506252,-1.8000001,0.124735676,-0.64749795,0.66153246,999.49164, , , , 
2025-11-24 20:07:41.299,8.382058,-7.834101,1.3160524,0.9032399,-1.3352741,-1.780289,2.7562501,49.0875,-3.7500002,0.1467475,-0.6434115,0.6601037,999.48334, , , , 
2025-11-24 20:07:41.320,7.989635,-9.109476,0.8662018,0.7248674,-1.3255002,-1.9855396,-0.82500005,49.987503,-6.675,0.16996646,-0.63996166,0.65658396,999.48334, , , , 
2025-11-24 20:07:41.339,7.2215385,-9.801002,0.9595219,0.49212793,-1.1318561,-2.0948844,-1.7062501,50.025,-6.7312503,0.19251488,-0.63696873,0.6511354,999.4787, , , , 
2025-11-24 20:07:41.362,6.2811594,-9.889536,0.9762716,0.27466008,-0.9357685,-2.0716715,-4.7250004,48.206253,-5.55,0.21312812,-0.6342118,0.6443554,999.4787, , , , 
2025-11-24 20:07:41.379,5.7523456,-9.4229355,1.4787644,0.130496,-0.84597135,-2.010585,-5.0625,49.93125,-7.6125,0.23140804,-0.63190114,0.6366681,999.4733, , , , 
2025-11-24 20:07:41.400,5.639883,-8.891729,1.8711873,0.11094832,-0.8447496,-2.0118067,-9.75,48.562504,-6.43125,0.24851198,-0.62974817,0.6285021,999.4733, , , , 
2025-11-24 20:07:41.419,5.680561,-8.422736,1.8329022,0.12744166,-0.8123738,-2.1309254,-6.8437505,47.5125,-9.13125,0.2699956,-0.6264483,0.6177938,999.4648, , , , 
2025-11-24 20:07:41.440,5.6279187,-8.142776,1.6701902,0.15187626,-0.77022415,-2.3276238,-11.25,49.050003,-7.9875,0.2878009,-0.6227716,0.60859436,999.4648, , , , 
2025-11-24 20:07:41.460,5.144569,-8.051848,1.39023,0.11766783,-0.6608793,-2.5340962,-13.5375,45.80625,-6.01875,0.30640915,-0.61802363,0.5984421,999.4687, , , , 
2025-11-24 20:07:41.480,3.9960139,-8.334201,0.7752745,-0.013668099,-0.3511709,-2.6012914,-18.075,45.956253,-4.4812503,0.3242814,-0.61218774,0.5875186,999.4687, , , , 
2025-11-24 20:07:41.500,2.7589245,-8.243274,0.20817557,-0.17004949,-0.1532507,-2.3728278,-21.975,43.55625,-2.3812501,0.34304103,-0.604407,0.5737756,999.4577, , , , 
2025-11-24 20:07:41.520,2.5196424,-7.812566,-0.11246266,-0.2787834,-0.23083054,-2.1083233,-23.212502,42.318752,-4.3500004,0.35220805,-0.60052955,0.5657165,999.4577, , , , 
2025-11-24 20:07:41.540,2.565106,-7.5062847,-0.28713873,-0.36186102,-0.49594584,-1.8554254,-24.656252,43.912502,-3.6750002,0.3632917,-0.59716034,0.55477667,999.4631, , , , 
2025-11-24 20:07:41.560,2.8642087,-7.408179,-0.1698904,-0.4076759,-0.81726074,-1.6104686,-26.04375,41.4,-3.99375,0.37679863,-0.5961599,0.54033446,999.4631, , , , 
2025-11-24 20:07:41.580,3.5796626,-7.984849,-0.014356935,-0.36980227,-0.95042926,-1.4198788,-27.712502,41.850002,-3.2250001,0.38743848,-0.5971728,0.52868503,999.4631, , , , 
2025-11-24 20:07:41.600,4.139583,-8.906086,-0.33499518,-0.31360272,-0.95042926,-1.2164608,-28.968752,41.5875,-1.3875,0.39497462,-0.59838104,0.5205475,999.4631, , , , 
2025-11-24 20:07:41.620,4.3645086,-9.968499,-0.94755775,-0.29344416,-0.7451787,-0.7870229,-30.750002,39.393753,0.31875002,0.40522146,-0.6010287,0.50914073,999.46063, , , , 
2025-11-24 20:07:41.639,4.2951164,-10.057034,-1.2035898,-0.3398699,-0.50266534,-0.28977898,-29.19375,39.693752,-2.1750002,0.40959698,-0.60395896,0.5028679,999.46063, , , , 
2025-11-24 20:07:41.659,5.020142,-10.772488,-1.4237294,-0.5139664,0.0410043,0.3363574,-30.806252,39.131252,0.65625,0.40803134,-0.6091247,0.49936187,999.4633, , , , 
2025-11-24 20:07:41.679,4.914858,-10.724631,-1.1557333,-0.5982657,0.39713848,0.83971,-29.8875,38.60625,-0.0375,0.40232733,-0.61279017,0.4999402,999.4633, , , , 
2025-11-24 20:07:41.700,5.211568,-10.794023,-1.282553,-0.68745196,0.64881474,1.391321,-29.250002,38.925003,1.2750001,0.38982207,-0.61853796,0.503667,999.4709, , , , 
2025-11-24 20:07:41.721,4.613362,-9.609575,-0.567099,-0.8084032,0.8070287,1.9801946,-27.487501,41.081253,0.95625,0.3677358,-0.62753934,0.5114598,999.4709, , , , 
2025-11-24 20:07:41.740,4.019942,-8.13799,0.4211368,-0.77052957,0.88338685,2.3644285,-26.493752,40.95,0.8625,0.34593838,-0.63580805,0.5196738,999.4755, , , , 
2025-11-24 20:07:41.760,4.1347976,-7.2263246,1.0839486,-0.6092613,0.88460857,2.6594763,-24.243752,41.287502,1.8375001,0.32182512,-0.64392465,0.5300068,999.4755, , , , 
2025-11-24 20:07:41.779,5.3144593,-7.288538,1.3064811,-0.19265148,0.81741345,2.9258132,-19.706251,44.643753,-1.6125001,0.297096,-0.65093166,0.54261106,999.4748, , , , 
2025-11-24 20:07:41.799,6.6687965,-7.8867435,0.59342,0.15493058,0.6408735,3.0052257,-18.13125,45.91875,-1.21875,0.27327475,-0.6563255,0.55726534,999.4748, , , , 
2025-11-24 20:07:41.820,8.003992,-8.657232,-0.66999036,0.34735298,0.3501019,2.9820127,-13.9125,45.73125,-1.81875,0.2462737,-0.66149765,0.5766738,999.47235, , , , 
2025-11-24 20:07:41.839,8.645268,-9.109476,-1.2777673,0.30398157,0.038560838,2.9233696,-12.337501,46.275,-1.85625,0.23177528,-0.6647051,0.5874955,999.47235, , , , 
2025-11-24 20:07:41.859,9.092726,-9.281759,-0.97866446,0.10728313,-0.45196357,2.8518987,-9.50625,46.331253,-4.3125,0.2103026,-0.6718981,0.6024203,999.466, , , , 
2025-11-24 20:07:41.880,9.470792,-8.642876,0.55034924,0.13599378,-1.1269692,2.8378487,-6.8812504,47.71875,-4.2000003,0.19616301,-0.67949116,0.611661,999.466, , , , 
2025-11-24 20:07:41.899,10.6815605,-7.5493555,1.3543376,0.3033707,-1.5820634,2.7217844,-3.075,49.331253,-2.0625,0.1860557,-0.6876572,0.6198393,999.465, , , , 
2025-11-24 20:07:41.919,11.736795,-6.2404814,0.8709874,0.36262462,-1.4672208,2.4358997,-2.1937501,49.312504,-2.625,0.17955574,-0.69472367,0.62735724,999.465, , , , 
2025-11-24 20:07:41.939,11.755938,-5.326423,0.6269195,0.13965896,-0.6785944,1.9056691,0.90000004,50.11875,-2.53125,0.17193188,-0.70082235,0.6347922,999.4716, , , , 
2025-11-24 20:07:41.960,11.609976,-5.058427,0.7752745,-0.09063706,0.051999863,1.6601014,1.8000001,49.593754,-2.2875001,0.1655688,-0.7033334,0.6378589,999.4716, , , , 
2025-11-24 20:07:41.980,10.794023,-4.833502,0.8662018,-0.1786016,0.9059888,1.5996258,3.45,50.49375,-1.5937501,0.1494853,-0.70556223,0.6423061,999.4704, , , , 
2025-11-24 20:07:42.000,10.5284195,-4.723432,0.41874397,-0.13950625,1.2792273,1.6454407,4.18125,50.568752,-0.90000004,0.1322451,-0.7056427,0.64646757,999.4704, , , , 
2025-11-24 20:07:42.019,11.586047,-3.9026937,-0.4977071,-0.07353285,1.2828923,1.5532,5.5687504,50.2125,-1.1812501,0.11393685,-0.7047837,0.65093553,999.47284, , , , 
2025-11-24 20:07:42.039,12.268002,-3.495914,-1.0480564,-0.07841977,1.1246784,1.3265692,7.5937505,49.425003,-0.112500004,0.09741692,-0.70354664,0.654771,999.47284, , , , 
2025-11-24 20:07:42.061,12.179467,-3.2470603,-1.4787644,-0.15783219,0.8711695,0.9857067,9.712501,49.65,-1.725,0.084220655,-0.70265186,0.6571719,999.47626, , , , 
2025-11-24 20:07:42.079,12.193824,-3.2231321,-1.0648061,-0.23846634,0.58650655,0.7102067,11.793751,49.10625,-0.675,0.074402176,-0.70264274,0.65790087,999.47626, , , , 
2025-11-24 20:07:42.099,12.57189,-3.8356948,-0.86141616,-0.23052509,0.3672061,0.4389827,11.53125,48.693752,1.3687501,0.06685216,-0.7034824,0.6572613,999.4838, , , , 
2025-11-24 20:07:42.120,13.067204,-4.9340005,-0.8662018,-0.267177,0.2841285,0.19036074,12.918751,49.593754,-0.82500005,0.06363613,-0.70441985,0.65586156,999.4838, , , , 
2025-11-24 20:07:42.139,13.100704,-6.233303,-0.8039884,-0.28672466,0.10942116,-0.005726857,11.71875,49.593754,0.22500001,0.062545754,-0.7056448,0.6536355,999.4931, , , , 
2025-11-24 20:07:42.159,13.339986,-7.32443,-0.42831525,-0.30199626,-0.24610215,-0.19265148,10.575001,49.8375,1.8750001,0.06429234,-0.70752037,0.650681,999.4931, , , , 
2025-11-24 20:07:42.179,13.990834,-8.673982,0.011964113,-0.33070692,-0.42875072,-0.510912,13.406251,50.756252,1.21875,0.069193766,-0.71005124,0.64696866,999.4897, , , , 
2025-11-24 20:07:42.199,13.789837,-9.253045,0.52163535,-0.25373796,-0.4311942,-0.7442624,9.6,49.36875,1.85625,0.076673046,-0.71246856,0.64249444,999.4897, , , , 
2025-11-24 20:07:42.220,13.727624,-9.836894,-0.04546363,-0.14622575,-0.19295691,-1.0423644,9.450001,49.4625,3.3937502,0.08563209,-0.71364707,0.6382588,999.48724, , , , 
2025-11-24 20:07:42.240,12.669996,-10.021141,-0.552742,-0.23907721,0.11614066,-1.2897646,8.868751,50.04375,0.95625,0.09464088,-0.7137345,0.633585,999.48724,37.88750101,127.74016526,146.38348388671875,1.22
2025-11-24 20:07:42.259,10.923235,-9.15494,-0.29671,-0.3087158,0.24075708,-1.572595,7.0312505,49.2,4.74375,0.10533735,-0.7133061,0.62612236,999.4831, , , , 
2025-11-24 20:07:42.279,9.518648,-8.616554,0.32303107,-0.21219915,0.012904518,-1.87986,6.1125,49.3875,0.50625,0.11591183,-0.71253186,0.6191583,999.4831, , , , 
2025-11-24 20:07:42.299,8.659625,-8.752945,0.7322037,0.016264275,-0.3523926,-2.141921,5.6062503,49.818752,1.4625001,0.13052513,-0.71107155,0.6120855,999.4836, , , , 
2025-11-24 20:07:42.319,8.126026,-9.501899,0.4019942,0.25938845,-0.676151,-2.3532803,2.3812501,49.85625,2.41875,0.14921913,-0.70865405,0.60533935,999.4836, , , , 
2025-11-24 20:07:42.340,7.838887,-10.076176,-0.019142581,0.34674212,-0.8453605,-2.403371,-0.99375004,49.143753,2.1937501,0.17061102,-0.7055205,0.5987296,999.48627, , , , 
2025-11-24 20:07:42.359,7.4847493,-10.033105,-0.06460621,0.32414013,-0.79404783,-2.3661084,-0.84375006,50.41875,0.112500004,0.1925728,-0.70209974,0.59191227,999.48627, , , , 
2025-11-24 20:07:42.381,6.9678993,-9.401401,0.38763726,0.28687736,-0.62422746,-2.3239586,-4.6125,50.025,1.29375,0.21836764,-0.69718736,0.58316493,999.488, , , , 
2025-11-24 20:07:42.400,6.6999035,-9.097511,0.5814559,0.28687736,-0.57047135,-2.313574,-4.4625,49.18125,0.24375,0.22326143,-0.69606256,0.581427,999.488, , , , 
2025-11-24 20:07:42.420,6.283552,-7.8173513,0.44745782,0.33391395,-0.6101776,-2.3740497,-7.2375,47.662502,-1.6875001,0.25693342,-0.686957,0.56927085,999.4694, , , , 
2025-11-24 20:07:42.439,6.2787666,-7.4249287,0.25124636,0.29237515,-0.7109702,-2.5200462,-10.181251,47.71875,0.61875004,0.2771351,-0.6812799,0.56132126,999.4694, , , , 
2025-11-24 20:07:42.459,5.936593,-7.389036,0.37088752,0.29787293,-0.9369902,-2.7216318,-13.556251,47.737503,0.975,0.29904026,-0.6754916,0.5517949,999.45795, , , , 
2025-11-24 20:07:42.479,5.300102,-7.391429,0.552742,0.36201373,-1.0481676,-2.7888267,-15.843751,46.631252,1.575,0.32262024,-0.6693122,0.5411039,999.45795, , , , 
2025-11-24 20:07:42.499,4.749753,-7.432107,0.27038896,0.40660688,-1.01457,-2.7643921,-19.25625,44.175003,0.84375006,0.3466633,-0.6624777,0.530158,999.4533, , , , 
2025-11-24 20:07:42.519,4.031906,-7.4512496,-0.15553348,0.37056586,-0.8398627,-2.6721516,-19.2,44.4375,0.52500004,0.3697392,-0.6549624,0.51942754,999.4533, , , , 
2025-11-24 20:07:42.539,3.2087753,-7.243074,-0.3469593,0.29604036,-0.612621,-2.471788,-24.206251,44.4,2.4375,0.39540267,-0.64502585,0.50670654,999.4599, , , , 
2025-11-24 20:07:42.559,2.3688943,-7.513463,-0.55752766,0.20624322,-0.382325,-2.0997713,-25.406252,41.30625,1.5,0.4124876,-0.63726205,0.49771208,999.4599, , , , 
2025-11-24 20:07:42.579,1.8281165,-7.7886376,-0.70588267,0.07857248,-0.06895136,-1.5243367,-25.931252,41.60625,1.85625,0.4247636,-0.6306284,0.49085483,999.45013, , , , 
2025-11-24 20:07:42.599,1.6821543,-7.628319,-0.4953143,0.040088,0.08804089,-0.908585,-29.1,39.80625,1.9687501,0.43145514,-0.62583524,0.48694822,999.45013, , , , 
2025-11-24 20:07:42.620,2.359323,-8.154739,-0.72741807,0.05780308,0.13568833,-0.29710937,-29.962502,39.825,1.9125,0.4341881,-0.62306774,0.48582724,999.45184, , , , 
2025-11-24 20:07:42.639,3.3499517,-8.71466,-0.7920243,0.025427246,0.23831362,0.18180864,-30.337502,39.300003,0.90000004,0.43342975,-0.62229073,0.48713884,999.45184, , , , 
2025-11-24 20:07:42.659,3.830909,-8.906086,-0.72502524,-0.010002911,0.37514734,0.65217453,-29.737501,38.737503,1.1812501,0.4291311,-0.6231615,0.49072823,999.45575, , , , 
2025-11-24 20:07:42.680,4.3669014,-8.441878,-0.6149554,-0.07658717,0.53458303,1.12926,-28.500002,39.75,0.675,0.41860119,-0.6263368,0.4982938,999.45575, , , , 
2025-11-24 20:07:42.699,5.515456,-8.894122,-0.79920274,-0.12179117,0.6879101,1.386434,-26.906252,39.65625,0.82500005,0.406666,-0.6299431,0.50614697,999.4548, , , , 
2025-11-24 20:07:42.720,6.1806607,-9.504292,-1.1365907,-0.15905392,0.8595631,1.6173408,-26.60625,40.3125,-0.16875,0.3922259,-0.63386226,0.51518494,999.4548, , , , 
2025-11-24 20:07:42.739,6.5371914,-10.001999,-1.3351951,-0.1834885,0.97318393,1.8910083,-23.71875,41.60625,0.375,0.37534162,-0.6380399,0.52532434,999.4528, , , , 
2025-11-24 20:07:42.759,6.24766,-9.640682,-1.4261223,-0.2372446,0.968297,2.1200826,-23.962502,43.425003,2.30625,0.3563482,-0.6427696,0.5361768,999.4528, , , , 
2025-11-24 20:07:42.779,6.302695,-8.504091,-1.3615161,-0.37713265,0.83329594,2.3509896,-22.5,43.96875,-0.0375,0.33562064,-0.6486014,0.5469255,999.45795, , , , 
2025-11-24 20:07:42.799,7.123433,-7.8699937,-0.8111669,-0.520075,0.64881474,2.3173919,-21.6,44.925003,1.2,0.3143232,-0.65572107,0.5562708,999.45795, , , , 
2025-11-24 20:07:42.819,7.9680996,-8.346166,-0.22971097,-0.4907535,0.439899,2.1145847,-18.825,44.831253,0.91875005,0.28946733,-0.66503984,0.56532747,999.4572, , , , 
2025-11-24 20:07:42.840,8.279166,-9.645468,-0.3182454,-0.32215482,0.23587017,2.0015748,-13.762501,47.98125,-1.1812501,0.27217025,-0.6717413,0.57161266,999.4572, , , , 
2025-11-24 20:07:42.860,8.159525,-10.547563,-0.16031912,-0.009392046,-0.03718639,2.123137,-14.55,47.15625,0.1875,0.25689033,-0.67770725,0.57850873,999.4582, , , , 
2025-11-24 20:07:42.879,8.382058,-10.380065,-0.64845496,0.32047492,-0.37927067,2.4267366,-13.8,47.9625,0.52500004,0.24310258,-0.6831141,0.58739036,999.4582, , , , 
2025-11-24 20:07:42.899,9.537791,-9.473185,-1.2083755,0.41027206,-0.46906778,2.6674175,-10.70625,49.537502,0.73125005,0.22982886,-0.6883855,0.5976778,999.4528, , , , 
2025-11-24 20:07:42.919,10.554741,-7.9513497,-1.4476577,0.21296273,-0.14958552,2.6936846,-8.137501,49.162502,0.93750006,0.21537502,-0.69341344,0.60777617,999.4528, , , , 
2025-11-24 20:07:42.940,11.009377,-6.5682983,-1.3375878,-0.24152066,0.5749001,2.4267366,-3.9750001,49.875004,-3.0937502,0.19812155,-0.6980749,0.6160224,999.45844, , , , 
2025-11-24 20:07:42.960,9.798609,-5.828916,-0.16271193,-0.6776781,1.4435499,2.0809872,-2.41875,50.5125,-1.125,0.17130059,-0.702884,0.62221944,999.45844, , , , 
2025-11-24 20:07:42.979,8.891729,-5.6327047,0.08135597,-0.86826795,2.0721297,1.9942445,0.13125001,49.518753,0.975,0.1454551,-0.7054277,0.625254,999.4611, , , , 
2025-11-24 20:07:42.999,8.035098,-5.5537415,0.15074782,-0.97822356,2.4032185,2.0247877,4.70625,50.250004,-1.2375001,0.11612387,-0.70672995,0.62745863,999.4611, , , , 
2025-11-24 20:07:43.020,7.7647095,-5.15414,0.15792629,-1.1382701,2.3989422,2.0632722,4.6687503,48.975002,2.8500001,0.08487921,-0.7076624,0.62860364,999.4638, , , , 
2025-11-24 20:07:43.040,8.142776,-4.7377887,0.83988076,-1.1810308,2.129551,1.9056691,6.4500003,49.031254,2.9625,0.054169007,-0.7089023,0.62806094,999.4638, , , , 
2025-11-24 20:07:43.060,8.226524,-4.4985065,2.1008983,-0.9226349,1.3592505,1.6338342,10.81875,50.362503,2.4375,0.02800393,-0.71037465,0.62653345,999.4687, , , , 
2025-11-24 20:07:43.080,8.157132,-4.412365,2.3162522,-0.52129674,0.54313517,1.4206424,8.793751,50.006252,5.2875004,0.009130075,-0.71163595,0.6260579,999.4687, , , , 
2025-11-24 20:07:43.099,8.520842,-4.5678983,1.9118652,-0.23480114,-0.03291034,1.2630392,11.6625,49.050003,6.1312504,-0.002738404,-0.71270907,0.6273156,999.4692, , , , 
2025-11-24 20:07:43.119,9.489935,-4.8646083,1.6390835,-0.10346522,-0.37927067,1.0987166,9.337501,48.43125,6.5625005,-0.010890501,-0.7142208,0.6301602,999.4692, , , , 
2025-11-24 20:07:43.140,10.7126665,-5.302495,1.6007984,-0.10468695,-0.4012618,0.9069051,10.743751,48.825,6.6937504,-0.014431126,-0.7155999,0.63225645,999.4653, , , , 
2025-11-24 20:07:43.159,12.01197,-5.845666,1.4380864,-0.16516256,-0.14530946,0.6436224,14.55,48.73125,4.9125004,-0.016985822,-0.71682334,0.6333989,999.4653, , , , 
2025-11-24 20:07:43.180,12.358929,-6.6257257,0.8781659,-0.35453063,0.18211406,0.29726207,13.6125,48.487503,5.9625,-0.019472765,-0.7178791,0.6328584,999.4626, , , , 
2025-11-24 20:07:43.199,12.344572,-7.4584284,1.1485549,-0.55489427,0.2596939,0.03886627,13.51875,48.112503,6.7500005,-0.021934975,-0.71959263,0.6300362,999.4626, , , , 
2025-11-24 20:07:43.219,12.638889,-8.487342,1.9310079,-0.5897136,0.05627592,-0.19265148,14.6625,48.093754,7.8750005,-0.023066573,-0.7222684,0.6255206,999.47186, , , , 
2025-11-24 20:07:43.240,13.203595,-9.200403,2.589034,-0.4143954,-0.23449571,-0.44799295,12.918751,47.4,8.400001,-0.021064145,-0.7252857,0.6207298,999.47186,37.88751155,127.74016152,146.2882080078125,1.06
2025-11-24 20:07:43.259,13.823337,-9.877572,2.6871397,-0.04176788,-0.5967385,-0.81573355,13.387501,46.8375,8.08125,-0.012219372,-0.7281365,0.6161425,999.46967, , , , 
2025-11-24 20:07:43.279,13.210773,-9.556933,2.8666015,0.40721774,-0.9382119,-1.112003,13.500001,49.593754,8.0625,7.734545E-4,-0.7288923,0.614415,999.46967, , , , 
2025-11-24 20:07:43.300,12.119647,-8.195417,2.3952155,0.8867466,-1.2393683,-1.4149919,10.96875,47.9625,8.26875,0.018984947,-0.72754776,0.61512876,999.47455, , , , 
2025-11-24 20:07:43.319,11.133803,-7.4512496,1.1844472,1.1567488,-1.3969713,-1.8273256,12.7875,48.787502,6.1875005,0.042158756,-0.7243496,0.61723524,999.47455, , , , 
2025-11-24 20:07:43.340,9.860822,-8.154739,0.11964113,1.1701878,-1.3462696,-2.2940264,10.2375,49.162502,5.0437503,0.06905071,-0.72000796,0.61857516,999.4875, , , , 
2025-11-24 20:07:43.360,8.937193,-9.442079,-0.36610186,1.1237621,-1.2002729,-2.5004985,7.70625,49.518753,4.05,0.097323366,-0.7149005,0.6182431,999.4875, , , , 
2025-11-24 20:07:43.380,7.62114,-11.002198,-1.2897314,1.0919971,-1.1672863,-2.5017204,5.4187503,48.937504,1.2375001,0.13211876,-0.70755434,0.6164073,999.4787, , , , 
2025-11-24 20:07:43.399,6.5204415,-10.882557,-2.0434706,0.9594395,-1.3798672,-2.2262204,4.275,50.456253,0.3375,0.15892461,-0.7020442,0.6142903,999.4787, , , , 
2025-11-24 20:07:43.419,6.649654,-10.009177,-1.7826529,0.63751376,-1.4476732,-1.9201771,1.7625,48.825,0.22500001,0.18376257,-0.69859284,0.6109154,999.4738, , , , 
2025-11-24 20:07:43.440,6.9296145,-8.941978,-0.47377887,0.3125337,-1.2412009,-1.798615,-3.6000001,50.625004,0.99375004,0.20555519,-0.6967753,0.60584605,999.4738, , , , 
2025-11-24 20:07:43.459,6.7836523,-8.147561,1.6701902,0.21296273,-0.78060883,-1.8884121,-5.0437503,49.987503,0.5625,0.22452691,-0.6948996,0.5997636,999.47406, , , , 
2025-11-24 20:07:43.479,5.912665,-7.9106717,1.8257236,0.3589594,-0.3523926,-1.961105,-5.6625004,48.937504,-1.1625,0.24148665,-0.6908372,0.59445417,999.47406, , , , 
2025-11-24 20:07:43.499,4.898108,-7.628319,0.8446664,0.44386962,-0.1465312,-1.9268966,-8.700001,49.237503,0.52500004,0.2568571,-0.684544,0.59059715,999.4704, , , , 
2025-11-24 20:07:43.520,4.536792,-7.4105716,-0.04546363,0.33085963,-0.10560325,-1.8096106,-9.7875,48.375004,2.23125,0.2741645,-0.6761244,0.586276,999.4704, , , , 
2025-11-24 20:07:43.539,5.022535,-7.2382884,-0.09810573,0.18425208,-0.087888174,-1.7925063,-10.81875,49.65,-0.20625001,0.28675663,-0.67029244,0.5819265,999.46893, , , , 
2025-11-24 20:07:43.559,5.1086764,-7.405786,0.043070808,0.076739885,-0.007864884,-1.9128467,-13.668751,47.86875,0.35625002,0.29879645,-0.6647193,0.5765138,999.46893, , , , 
2025-11-24 20:07:43.579,4.429115,-7.6713896,-0.076570325,0.064522594,-0.038408123,-2.0142503,-15.0375,47.475002,-0.8625,0.31102577,-0.65881026,0.5702243,999.46405, , , , 
2025-11-24 20:07:43.599,3.7543387,-7.9800634,-0.39720857,0.056581352,-0.1984547,-2.010585,-16.48125,46.8375,-1.29375,0.32387033,-0.65296686,0.56330585,999.46405, , , , 
2025-11-24 20:07:43.619,3.4073794,-8.10449,-0.4019942,0.041920595,-0.3756055,-1.9140685,-19.556252,44.775,-0.075,0.33708277,-0.64781237,0.55583066,999.4655, , , , 
2025-11-24 20:07:43.639,3.4337006,-8.429914,-0.40438703,0.0193186,-0.54298246,-1.7466915,-17.75625,44.737503,-3.2062502,0.35347757,-0.64262277,0.5460759,999.4655, , , , 
2025-11-24 20:07:43.660,3.7423747,-8.817552,-0.5288138,-0.016722424,-0.5796343,-1.5909209,-20.400002,44.831253,-2.30625,0.36286643,-0.64026695,0.5401891,999.4621, , , , 
2025-11-24 20:07:43.681,4.024728,-9.020942,-0.7298109,-0.092469655,-0.5643627,-1.3862813,-23.0625,43.425003,-0.09375,0.3740523,-0.63794816,0.5326131,999.4621, , , , 
2025-11-24 20:07:43.699,3.4791641,-9.265009,-0.7609176,-0.27328563,-0.2607629,-0.97944534,-21.2625,42.862503,-0.5625,0.3842305,-0.636429,0.52416736,999.46185, , , , 
2025-11-24 20:07:43.719,3.4121652,-9.882358,-1.0887343,-0.5029708,0.07399099,-0.46021026,-24.862501,41.737503,0.65625,0.38680604,-0.6366238,0.51929885,999.46185, , , , 
2025-11-24 20:07:43.740,4.113262,-10.6815605,-1.0025927,-0.55917037,0.35498878,0.1164461,-26.6625,41.025,3.1875002,0.3838914,-0.63849825,0.51654035,999.45575, , , , 
2025-11-24 20:07:43.760,4.85743,-11.571691,-1.7563318,-0.5958222,0.6256019,0.6637809,-24.806252,42.225002,2.4750001,0.3764182,-0.64139104,0.5168948,999.45575, , , , 
2025-11-24 20:07:43.780,4.7712884,-12.052648,-2.8953154,-1.0386992,0.9872338,1.1408663,-25.837502,41.381252,1.6875001,0.36338195,-0.64576584,0.519419,999.46234, , , , 
2025-11-24 20:07:43.799,4.089334,-10.904093,-1.1533405,-1.4406482,1.1271219,1.5000548,-23.775002,42.09375,0.82500005,0.34388697,-0.6528702,0.5215388,999.46234, , , , 
2025-11-24 20:07:43.819,3.7758741,-9.128618,1.820938,-1.2928189,0.9756274,1.8940626,-23.118752,45.506252,2.41875,0.32044354,-0.6615112,0.5237345,999.46747, , , , 
2025-11-24 20:07:43.840,4.5655055,-7.879565,1.8711873,-0.55367255,0.4557815,2.1127522,-21.431252,44.550003,4.4437504,0.29259682,-0.67130077,0.5301505,999.46747, , , , 
2025-11-24 20:07:43.859,5.613562,-8.353344,-0.12203395,-0.024663666,0.09414954,2.1341324,-19.59375,44.11875,3.05625,0.27510288,-0.6774424,0.5385853,999.4653, , , , 
2025-11-24 20:07:43.879,6.539584,-8.891729,-1.753939,0.21784966,-0.26992586,2.1249695,-18.84375,46.425003,3.91875,0.26125708,-0.6829676,0.5480495,999.4653, , , , 
2025-11-24 20:07:43.899,7.24786,-9.075976,-2.065006,0.2325104,-0.4030944,2.1475716,-15.6,47.381252,4.6125,0.2493938,-0.688755,0.557136,999.467, , , , 
2025-11-24 20:07:43.919,7.5493555,-8.465807,-1.0432707,0.26244277,-0.31512988,2.1121414,-13.44375,47.11875,3.7687502,0.23761858,-0.694251,0.56588686,999.467, , , , 
2025-11-24 20:07:43.940,7.183254,-7.9704924,-0.17228323,0.39561132,-0.10315979,2.0583851,-10.6125,49.406254,2.7375002,0.22271249,-0.6991132,0.577303,999.46014, , , , 
2025-11-24 20:07:43.959,6.472585,-7.6259255,0.148355,0.5471058,0.16134466,2.073046,-9.1125,48.187504,3.2625,0.21006487,-0.70072395,0.58765805,999.46014, , , , 
2025-11-24 20:07:43.979,5.871987,-7.1545396,0.26081768,0.73403037,0.26030475,2.1884995,-3.7687502,49.74375,0.75,0.19627163,-0.70045316,0.5995054,999.4565, , , , 
2025-11-24 20:07:44.000,6.3122663,-6.984649,-0.3469593,0.9032399,0.1882227,2.2874596,-3.2062502,48.825,-0.95625,0.1857292,-0.69939804,0.6093292,999.4565, , , , 
2025-11-24 20:07:44.019,7.051648,-6.4055862,-1.7682959,0.9905936,0.09598213,2.3784783,-1.1812501,48.656254,-0.84375006,0.16880825,-0.6967313,0.6264016,999.4594, , , , 
2025-11-24 20:07:44.039,8.590233,-5.4819565,-4.7808595,0.57031864,0.42035133,2.5440228,0.09375,51.393753,-0.675,0.15082842,-0.6945709,0.64209676,999.4594, , , , 
2025-11-24 20:07:44.059,9.848858,-5.302495,-5.663811,0.040088,0.8748347,2.6002223,1.0875001,51.24375,-0.45000002,0.13705207,-0.6946112,0.6493206,999.4599, , , , 
2025-11-24 20:07:44.079,11.4496565,-5.13739,-4.2041893,-0.7350994,1.5577816,2.5281403,5.2875004,50.193752,-1.6125001,0.113416724,-0.6970251,0.654719,999.4599, , , , 
2025-11-24 20:07:44.099,12.614961,-5.252246,-1.3256238,-1.1901937,2.0354779,2.2245405,7.1062503,49.237503,0.41250002,0.08501341,-0.701119,0.6555074,999.45966, , , , 
2025-11-24 20:07:44.119,12.861422,-5.4053864,0.93320084,-1.1266637,1.9328525,1.8146502,9.0,49.93125,0.4875,0.056104444,-0.7048569,0.65363926,999.45966, , , , 
2025-11-24 20:07:44.140,12.672389,-5.5968122,2.0027926,-0.8511637,1.5742749,1.3717732,12.76875,50.437504,0.84375006,0.026134258,-0.70750785,0.650652,999.4582, , , , 
2025-11-24 20:07:44.159,12.543177,-5.907879,1.8975084,-0.6807324,1.2505165,0.87025326,11.55,48.300003,3.7125,0.008787153,-0.70827043,0.64852625,999.4582, , , , 
2025-11-24 20:07:44.180,12.378072,-6.35773,2.1559331,-0.6788998,1.1344522,0.4163807,13.837501,48.656254,3.6000001,-0.003916572,-0.70886624,0.64558524,999.4604, , , , 
2025-11-24 20:07:44.199,11.983255,-7.0492554,2.4502504,-0.70516706,1.0373248,0.0297033,14.64375,47.850002,6.0375004,-0.01307255,-0.7096694,0.6413306,999.4604, , , , 
2025-11-24 20:07:44.219,11.313266,-7.8317084,3.3284163,-0.6795107,0.84673494,-0.2928333,14.493751,47.943752,7.74375,-0.019202469,-0.71076167,0.6359802,999.45966, , , , 
2025-11-24 20:07:44.239,11.157732,-9.025727,3.5198421,-0.5946005,0.6109411,-0.5463422,13.650001,48.0,6.9,-0.021907033,-0.71199036,0.6302779,999.45966,37.88752242,127.74015556,146.57696533203125,1.15
2025-11-24 20:07:44.259,10.798809,-10.13839,3.5174494,-0.49502954,0.48510298,-0.7057779,10.51875,47.90625,8.325001,-0.021474518,-0.71347517,0.6231488,999.4648, , , , 
2025-11-24 20:07:44.279,11.152946,-10.908878,3.0843484,-0.39301512,0.3739256,-0.8096249,13.462501,48.600002,7.51875,-0.019433236,-0.71430945,0.61779356,999.4648, , , , 
2025-11-24 20:07:44.300,10.837093,-10.700703,2.806781,-0.27145302,0.082543105,-0.9684498,13.931251,50.8875,7.0125003,-0.015118756,-0.7150742,0.6126877,999.4655, , , , 
2025-11-24 20:07:44.320,9.994821,-9.133404,3.0460632,-0.010002911,-0.4012618,-1.1272746,10.425,47.4,8.6625,-0.0072203325,-0.71602505,0.6082033,999.4655, , , , 
2025-11-24 20:07:44.339,9.812965,-7.793423,3.2542388,0.35529423,-0.842917,-1.3984985,9.50625,48.562504,7.4625,0.0053814827,-0.71665883,0.60507244,999.4672, , , , 
2025-11-24 20:07:44.359,9.623933,-7.456035,2.4382863,0.7395282,-1.119028,-1.7912846,7.8,50.362503,8.306251,0.023799712,-0.716182,0.60333145,999.4672, , , , 
2025-11-24 20:07:44.380,9.193225,-8.228917,0.67477596,0.94661134,-1.1080323,-2.2072835,5.26875,47.8875,7.18125,0.053373132,-0.7134446,0.60175395,999.465, , , , 
2025-11-24 20:07:44.400,8.262417,-9.111869,-0.9020941,0.88063794,-0.9388228,-2.4320817,5.9812503,48.35625,4.4437504,0.07898992,-0.7099858,0.5993855,999.465, , , , 
2025-11-24 20:07:44.420,7.4584284,-9.712467,-1.7635103,0.5788707,-0.7592286,-2.4705663,3.3000002,49.443752,3.43125,0.10355227,-0.706623,0.59497494,999.46893, , , , 
2025-11-24 20:07:44.439,6.8889365,-9.68136,-1.2323036,0.24961463,-0.65232724,-2.4192536,-0.65625,49.537502,4.14375,0.12567203,-0.7042839,0.58815306,999.46893, , , , 
2025-11-24 20:07:44.459,6.2237315,-9.3104725,0.05742774,0.11339177,-0.6254492,-2.3160174,-2.0062501,49.500004,5.83125,0.1457275,-0.7026724,0.5798162,999.4692, , , , 
2025-11-24 20:07:44.479,5.6303115,-8.877372,0.93559366,0.19158247,-0.65293807,-2.2170575,-4.5,48.750004,5.83125,0.16471621,-0.7009169,0.57144725,999.4692, , , , 
2025-11-24 20:07:44.500,5.0512486,-8.441878,1.3208381,0.4218785,-0.71585715,-2.100382,-6.24375,48.7125,5.1000004,0.18355724,-0.6982958,0.5642137,999.4665, , , , 
2025-11-24 20:07:44.520,4.302295,-7.826923,1.3160524,0.75418895,-0.8380301,-1.925064,-8.38125,50.475002,4.59375,0.20767269,-0.69332904,0.5578387,999.4665, , , , 
2025-11-24 20:07:44.539,3.3667014,-7.5254273,0.49052864,1.0034218,-0.8765146,-1.6489531,-11.475,48.187504,4.275,0.22726066,-0.68820393,0.5553357,999.46625, , , , 
2025-11-24 20:07:44.559,2.4526432,-7.1425757,-0.8542377,1.0522909,-0.86674076,-1.2775474,-12.337501,48.956253,4.6312504,0.24517784,-0.6828708,0.55483437,999.46625, , , , 
2025-11-24 20:07:44.580,2.062613,-6.7932234,-2.0937197,0.9588286,-0.8423062,-0.8914808,-13.218751,48.768753,2.11875,0.26029855,-0.6784611,0.5555035,999.467, , , , 
2025-11-24 20:07:44.599,2.3234308,-6.2644095,-2.507678,0.7474694,-0.84902567,-0.65385437,-13.837501,47.2125,2.5687501,0.2697694,-0.67626405,0.5560886,999.467, , , , 
2025-11-24 20:07:44.619,2.8354948,-6.204589,-2.3952155,0.35346162,-0.5246565,-0.5451205,-13.575001,46.987503,1.95,0.28190872,-0.6746421,0.5556945,999.4711, , , , 
2025-11-24 20:07:44.640,3.048456,-6.606583,-2.0195422,0.026648976,-0.057955798,-0.54023355,-12.825001,46.331253,1.29375,0.28757235,-0.67384076,0.5542357,999.4711, , , , 
2025-11-24 20:07:44.659,3.211168,-7.5613194,-1.8424734,-0.1957058,0.2370919,-0.54145527,-13.856251,46.21875,0.31875002,0.2901194,-0.67290187,0.552221,999.4653, , , , 
2025-11-24 20:07:44.680,3.5437703,-8.894122,-1.6845472,-0.28733552,0.290848,-0.49441868,-15.168751,45.693752,2.1750002,0.29067758,-0.6721253,0.54980296,999.4653, , , , 
2025-11-24 20:07:44.700,4.17069,-9.994821,-1.5960127,-0.32948518,0.26213735,-0.3398699,-18.431252,46.237503,2.8125,0.2897682,-0.67200005,0.546762,999.46844, , , , 
2025-11-24 20:07:44.720,4.2664027,-10.34178,-1.8400806,-0.4333322,0.32261297,-0.12545635,-17.15625,46.74375,2.79375,0.28746316,-0.67274773,0.5447713,999.46844, , , , 
2025-11-24 20:07:44.740,4.354937,-10.411171,-1.7730815,-0.71677345,0.54985464,0.15920663,-17.175001,46.725002,3.5625002,0.28231043,-0.6746246,0.54287076,999.46185, , , , 
2025-11-24 20:07:44.761,5.235496,-10.755738,-1.1318051,-0.8731548,0.76610076,0.29726207,-14.6625,46.631252,1.6125001,0.2759018,-0.67667717,0.54141456,999.46185, , , , 
2025-11-24 20:07:44.780,6.7740808,-12.327823,-0.80159557,-0.9036981,0.8882738,0.35346162,-17.34375,44.475002,3.7125,0.2617032,-0.6798299,0.53937024,999.4599, , , , 
2025-11-24 20:07:44.800,7.3100734,-12.679567,-0.6412765,-0.84994197,0.46005753,0.39316785,-17.325,46.0875,4.70625,0.25045195,-0.6826159,0.53770536,999.4599, , , , 
2025-11-24 20:07:44.819,7.661818,-12.241681,-0.43788654,-0.65202177,-0.026801692,0.6020836,-16.575,45.525,5.5875,0.24161156,-0.68694746,0.5357134,999.456, , , , 
2025-11-24 20:07:44.839,8.2145605,-9.705289,-0.0526421,-0.32826346,-0.06956223,1.1805725,-15.76875,46.48125,4.9875,0.23147735,-0.69359064,0.5362067,999.456, , , , 
2025-11-24 20:07:44.860,8.427522,-5.9700923,-0.8422736,-0.30260715,0.43684468,0.9869284,-12.975,47.4,5.5687504,0.2214792,-0.697421,0.53942937,999.4582, , , , 
2025-11-24 20:07:44.879,6.9702926,-4.9435716,-0.9523434,-0.21281002,0.7709877,0.6931025,-13.481251,46.350002,5.83125,0.21152571,-0.69843733,0.542187,999.4582, , , , 
2025-11-24 20:07:44.899,6.1974106,-6.7262244,-1.4859428,0.03581195,0.6280454,0.68455034,-13.89375,46.425003,5.71875,0.2026126,-0.697424,0.5455113,999.4626, , , , 
2025-11-24 20:07:44.920,6.2213387,-7.015756,-1.2849457,0.6576723,0.05933024,1.0370194,-12.4125,47.943752,5.625,0.19562781,-0.69621,0.55127263,999.4626, , , , 
2025-11-24 20:07:44.940,7.611569,-5.831309,-2.5986054,1.2062289,-0.6944769,1.3827688,-9.9375,47.71875,3.3750002,0.19109774,-0.6940319,0.56706303,999.4604, , , , 
2025-11-24 20:07:44.961,8.04467,-4.979464,-2.9958138,1.1365902,-0.81481725,1.3497821,-11.53125,47.925003,4.6125,0.19091128,-0.69360775,0.5728418,999.4604, , , , 
2025-11-24 20:07:44.979,7.7647095,-4.2568316,-2.0602202,0.79023,-0.7115811,1.2129483,-7.2187505,47.90625,0.45000002,0.1908363,-0.69373137,0.58474004,999.4609, , , , 
2025-11-24 20:07:45.000,7.2789664,-3.9290147,-1.2442678,0.5690969,-0.32429284,1.1084905,-7.3125005,49.631252,0.675,0.18911198,-0.6941011,0.5920367,999.4609, , , , 
2025-11-24 20:07:45.019,6.501299,-3.8261235,-1.1437693,0.2917643,0.17783801,1.0956624,-6.6562505,49.425003,2.775,0.18435113,-0.6938743,0.59837466,999.46185, , , , 
2025-11-24 20:07:45.039,5.9270215,-3.790231,-0.55752766,-0.07353285,0.6109411,1.1463641,-5.45625,50.081253,-0.16875,0.17556132,-0.6938009,0.6034604,999.46185, , , , 
2025-11-24 20:07:45.060,5.65424,-3.723232,0.4953143,-0.22197299,0.66591895,1.2123375,-4.9500003,48.2625,0.0375,0.16380179,-0.6942634,0.60739607,999.4567, , , , 
2025-11-24 20:07:45.079,6.0155563,-3.802195,1.105484,-0.24579671,0.65125823,1.2789217,-4.2000003,49.93125,1.8750001,0.15115929,-0.6951388,0.6109296,999.4567, , , , 
2025-11-24 20:07:45.100,6.9320073,-3.885944,1.0001999,-0.23663375,0.8668935,1.3461169,-2.5125,50.250004,1.06875,0.13777022,-0.6957188,0.61465764,999.45917, , , , 
2025-11-24 20:07:45.119,8.240881,-3.8787656,0.5096712,-0.36858055,1.1179589,1.3528364,-0.90000004,50.156254,0.58125,0.11866879,-0.6954748,0.6193332,999.45917, , , , 
2025-11-24 20:07:45.139,9.540184,-3.888337,0.3804588,-0.6605739,1.1857649,1.2343286,-0.22500001,49.968754,1.9125,0.102047525,-0.69573027,0.6213564,999.466, , , , 
2025-11-24 20:07:45.159,10.315458,-4.173083,1.4835501,-0.9372957,1.040379,1.0028108,1.7437501,50.30625,1.85625,0.08592764,-0.6975018,0.62044555,999.466, , , , 
2025-11-24 20:07:45.179,10.794023,-4.65404,3.3044882,-0.8982003,0.78320503,0.7547998,3.54375,50.60625,2.25,0.07199566,-0.7002364,0.6175294,999.4648, , , , 
2025-11-24 20:07:45.199,11.176874,-5.0344987,4.287938,-0.57444197,0.4570032,0.57703817,2.30625,50.343754,3.6375,0.061539352,-0.70247024,0.6148379,999.4648, , , , 
2025-11-24 20:07:45.221,12.0023985,-5.8504515,3.9170506,-0.19142975,0.2022726,0.3888918,3.99375,49.500004,6.6000004,0.055434134,-0.703281,0.61390054,999.46625, , , , 
2025-11-24 20:07:45.239,12.837494,-7.042077,3.034099,0.048029244,0.073380135,0.17753258,4.40625,50.04375,5.7562504,0.05307264,-0.70277655,0.6143646,999.46625,37.88753495,127.74014848,146.81561279296875,1.3
2025-11-24 20:07:45.259,14.201403,-9.238688,2.0985055,0.19158247,-0.17463097,-0.12179117,8.400001,50.831253,3.9,0.054520607,-0.7013359,0.6153815,999.4677, , , , 
2025-11-24 20:07:45.280,14.895321,-11.392229,1.5337993,0.21051927,-0.5118283,-0.46021026,6.1687503,49.237503,4.36875,0.06013461,-0.70070255,0.61530423,999.4677, , , , 
2025-11-24 20:07:45.299,14.163117,-11.82533,2.4191437,0.32169667,-0.95714873,-0.64896744,5.3812504,48.91875,3.3937502,0.06988115,-0.70097315,0.61434716,999.47064, , , , 
2025-11-24 20:07:45.319,13.031312,-9.839287,3.9481573,0.7596867,-1.3328305,-0.63736105,4.14375,49.406254,5.1937504,0.083301306,-0.70101374,0.614464,999.47064, , , , 
2025-11-24 20:07:45.340,12.935599,-7.2215385,3.9242291,1.2312744,-1.2992331,-0.79679674,2.7,49.3875,3.4875002,0.09968684,-0.6987484,0.61743563,999.47894, , , , 
2025-11-24 20:07:45.359,13.172488,-6.424729,2.8713872,1.6289473,-0.8594104,-1.3032037,0.09375,50.250004,2.9437501,0.11850237,-0.69269806,0.62231064,999.47894, , , , 
2025-11-24 20:07:45.379,12.016755,-7.668997,0.44506502,1.9087234,-0.40614873,-2.0032547,0.075,50.006252,1.8937501,0.14520344,-0.6789569,0.629002,999.47845, , , , 
2025-11-24 20:07:45.399,9.966106,-8.69791,-1.9453648,1.810985,-0.22594361,-2.3532803,-2.34375,50.906254,-0.84375006,0.16252895,-0.66865486,0.6321643,999.47845, , , , 
2025-11-24 20:07:45.419,7.1808605,-9.008977,-3.266203,1.233107,-0.26137376,-2.3264022,-3.7500002,48.787502,-3.35625,0.19044617,-0.6529758,0.63347733,999.477, , , , 
2025-11-24 20:07:45.440,6.135197,-8.578269,-2.07697,0.70348716,-0.48433942,-2.0411284,-4.6875,49.2,-4.36875,0.20977606,-0.6447775,0.63058436,999.477, , , , 
2025-11-24 20:07:45.459,6.3625154,-7.9298143,0.10289137,0.4890736,-0.83558667,-1.812054,-8.45625,49.425003,-3.6750002,0.22736177,-0.64001685,0.6256657,999.4704, , , , 
2025-11-24 20:07:45.479,6.410372,-7.4943204,1.2490535,0.5764273,-1.0072397,-1.8083888,-10.3125,47.381252,-4.59375,0.24541175,-0.63642126,0.62015516,999.4704, , , , 
2025-11-24 20:07:45.501,5.7858453,-7.164111,1.6534405,0.7303652,-1.0371721,-1.8279365,-12.356251,48.16875,-5.0437503,0.26455092,-0.6320556,0.6149807,999.46625, , , , 
2025-11-24 20:07:45.521,5.020142,-6.8865438,1.3184453,0.91484636,-1.042059,-1.739361,-14.493751,47.7,-5.4187503,0.2891123,-0.624936,0.60976386,999.46625, , , , 
2025-11-24 20:07:45.539,4.5296135,-6.754938,0.8327023,0.9374484,-1.0133483,-1.581758,-14.793751,45.43125,-6.3375,0.308161,-0.6186644,0.60647357,999.46356, , , , 
2025-11-24 20:07:45.559,4.3764725,-6.556334,0.46660042,0.8409317,-0.9369902,-1.423544,-14.887501,45.675003,-6.4875,0.3256971,-0.61273533,0.6034991,999.46356, , , , 
2025-11-24 20:07:45.580,4.3357944,-6.3385873,0.45224348,0.66927874,-0.8416953,-1.3178644,-16.96875,46.10625,-8.306251,0.34128216,-0.60752404,0.60032433,999.45184, , , , 
2025-11-24 20:07:45.599,4.1467614,-6.204589,0.7537391,0.49029535,-0.7433461,-1.2683843,-18.09375,44.34375,-5.925,0.3550767,-0.60308987,0.59656644,999.45184, , , , 
2025-11-24 20:07:45.619,3.818945,-6.2380886,1.038485,0.36018115,-0.57047135,-1.2280673,-17.362501,44.831253,-9.1125,0.36726338,-0.59907657,0.59239626,999.4506, , , , 
2025-11-24 20:07:45.639,3.117848,-6.3792653,1.0217353,0.2966512,-0.41103563,-1.1071161,-19.837502,43.55625,-7.2375,0.3776577,-0.59506816,0.5884686,999.4506, , , , 
2025-11-24 20:07:45.659,2.902494,-6.6041903,0.8422736,0.25755587,-0.28947353,-0.9018655,-20.587502,41.25,-8.118751,0.38782185,-0.5904842,0.5846605,999.4511, , , , 
2025-11-24 20:07:45.679,2.9072795,-6.8219376,0.5288138,0.22456917,-0.25954118,-0.7076105,-23.60625,41.68125,-6.2812505,0.3926435,-0.5881939,0.5829656,999.4511, , , , 
2025-11-24 20:07:45.699,3.2853456,-7.3579297,0.050249275,0.13355032,-0.20761767,-0.47548187,-24.562502,41.2125,-7.0687504,0.39752805,-0.58606935,0.58131087,999.44696, , , , 
2025-11-24 20:07:45.721,3.9481573,-8.382058,-0.47377887,-0.04421134,-0.16302454,-0.22136213,-24.13125,41.86875,-7.1625004,0.4007315,-0.5854481,0.5798073,999.44696, , , , 
2025-11-24 20:07:45.739,4.4195433,-9.068798,-0.5407779,-0.23602287,-0.10315979,0.015042545,-23.60625,41.68125,-6.2812505,0.40073934,-0.5869889,0.5786675,999.44183, , , , 
2025-11-24 20:07:45.760,4.520042,-9.071191,-0.1794617,-0.41378453,0.022678355,0.28076872,-24.281252,41.006252,-9.262501,0.39808053,-0.590261,0.5777667,999.44183, , , , 
2025-11-24 20:07:45.780,4.8502517,-8.898908,0.20338993,-0.5298488,0.3097848,0.5605448,-23.175001,41.5875,-6.1687503,0.3923225,-0.59459126,0.5777529,999.43915, , , , 
2025-11-24 20:07:45.799,5.261817,-9.327223,-0.19621146,-0.62331116,0.6549234,0.7566324,-23.98125,42.0,-5.64375,0.3832677,-0.5990469,0.57919526,999.43915, , , , 
2025-11-24 20:07:45.821,5.460421,-9.882358,-0.69152576,-0.80168366,1.0373248,0.9221767,-22.03125,43.4625,-8.25,0.37061322,-0.60346806,0.5818455,999.4394, , , , 
2025-11-24 20:07:45.839,5.5896335,-11.083554,-1.1653047,-1.0478622,1.2871685,1.0828341,-22.2,43.55625,-6.2250004,0.3496577,-0.6093942,0.58582485,999.4394, , , , 
2025-11-24 20:07:45.859,4.388437,-10.865808,-0.8207382,-1.3025928,1.262123,1.3925426,-22.368752,44.268753,-4.70625,0.3295287,-0.61573,0.5884449,999.4504, , , , 
2025-11-24 20:07:45.879,3.5700915,-9.820144,0.49292147,-1.3991094,0.9884556,1.9410992,-18.5625,45.037502,-4.36875,0.30664676,-0.62465775,0.5908773,999.4504, , , , 
2025-11-24 20:07:45.899,4.85743,-8.949157,1.9908284,-1.2072979,0.62254757,2.4774384,-15.525001,46.331253,-3.8437502,0.28219387,-0.6356736,0.59424,999.45526, , , , 
2025-11-24 20:07:45.919,7.1042905,-8.88455,2.8187451,-0.68745196,0.29512405,2.6863542,-15.243751,46.237503,-4.0125003,0.25829867,-0.646461,0.5996546,999.45526, , , , 
2025-11-24 20:07:45.940,8.88455,-9.092726,2.1750758,-0.09735657,0.015347977,2.6301546,-10.33125,48.112503,-3.3937502,0.23778531,-0.65478927,0.6076884,999.4589, , , , 
2025-11-24 20:07:45.959,9.6071825,-9.475577,0.95712906,0.3540725,-0.16852233,2.4792712,-11.306251,48.506252,-2.25,0.21792212,-0.66117793,0.6202414,999.4589, , , , 
2025-11-24 20:07:45.979,9.671789,-9.169296,0.14117654,0.47074768,-0.28886268,2.4126868,-8.775001,48.6375,-2.6625001,0.20500396,-0.66432506,0.6309054,999.4721, , , , 
2025-11-24 20:07:46.000,9.927821,-8.319844,-0.4235296,0.32352927,-0.3426188,2.4059672,-7.5937505,48.6375,-3.7125,0.19309093,-0.6674003,0.64073926,999.4721, , , , 
2025-11-24 20:07:46.019,10.968699,-7.056434,-0.55034924,-0.12851068,0.117362395,2.2697444,-4.3500004,49.593754,-2.2687502,0.179876,-0.6714309,0.6482496,999.4902, , , , 
2025-11-24 20:07:46.040,11.564512,-6.113662,0.1268196,-0.7405972,1.0599267,1.9111668,-2.0812502,50.568752,-3.0187502,0.16277973,-0.67587364,0.6525055,999.4902, , , , 
2025-11-24 20:07:46.059,11.253445,-5.761917,0.91405827,-1.1999675,2.1155012,1.5477023,0.056250002,50.175003,-4.4625,0.14075004,-0.6799686,0.65340084,999.4865, , , , 
2025-11-24 20:07:46.080,10.171889,-5.7858453,1.8640088,-1.3777292,2.9139013,1.1353686,1.8375001,49.612503,-3.99375,0.11364597,-0.6823241,0.6517759,999.4865, , , , 
2025-11-24 20:07:46.100,9.186047,-5.465207,2.1559331,-1.2977059,3.0916631,0.8904118,3.6562502,50.8875,-0.71250004,0.084499605,-0.68225574,0.6487355,999.4897, , , , 
2025-11-24 20:07:46.119,8.496913,-5.2259245,2.0817556,-1.0722967,2.748968,0.69982195,3.5062501,49.612503,1.7062501,0.056941703,-0.680432,0.6451977,999.4897, , , , 
2025-11-24 20:07:46.139,8.135597,-5.1756754,1.8113668,-0.8560506,2.2370632,0.6075814,5.0062504,49.7625,1.5375,0.028101698,-0.67720014,0.64094514,999.49384, , , , 
2025-11-24 20:07:46.160,8.279166,-4.9722853,1.4979069,-0.6929497,1.7642539,0.58497936,5.45625,50.662502,3.2812502,0.009784114,-0.6747865,0.63812375,999.49384, , , , 
2025-11-24 20:07:46.180,8.762517,-4.369294,1.3639089,-0.5829941,1.3781873,0.48601928,5.4187503,51.281254,4.18125,-0.005115914,-0.6728581,0.6356443,999.4921, , , , 
2025-11-24 20:07:46.200,8.95155,-3.8811584,1.3351951,-0.49380782,1.171715,0.3351357,5.86875,48.45,4.6125,-0.0169653,-0.6713194,0.63314253,999.4921, , , , 
2025-11-24 20:07:46.219,9.348758,-3.6251264,1.0313065,-0.4486038,1.1167371,0.08590286,9.618751,51.093754,4.21875,-0.026299331,-0.66981745,0.6303664,999.4904, , , , 
2025-11-24 20:07:46.240,9.652647,-4.0845485,0.552742,-0.5267945,1.2108103,-0.28000516,6.7875004,50.287502,6.2625003,-0.035293505,-0.66797775,0.6251448,999.4904,37.88754654,127.74014276,147.03936767578125,1.24
2025-11-24 20:07:46.259,9.662218,-4.7425747,0.47138608,-0.61598074,1.370246,-0.53717923,7.18125,49.331253,5.9625,-0.04145728,-0.6666389,0.6187884,999.48846, , , , 
2025-11-24 20:07:46.279,10.908878,-5.7930236,0.58624154,-0.63919365,1.3470331,-0.8077923,6.43125,49.256252,6.5062504,-0.046851777,-0.66528285,0.6108306,999.48846, , , , 
2025-11-24 20:07:46.299,11.863615,-6.71426,0.44985065,-0.57016593,1.266399,-1.1370485,3.8625002,48.862503,6.6562505,-0.04984809,-0.6640025,0.60158545,999.49774, , , , 
2025-11-24 20:07:46.319,12.8686,-8.19781,-0.43788654,-0.5500074,1.1124611,-1.5964187,3.2062502,50.025,7.425,-0.049531486,-0.66292936,0.5910314,999.49774, , , , 
2025-11-24 20:07:46.339,12.27518,-9.504292,-0.8063812,-0.6935606,1.1283436,-1.9666028,2.325,48.581253,7.2937503,-0.046254512,-0.6626223,0.5780936,999.5007, , , , 
2025-11-24 20:07:46.359,10.939985,-10.116854,-0.2943172,-0.82611823,1.2999966,-2.0124176,-1.2375001,49.18125,9.31875,-0.042719875,-0.66257286,0.5627637,999.5007, , , , 
2025-11-24 20:07:46.381,10.325029,-10.660025,-0.28713873,-0.86643535,1.5003603,-1.9543855,-1.95,50.100002,9.806251,-0.040938523,-0.6617065,0.5466297,999.50116, , , , 
2025-11-24 20:07:46.399,8.846265,-10.109675,0.40677986,-0.76869696,1.5162427,-1.70332,-4.93125,48.43125,10.5375,-0.041059546,-0.6595466,0.5307567,999.50116, , , , 
2025-11-24 20:07:46.419,7.84128,-8.343773,0.76331043,-0.4143954,1.0006728,-1.306258,-4.6875,48.075,9.450001,-0.04158626,-0.65583533,0.5147778,999.51166, , , , 
2025-11-24 20:07:46.439,8.465807,-7.0325055,0.66759753,-0.11873684,0.37697992,-1.1193334,-7.1625004,48.937504,10.425,-0.03897054,-0.6538867,0.5061833,999.51166, , , , 
2025-11-24 20:07:46.459,9.970892,-7.786245,0.8925229,0.09262237,-0.120264,-1.3630683,-9.6,48.675003,12.543751,-0.032523308,-0.65363556,0.4991775,999.5197, , , , 
2025-11-24 20:07:46.479,9.578469,-8.662018,1.2514462,0.24900375,-0.14714205,-1.6165773,-10.668751,48.3375,10.81875,-0.021418188,-0.65435684,0.49194854,999.5197, , , , 
2025-11-24 20:07:46.499,8.422736,-9.221938,1.1222339,0.28260133,-0.17463097,-1.5554909,-11.400001,48.2625,10.14375,-0.00920399,-0.6543012,0.48453316,999.53265, , , , 
2025-11-24 20:07:46.521,7.745567,-9.209974,1.1006985,0.34857473,-0.4012618,-1.4308743,-13.81875,45.65625,9.3,0.00290466,-0.6544549,0.4781501,999.53265, , , , 
2025-11-24 20:07:46.540,7.312466,-7.9633136,1.4237294,0.36873326,-0.6407208,-1.1724786,-13.9125,46.0125,10.5375,0.01823768,-0.65606374,0.4718439,999.53265, , , , 
2025-11-24 20:07:46.560,7.4249287,-7.109076,1.6271194,0.41576985,-0.644386,-1.0875684,-14.062501,46.612503,9.900001,0.024240756,-0.65694857,0.46985754,999.53265, , , , 
2025-11-24 20:07:46.579,7.3866434,-6.087341,1.4045869,0.5128973,-0.4379137,-1.1425462,-13.556251,44.475002,5.7937503,0.042060714,-0.658137,0.46502894,999.5373, , , , 
2025-11-24 20:07:46.599,6.8506513,-5.541777,0.72502524,0.49518228,-0.2864192,-1.274493,-17.5125,45.525,9.39375,0.054094028,-0.65736985,0.4613629,999.5373, , , , 
2025-11-24 20:07:46.619,6.3338017,-5.1876397,-0.12921242,0.36140287,-0.24793474,-1.4162136,-19.275002,44.831253,10.856251,0.066051595,-0.65619344,0.45649678,999.5334, , , , 
2025-11-24 20:07:46.640,6.029913,-5.1493545,-0.4331009,0.17753258,-0.23816091,-1.5304453,-20.306252,44.006252,9.150001,0.07789309,-0.6555715,0.44987053,999.5334, , , , 
2025-11-24 20:07:46.659,6.1567326,-5.2426744,-0.1794617,0.007101303,-0.1862374,-1.7375286,-20.962502,45.9,10.650001,0.089302264,-0.655354,0.4412797,999.5285, , , , 
2025-11-24 20:07:46.679,5.946164,-5.508278,0.047856454,-0.112017326,-0.11843141,-2.0942736,-23.025002,42.09375,9.075001,0.10424774,-0.6548658,0.42706048,999.5285, , , , 
2025-11-24 20:07:46.699,5.7427745,-5.7523456,-0.5407779,-0.24762931,0.032452192,-2.1840706,-23.2875,41.568752,9.6,0.11657718,-0.65379184,0.41341323,999.5234, , , , 
2025-11-24 20:07:46.719,5.4221363,-5.95095,-1.3040884,-0.5939896,0.08620829,-2.093052,-25.143751,41.006252,9.056251,0.12712403,-0.6526967,0.398328,999.5234, , , , 
2025-11-24 20:07:46.740,5.0847483,-6.398408,-1.0073783,-1.1266637,0.35376707,-1.9232314,-27.712502,38.5125,9.7875,0.1336224,-0.6527643,0.38127276,999.51556, , , , 
2025-11-24 20:07:46.760,4.9196434,-6.948757,-0.19860429,-1.455309,0.61949325,-1.5994731,-29.925001,36.28125,10.14375,0.1350707,-0.65261227,0.36313444,999.51556, , , , 
2025-11-24 20:07:46.779,5.096712,-7.537391,0.43788654,-1.6153555,0.83207417,-1.2641083,-31.44375,36.862503,11.34375,0.13150491,-0.65184516,0.3456889,999.51044, , , , 
2025-11-24 20:07:46.799,5.1756754,-8.262417,0.526421,-1.6513966,0.94386244,-0.94401515,-30.206251,35.756252,11.118751,0.1243305,-0.65033853,0.3298829,999.51044, , , , 
2025-11-24 20:07:46.819,4.85743,-8.645268,0.6125626,-1.7222569,0.89743674,-0.52435106,-31.837502,36.45,12.637501,0.111541994,-0.6484513,0.31281954,999.51263, , , , 
2025-11-24 20:07:46.839,4.8861437,-8.724232,0.7752745,-1.8138866,0.8357394,-0.09124792,-30.956251,33.65625,13.8,0.09793936,-0.64777887,0.30153182,999.51263, , , , 
2025-11-24 20:07:46.859,6.539584,-9.470792,1.9908284,-1.7674608,0.6604212,0.13782637,-31.2,34.518753,12.375001,0.081942596,-0.64812386,0.29207388,999.5097, , , , 
2025-11-24 20:07:46.879,7.0468626,-10.624132,2.07697,-1.4406482,0.5834522,0.3522399,-31.9125,33.206253,12.675,0.06627196,-0.64856565,0.28484416,999.5097, , , , 
2025-11-24 20:07:46.901,6.101698,-10.315458,1.6199409,-1.2958733,0.46677706,0.70165455,-31.781252,31.593752,11.83125,0.050865125,-0.64898473,0.28095844,999.4997, , , , 
2025-11-24 20:07:46.919,5.0536413,-8.793623,1.5457634,-1.2573888,0.3965276,1.2441025,-31.181252,32.5125,13.875001,0.03389402,-0.6499464,0.2805707,999.4997, , , , 
2025-11-24 20:07:46.940,4.694718,-7.3842506,1.6103697,-1.2396737,0.5810088,1.6448298,-32.0625,33.300003,14.231251,0.009153977,-0.65048134,0.2840318,999.4853, , , , 
2025-11-24 20:07:46.959,4.354937,-6.6735826,1.402194,-1.2347867,0.7099012,1.9527056,-30.750002,33.412502,15.95625,-0.007461875,-0.64976674,0.28773892,999.4853, , , , 
2025-11-24 20:07:46.979,4.668397,-5.879165,1.7036897,-1.1724786,0.66469723,2.3644285,-29.6625,35.268753,16.800001,-0.038017947,-0.647444,0.2968025,999.4753, , , , 
2025-11-24 20:07:47.000,5.912665,-5.797809,1.7778672,-0.97822356,0.53946996,2.5513532,-29.6625,36.75,17.34375,-0.0568482,-0.6458325,0.30412298,999.4753, , , , 
2025-11-24 20:07:47.019,8.432307,-6.652047,0.5766702,-0.8652136,0.3916407,2.6167157,-26.493752,38.0625,19.25625,-0.086803064,-0.64284503,0.31875426,999.4653, , , , 
2025-11-24 20:07:47.040,10.205389,-7.446464,-0.2105684,-1.1553744,0.34521496,2.4377322,-25.368752,38.4375,17.25,-0.11029576,-0.6410921,0.32968536,999.4653, , , , 
2025-11-24 20:07:47.059,10.803595,-7.925029,0.58624154,-1.6074144,0.3183369,2.2080472,-25.275002,38.30625,18.956251,-0.1345744,-0.64063305,0.33661568,999.46136, , , , 
2025-11-24 20:07:47.079,10.959127,-8.092526,2.7493532,-1.9085706,0.27068946,2.0034075,-23.15625,40.7625,18.75,-0.15988459,-0.64144987,0.33925852,999.46136, , , , 
2025-11-24 20:07:47.101,10.329815,-8.020741,5.1158547,-1.8994076,0.28596106,1.9594251,-20.85,39.99375,20.400002,-0.19117023,-0.6426345,0.33934864,999.45306, , , , 
2025-11-24 20:07:47.119,9.657433,-7.664211,6.2715883,-1.8945208,0.61766064,2.1011457,-20.268751,39.412502,23.00625,-0.21699946,-0.6408464,0.3389761,999.45306, , , , 
2025-11-24 20:07:47.139,10.370493,-6.407979,7.570891,-1.1449897,0.58956087,2.3289983,-19.10625,39.393753,23.34375,-0.2418002,-0.63705206,0.34195623,999.4511, , , , 
2025-11-24 20:07:47.159,11.212767,-5.4125648,6.283552,-0.33070692,0.76915514,2.08282,-15.4875,41.268753,22.3875,-0.261368,-0.62900156,0.34945163,999.4511, , , , 
2025-11-24 20:07:47.179,11.487942,-4.2185464,3.2303107,0.07979421,0.968297,1.8268675,-13.200001,41.006252,22.48125,-0.27546263,-0.61872345,0.3584415,999.45795, , , , 
2025-11-24 20:07:47.199,11.741581,-3.696911,1.0360922,-0.0881936,1.3684134,1.5996258,-13.668751,42.318752,22.44375,-0.2880614,-0.6072743,0.36565313,999.45795, , , , 
2025-11-24 20:07:47.219,11.660225,-3.5533416,-0.0047856453,-0.62147856,2.0556364,1.2935826,-12.825001,42.80625,21.2625,-0.30295256,-0.5944428,0.36734778,999.46014, , , , 
2025-11-24 20:07:47.239,11.341979,-3.6131623,0.51206404,-1.0448078,2.4985132,0.9881501,-11.400001,43.425003,22.462502,-0.32123905,-0.5804784,0.36260927,999.46014,37.88755797,127.74013839,146.94354248046875,1.2
2025-11-24 20:07:47.259,10.892129,-3.5988052,0.6867401,-1.2121848,2.599917,0.63751376,-12.88125,42.018753,24.393751,-0.34558687,-0.56254625,0.34983093,999.46136, , , , 
2025-11-24 20:07:47.279,10.827522,-3.7040894,0.7369894,-1.2353977,2.4392595,0.2587776,-14.212501,41.15625,22.575,-0.36341313,-0.54940414,0.33635232,999.46136, , , , 
2025-11-24 20:07:47.299,10.126426,-3.5270207,1.3447664,-1.0863466,2.1368814,-0.07170025,-14.531251,41.100002,24.468752,-0.37796783,-0.5384974,0.3214075,999.4716, , , , 
2025-11-24 20:07:47.319,9.339187,-3.4456646,1.1581261,-0.8578832,1.8039601,-0.29344416,-18.337502,40.96875,22.706251,-0.3884936,-0.5297291,0.30676147,999.4716, , , , 
2025-11-24 20:07:47.339,9.408579,-3.991228,0.91884387,-0.6972258,1.433776,-0.46143198,-16.837502,40.5,23.5125,-0.3957261,-0.52303255,0.293055,999.4858, , , , 
2025-11-24 20:07:47.359,9.798609,-5.1469617,-0.25603202,-0.76686436,1.2541817,-0.5408444,-18.993752,39.28125,24.2625,-0.40083298,-0.51844215,0.28006452,999.4858, , , , 
2025-11-24 20:07:47.379,10.4016,-5.6877394,0.6221339,-0.9366848,0.94874936,-0.70150185,-19.7625,39.825,24.16875,-0.40587908,-0.51604754,0.26657674,999.49164, , , , 
2025-11-24 20:07:47.400,10.207782,-6.235696,1.0863415,-1.0967313,0.71723163,-0.9036981,-18.487501,40.21875,21.993752,-0.41018638,-0.5163763,0.25204793,999.49164, , , , 
2025-11-24 20:07:47.419,10.710274,-7.786245,1.6319051,-1.3032037,0.57184577,-1.1248311,-18.4125,37.74375,22.275002,-0.4150938,-0.5198956,0.23187388,999.5024, , , , 
2025-11-24 20:07:47.439,11.282159,-9.466006,2.2157538,-1.4125484,0.507705,-1.3044254,-23.118752,35.625,24.6,-0.41882062,-0.52442896,0.21388052,999.5024, , , , 
2025-11-24 20:07:47.459,10.439885,-9.896714,3.2709885,-1.3166426,0.5577959,-1.4803544,-22.3875,36.318752,24.487501,-0.42180505,-0.5294749,0.19465011,999.5214, , , , 
2025-11-24 20:07:47.479,8.609376,-8.477771,4.508078,-0.91102844,0.6310997,-1.3050362,-23.4375,34.2,27.187502,-0.42316902,-0.53346556,0.17584635,999.5214, , , , 
2025-11-24 20:07:47.500,8.537591,-7.52782,4.7545385,-0.28000516,0.5816196,-1.1370485,-23.681252,32.081253,24.712502,-0.42207003,-0.5350394,0.16098563,999.5395, , , , 
2025-11-24 20:07:47.520,9.224331,-7.298109,3.9888353,0.2709949,0.4472294,-1.1981349,-25.800001,33.45,27.31875,-0.41675156,-0.53576255,0.15030056,999.5395, , , , 
2025-11-24 20:07:47.539,10.332209,-8.025527,2.1655045,0.76579535,-0.019471316,-1.5041782,-26.906252,32.11875,25.500002,-0.40323916,-0.53907657,0.14050707,999.55023, , , , 
2025-11-24 20:07:47.559,11.203196,-8.671589,0.9954142,0.9191224,-0.43547022,-1.8102214,-28.593752,30.206251,23.94375,-0.38812014,-0.5457955,0.13392688,999.55023, , , , 
2025-11-24 20:07:47.579,11.076376,-8.874979,0.39960137,0.8928552,-0.7726676,-2.1052692,-29.118752,32.006252,25.275002,-0.37029722,-0.55627906,0.12689516,999.54926, , , , 
2025-11-24 20:07:47.600,10.226924,-8.63809,0.5694918,0.7462477,-0.89606225,-2.182849,-28.050001,30.018751,24.35625,-0.35169533,-0.5690203,0.11891514,999.54926, , , , 
2025-11-24 20:07:47.619,9.659825,-8.23131,1.6175481,0.6778308,-0.80076736,-2.1272602,-31.125002,27.937502,25.875002,-0.33390993,-0.5815048,0.11043358,999.55316, , , , 
2025-11-24 20:07:47.639,8.523234,-7.6713896,2.0578275,0.70409805,-0.76655895,-2.0851107,-31.5375,28.893751,27.093752,-0.3162994,-0.5929874,0.101874396,999.55316, , , , 
2025-11-24 20:07:47.661,7.4153576,-7.3579297,2.0195422,0.85253817,-0.60223633,-1.8768057,-33.581253,27.431252,26.775002,-0.29878572,-0.6031636,0.094243795,999.55853, , , , 
