Time,Accel_X,Accel_Y,Accel_Z,Gyro_X,Gyro_Y,Gyro_Z,Mag_X,Mag_Y,Mag_Z,Orient_X,Orient_Y,Orient_Z,Pressure,Lat,Lng,Alt,Speed
2025-11-24 19:32:52.088,-2.5627131,3.359523,8.475378,0.19876012,-0.5213731,-0.0025198173,-0.61875004,24.225,-47.04375,0.06727751,0.17516692,0.62591195,999.06854,37.88747141,127.74032862,143.489501953125,0.0
2025-11-24 19:32:52.109,-1.9142581,3.4983068,7.9657063,-0.7602976,-0.54275334,0.007864884,-2.15625,22.78125,-42.9375,0.07115988,0.16482706,0.6260277,999.0827, , , , 
2025-11-24 19:32:52.127,-2.8953154,2.751746,8.535198,-0.9380592,-0.5684097,0.16424626,-4.18125,22.837502,-43.18125,0.06861153,0.15582412,0.6270885,999.0861, , , , 
2025-11-24 19:32:52.147,-1.713261,3.3403804,8.664411,-1.1097122,-0.3527744,0.3420079,-2.625,23.8875,-45.112503,0.06435514,0.14662634,0.62995034,999.0861, , , , 
2025-11-24 19:32:52.167,-0.8925229,3.5892339,11.16491,-0.9282854,-0.87750727,0.16607887,-4.9875,26.85,-43.18125,0.059289474,0.13318136,0.6341877,999.0881, , , , 
2025-11-24 19:32:52.187,-0.08135597,3.67059,11.760723,-0.46097383,-1.0943643,-0.2529744,-6.4875,26.812502,-41.625,0.060341846,0.12143439,0.63442475,999.0881, , , , 
2025-11-24 19:32:52.208,0.24646074,3.2327034,10.492527,-0.21479532,-1.2030982,-0.6011673,-8.231251,28.368752,-41.53125,0.06469702,0.11119467,0.63106,999.08734, , , , 
2025-11-24 19:32:52.227,0.53359944,2.5866413,9.030513,-0.22701262,-1.3949097,-0.8381828,-7.6687503,28.29375,-40.350002,0.07057186,0.10071729,0.6251757,999.08734, , , , 
2025-11-24 19:32:52.247,-0.02871387,2.644069,8.762517,-0.27649269,-1.3582579,-0.86567175,-10.462501,28.25625,-40.068752,0.07643664,0.089192145,0.61785305,999.08734, , , , 
2025-11-24 19:32:52.267,-0.92602235,2.5914268,7.6331043,-0.2325104,-0.8542944,-0.6573669,-10.5375,28.518751,-41.30625,0.081908606,0.07868334,0.61098677,999.08734, , , , 
2025-11-24 19:32:52.287,-2.0386848,3.17049,7.355537,-0.3491856,-0.03451386,-0.13568833,-13.70625,28.1625,-39.5625,0.08284317,0.0732956,0.60647005,999.0878, , , , 
2025-11-24 19:32:52.308,0.53599226,2.5435705,6.178268,-0.5428297,0.30146176,0.58391035,-14.868751,26.7,-41.0625,0.078160346,0.07196159,0.6087891,999.0878, , , , 
2025-11-24 19:32:52.327,1.5361922,2.0315065,5.5920267,-0.7407499,-0.16584979,0.6944769,-13.462501,28.81875,-38.381252,0.07332011,0.06869603,0.6142605,999.09515, , , , 
2025-11-24 19:32:52.347,0.91166544,2.5435705,5.907879,-0.92706364,-1.2360849,0.7787762,-13.6125,29.41875,-39.1875,0.072194055,0.05751431,0.619851,999.09515, , , , 
2025-11-24 19:32:52.367,1.3543376,2.2612174,5.584848,-0.94477874,-2.2403467,0.8416953,-11.962501,29.812502,-36.43125,0.07560915,0.039141223,0.6252271,999.0983, , , , 
2025-11-24 19:32:52.387,1.1174482,1.5170496,5.056034,-0.9521091,-2.7827945,0.88079065,-9.543751,31.781252,-34.331253,0.0840503,0.01440679,0.62995064,999.0983, , , , 
2025-11-24 19:32:52.407,3.2015967,1.1772687,7.070791,-0.8708641,-2.658178,0.8575778,-7.33125,33.787502,-38.23125,0.09438159,-0.013096704,0.63417757,999.10565, , , , 
2025-11-24 19:32:52.427,4.6803613,0.17228323,7.159325,-0.49701485,-2.2446227,0.6132319,-6.43125,34.21875,-34.18125,0.104122266,-0.037086044,0.63741094,999.10565, , , , 
2025-11-24 19:32:52.447,5.534599,-0.526421,5.6614184,-0.17753258,-2.627024,0.3890445,-7.93125,34.59375,-36.35625,0.1158326,-0.057905946,0.638759,999.1037, , , , 
2025-11-24 19:32:52.467,5.5250273,-1.6414764,4.194618,8.3993905E-4,-3.5512624,0.15630503,-5.5687504,35.2125,-38.34375,0.1380504,-0.08746722,0.636808,999.1037, , , , 
2025-11-24 19:32:52.487,5.611169,-1.2705889,3.3523445,0.1211803,-3.9587092,-0.16989677,-8.175,33.84375,-39.375,0.16214119,-0.115779676,0.63164085,999.1418, , , , 
2025-11-24 19:32:52.507,5.400601,-1.5050855,4.3334017,-0.11522437,-4.3863144,-0.5492438,-10.5375,33.84375,-38.831253,0.18769313,-0.14508706,0.6222867,999.1418, , , , 
2025-11-24 19:32:52.527,5.168497,-1.995614,5.838487,0.11873684,-5.4192867,-0.3427715,-15.825001,32.831253,-41.456253,0.21606347,-0.17982112,0.6089594,999.1584, , , , 
2025-11-24 19:32:52.548,6.5084777,-2.7158537,4.7569313,0.81206834,-5.8548336,-0.09964732,-18.581251,32.5125,-37.912502,0.25109577,-0.218121,0.5954116,999.1584, , , , 
2025-11-24 19:32:52.567,6.4031935,-2.4239295,3.0699914,1.3239731,-6.226239,-0.05383246,-25.2,30.31875,-35.7,0.29178786,-0.25441957,0.5816917,999.1733, , , , 
2025-11-24 19:32:52.587,5.568098,-3.4887354,0.70588267,1.2042435,-6.3148146,0.20150901,-28.968752,29.925001,-34.2,0.33536,-0.2908094,0.56632555,999.1733, , , , 
2025-11-24 19:32:52.608,6.489335,-4.386044,0.13878371,0.59215707,-5.8047423,0.88262326,-33.393753,29.306252,-30.618752,0.3827747,-0.3379522,0.5472343,999.1899, , , , 
2025-11-24 19:32:52.627,8.748159,-5.407779,-0.3493521,-0.5287798,-4.4602294,1.7054582,-34.93125,28.500002,-27.468752,0.40703702,-0.37658346,0.53551465,999.1899, , , , 
2025-11-24 19:32:52.647,10.4566345,-5.7786665,1.1485549,-2.164065,-2.1853688,2.3774095,-37.518753,30.45,-24.225,0.40925178,-0.413916,0.52953804,999.19867, , , , 
2025-11-24 19:32:52.667,11.674582,-6.63769,3.859623,-3.053484,-0.883005,2.6785657,-38.831253,32.15625,-20.775002,0.39008117,-0.44691584,0.52826583,999.19867, , , , 
2025-11-24 19:32:52.688,12.100504,-7.405786,6.285945,-3.252626,-0.58245957,2.894201,-36.75,33.975002,-18.31875,0.36122775,-0.47803953,0.5285268,999.19916, , , , 
2025-11-24 19:32:52.707,12.327823,-7.3579297,7.4416785,-2.8745005,-0.82008594,2.9412374,-36.16875,37.85625,-14.437501,0.331066,-0.50774384,0.5291525,999.19916, , , , 
2025-11-24 19:32:52.727,13.347165,-6.8482585,8.128419,-2.4768276,-1.1731658,2.9809437,-34.143753,40.03125,-12.918751,0.30419436,-0.5360644,0.5302206,999.2231, , , , 
2025-11-24 19:32:52.750,14.277973,-6.1160545,9.23151,-2.1194718,-1.1444552,2.9705591,-29.737501,44.0625,-9.13125,0.27425578,-0.5689742,0.5320015,999.2326, , , , 
2025-11-24 19:32:52.768,14.47897,-5.003392,9.142975,-1.8732932,-0.991739,2.8489969,-29.1375,44.86875,-8.306251,0.25198433,-0.591641,0.5344253,999.2326, , , , 
2025-11-24 19:32:52.787,14.196617,-3.9673,8.879765,-1.6961424,-0.7663299,2.682231,-27.7875,45.975002,-5.8875003,0.23100168,-0.6108742,0.5369744,999.2326, , , , 
2025-11-24 19:32:52.808,14.227723,-3.0005996,8.147561,-1.6234496,-0.41447175,2.531958,-25.331251,46.706253,-3.73125,0.21020189,-0.62684274,0.53955376,999.2507, , , , 
2025-11-24 19:32:52.828,15.170496,-1.3399807,8.346166,-1.462792,-0.3100139,2.2870014,-24.0375,48.075,-2.5500002,0.18463813,-0.64318967,0.542103,999.2585, , , , 
2025-11-24 19:32:52.850,15.8022,-0.09571291,8.04467,-1.2263874,-0.33933538,1.823355,-21.768751,50.79375,-1.2375001,0.17191005,-0.6511561,0.5429399,999.2585, , , , 
2025-11-24 19:32:52.870,15.806987,1.4356936,7.520642,-0.9539417,-0.34544402,1.244866,-19.575,50.86875,0.99375004,0.15635313,-0.6618438,0.54292893,999.2658, , , , 
2025-11-24 19:32:52.888,15.529419,2.1655045,7.7001033,-0.8384883,-0.2196059,0.92416203,-20.643751,49.3875,2.2687502,0.14810897,-0.66800666,0.54156727,999.2658, , , , 
2025-11-24 19:32:52.908,15.060426,2.804388,7.5230346,-0.6992111,0.24648394,0.5295434,-17.1375,51.487503,2.1000001,0.14151996,-0.671342,0.5396281,999.27045, , , , 
2025-11-24 19:32:52.928,14.471791,3.1441689,7.3579297,-0.528169,0.5433642,0.26442808,-17.400002,52.443752,3.61875,0.13557638,-0.67158604,0.53752404,999.27045, , , , 
2025-11-24 19:32:52.948,14.371293,3.6658044,7.456035,-0.124998204,0.5867356,-0.08804089,-17.0625,51.225002,3.3375,0.13168633,-0.6690816,0.53599674,999.27045, , , , 
2025-11-24 19:32:52.968,14.500505,3.35713,6.8985076,0.43577567,0.24159703,-0.38003424,-17.306252,52.2,3.91875,0.13287981,-0.66456246,0.53566194,999.2758, , , , 
2025-11-24 19:32:52.988,15.220745,2.8187451,5.8863435,0.8462768,0.00641408,-0.6738602,-16.706251,51.525,2.8125,0.13970137,-0.6586982,0.5366946,999.2758, , , , 
2025-11-24 19:32:53.008,15.507884,1.9740787,4.9028935,0.98433226,0.035124727,-0.96157753,-18.675001,51.825,2.23125,0.15078656,-0.6516409,0.5379456,999.26996, , , , 
2025-11-24 19:32:53.028,15.452848,0.8350951,4.4195433,0.94645864,0.23243405,-1.2120321,-19.81875,51.843754,0.65625,0.16654633,-0.64127773,0.5382332,999.267, , , , 
2025-11-24 19:32:53.048,15.321243,-0.31106696,4.6085763,0.885983,0.4327977,-1.36597,-19.575,50.11875,0.41250002,0.17876641,-0.6318441,0.5372639,999.267, , , , 
2025-11-24 19:32:53.067,15.273387,-1.1988041,5.151747,0.93240875,0.55985755,-1.4856995,-22.0125,49.631252,-0.375,0.19046259,-0.6212621,0.53576624,999.267, , , , 
2025-11-24 19:32:53.088,15.553348,-2.4430718,5.4723854,1.1223876,0.5763509,-1.5895466,-21.993752,49.875004,1.4625001,0.20274442,-0.6092799,0.5344808,999.2568,37.88747141,127.74032862,143.489501953125,0.0
2025-11-24 19:32:53.108,15.914663,-3.8835511,5.501099,1.3850595,0.53297955,-1.6512438,-24.281252,49.050003,-2.7375002,0.21634123,-0.59597963,0.53389454,999.2568, , , , 
2025-11-24 19:32:53.128,16.003199,-4.26401,5.4317074,1.6220751,0.36743516,-1.6830088,-25.556252,48.43125,-4.1062503,0.23151611,-0.5816555,0.53417176,999.257, , , , 
2025-11-24 19:32:53.148,16.307087,-3.888337,5.5202417,1.7564653,0.20066908,-1.7966297,-28.050001,46.95,-5.0062504,0.24880216,-0.5669828,0.53470075,999.257, , , , 
2025-11-24 19:32:53.168,16.122839,-3.2877383,5.73081,1.7955607,0.2751946,-2.0214279,-28.95,45.99375,-6.24375,0.27275145,-0.5475901,0.53411424,999.25653, , , , 
2025-11-24 19:32:53.188,15.24228,-3.5030923,5.5968122,1.8181627,0.6997456,-2.2975388,-29.56875,44.193752,-8.231251,0.29188728,-0.52943,0.5325414,999.2546, , , , 
2025-11-24 19:32:53.208,13.952549,-4.2041893,4.914858,1.8505385,1.1187989,-2.405051,-31.462502,44.1375,-10.03125,0.30948597,-0.50796413,0.5308807,999.2546, , , , 
2025-11-24 19:32:53.228,12.916456,-4.8693943,3.897908,1.8645884,1.4242313,-2.436816,-33.05625,42.6375,-12.262501,0.32516038,-0.48378745,0.52969885,999.2546, , , , 
2025-11-24 19:32:53.247,11.882757,-5.3479586,3.0939198,1.8413755,1.4981458,-2.4539201,-34.7625,40.48125,-14.118751,0.33937335,-0.45819983,0.52851444,999.25507, , , , 
2025-11-24 19:32:53.268,10.506885,-5.568098,2.2636101,1.7418046,1.3637556,-2.4343724,-34.987503,37.85625,-15.4875,0.35299134,-0.43272573,0.5265643,999.25507, , , , 
2025-11-24 19:32:53.288,9.293723,-5.5704913,1.820938,1.5353323,1.2983931,-2.4044402,-36.24375,34.893753,-19.518751,0.36596656,-0.40851626,0.523324,999.2507, , , , 
2025-11-24 19:32:53.308,7.5254273,-5.4221363,1.9812572,1.2873212,1.3026692,-2.2578325,-37.237503,30.69375,-20.400002,0.3795315,-0.37991244,0.51790744,999.2507, , , , 
2025-11-24 19:32:53.329,6.3720865,-5.1756754,2.1918256,1.1541526,1.2843432,-2.0275366,-37.425003,30.956251,-23.94375,0.3879139,-0.3584841,0.51367164,999.2365, , , , 
2025-11-24 19:32:53.350,5.534599,-4.7401814,2.3928227,1.1083378,1.1603377,-1.7844124,-39.3375,27.900002,-24.656252,0.39645615,-0.33351633,0.50927716,999.22455, , , , 
2025-11-24 19:32:53.368,4.7306104,-4.4147577,2.1511476,1.1327723,0.946535,-1.6090941,-37.912502,26.94375,-25.518751,0.40494022,-0.31077385,0.50534034,999.22455, , , , 
2025-11-24 19:32:53.387,4.2975097,-4.240082,1.875973,1.1315507,0.8151991,-1.5064689,-37.275,26.400002,-26.175001,0.40853986,-0.30242595,0.5037989,999.22455, , , , 
2025-11-24 19:32:53.407,3.426522,-4.0151563,1.4763715,1.0942879,0.60017467,-1.3152683,-37.518753,22.1625,-28.5375,0.41597795,-0.28730065,0.5007595,999.22845, , , , 
2025-11-24 19:32:53.427,2.754139,-3.8524444,1.1437693,1.0313689,0.38209593,-1.1051308,-37.612503,23.025002,-29.19375,0.42159104,-0.27757648,0.4986034,999.22845, , , , 
2025-11-24 19:32:53.447,2.0865414,-3.7304106,0.83030945,0.92874354,0.07055488,-0.75266176,-39.075,20.1375,-29.025002,0.43097332,-0.2652186,0.49546254,999.2087, , , , 
2025-11-24 19:32:53.467,1.8329022,-3.6011982,0.6029913,0.7925207,-0.066889696,-0.44417506,-36.45,19.29375,-30.806252,0.4380106,-0.2587607,0.4938104,999.2087, , , , 
2025-11-24 19:32:53.488,1.6749759,-3.5581272,0.45702913,0.64896744,-0.2770272,-0.09231694,-36.28125,17.71875,-33.35625,0.44539657,-0.2548089,0.4932866,999.19916, , , , 
2025-11-24 19:32:53.507,1.7826529,-3.5030923,0.27038896,0.5298488,-0.50304717,0.20150901,-37.537502,17.212502,-33.80625,0.45067504,-0.25538546,0.49382725,999.19916, , , , 
2025-11-24 19:32:53.527,2.2085752,-3.4624143,0.124426775,0.37957612,-0.69363695,0.48678288,-37.74375,15.806251,-30.618752,0.45541257,-0.2593116,0.4950162,999.19403, , , , 
2025-11-24 19:32:53.547,2.5579274,-3.4528432,0.09810573,0.24335326,-0.7693842,0.6926443,-37.800003,16.06875,-32.175003,0.45827305,-0.2642848,0.49640054,999.19403, , , , 
2025-11-24 19:32:53.567,3.2997024,-4.024728,-0.019142581,-0.0193186,-0.8952223,1.1129192,-35.362503,17.94375,-33.0,0.46096173,-0.27599093,0.4999742,999.18695, , , , 
2025-11-24 19:32:53.587,3.9840498,-4.3525443,-0.011964113,-0.1146135,-0.97341305,1.281518,-36.862503,18.6375,-31.031252,0.461303,-0.28204668,0.5018741,999.18695, , , , 
2025-11-24 19:32:53.607,5.831309,-5.1469617,0.24646074,-0.36873326,-1.2910627,1.7506621,-37.2,19.96875,-29.831251,0.4602544,-0.30546656,0.50870544,999.1862, , , , 
2025-11-24 19:32:53.627,6.5946193,-5.855237,0.36131623,-0.61491174,-1.5665628,2.1782675,-36.112503,21.056252,-29.400002,0.45798996,-0.3260659,0.51374036,999.1862, , , , 
2025-11-24 19:32:53.647,8.202596,-6.862615,0.94277215,-0.9386701,-1.687514,2.7591999,-37.331253,23.79375,-28.331251,0.45159352,-0.35833746,0.5211622,999.18744, , , , 
2025-11-24 19:32:53.667,10.470992,-8.178668,1.2705889,-1.2184461,-1.5885539,3.236896,-37.10625,25.1625,-25.2,0.44196364,-0.38808244,0.5288859,999.18744, , , , 
2025-11-24 19:32:53.687,12.882957,-8.865408,2.1367905,-1.5067743,-1.3839141,3.5960846,-36.1875,29.85,-23.868752,0.4275153,-0.41971055,0.5380091,999.2026, , , , 
2025-11-24 19:32:53.707,13.842479,-8.652447,3.0005996,-1.5776347,-1.3716968,3.7915614,-34.800003,30.975,-22.368752,0.40947157,-0.45177993,0.54749787,999.2026, , , , 
2025-11-24 19:32:53.727,14.68236,-7.472785,3.8644085,-1.5965714,-1.3063344,3.8819692,-32.4375,34.800003,-21.300001,0.38457006,-0.4912492,0.5588835,999.2138, , , , 
2025-11-24 19:32:53.747,15.192031,-6.4031935,4.682754,-1.5641956,-1.1731658,3.798281,-27.91875,38.49375,-19.2,0.36886063,-0.5135357,0.56514394,999.2138, , , , 
2025-11-24 19:32:53.768,15.213567,-5.4125648,5.032106,-1.4933354,-0.80847955,3.6260169,-28.2,39.43125,-16.9125,0.34736198,-0.54034156,0.57284045,999.23676, , , , 
2025-11-24 19:32:53.787,15.146567,-5.221139,5.209175,-1.3552799,-0.33505934,3.4054947,-24.7875,41.90625,-16.48125,0.3188833,-0.5679096,0.5823462,999.23676, , , , 
2025-11-24 19:32:53.807,15.340386,-5.087141,5.180461,-1.137812,-0.20127994,3.2087963,-22.66875,44.475002,-15.150001,0.29585126,-0.5855487,0.59012556,999.26605, , , , 
2025-11-24 19:32:53.827,15.225531,-4.7018967,4.76411,-0.8879683,-0.318566,2.9962153,-20.60625,44.662502,-13.51875,0.27998894,-0.5968196,0.5958351,999.26605, , , , 
2025-11-24 19:32:53.847,14.474184,-3.7328033,4.2017965,-0.66500264,-0.54580766,2.735987,-16.181252,46.987503,-13.968751,0.25796807,-0.6133085,0.6044189,999.28143, , , , 
2025-11-24 19:32:53.867,14.227723,-2.4239295,3.8261235,-0.6277399,-0.39553493,2.4855325,-15.656251,47.643753,-10.96875,0.24308628,-0.62491494,0.6102367,999.28143, , , , 
2025-11-24 19:32:53.887,13.354343,-1.4548361,3.1776686,-0.73525214,-0.01924224,2.1568873,-12.806251,47.925003,-10.96875,0.22857675,-0.63449454,0.61491436,999.2924, , , , 
2025-11-24 19:32:53.907,12.244074,-0.8925229,2.6512475,-0.91118115,0.35033095,1.872835,-10.762501,50.86875,-10.425,0.2133153,-0.6424394,0.6179422,999.2924, , , , 
2025-11-24 19:32:53.928,11.330015,-0.5479564,2.3712873,-1.1249839,0.69424784,1.6407064,-9.337501,50.643753,-10.725,0.19671361,-0.6493659,0.6192484,999.28656, , , , 
2025-11-24 19:32:53.947,10.779666,-0.14117654,2.6392834,-1.2941934,0.8952223,1.421406,-5.625,49.406254,-11.19375,0.1742932,-0.65721446,0.6184518,999.28656, , , , 
2025-11-24 19:32:53.969,10.858629,0.4139583,3.5365918,-1.2098941,0.84329885,1.1147518,-5.25,51.43125,-8.887501,0.1527812,-0.66412,0.6156541,999.2778, , , , 
2025-11-24 19:32:53.987,10.916057,0.5072784,3.694518,-1.0095304,0.74189526,0.906447,-2.8500001,50.30625,-9.075001,0.1418808,-0.66735125,0.6137492,999.2778, , , , 
2025-11-24 19:32:54.007,11.160125,0.45942193,3.3619158,-0.7963386,0.6838631,0.7073051,-1.44375,52.425003,-6.24375,0.12993665,-0.6703859,0.6115341,999.2775, , , , 
2025-11-24 19:32:54.027,11.576476,0.45224348,3.0460632,-0.6405681,0.6875283,0.56863874,-0.31875002,53.025,-4.70625,0.120211475,-0.6720955,0.6097004,999.2775, , , , 
2025-11-24 19:32:54.047,12.897314,0.29192436,2.4861426,-0.46891508,0.6685915,0.34322965,-1.0875001,54.187504,-5.30625,0.110604785,-0.6726675,0.60776734,999.2775, , , , 
2025-11-24 19:32:54.069,13.990834,0.0023928226,1.9716859,-0.41699156,0.6191115,0.07628174,0.5625,51.600002,-3.7875001,0.10527528,-0.672313,0.60579944,999.2775, , , , 
2025-11-24 19:32:54.087,15.010177,-0.6963114,2.0195422,-0.42065677,0.5195405,-0.29145885,1.63125,51.73125,-5.6062503,0.10256794,-0.6718466,0.6025088,999.2817,37.88748053,127.74033118,142.3489990234375,0.48
2025-11-24 19:32:54.107,15.282958,-1.8711873,2.7278178,-0.30825764,0.3564396,-0.70623606,1.1437501,53.156254,-2.7,0.10314683,-0.67126065,0.5976944,999.2817, , , , 
2025-11-24 19:32:54.127,15.27578,-3.2135608,3.2159536,-0.10361794,0.20983206,-0.91087574,-0.90000004,52.331253,-3.6750002,0.10713527,-0.66996276,0.59252435,999.2924, , , , 
2025-11-24 19:32:54.147,15.416956,-4.371687,3.050849,0.17371467,0.085215636,-1.0892483,-2.53125,50.268753,-1.3687501,0.11409435,-0.66757476,0.58806515,999.2924, , , , 
2025-11-24 19:32:54.168,15.608382,-5.2307105,2.6488547,0.32276568,0.04612029,-1.2321906,-2.8312502,51.506252,-3.73125,0.1231995,-0.66412693,0.58422065,999.3012, , , , 
2025-11-24 19:32:54.187,16.003199,-6.407979,2.3114667,0.42844528,-0.045509428,-1.3879611,-5.53125,52.725002,-3.2062502,0.13673532,-0.6589063,0.5794592,999.3012, , , , 
2025-11-24 19:32:54.207,16.084555,-7.365108,2.28036,0.54145527,-0.19089524,-1.4887538,-6.8625,50.343754,-4.1625004,0.14942566,-0.6544573,0.575456,999.3022, , , , 
2025-11-24 19:32:54.227,15.878771,-7.726424,2.3186452,0.6654608,-0.33139414,-1.5583924,-8.83125,50.025,-4.1062503,0.16007496,-0.65096897,0.57254994,999.3022, , , , 
2025-11-24 19:32:54.247,14.663218,-7.099505,2.7565317,0.86215925,-0.48227775,-1.6762893,-10.1625,50.643753,-4.9125004,0.1801482,-0.6445672,0.56802535,999.3017, , , , 
2025-11-24 19:32:54.267,13.026526,-5.9557357,3.199204,1.084514,-0.5677988,-1.8302273,-10.743751,49.968754,-5.1375003,0.1985541,-0.6382832,0.5648271,999.3017, , , , 
2025-11-24 19:32:54.287,11.52862,-5.568098,3.1752756,1.3862813,-0.52931434,-2.039754,-12.750001,50.1375,-5.2312503,0.21914594,-0.6301406,0.56214005,999.3022, , , , 
2025-11-24 19:32:54.307,10.41835,-6.101698,2.376073,1.5903101,-0.4553997,-2.1802528,-15.843751,49.2,-6.8625,0.24138674,-0.61967236,0.56005776,999.3022, , , , 
2025-11-24 19:32:54.327,9.650253,-6.814759,1.5170496,1.6599487,-0.43585202,-2.1936917,-17.0625,47.475002,-7.5750003,0.26432288,-0.6076488,0.5582979,999.29706, , , , 
2025-11-24 19:32:54.347,8.848659,-7.207182,0.55752766,1.5787036,-0.48899725,-2.025093,-19.987501,47.30625,-10.03125,0.292203,-0.59250003,0.5560893,999.29706, , , , 
2025-11-24 19:32:54.367,8.7673025,-6.8602223,0.15553348,1.342299,-0.620944,-1.858327,-21.431252,45.91875,-9.95625,0.31289965,-0.5819662,0.5537048,999.2885, , , , 
2025-11-24 19:32:54.387,8.480164,-6.202196,0.6125626,1.0655773,-0.7938188,-1.7764711,-24.187502,44.41875,-12.675,0.33223146,-0.5737058,0.5496991,999.2885, , , , 
2025-11-24 19:32:54.409,8.295917,-5.7379885,1.1174482,0.82795084,-0.8970549,-1.7459279,-24.937502,42.84375,-12.50625,0.34607515,-0.56888795,0.545453,999.2902, , , , 
2025-11-24 19:32:54.427,8.099705,-5.304888,1.9190438,0.55550516,-0.85612696,-1.7758603,-24.993752,43.331253,-12.675,0.367625,-0.5625053,0.5362482,999.2902, , , , 
2025-11-24 19:32:54.447,7.54457,-5.1254263,2.4239295,0.33253953,-0.5910117,-1.8345033,-28.650002,41.100002,-13.087501,0.38296306,-0.55753875,0.52762413,999.28827, , , , 
2025-11-24 19:32:54.467,6.9009004,-5.144569,2.7230322,0.17004949,-0.29474226,-1.8509966,-29.175001,40.912502,-11.025001,0.39601243,-0.551813,0.51868683,999.28827, , , , 
2025-11-24 19:32:54.487,6.302695,-5.3623157,2.8689942,0.055206906,0.01802051,-1.8143448,-29.1,40.425003,-12.543751,0.40891734,-0.5433253,0.50799066,999.2878, , , , 
2025-11-24 19:32:54.507,5.895915,-5.6374903,2.9790642,0.0240528,0.2367101,-1.7557018,-31.3875,40.068752,-11.512501,0.41687244,-0.53557575,0.5002923,999.2878, , , , 
2025-11-24 19:32:54.527,5.508278,-5.962914,2.9742785,0.050319985,0.33261588,-1.6732349,-32.71875,37.068752,-11.512501,0.42188537,-0.5292977,0.49518174,999.27826, , , , 
2025-11-24 19:32:54.547,5.2833524,-6.6257257,2.8953154,0.07658717,0.31734425,-1.5156319,-33.46875,36.131252,-12.76875,0.42911655,-0.5187676,0.4878229,999.27826, , , , 
2025-11-24 19:32:54.567,5.0656056,-6.9942207,3.1130621,0.108963005,0.25442517,-1.3726895,-33.693752,35.737503,-13.650001,0.43426996,-0.5111005,0.48266178,999.27997, , , , 
2025-11-24 19:32:54.587,4.85743,-7.1784678,3.4719856,0.267177,0.22143848,-1.1069634,-34.95,33.225002,-11.512501,0.44006482,-0.5024669,0.4778854,999.2729, , , , 
2025-11-24 19:32:54.609,4.8646083,-7.348358,3.2829528,0.48647743,0.19028437,-0.8888846,-38.5125,34.36875,-12.750001,0.444585,-0.4958119,0.47618264,999.2729, , , , 
2025-11-24 19:32:54.627,4.938786,-7.530213,2.7014968,0.6813433,0.1291979,-0.66652983,-36.487503,32.71875,-14.418751,0.44820866,-0.49099746,0.47629264,999.2729, , , , 
2025-11-24 19:32:54.647,4.855037,-7.757531,0.9834501,0.76930785,0.107817635,-0.30550876,-37.068752,31.406252,-12.731251,0.45413616,-0.48402733,0.4790562,999.268, , , , 
2025-11-24 19:32:54.668,4.7808595,-7.7096744,-0.23928227,0.65629786,0.09560034,0.075670876,-39.037502,29.475,-14.587501,0.45727265,-0.48044986,0.4831931,999.268, , , , 
2025-11-24 19:32:54.687,4.7018967,-7.372287,-1.1365907,0.42966703,0.076052666,0.43363765,-38.006252,31.800001,-12.656251,0.45796722,-0.47955698,0.4870551,999.25653, , , , 
2025-11-24 19:32:54.707,5.2283173,-6.9702926,-1.605584,-0.0022143847,0.076052666,0.9351576,-36.975002,32.41875,-14.6625,0.45494702,-0.4823125,0.4942152,999.25653, , , , 
2025-11-24 19:32:54.727,6.017949,-7.257431,-1.8089739,-0.27343833,0.116980605,1.2546399,-36.80625,32.550003,-13.9125,0.44835368,-0.48812413,0.50047547,999.2585, , , , 
2025-11-24 19:32:54.747,6.623333,-7.3866434,-2.0985055,-0.60391617,0.14019346,1.6852995,-36.506252,32.7,-12.712501,0.43498594,-0.4993819,0.50912946,999.2585, , , , 
2025-11-24 19:32:54.767,7.1138616,-7.1425757,-1.9286151,-0.90812683,0.06627883,2.086027,-35.68125,33.91875,-13.181251,0.42435855,-0.50837797,0.51460207,999.25995, , , , 
2025-11-24 19:32:54.787,7.393822,-5.639883,-0.40438703,-1.1359794,-0.038179047,2.4989715,-32.25,36.881252,-15.093751,0.40273982,-0.5271864,0.52365863,999.25995, , , , 
2025-11-24 19:32:54.807,8.60459,-4.6229334,0.9451649,-1.1677444,-0.107817635,2.6516876,-32.8125,38.68125,-12.825001,0.38326627,-0.54390115,0.5310082,999.2587, , , , 
2025-11-24 19:32:54.827,9.623933,-4.254439,1.7659031,-1.0852777,-0.0650571,2.5893795,-30.206251,40.050003,-11.793751,0.3684965,-0.5561028,0.5363848,999.2587, , , , 
2025-11-24 19:32:54.847,10.657632,-5.003392,1.9262222,-0.9215659,0.11209369,2.3688571,-28.556252,41.60625,-12.675,0.3446353,-0.57378244,0.5451992,999.2629, , , , 
2025-11-24 19:32:54.867,10.834701,-5.85763,1.9381863,-0.7578541,0.17806709,2.266232,-25.25625,43.55625,-11.26875,0.32624054,-0.58529025,0.5523308,999.2629, , , , 
2025-11-24 19:32:54.887,10.904093,-6.4606214,2.0745773,-0.5165625,0.023518294,2.274784,-23.400002,46.331253,-10.087501,0.30892828,-0.59526694,0.5598992,999.268, , , , 
2025-11-24 19:32:54.907,11.078769,-6.350551,2.1415763,-0.2673297,-0.28435755,2.3364813,-22.2,44.34375,-9.637501,0.2936403,-0.60463077,0.56813383,999.268, , , , 
2025-11-24 19:32:54.927,11.253445,-5.505885,2.2444677,-0.07612903,-0.44257152,2.383518,-18.50625,45.84375,-10.725,0.280646,-0.61376345,0.576808,999.2785, , , , 
2025-11-24 19:32:54.947,11.734403,-4.479364,2.0673988,0.005726857,-0.25809038,2.3377032,-19.275002,49.48125,-8.681251,0.26551798,-0.623638,0.5882777,999.2785, , , , 
2025-11-24 19:32:54.969,12.102897,-3.7040894,1.7108682,-0.06207913,0.13469568,2.1275656,-16.29375,48.937504,-9.75,0.25273684,-0.629473,0.5972763,999.27045, , , , 
2025-11-24 19:32:54.987,11.650654,-3.0293136,1.6151553,-0.16226095,0.5696314,1.7873139,-13.89375,49.18125,-9.69375,0.23889717,-0.6330962,0.6052065,999.27045, , , , 
2025-11-24 19:32:55.007,10.444671,-2.7852457,1.1150553,-0.28260133,0.87384206,1.5105922,-10.05,50.7,-10.8,0.22442017,-0.6347923,0.6118903,999.25653, , , , 
2025-11-24 19:32:55.027,9.889536,-2.6632116,1.079163,-0.35162905,0.90743965,1.4336233,-11.025001,50.456253,-8.83125,0.20947005,-0.635892,0.61739475,999.25653, , , , 
2025-11-24 19:32:55.047,9.985249,-1.9621146,1.3016955,-0.32719445,0.7003565,1.4110212,-9.975,50.568752,-8.493751,0.19162919,-0.6375085,0.6233012,999.25604, , , , 
2025-11-24 19:32:55.067,10.729417,-1.3591232,0.75613195,-0.41088292,0.69730216,1.3676499,-8.475,50.60625,-9.88125,0.18179779,-0.638696,0.6264465,999.25604, , , , 
2025-11-24 19:32:55.087,11.971292,-1.1365907,0.031106694,-0.8580359,1.0858121,1.2412009,-6.39375,52.93125,-9.76875,0.1640026,-0.6414282,0.629479,999.25726,37.88749171,127.74033065,142.16717529296875,0.77
2025-11-24 19:32:55.107,12.813565,-0.49292147,1.1796615,-1.3534473,1.502422,1.0182352,-5.7937503,52.48125,-7.8,0.1463266,-0.64455456,0.62840235,999.25726, , , , 
2025-11-24 19:32:55.127,13.837693,0.41156548,3.2470603,-1.3876557,1.5836669,0.82886714,-4.9125004,52.443752,-7.74375,0.12701616,-0.6475952,0.624804,999.2597, , , , 
2025-11-24 19:32:55.147,15.005391,1.1437693,4.1276193,-1.0938298,1.2513565,0.6431643,-3.7500002,52.443752,-8.00625,0.1096247,-0.6494702,0.6207946,999.2597, , , , 
2025-11-24 19:32:55.167,16.977077,1.0001999,4.5631127,-0.71387184,0.5568032,0.24671301,-2.4375,53.30625,-5.7375,0.098082855,-0.6506221,0.6171826,999.2631, , , , 
2025-11-24 19:32:55.187,18.089739,-0.29192436,5.0177493,-0.27710354,-0.29352054,-0.3775908,-0.95625,53.437504,-4.3500004,0.09653782,-0.65232897,0.6121428,999.2631, , , , 
2025-11-24 19:32:55.207,17.927027,-1.3328022,4.9196434,0.0112246405,-0.79259706,-0.81863517,-0.675,53.475002,-4.0687504,0.10509586,-0.6538863,0.6075242,999.27655, , , , 
2025-11-24 19:32:55.227,17.950956,-2.565106,4.6468616,0.08025236,-0.8316924,-1.1368957,-2.23125,52.2,-5.2312503,0.1183377,-0.6551603,0.60220236,999.27655, , , , 
2025-11-24 19:32:55.247,18.044275,-4.024728,4.644469,0.06314815,-0.57696176,-1.384296,-3.1875002,52.593754,-4.8375,0.1325439,-0.65547186,0.59584856,999.2785, , , , 
2025-11-24 19:32:55.268,17.831314,-5.407779,4.8215375,0.10835214,-0.309403,-1.5895466,-6.43125,53.1375,-5.6062503,0.14620599,-0.65413743,0.58886564,999.2785, , , , 
2025-11-24 19:32:55.287,17.278572,-5.7403817,4.9196434,0.2372446,-0.19639303,-1.7404301,-8.00625,51.975002,-3.825,0.15638694,-0.651911,0.5836524,999.28265, , , , 
2025-11-24 19:32:55.307,16.189838,-5.84088,5.1158547,0.52312934,-0.2953531,-1.9719479,-8.55,52.162502,-4.1062503,0.17509092,-0.64617157,0.5753823,999.28265, , , , 
2025-11-24 19:32:55.327,15.617953,-5.733203,5.3359947,0.8358921,-0.38637197,-2.1680355,-10.6875,52.443752,-4.3500004,0.19303675,-0.63976043,0.5693544,999.2966, , , , 
2025-11-24 19:32:55.347,14.842679,-6.168697,4.749753,1.37834,-0.49571678,-2.5095088,-12.281251,50.175003,-6.2250004,0.22045982,-0.6282045,0.5631199,999.2966, , , , 
2025-11-24 19:32:55.367,14.007584,-7.2263246,3.1872396,1.6758312,-0.64171344,-2.8155522,-14.75625,50.925003,-6.61875,0.2537477,-0.61286974,0.5573703,999.29706, , , , 
2025-11-24 19:32:55.387,12.758531,-8.374879,1.5266209,1.699044,-0.846964,-3.0513458,-20.4375,48.112503,-7.4062505,0.27583715,-0.6030592,0.55290884,999.29706, , , , 
2025-11-24 19:32:55.407,11.014163,-9.097511,0.92602235,1.5127302,-1.0357212,-3.1991751,-20.456251,47.1375,-9.825001,0.30621034,-0.5905556,0.5447358,999.29364, , , , 
2025-11-24 19:32:55.427,9.659825,-9.564112,0.8709874,1.3777292,-1.1462878,-3.20956,-21.84375,45.375,-9.58125,0.33635038,-0.5788989,0.5343157,999.29364, , , , 
2025-11-24 19:32:55.447,7.877172,-9.4636135,1.038485,1.2176826,-1.2440261,-3.0843327,-26.681252,43.143753,-10.012501,0.36546865,-0.56805795,0.5224886,999.2858, , , , 
2025-11-24 19:32:55.467,6.640083,-8.829515,1.1126626,1.116279,-1.2635738,-2.883969,-28.95,42.037502,-10.33125,0.39297378,-0.55813867,0.5100381,999.2858, , , , 
2025-11-24 19:32:55.487,5.508278,-8.023134,0.44985065,0.91835886,-1.1383466,-2.6182427,-29.75625,40.96875,-10.35,0.42422202,-0.54675823,0.49461243,999.2824, , , , 
2025-11-24 19:32:55.507,4.5966125,-7.3603225,0.15314065,0.6312524,-0.86040306,-2.3769512,-33.46875,37.10625,-10.200001,0.44527587,-0.5384581,0.48263004,999.2824, , , , 
2025-11-24 19:32:55.527,3.8644085,-6.9415784,0.1052842,0.37224573,-0.5091558,-2.1576507,-34.95,34.2,-9.262501,0.45811146,-0.5325038,0.47415215,999.26556, , , , 
2025-11-24 19:32:55.547,2.9120653,-6.611369,0.062213387,0.072921984,-0.018631376,-1.826562,-37.95,33.768753,-10.1625,0.47350937,-0.52260065,0.4619576,999.26556, , , , 
2025-11-24 19:32:55.567,2.3186452,-6.501299,0.22253251,-0.049861837,0.21166465,-1.587103,-37.350002,32.34375,-10.762501,0.4811633,-0.5148676,0.45420137,999.26044, , , , 
2025-11-24 19:32:55.587,1.7994026,-6.216553,0.40677986,-0.05780308,0.3112356,-1.266399,-38.362503,31.743752,-9.69375,0.48601332,-0.50766975,0.44828925,999.26044, , , , 
2025-11-24 19:32:55.607,1.4739788,-6.0634127,0.33260235,0.024663666,0.341168,-0.9359212,-38.90625,30.562502,-9.262501,0.4899513,-0.4998338,0.44352287,999.257, , , , 
2025-11-24 19:32:55.627,1.457229,-6.0227346,0.11006984,0.11018474,0.27885976,-0.679358,-38.90625,29.587502,-11.83125,0.4915609,-0.49588516,0.44212008,999.257, , , , 
2025-11-24 19:32:55.647,1.8233309,-6.0107703,-0.552742,0.15599959,0.110871956,-0.37270388,-38.30625,30.393751,-11.775001,0.49371868,-0.4913635,0.44148305,999.25385, , , , 
2025-11-24 19:32:55.667,2.5914268,-6.128019,-0.74895346,0.09613484,0.036346454,-0.13752094,-40.125,27.843752,-12.525001,0.49469152,-0.49001828,0.4418197,999.25385, , , , 
2025-11-24 19:32:55.687,3.696911,-6.5371914,-0.7920243,0.0045051277,0.021074835,0.039629854,-39.46875,28.3875,-9.993751,0.4944336,-0.49030086,0.44274068,999.26385, , , , 
2025-11-24 19:32:55.707,5.0105705,-7.2023964,-0.34217364,-0.074907295,3.054324E-4,0.2088394,-39.84375,29.362501,-10.78125,0.4928953,-0.49186724,0.44412497,999.26385, , , , 
2025-11-24 19:32:55.727,4.706682,-7.752745,-0.24885355,-0.09873102,-0.02535089,0.5118283,-39.35625,28.9125,-11.118751,0.49008816,-0.49476984,0.44639033,999.26117, , , , 
2025-11-24 19:32:55.747,4.9172506,-7.9944205,-0.5407779,-0.19341506,-0.06627883,1.1648427,-38.98125,29.94375,-11.681251,0.48495388,-0.50021285,0.45077068,999.26117, , , , 
2025-11-24 19:32:55.767,6.515656,-8.391629,-0.59342,-0.33085963,-0.041233372,1.7347796,-40.10625,30.31875,-10.05,0.47361192,-0.51166874,0.45975822,999.2695, , , , 
2025-11-24 19:32:55.787,8.257631,-9.253045,-0.67477596,-0.42981973,0.010079269,2.1611633,-37.65,32.30625,-9.95625,0.46400982,-0.5205741,0.46688432,999.2695, , , , 
2025-11-24 19:32:55.807,9.707682,-9.690931,-1.1294123,-0.59108806,0.07177661,2.6736789,-35.287502,34.55625,-10.78125,0.44376642,-0.5378211,0.48095706,999.26874, , , , 
2025-11-24 19:32:55.827,10.655239,-9.710074,-1.1246266,-0.78289956,0.054061532,3.0450845,-34.5,34.875,-9.806251,0.42395017,-0.5537654,0.49314433,999.26874, , , , 
2025-11-24 19:32:55.847,12.1866455,-8.73141,0.19381863,-0.98143065,-0.024129158,3.3108108,-32.86875,37.912502,-10.1625,0.40119204,-0.5714951,0.5051538,999.2802, , , , 
2025-11-24 19:32:55.868,13.138989,-7.4153576,1.9932213,-0.92950714,-0.082161315,3.3126433,-32.175003,40.706253,-9.0,0.37715602,-0.5896476,0.5162481,999.2802, , , , 
2025-11-24 19:32:55.887,13.55534,-6.613762,2.7972097,-0.62407476,-0.033902995,3.2167375,-26.7,41.643753,-9.46875,0.35385716,-0.6058475,0.52724135,999.2941, , , , 
2025-11-24 19:32:55.907,13.8041935,-6.4821568,1.7060826,-0.29542947,0.094378605,3.0682974,-24.112501,44.5125,-7.425,0.32705435,-0.6215468,0.54230934,999.2941, , , , 
2025-11-24 19:32:55.927,13.57209,-6.4199433,0.60777694,-0.26549712,0.18173227,2.9699483,-23.7,45.787502,-6.9375005,0.31177512,-0.6290762,0.5515718,999.3022, , , , 
2025-11-24 19:32:55.947,13.270595,-6.0083776,0.059820566,-0.415159,0.22510368,2.852662,-20.400002,46.7625,-9.1875,0.28642505,-0.6406044,0.56546384,999.3022, , , , 
2025-11-24 19:32:55.967,13.184453,-5.316852,0.57906306,-0.62163126,0.30024004,2.7506478,-17.737501,48.412502,-8.793751,0.26570052,-0.64974314,0.574397,999.3068, , , , 
2025-11-24 19:32:55.987,12.9021,-4.2424746,1.969293,-0.713261,0.41813695,2.622977,-14.493751,49.331253,-6.7125,0.24443299,-0.65848017,0.58157897,999.3068, , , , 
2025-11-24 19:32:56.007,12.234502,-2.8019953,2.900101,-0.5183951,0.59650946,2.4727042,-12.993751,49.612503,-5.9625,0.22326623,-0.66541994,0.5883961,999.31635, , , , 
2025-11-24 19:32:56.027,11.971292,-1.835295,2.751746,-0.26427537,0.63316137,2.3364813,-10.387501,51.506252,-7.2562504,0.2032312,-0.66975325,0.59603924,999.31635, , , , 
2025-11-24 19:32:56.047,11.801401,-0.782453,2.2181466,0.131565,0.43707374,2.0780857,-8.94375,51.6375,-4.8,0.1858462,-0.67162216,0.6046066,999.32465, , , , 
2025-11-24 19:32:56.067,11.521441,0.069391854,1.2873386,0.40950847,0.0980438,1.8068616,-6.525,52.631252,-5.8875003,0.17307779,-0.67184955,0.61355454,999.32465, , , , 
2025-11-24 19:32:56.087,11.452049,0.69152576,0.3278167,0.45959938,-0.05894845,1.5667918,-4.9500003,51.693752,-6.76875,0.16288994,-0.6712891,0.6240337,999.3244,37.88750802,127.74032225,141.7808837890625,1.76
2025-11-24 19:32:56.107,11.925828,0.91884387,0.09571291,0.3728566,-0.016798781,1.4116322,-3.6750002,52.29375,-4.7625003,0.15653543,-0.6708412,0.63112557,999.3244, , , , 
2025-11-24 19:32:56.127,12.64846,0.87338024,0.1698904,0.3276526,0.10720677,1.272355,-0.90000004,51.99375,-8.4375,0.15049635,-0.67027,0.6371397,999.3278, , , , 
2025-11-24 19:32:56.147,13.651053,0.4881358,-0.16031912,0.31787875,0.26480988,1.1178062,1.21875,54.562504,-8.19375,0.14454848,-0.6690409,0.6426652,999.3278, , , , 
2025-11-24 19:32:56.167,14.64886,0.22971097,-0.66759753,0.19020802,0.3808742,0.9266055,2.9625,52.275,-8.700001,0.13870165,-0.6674379,0.6474189,999.3305, , , , 
2025-11-24 19:32:56.187,16.015162,-0.17706887,-0.9499506,-0.039477136,0.37843072,0.55092365,1.725,54.881252,-8.26875,0.13242891,-0.6661428,0.6506948,999.3305, , , , 
2025-11-24 19:32:56.207,17.309679,-1.0911272,-0.23688944,-0.20685409,0.25870124,0.07933606,2.53125,53.081253,-7.93125,0.12997317,-0.66606903,0.65022093,999.331, , , , 
2025-11-24 19:32:56.227,17.64946,-1.9884356,0.76570326,-0.20624322,0.0070249448,-0.36109746,1.5375,53.23125,-7.8375,0.13077107,-0.6663627,0.64826417,999.331, , , , 
2025-11-24 19:32:56.247,17.58964,-3.4408789,1.8951155,-0.07918335,-0.2611447,-0.90049106,1.9875001,54.131252,-6.39375,0.13815583,-0.66657245,0.6432309,999.3461, , , , 
2025-11-24 19:32:56.267,17.273787,-4.4147577,2.3808584,0.042989608,-0.30634868,-1.2114213,1.25625,51.825,-7.7250004,0.14827596,-0.6656778,0.6384779,999.3461, , , , 
2025-11-24 19:32:56.287,17.082361,-6.0418773,2.4047868,0.17982332,-0.2489274,-1.5192971,0.0,52.725002,-10.125,0.16066782,-0.66344386,0.6334119,999.35443, , , , 
2025-11-24 19:32:56.307,16.362122,-6.7118673,2.2779672,0.27145302,-0.18417573,-1.6878958,-2.34375,52.8375,-8.175,0.1742197,-0.65986073,0.6282781,999.35443, , , , 
2025-11-24 19:32:56.328,15.333207,-6.3218374,2.6608188,0.39790204,-0.15729769,-1.8442771,-4.74375,53.325,-7.5000005,0.18841894,-0.6550874,0.6232026,999.361, , , , 
2025-11-24 19:32:56.347,14.304294,-6.0753765,2.9455647,0.6727912,-0.28313583,-2.075184,-3.8625002,52.55625,-8.15625,0.20842867,-0.64696354,0.61727077,999.361, , , , 
2025-11-24 19:32:56.367,13.473985,-6.4558353,2.3425734,0.90919584,-0.43585202,-2.292041,-7.18125,52.0875,-8.400001,0.2276097,-0.638593,0.6128618,999.3625, , , , 
2025-11-24 19:32:56.387,12.564712,-7.1066833,1.5098711,0.9873866,-0.5433642,-2.4704134,-9.3,50.8875,-9.65625,0.24915461,-0.6290932,0.60810584,999.3625, , , , 
2025-11-24 19:32:56.407,11.519048,-7.745567,1.0217353,0.86826795,-0.6185006,-2.5693736,-10.78125,50.625004,-11.8125,0.27166227,-0.61945325,0.6022078,999.35394, , , , 
2025-11-24 19:32:56.427,10.767702,-8.17149,1.1485549,0.655687,-0.5836813,-2.5773149,-14.062501,50.41875,-10.9875,0.29366028,-0.6104313,0.5947438,999.35394, , , , 
2025-11-24 19:32:56.447,10.234102,-8.439486,1.5194423,0.4492147,-0.42485645,-2.5595999,-16.63125,47.90625,-10.575001,0.31384805,-0.60198104,0.58602166,999.3449, , , , 
2025-11-24 19:32:56.467,9.415757,-8.336594,1.9238294,0.28916812,-0.27030766,-2.518061,-18.956251,47.925003,-11.1,0.3317243,-0.59363884,0.5765789,999.3449, , , , 
2025-11-24 19:32:56.487,8.709874,-8.056634,2.184647,0.18776456,-0.17012584,-2.458807,-21.056252,46.21875,-11.400001,0.34755975,-0.5853173,0.56679684,999.3261, , , , 
2025-11-24 19:32:56.507,7.783852,-7.3986077,2.9383862,0.14439316,-0.029626941,-2.3769512,-24.093752,45.65625,-11.512501,0.3649704,-0.57470185,0.5545815,999.3261, , , , 
2025-11-24 19:32:56.527,7.207182,-7.025327,3.034099,0.19387321,0.037568185,-2.3335798,-25.987501,43.48125,-12.900001,0.37456882,-0.56784534,0.5476181,999.311, , , , 
2025-11-24 19:32:56.547,6.6281185,-6.927222,2.7565317,0.27939427,0.07666353,-2.3005931,-28.06875,42.018753,-11.3625,0.39007536,-0.5555947,0.53661096,999.311, , , , 
2025-11-24 19:32:56.567,6.0921264,-7.0372915,2.4885356,0.3362047,0.10109812,-2.2572217,-28.875002,41.568752,-12.31875,0.40222374,-0.545173,0.52822137,999.30023, , , , 
2025-11-24 19:32:56.587,5.410172,-7.2095747,2.2731814,0.42600182,0.08949169,-2.1545963,-32.831253,37.93125,-11.85,0.41402587,-0.5344491,0.5203376,999.30023, , , , 
2025-11-24 19:32:56.607,4.807181,-7.2646093,1.9190438,0.55428344,-0.044287696,-1.9798892,-32.5125,38.71875,-12.8625,0.4286656,-0.52122945,0.5115471,999.2885, , , , 
2025-11-24 19:32:56.627,4.4458647,-7.099505,1.4668003,0.6281981,-0.18539746,-1.8186208,-36.16875,36.693752,-10.81875,0.44066283,-0.5115196,0.5051838,999.2885, , , , 
2025-11-24 19:32:56.647,4.2281175,-7.1808605,0.9092726,0.60437435,-0.22571453,-1.6683481,-35.756252,36.506252,-11.925,0.452507,-0.5027727,0.4991427,999.2775, , , , 
2025-11-24 19:32:56.667,3.8500516,-7.2670026,0.31106696,0.4870883,-0.15546508,-1.47898,-38.86875,33.5625,-10.35,0.46307883,-0.49497655,0.49354443,999.2775, , , , 
2025-11-24 19:32:56.687,3.1896327,-7.3579297,-0.09810573,0.32032222,-0.041233372,-1.2468513,-39.80625,32.475002,-10.96875,0.47138676,-0.48823825,0.48867452,999.27606, , , , 
2025-11-24 19:32:56.707,2.7565317,-7.7790666,-0.3397808,0.09674571,0.05650499,-0.8882738,-40.40625,31.556252,-12.712501,0.47691548,-0.4830689,0.48478553,999.27606, , , , 
2025-11-24 19:32:56.727,2.4526432,-8.257631,-0.27756742,-0.03825541,0.08093958,-0.53580475,-42.018753,31.743752,-10.06875,0.4794117,-0.4800449,0.48220986,999.26996, , , , 
2025-11-24 19:32:56.747,2.1080768,-8.693125,-0.18903299,-0.16165009,0.032681264,0.032299474,-39.45,31.1625,-13.087501,0.47903982,-0.4797575,0.4814372,999.26996, , , , 
2025-11-24 19:32:56.767,2.2995026,-8.554341,-0.15792629,-0.26671883,-0.012522728,0.5973494,-40.74375,30.525002,-13.06875,0.47584587,-0.4827394,0.48285288,999.2697, , , , 
2025-11-24 19:32:56.788,3.2015967,-8.685946,-0.043070808,-0.34063348,0.009468404,1.082987,-39.075,31.687502,-12.075001,0.469545,-0.48885632,0.48668325,999.2697, , , , 
2025-11-24 19:32:56.807,4.7832522,-9.298509,-0.6125626,-0.43653923,0.024740024,1.7152319,-39.65625,32.381252,-12.675,0.457251,-0.50013804,0.49503157,999.2624, , , , 
2025-11-24 19:32:56.827,5.749953,-9.389436,-0.9403793,-0.5605448,-0.060781047,2.139783,-38.34375,33.24375,-10.087501,0.4476836,-0.5089752,0.50140953,999.2624, , , , 
2025-11-24 19:32:56.847,7.4344997,-9.092726,-0.7848458,-0.78473216,-0.18539746,2.6510768,-37.4625,34.6875,-9.95625,0.4283463,-0.52753377,0.5129813,999.26166, , , , 
2025-11-24 19:32:56.867,8.848659,-8.4705925,-0.2009971,-0.9405027,-0.1621846,2.885649,-36.600002,36.787502,-10.462501,0.4098235,-0.54488987,0.52244294,999.26166, , , , 
2025-11-24 19:32:56.887,10.643275,-7.7910304,0.28713873,-1.1005492,0.011911863,2.9949937,-31.875002,40.74375,-9.0375,0.38880324,-0.5626835,0.53173465,999.2597, , , , 
2025-11-24 19:32:56.907,11.504691,-7.908279,0.5288138,-1.196455,0.21044292,3.0676866,-29.75625,41.7,-9.618751,0.36566216,-0.5797501,0.5406274,999.2597, , , , 
2025-11-24 19:32:56.928,12.880565,-8.147561,0.5383851,-1.2337178,0.36743516,3.1861944,-28.29375,44.081253,-7.74375,0.3403494,-0.59592074,0.5495688,999.2624, , , , 
2025-11-24 19:32:56.947,13.832908,-7.420143,1.995614,-1.0583996,0.2886336,3.1538186,-27.50625,44.4,-6.3,0.30733094,-0.6146253,0.5606217,999.2624, , , , 
2025-11-24 19:32:56.967,14.895321,-6.8339014,1.0887343,-0.99425876,0.21532984,2.9589527,-23.268751,47.193752,-6.9,0.28286126,-0.62769824,0.56908005,999.26605, , , , 
2025-11-24 19:32:56.987,14.526826,-4.790431,2.1822543,-0.95821774,0.16279547,2.5612798,-22.1625,48.525,-4.1625004,0.26079783,-0.6395475,0.5754367,999.26605, , , , 
2025-11-24 19:32:57.007,13.667803,-3.385844,3.2350962,-0.8543708,0.40591964,2.2399647,-18.9375,49.48125,-2.5500002,0.24078526,-0.64922863,0.580284,999.2587, , , , 
2025-11-24 19:32:57.028,12.823136,-2.4909284,3.5006995,-0.5807033,0.594066,1.9730169,-16.59375,51.581253,-3.3750002,0.22210236,-0.65556234,0.5852065,999.2587, , , , 
2025-11-24 19:32:57.047,11.12184,-1.5409778,2.213361,-0.16348268,0.5751292,1.6828561,-12.731251,51.112503,-3.7500002,0.20230167,-0.6588631,0.5927694,999.25433, , , , 
2025-11-24 19:32:57.067,10.186246,-0.9068798,1.2155539,0.008781182,0.41935867,1.566181,-12.056251,50.5875,-6.1125,0.19263384,-0.65959543,0.59772664,999.25433, , , , 
2025-11-24 19:32:57.087,9.760324,-0.22492532,-0.11006984,-0.015653409,0.26419902,1.4739404,-11.4375,52.36875,-4.275,0.17933586,-0.6607225,0.6055481,999.2497,37.88751905,127.74032026,142.6248779296875,1.1
2025-11-24 19:32:57.107,10.080962,0.16510476,-0.49292147,-0.26610798,0.28985533,1.3798672,-11.175,51.525,-3.9375002,0.16940634,-0.6625917,0.61018723,999.2497, , , , 
2025-11-24 19:32:57.127,10.600204,0.2321038,-0.24646074,-0.47746718,0.37781987,1.2802962,-9.76875,52.66875,-3.99375,0.15884392,-0.6653648,0.6128541,999.23944, , , , 
2025-11-24 19:32:57.147,11.207981,0.09810573,0.46660042,-0.65217453,0.36560258,1.091539,-8.4375,52.050003,-3.16875,0.14801599,-0.6687609,0.6136344,999.23944, , , , 
2025-11-24 19:32:57.168,11.980863,-0.25124636,1.2610176,-0.6912699,0.22204934,0.9223295,-7.275,52.781254,-2.25,0.13827427,-0.6726042,0.61291516,999.23944, , , , 
2025-11-24 19:32:57.187,13.189239,-0.8470592,2.2181466,-0.62163126,0.062613636,0.74762213,-6.1687503,53.1375,-2.7,0.13057026,-0.67662543,0.6113184,999.23944, , , , 
2025-11-24 19:32:57.207,14.845072,-1.6630118,3.0580273,-0.37178758,-0.07971785,0.5002219,-6.8250003,53.68125,-0.975,0.12464825,-0.6807117,0.6093048,999.2426, , , , 
2025-11-24 19:32:57.227,15.74238,-2.416751,3.062813,-0.14821106,-0.15974113,0.25770858,-4.4625,52.312504,-0.975,0.123542935,-0.68207294,0.6085385,999.2426, , , , 
2025-11-24 19:32:57.247,16.323835,-3.1920254,2.8259234,0.03932442,-0.160352,-0.07826705,-3.5625002,53.156254,-0.80625004,0.12555236,-0.68257993,0.60762787,999.2507, , , , 
2025-11-24 19:32:57.267,16.503298,-3.859623,2.7565317,0.108963005,-0.082161315,-0.42035133,-2.4375,55.0125,-2.11875,0.12970035,-0.6816008,0.6065375,999.2507, , , , 
2025-11-24 19:32:57.287,16.13959,-4.6205406,2.9766715,0.22197299,-0.03695732,-0.7868702,-6.05625,53.025,-2.5500002,0.13590813,-0.679538,0.6047447,999.2553, , , , 
2025-11-24 19:32:57.307,16.2688,-6.4199433,2.3641088,0.3191005,0.03329213,-1.031827,-4.8187504,53.287502,-3.3187501,0.14625923,-0.6752445,0.602086,999.2553, , , , 
2025-11-24 19:32:57.327,15.840486,-7.2933235,1.969293,0.34658942,0.10231985,-1.1649956,-6.4500003,51.975002,-0.13125001,0.15309373,-0.67201084,0.6002793,999.2526, , , , 
2025-11-24 19:32:57.347,14.651253,-7.661818,2.091327,0.39790204,0.062613636,-1.3128247,-7.7812505,53.11875,-3.45,0.1651475,-0.66602266,0.5968842,999.2526, , , , 
2025-11-24 19:32:57.367,13.409378,-7.02772,2.8187451,0.5530617,-0.1084285,-1.4056762,-8.2875,52.912502,-1.85625,0.17622161,-0.66079783,0.5941584,999.2507, , , , 
2025-11-24 19:32:57.387,12.378072,-6.1567326,3.4672,0.86460274,-0.2904662,-1.5528946,-8.3625,53.062504,-4.9500003,0.1898364,-0.65461147,0.59207636,999.2507, , , , 
2025-11-24 19:32:57.407,11.700903,-6.06102,3.0675986,1.2360085,-0.47189304,-1.7392083,-10.425,52.237503,-5.45625,0.20682007,-0.6465729,0.5911203,999.25433, , , , 
2025-11-24 19:32:57.427,11.100305,-6.4055862,2.120041,1.4608067,-0.65881765,-1.903531,-13.81875,51.375004,-4.5750003,0.22711489,-0.6370268,0.59073627,999.25433, , , , 
2025-11-24 19:32:57.447,10.442278,-6.7812595,1.2011969,1.5017347,-0.78893185,-2.0495276,-15.39375,50.850002,-5.15625,0.2496012,-0.6268903,0.5898809,999.25775, , , , 
2025-11-24 19:32:57.467,9.521041,-6.695118,0.7752745,1.3893356,-0.87078774,-2.116112,-17.4375,50.662502,-7.4062505,0.2729267,-0.6168449,0.58782464,999.25775, , , , 
2025-11-24 19:32:57.487,8.678768,-6.3481584,0.93559366,1.2085196,-0.8811724,-2.1539855,-20.75625,49.4625,-7.7625003,0.29601058,-0.6074194,0.58420897,999.2585, , , , 
2025-11-24 19:32:57.507,7.635497,-5.962914,1.2107682,1.0112103,-0.7712168,-2.1778092,-24.018751,48.487503,-7.6687503,0.32341054,-0.59617466,0.5777702,999.2585, , , , 
2025-11-24 19:32:57.527,6.9009004,-5.6997037,1.3160524,0.8511637,-0.616668,-2.1649811,-26.081251,46.29375,-7.33125,0.33855549,-0.58946556,0.5732342,999.25726, , , , 
2025-11-24 19:32:57.548,6.0490556,-5.3623157,1.6007984,0.6636282,-0.38453937,-2.12894,-25.593752,45.73125,-9.20625,0.3610378,-0.57816774,0.5650205,999.25726, , , , 
2025-11-24 19:32:57.567,5.7260246,-5.4795637,1.5768701,0.5738311,-0.2593121,-2.1130576,-26.41875,45.28125,-8.775001,0.3768768,-0.568868,0.5582105,999.2546, , , , 
2025-11-24 19:32:57.587,5.271388,-5.8097734,1.5864414,0.48281226,-0.16951497,-2.0776274,-31.050001,44.8125,-9.356251,0.39125893,-0.5594362,0.55123705,999.2546, , , , 
2025-11-24 19:32:57.607,4.7210393,-6.1471615,1.4979069,0.40828675,-0.110871956,-1.9902738,-31.800001,41.756252,-10.012501,0.40754753,-0.5478287,0.5424337,999.26044, , , , 
2025-11-24 19:32:57.628,4.3501515,-6.3744793,1.375873,0.35575238,-0.083993904,-1.8888702,-34.275,40.256252,-11.38125,0.41635948,-0.5411658,0.53725743,999.26044, , , , 
2025-11-24 19:32:57.647,3.885944,-6.62094,1.3543376,0.27939427,-0.06017018,-1.6463569,-35.756252,39.075,-7.2937503,0.42911848,-0.5310168,0.5292179,999.26337, , , , 
2025-11-24 19:32:57.667,3.897908,-6.778867,1.160519,0.20853396,-0.031459536,-1.4136175,-34.03125,37.912502,-10.5,0.43748033,-0.52410597,0.52358437,999.26337, , , , 
2025-11-24 19:32:57.687,3.897908,-6.920043,0.9068798,0.10407609,0.028405212,-1.1918736,-36.487503,37.18125,-12.056251,0.44400766,-0.5183507,0.51873964,999.25507, , , , 
2025-11-24 19:32:57.707,3.7567315,-6.975078,0.7680961,-0.023594651,0.14630212,-0.93531036,-34.256252,35.79375,-13.44375,0.44827396,-0.5137548,0.5147896,999.25507, , , , 
2025-11-24 19:32:57.727,3.871587,-7.4273214,0.68195444,-0.13599378,0.22632541,-0.58650655,-36.318752,35.831253,-12.150001,0.4499834,-0.5104452,0.51207966,999.25604, , , , 
2025-11-24 19:32:57.747,4.2424746,-8.12124,0.6963114,-0.18791728,0.20311254,-0.22243114,-35.90625,34.875,-13.368751,0.4493498,-0.50884885,0.51083785,999.25604, , , , 
2025-11-24 19:32:57.768,4.6205406,-8.645268,0.46660042,-0.21296273,0.12370012,0.20822853,-39.15,33.54375,-11.400001,0.44678265,-0.50942737,0.5112361,999.257, , , , 
2025-11-24 19:32:57.787,5.352744,-8.626125,0.069391854,-0.36384633,0.14385866,0.71463543,-37.21875,35.850002,-11.4375,0.44040343,-0.51376706,0.5141714,999.257, , , , 
2025-11-24 19:32:57.807,6.3385873,-8.63809,0.21535404,-0.56970775,0.28985533,1.1025345,-35.550003,35.5125,-10.200001,0.43152946,-0.5197964,0.5182348,999.26215, , , , 
2025-11-24 19:32:57.827,7.4943204,-9.346365,0.2943172,-0.6918807,0.40775225,1.3865867,-35.4,37.537502,-11.418751,0.42251664,-0.52535087,0.5222114,999.26215, , , , 
2025-11-24 19:32:57.847,8.707481,-10.437492,-0.3493521,-0.8390991,0.4395172,1.7995313,-36.9375,37.350002,-9.39375,0.4038557,-0.53632534,0.5304204,999.2629, , , , 
2025-11-24 19:32:57.867,9.025727,-10.4159565,-0.8470592,-1.0290781,0.29901832,2.1746023,-34.65,38.475002,-10.14375,0.386107,-0.5473975,0.5377082,999.2629, , , , 
2025-11-24 19:32:57.887,9.008977,-9.839287,-0.8327023,-1.2117267,0.13408482,2.4659848,-31.650002,40.050003,-12.88125,0.37135193,-0.55771935,0.5429465,999.259, , , , 
2025-11-24 19:32:57.907,9.530613,-8.114061,0.62452674,-1.3626102,-0.041844238,2.8642685,-28.593752,43.818752,-10.481251,0.33835903,-0.5826221,0.5524276,999.259, , , , 
2025-11-24 19:32:57.927,10.186246,-7.513463,1.820938,-1.1750748,-0.10231985,2.9778895,-29.268751,44.98125,-8.15625,0.3210261,-0.59540695,0.5572545,999.2546, , , , 
2025-11-24 19:32:57.947,11.29173,-7.109076,1.8305093,-0.6961568,-0.2556469,2.9998806,-25.5375,46.0875,-7.0687504,0.29392165,-0.61421424,0.5670788,999.2546, , , , 
2025-11-24 19:32:57.967,11.973684,-6.6711893,0.5312066,-0.48663014,-0.29779658,2.9387941,-24.375002,47.7,-5.26875,0.27495146,-0.6268005,0.5761399,999.2553, , , , 
2025-11-24 19:32:57.987,12.390036,-5.8360944,-0.124426775,-0.68455034,-0.1621846,2.7799692,-22.03125,48.43125,-5.4,0.25659648,-0.63837826,0.58422583,999.2553, , , , 
2025-11-24 19:32:58.007,11.88515,-4.618148,0.92602235,-1.1078796,0.101708986,2.5044692,-18.525002,49.800003,-6.0,0.23720126,-0.6498259,0.58940977,999.2609, , , , 
2025-11-24 19:32:58.027,11.040483,-3.696911,1.6462619,-1.3125193,0.3423897,2.3028839,-14.868751,52.031254,-4.96875,0.2165861,-0.66088384,0.59172904,999.2609, , , , 
2025-11-24 19:32:58.047,10.4159565,-2.6943183,1.9214365,-1.5287654,0.69180435,2.0169992,-11.175,51.525,-4.2562504,0.18914671,-0.67326397,0.5919182,999.257, , , , 
2025-11-24 19:32:58.067,10.430314,-1.8999012,2.5555346,-1.5367067,0.7449496,1.7170645,-10.9125,51.54375,-2.11875,0.1726836,-0.67991555,0.59069204,999.257, , , , 
2025-11-24 19:32:58.087,10.360922,-0.9619147,3.330809,-1.3827688,0.7376192,1.4055235,-10.368751,54.206253,-1.7062501,0.14802784,-0.6892905,0.5872477,999.26044,37.88753344,127.74031592,143.214599609375,1.4
2025-11-24 19:32:58.107,10.4351,-0.46181476,3.830909,-1.0333542,0.6893609,1.136743,-8.137501,53.79375,-0.056250002,0.13142222,-0.69447863,0.58462775,999.26044, , , , 
2025-11-24 19:32:58.127,11.078769,-0.48095736,3.9242291,-0.66988957,0.4639518,0.96386826,-7.4062505,54.093754,3.3937502,0.11834355,-0.697603,0.58324224,999.2607, , , , 
2025-11-24 19:32:58.147,12.134004,-0.61016977,3.6993039,-0.17692171,0.04856375,0.71952236,-7.6312504,52.95,2.86875,0.110187605,-0.69915193,0.58346796,999.2607, , , , 
2025-11-24 19:32:58.168,13.277773,-0.5407779,2.9479575,0.21525347,-0.19822562,0.5173261,-6.3375,53.568752,3.9375002,0.10724506,-0.6993981,0.58528656,999.27094, , , , 
2025-11-24 19:32:58.187,14.483755,-0.42592242,1.5026926,0.37530005,-0.20799945,0.24732387,-4.6687503,54.375004,1.3875,0.10818174,-0.6983105,0.58809924,999.27094, , , , 
2025-11-24 19:32:58.208,15.093925,-0.8853444,0.9499506,0.33681557,-0.13836087,-0.092927806,-2.4750001,54.2625,-0.84375006,0.111479945,-0.6965401,0.5900611,999.2756, , , , 
2025-11-24 19:32:58.227,15.132211,-1.1557333,1.268196,0.34597853,-0.20983206,-0.40080366,-6.2625003,53.100002,2.25,0.116662055,-0.69453615,0.59049886,999.2756, , , , 
2025-11-24 19:32:58.247,15.393028,-2.0578275,1.5840486,0.50174904,-0.41752607,-0.81374824,-7.89375,53.79375,3.15,0.12733085,-0.6916031,0.5897807,999.2795, , , , 
2025-11-24 19:32:58.269,15.436099,-3.1082766,1.3950156,0.5579486,-0.41202828,-1.0825287,-6.01875,54.99375,1.6500001,0.13943721,-0.6884864,0.58852315,999.2795, , , , 
2025-11-24 19:32:58.287,15.196816,-4.0151563,1.579263,0.5842158,-0.32162032,-1.3745221,-8.45625,53.756252,1.0500001,0.15310284,-0.6845045,0.5864459,999.2819, , , , 
2025-11-24 19:32:58.307,14.816358,-4.699504,1.6654046,0.58849186,-0.23365578,-1.605429,-9.712501,52.518753,-0.13125001,0.16783093,-0.679584,0.58362436,999.2819, , , , 
2025-11-24 19:32:58.327,14.404793,-5.180461,1.8711873,0.5567269,-0.07666353,-1.7960188,-9.150001,53.7,-2.41875,0.18305473,-0.67376214,0.58000684,999.27826, , , , 
2025-11-24 19:32:58.347,14.572289,-6.7094746,1.9310079,0.54023355,0.14752385,-2.0012693,-11.25,52.74375,-2.4562502,0.20186132,-0.66495323,0.5744818,999.27826, , , , 
2025-11-24 19:32:58.368,13.557734,-6.6759753,2.3042881,0.6086504,0.31428993,-2.0812926,-13.575001,51.393753,-2.1375,0.21641915,-0.65638834,0.56976706,999.2878, , , , 
2025-11-24 19:32:58.387,13.442878,-6.3601227,2.5674987,0.7937424,0.41080657,-2.1533747,-14.75625,51.16875,-4.3125,0.23079932,-0.6461301,0.56572676,999.2878, , , , 
2025-11-24 19:32:58.407,13.576876,-7.4010005,2.0410776,1.0075451,0.3924806,-2.3683991,-16.59375,50.831253,-3.4875002,0.24640417,-0.63400984,0.56220573,999.2878, , , , 
2025-11-24 19:32:58.427,13.172488,-8.293523,1.5601203,1.0808488,0.32895067,-2.4991243,-19.25625,49.725002,-6.5437503,0.2636964,-0.6206551,0.5584073,999.2878, , , , 
2025-11-24 19:32:58.447,12.01197,-8.836694,1.0336994,1.0478622,0.20433427,-2.5571563,-21.73125,49.2,-5.175,0.28189686,-0.60701096,0.55384296,999.2929, , , , 
2025-11-24 19:32:58.467,10.727024,-9.111869,0.8925229,0.90919584,0.008857539,-2.4539201,-24.825,47.53125,-6.4500003,0.30010802,-0.5942209,0.5482091,999.2929, , , , 
2025-11-24 19:32:58.487,9.702896,-8.941978,1.4261223,0.71921694,-0.15424335,-2.2553892,-24.6,47.081253,-8.606251,0.32150027,-0.5809188,0.5398155,999.2944, , , , 
2025-11-24 19:32:58.507,8.9013,-8.394022,2.105684,0.65385437,-0.23365578,-2.0898447,-26.156252,44.53125,-6.9187503,0.33706817,-0.5719177,0.53275144,999.2944, , , , 
2025-11-24 19:32:58.527,8.008778,-7.554141,2.7349963,0.7283799,-0.33078328,-2.003713,-29.906252,41.287502,-6.3375,0.34835535,-0.56555086,0.52759117,999.30096, , , , 
2025-11-24 19:32:58.547,6.582655,-6.439086,2.9766715,0.9525673,-0.51465356,-1.9102505,-28.29375,43.10625,-10.6125,0.36815318,-0.5548348,0.51973796,999.30096, , , , 
2025-11-24 19:32:58.567,5.3503513,-5.6781683,2.498107,1.1346049,-0.53236866,-1.7954079,-33.75,40.800003,-9.3,0.38514236,-0.5458751,0.51441926,999.32904, , , , 
2025-11-24 19:32:58.587,3.8261235,-5.1086764,1.5266209,1.1993567,-0.44440413,-1.6170354,-34.65,38.7,-7.2375,0.40193695,-0.5364112,0.5102744,999.32904, , , , 
2025-11-24 19:32:58.607,3.2015967,-4.658826,0.10049855,1.0625229,-0.3564396,-1.4148391,-34.912502,37.95,-10.25625,0.42093533,-0.5248538,0.50649977,999.3327, , , , 
2025-11-24 19:32:58.629,2.6201408,-4.4602213,-0.2656033,0.86215925,-0.26603162,-1.2511275,-36.131252,37.6875,-9.4875,0.4307221,-0.51870984,0.504301,999.3327, , , , 
2025-11-24 19:32:58.647,3.4073794,-4.1276193,-1.3208381,0.65141094,-0.31184646,-1.0104467,-36.09375,36.3375,-11.587501,0.44359508,-0.5100328,0.50108236,999.321, , , , 
2025-11-24 19:32:58.667,3.4504502,-4.359723,-0.11006984,0.47120583,-0.046731155,-0.7569378,-36.975002,35.5125,-11.7375,0.4520622,-0.50547695,0.49826336,999.321, , , , 
2025-11-24 19:32:58.687,3.6849468,-4.019942,-0.7896315,0.22930336,0.15057817,-0.54008085,-38.4,34.987503,-11.71875,0.45684603,-0.5010542,0.49720988,999.3139, , , , 
2025-11-24 19:32:58.707,4.1635113,-3.7734814,-0.49052864,0.044822205,0.33750278,-0.35376707,-39.018753,33.43125,-11.1,0.4585453,-0.49756896,0.49688515,999.3139, , , , 
2025-11-24 19:32:58.727,4.651647,-4.0438704,-0.04546363,-0.010766491,0.30512697,-0.2022726,-38.8875,34.068752,-11.925,0.45802405,-0.4949712,0.4972845,999.3239, , , , 
2025-11-24 19:32:58.747,5.005785,-5.003392,0.14356937,0.050319985,0.038179047,0.017027855,-39.46875,33.2625,-12.431251,0.45708302,-0.4938814,0.49811184,999.3239, , , , 
2025-11-24 19:32:58.767,5.312066,-6.142376,-0.1268196,0.069867656,-0.16707152,0.2778671,-40.29375,32.925003,-11.25,0.45647356,-0.49488515,0.49937716,999.3332, , , , 
2025-11-24 19:32:58.787,5.285745,-6.826723,-0.31106696,-0.05108357,-0.3100139,0.67248577,-39.5625,33.61875,-11.53125,0.4545706,-0.49965495,0.50200903,999.3332, , , , 
2025-11-24 19:32:58.807,5.9270215,-7.025327,0.11964113,-0.23189954,-0.309403,1.0371721,-39.54375,33.6375,-12.6,0.45052212,-0.5065773,0.5050834,999.3415, , , , 
2025-11-24 19:32:58.829,7.3627152,-7.8987074,0.29671,-0.36567894,-0.1744019,1.3187807,-37.85625,34.800003,-11.925,0.44364724,-0.51522785,0.50932086,999.3415, , , , 
2025-11-24 19:32:58.847,7.812566,-8.5112705,-0.19381863,-0.45547605,-0.1395826,1.5105922,-36.7125,34.78125,-10.8,0.43449807,-0.52473646,0.51457906,999.3486, , , , 
2025-11-24 19:32:58.867,8.10449,-8.405986,-0.6556334,-0.6173552,-0.19639303,1.7133993,-38.79375,36.05625,-10.668751,0.4237101,-0.535565,0.5200844,999.3486, , , , 
2025-11-24 19:32:58.887,8.736196,-8.475378,-1.1509477,-0.8598685,-0.25076,1.8465679,-36.2625,39.28125,-8.793751,0.41125566,-0.54827106,0.52495664,999.3339, , , , 
2025-11-24 19:32:58.907,9.647861,-8.695518,-1.0025927,-1.3473387,-0.24342962,1.9253694,-35.7,39.3375,-6.99375,0.39268214,-0.5670904,0.5286061,999.3339, , , , 
2025-11-24 19:32:58.928,8.4012,-8.760123,0.57906306,-1.5226568,-0.06994402,2.1153483,-33.862503,40.518753,-6.6375003,0.37950188,-0.5793526,0.5296337,999.28973, , , , 
2025-11-24 19:32:58.947,10.12164,-9.853643,0.8350951,-1.6863686,0.21899502,2.374966,-30.768751,42.80625,-5.71875,0.3527508,-0.59982836,0.5325492,999.28973, , , , 
2025-11-24 19:32:58.967,10.135997,-10.126426,1.9238294,-1.5794673,0.32833982,2.6553528,-28.9125,44.006252,-5.8125,0.32792753,-0.6156808,0.53609353,999.24677, , , , 
2025-11-24 19:32:58.988,10.4159565,-8.992228,2.6153553,-1.1756856,0.19578215,2.97117,-24.6375,46.29375,-5.775,0.30203813,-0.63045335,0.54186624,999.24677, , , , 
2025-11-24 19:32:59.007,10.497313,-7.1808605,3.237489,-0.62224215,-0.022907428,3.11961,-26.1375,46.5,-2.0812502,0.27746513,-0.64354336,0.55014944,999.2204, , , , 
2025-11-24 19:32:59.027,10.437492,-5.3647084,3.6490545,0.063759014,-0.23182319,3.1361034,-21.243752,49.500004,-3.6937501,0.25631273,-0.6536241,0.5615267,999.2204, , , , 
2025-11-24 19:32:59.047,10.786844,-3.5676985,2.0267208,1.0826814,-0.42363474,2.9516222,-20.550001,49.425003,-2.53125,0.23721512,-0.6598521,0.58100516,999.20404, , , , 
2025-11-24 19:32:59.068,10.951949,-2.7565317,-0.51206404,1.3997203,-0.36926776,2.6351943,-15.4875,49.8375,-2.9250002,0.22706495,-0.6601431,0.5989114,999.20404, , , , 
2025-11-24 19:32:59.087,10.334601,-1.9932213,-2.605784,1.1578178,-0.1933387,2.3450336,-14.437501,51.300003,-3.43125,0.21878973,-0.6588002,0.61531675,999.19476,37.8875467,127.74030647,142.89178466796875,1.53
2025-11-24 19:32:59.107,8.963513,-2.0075781,-2.6153553,0.5805506,0.09376775,2.2540147,-13.875001,51.881252,-4.7625003,0.2092023,-0.6584505,0.62814367,999.19476, , , , 
2025-11-24 19:32:59.127,10.648061,-1.6917256,-2.6273193,-0.13477205,0.3808742,2.0481532,-10.481251,52.612503,-5.925,0.1964378,-0.6603863,0.6370214,999.19403, , , , 
2025-11-24 19:32:59.147,11.315659,-1.9334008,-1.6773686,-0.68638295,0.61117023,1.7915901,-7.0312505,52.218754,-7.2000003,0.1812988,-0.664637,0.6412997,999.19403, , , , 
2025-11-24 19:32:59.167,11.351551,-2.28036,-0.55513483,-1.0076978,0.73212147,1.566181,-5.86875,52.968754,-6.58125,0.16493651,-0.6704081,0.6418286,999.22015, , , , 
2025-11-24 19:32:59.187,11.085947,-2.605784,0.30388847,-1.2538763,0.8481857,1.3749802,-3.6375,53.062504,-6.3562503,0.14817367,-0.67693377,0.63976717,999.22015, , , , 
2025-11-24 19:32:59.207,11.416157,-2.9240294,0.8111669,-1.3552799,0.8457423,1.2308161,-2.775,53.250004,-3.8437502,0.12700751,-0.6853599,0.63511026,999.24457, , , , 
2025-11-24 19:32:59.228,11.720045,-3.1609187,1.253839,-1.3510038,0.7467822,1.0774891,-2.1375,54.300003,-3.0375001,0.1150667,-0.69040346,0.631515,999.24457, , , , 
2025-11-24 19:32:59.247,12.437892,-3.8668015,1.5050855,-1.2514329,0.6307179,0.86307555,1.21875,55.0125,-2.1937501,0.097748674,-0.6983324,0.62481874,999.28046, , , , 
2025-11-24 19:32:59.267,13.155739,-4.7545385,1.3734802,-1.1475859,0.5207622,0.6596576,0.43125,54.80625,-0.8625,0.086449146,-0.70391005,0.619255,999.28046, , , , 
2025-11-24 19:32:59.287,13.988441,-5.7188463,1.3782659,-1.0724494,0.37171122,0.4305833,2.8312502,53.68125,-0.28125,0.077644095,-0.7090506,0.6133925,999.3107, , , , 
2025-11-24 19:32:59.307,14.52204,-6.532406,1.6941184,-1.0186933,0.20250167,0.13981168,4.36875,53.325,-0.26250002,0.071619116,-0.71401936,0.60700226,999.3107, , , , 
2025-11-24 19:32:59.328,14.333008,-6.678368,2.3832514,-0.9539417,0.12247839,-0.10881029,1.1812501,53.737503,2.04375,0.06834565,-0.7187694,0.6000187,999.3466, , , , 
2025-11-24 19:32:59.347,14.134403,-6.9726853,3.4169507,-0.74013907,0.14446951,-0.4472294,2.775,52.893753,2.4,0.06764133,-0.72262603,0.59292394,999.3466, , , , 
2025-11-24 19:32:59.367,14.129618,-7.891529,3.6681972,-0.30703592,0.33811367,-0.71662074,0.7875,53.30625,3.6562502,0.07004746,-0.7243582,0.5856011,999.3754, , , , 
2025-11-24 19:32:59.387,13.265809,-7.1473613,2.656033,0.11446079,0.6026181,-0.873613,0.76875,53.287502,4.74375,0.073572695,-0.7219978,0.58243734,999.3754, , , , 
2025-11-24 19:32:59.407,12.435499,-6.2380886,1.3639089,0.41928232,0.59834206,-1.1185697,0.50625,53.287502,2.30625,0.07849969,-0.7170766,0.58100575,999.4001, , , , 
2025-11-24 19:32:59.427,11.763116,-5.898308,1.2299109,0.66851515,0.35460702,-1.352531,-0.50625,53.41875,3.7875001,0.08664206,-0.71095055,0.5801632,999.4001, , , , 
2025-11-24 19:32:59.447,11.60519,-6.4414787,0.5240282,0.9849431,-0.1065959,-1.6683481,-3.3000002,52.518753,2.4375,0.09952726,-0.7041246,0.5799224,999.40497, , , , 
2025-11-24 19:32:59.467,11.200803,-7.149754,0.083748795,1.1504874,-0.54458594,-1.9481242,-3.91875,52.85625,-0.45000002,0.11750375,-0.6971871,0.57960397,999.40497, , , , 
2025-11-24 19:32:59.488,10.530812,-8.178668,0.12921242,1.2060761,-0.95936316,-2.1588726,-5.25,53.7,1.1812501,0.1458793,-0.68916017,0.5779472,999.4062, , , , 
2025-11-24 19:32:59.507,9.848858,-8.963513,0.18903299,1.206687,-1.2171481,-2.2352307,-7.51875,53.23125,-0.09375,0.17142579,-0.68338084,0.57545847,999.4062, , , , 
2025-11-24 19:32:59.527,9.379865,-9.195618,0.5838487,1.1956915,-1.3967423,-2.2132394,-11.34375,53.2125,1.0875001,0.19127941,-0.6793204,0.57306147,999.3991, , , , 
2025-11-24 19:32:59.547,8.805588,-8.685946,1.105484,1.2079087,-1.5280782,-2.1155012,-13.762501,51.975002,-1.06875,0.22471875,-0.67288315,0.56857026,999.3991, , , , 
2025-11-24 19:32:59.568,8.504091,-7.587641,1.2346965,1.1901937,-1.4443898,-2.0586905,-15.937501,52.65,-3.35625,0.25096935,-0.66746086,0.56489956,999.3896, , , , 
2025-11-24 19:32:59.587,8.271988,-6.5850477,1.0815558,1.1052835,-1.1731658,-2.103284,-19.237501,50.925003,-1.2,0.27598614,-0.6612198,0.5610308,999.3896, , , , 
2025-11-24 19:32:59.607,8.066205,-5.979664,0.7848458,0.9727258,-0.82191855,-2.2162938,-18.018751,48.937504,-2.60625,0.30476213,-0.6515837,0.5554403,999.38983, , , , 
2025-11-24 19:32:59.627,7.661818,-5.9557357,0.6436693,0.83528125,-0.4828886,-2.3323581,-19.518751,49.2,-6.3375,0.32063043,-0.64478767,0.5515541,999.38983, , , , 
2025-11-24 19:32:59.647,7.0779696,-6.101698,0.5383851,0.7265473,-0.21349724,-2.3995533,-21.206251,49.74375,-3.4125001,0.34480095,-0.63198054,0.54453903,999.38617, , , , 
2025-11-24 19:32:59.667,6.5754766,-6.343373,0.3900301,0.63186324,-0.07116575,-2.400775,-23.79375,45.506252,-5.2125,0.36245093,-0.6209382,0.53857297,999.38617, , , , 
2025-11-24 19:32:59.687,5.9844494,-6.5611196,0.34217364,0.51885325,0.040011644,-2.3476298,-25.3875,46.237503,-6.1687503,0.37858123,-0.6097313,0.53230286,999.3757, , , , 
2025-11-24 19:32:59.707,5.245067,-6.769295,0.3062813,0.38629562,0.20433427,-2.2395067,-29.775002,44.04375,-6.1875005,0.39289302,-0.59865046,0.52590173,999.3757, , , , 
2025-11-24 19:32:59.729,4.319045,-6.8985076,0.3493521,0.26534438,0.3827068,-2.084347,-27.7875,43.74375,-6.39375,0.40494874,-0.5877318,0.51972,999.3742, , , , 
2025-11-24 19:32:59.747,3.2590244,-6.896115,0.46181476,0.17188208,0.5024363,-1.8302273,-30.806252,41.831253,-6.8812504,0.41429043,-0.577168,0.51428145,999.3742, , , , 
2025-11-24 19:32:59.767,2.5938199,-6.9822564,0.34456646,0.13400847,0.49632764,-1.5186862,-34.425003,39.84375,-7.0125003,0.42120153,-0.56759006,0.509889,999.3835, , , , 
2025-11-24 19:32:59.787,2.2707887,-7.554141,-0.13160525,0.08880447,0.42119128,-1.0929134,-32.5125,38.943752,-10.40625,0.42706695,-0.55793977,0.50606513,999.3835, , , , 
2025-11-24 19:32:59.807,2.5746772,-8.453842,-0.43788654,0.029550584,0.2556469,-0.60544336,-35.2125,38.8875,-6.4125004,0.429367,-0.5530347,0.5045044,999.4052, , , , 
2025-11-24 19:32:59.827,3.196811,-8.829515,-0.6269195,-0.03092503,0.07238748,-0.10392337,-36.3375,37.537502,-7.9125004,0.42960596,-0.55171925,0.5042832,999.4052, , , , 
2025-11-24 19:32:59.847,4.031906,-8.539984,-0.79441714,-0.22762349,-0.018631376,0.60529065,-35.756252,38.325,-7.0875,0.42659566,-0.5542288,0.50586617,999.42377, , , , 
2025-11-24 19:32:59.868,5.2833524,-8.410771,-0.64845496,-0.4182133,0.15241076,1.0475568,-35.60625,39.206253,-5.775,0.4199846,-0.5595782,0.5089656,999.42377, , , , 
2025-11-24 19:32:59.887,6.7381887,-9.303294,-0.80877405,-0.57031864,0.33750278,1.3603195,-35.737503,39.09375,-7.7625003,0.40940872,-0.5664064,0.51365924,999.43744, , , , 
2025-11-24 19:32:59.907,7.133004,-9.62154,-1.1485549,-0.6900481,0.38209593,1.7268384,-33.881252,40.275,-7.70625,0.39169267,-0.5764934,0.52124494,999.43744, , , , 
2025-11-24 19:32:59.928,7.5349984,-9.427721,-1.268196,-0.794506,0.2538143,2.013334,-31.556252,43.125,-7.65,0.37936577,-0.5839016,0.52621526,999.4394, , , , 
2025-11-24 19:32:59.947,7.810173,-8.432307,-0.79920274,-0.9356158,0.13652828,2.3322053,-30.281252,42.131252,-8.043751,0.35668257,-0.59881496,0.5343522,999.4394, , , , 
2025-11-24 19:32:59.967,8.49452,-7.7814593,0.0526421,-1.0254129,0.16523892,2.4525456,-29.681252,43.912502,-4.65,0.33670136,-0.6119059,0.5405456,999.4274, , , , 
2025-11-24 19:32:59.987,9.176475,-7.9537425,0.9092726,-0.9539417,0.24587308,2.4464371,-28.275002,45.28125,-2.71875,0.315771,-0.6243438,0.54665494,999.4274, , , , 
2025-11-24 19:33:00.007,9.600004,-8.6141615,1.1557333,-0.6613375,0.18784092,2.469039,-26.025002,46.893753,-4.125,0.29521438,-0.6351872,0.5534404,999.4196, , , , 
2025-11-24 19:33:00.027,9.88475,-8.906086,1.0935199,-0.3559051,0.027794348,2.56861,-25.931252,47.4,-3.54375,0.27602655,-0.6445653,0.5616453,999.4196, , , , 
2025-11-24 19:33:00.047,10.250853,-8.472985,0.74177504,0.036270097,-0.23915356,2.7335436,-22.2,47.775,-2.86875,0.25863492,-0.6527948,0.5716074,999.4091, , , , 
2025-11-24 19:33:00.067,10.679168,-7.0492554,0.39960137,0.29710937,-0.377209,2.7836344,-18.825,49.987503,-2.5875,0.23939176,-0.6615148,0.58594275,999.4091, , , , 
2025-11-24 19:33:00.087,10.796415,-5.4556355,-0.023928227,0.4504364,-0.2941314,2.5991533,-14.587501,50.662502,-2.60625,0.22568332,-0.6666173,0.59784377,999.3942,37.88755824,127.74029878,143.75982666015625,1.27
2025-11-24 19:33:00.107,10.420743,-4.23051,-0.72741807,0.41806057,-0.04856375,2.2509604,-13.5375,52.893753,-3.91875,0.21314962,-0.6698575,0.60895145,999.3942, , , , 
2025-11-24 19:33:00.127,9.509077,-3.4528432,-1.4117653,0.24213153,0.205556,2.0066144,-10.575001,52.968754,-5.175,0.20089714,-0.6718752,0.6183769,999.37225, , , , 
2025-11-24 19:33:00.147,9.102298,-2.9383862,-2.053042,-0.1720348,0.5568032,1.746386,-9.28125,52.8375,-4.9875,0.187629,-0.6738334,0.62541765,999.37225, , , , 
2025-11-24 19:33:00.167,8.965906,-2.8378878,-1.8329022,-0.6106357,0.79015356,1.5313617,-9.01875,52.85625,-3.16875,0.17278135,-0.6767317,0.6293097,999.3459, , , , 
2025-11-24 19:33:00.187,8.398808,-3.0293136,-0.93320084,-1.0241911,1.0479386,1.4128538,-3.61875,54.05625,-4.875,0.15613462,-0.6809119,0.6299806,999.3459, , , , 
2025-11-24 19:33:00.207,8.997013,-3.3547373,3.3140593,-1.1084905,0.94042635,1.2558616,-3.7687502,52.65,-3.54375,0.13302623,-0.68735003,0.6275553,999.3349, , , , 
2025-11-24 19:33:00.227,9.726824,-3.696911,-0.9595219,-1.0822233,1.1780528,1.1410191,-2.34375,53.4,-1.2750001,0.12072868,-0.6902358,0.6263289,999.3349, , , , 
2025-11-24 19:33:00.248,9.939785,-3.6323047,0.85184485,-1.2874739,1.0906991,0.9577596,-1.85625,53.7,-0.88125,0.09920992,-0.69556165,0.62166756,999.3415, , , , 
2025-11-24 19:33:00.267,10.3681,-4.220939,1.119841,-1.4096469,0.928209,0.8679625,2.4750001,53.268753,-1.29375,0.08348548,-0.70071054,0.6161651,999.3415, , , , 
2025-11-24 19:33:00.287,11.239088,-4.3525443,2.5411777,-1.3387865,0.7473931,0.7946587,-0.24375,54.581253,1.5375,0.06903817,-0.7063572,0.6097967,999.3217, , , , 
2025-11-24 19:33:00.307,12.165111,-4.658826,3.2231321,-0.9997566,0.57940525,0.6413317,0.8625,53.568752,2.5500002,0.05698436,-0.71100366,0.604215,999.3217, , , , 
2025-11-24 19:33:00.327,12.658031,-5.020142,2.8522446,-0.6802743,0.40591964,0.50694144,1.9125,53.68125,2.4375,0.047945272,-0.71399534,0.60022503,999.3222, , , , 
2025-11-24 19:33:00.347,13.622339,-5.316852,2.4598217,-0.3852266,0.1310305,0.2864192,1.9687501,54.91875,4.6875,0.041230038,-0.7161935,0.59705645,999.3222, , , , 
2025-11-24 19:33:00.367,14.175081,-5.206782,2.2061825,-0.14637847,-0.205556,-0.030619597,1.7062501,53.531254,3.3937502,0.040744696,-0.7173232,0.5953171,999.3266, , , , 
2025-11-24 19:33:00.387,14.816358,-6.233303,1.8089739,-0.0193186,-0.48533207,-0.3916407,4.40625,52.95,2.0625,0.045226466,-0.7183403,0.5935078,999.3266, , , , 
2025-11-24 19:33:00.407,15.605989,-7.5230346,1.7587247,0.021609342,-0.52992517,-0.7880919,2.1375,53.568752,4.425,0.053570762,-0.71944076,0.5909644,999.3129, , , , 
2025-11-24 19:33:00.427,15.515062,-8.19781,2.1080768,0.035048366,-0.33505934,-1.1301762,3.3375,52.818752,3.2625,0.06400043,-0.7198767,0.58728755,999.3129, , , , 
2025-11-24 19:33:00.447,13.801801,-8.319844,2.6009982,0.1834885,-0.043065965,-1.4673736,2.1937501,53.812504,4.40625,0.07554359,-0.71872175,0.582931,999.2924, , , , 
2025-11-24 19:33:00.467,11.822937,-7.4584284,2.87378,0.48403397,0.091324285,-1.6359723,-1.575,54.05625,4.8,0.08784477,-0.7153058,0.579255,999.2924, , , , 
2025-11-24 19:33:00.487,10.573883,-6.7022963,2.455036,0.84872025,0.010079269,-1.8076253,-3.6000001,54.093754,4.2375,0.10182475,-0.709468,0.5772625,999.2751, , , , 
2025-11-24 19:33:00.507,10.107283,-6.977471,1.8975084,1.2140174,-0.29779658,-2.034256,-4.8562503,52.85625,3.0375001,0.12393664,-0.6997913,0.57658154,999.2751, , , , 
2025-11-24 19:33:00.527,10.119247,-7.623533,1.3543376,1.4345396,-0.6191115,-2.1949136,-7.93125,54.16875,1.44375,0.14023656,-0.6932788,0.5766478,999.2558, , , , 
2025-11-24 19:33:00.547,9.954143,-8.295917,0.7920243,1.5780928,-1.036943,-2.3806164,-7.14375,53.643753,-0.16875,0.17203522,-0.68213475,0.5764676,999.2558, , , , 
2025-11-24 19:33:00.567,9.387043,-8.556734,0.46899325,1.5066216,-1.2244785,-2.4624722,-8.8125,52.500004,-1.9312501,0.20021692,-0.6734874,0.57511634,999.24725, , , , 
2025-11-24 19:33:00.587,8.975478,-8.420342,0.6149554,1.3862813,-1.244637,-2.472857,-10.650001,51.318752,-2.90625,0.22163905,-0.6673478,0.57303876,999.24725, , , , 
2025-11-24 19:33:00.607,8.106883,-7.908279,0.9595219,1.2042435,-1.0442734,-2.4661374,-14.868751,51.506252,-1.5375,0.25587913,-0.65723103,0.5679335,999.22186, , , , 
2025-11-24 19:33:00.627,7.34118,-7.5182486,1.105484,1.0863466,-0.82436204,-2.4349833,-17.23125,52.0125,-3.6375,0.28102508,-0.6485123,0.56307006,999.22186, , , , 
2025-11-24 19:33:00.647,6.5922265,-7.111469,1.1102697,0.9739475,-0.56046844,-2.3580143,-19.612501,50.4,-2.68125,0.30925047,-0.6367216,0.5566984,999.217, , , , 
2025-11-24 19:33:00.667,5.9724855,-6.728617,0.9810573,0.8902591,-0.34910923,-2.273715,-22.25625,49.631252,-2.8312502,0.32921425,-0.62662566,0.55171543,999.217, , , , 
2025-11-24 19:33:00.687,5.692525,-6.5635123,0.8422736,0.81390095,-0.18051054,-2.1991897,-26.118752,48.506252,-4.9875,0.342768,-0.6187836,0.5481062,999.2048, , , , 
2025-11-24 19:33:00.707,5.218746,-6.4031935,0.782453,0.7283799,0.017409647,-2.0922883,-24.91875,48.525,-6.3375,0.36281493,-0.6052963,0.5423943,999.2048, , , , 
2025-11-24 19:33:00.727,4.8885365,-6.3696938,0.78723866,0.71921694,0.07666353,-2.0067673,-29.2875,45.7125,-7.275,0.37699193,-0.5942604,0.5382036,999.1955, , , , 
2025-11-24 19:33:00.747,4.314259,-6.5108705,0.526421,0.727769,0.018631376,-1.8345033,-28.893751,44.006252,-6.9,0.3902596,-0.58337766,0.53439504,999.1955, , , , 
2025-11-24 19:33:00.767,4.125226,-6.869794,0.23928227,0.7131083,-0.101708986,-1.582827,-29.306252,44.2125,-6.8812504,0.40267238,-0.5734448,0.5310102,999.19794, , , , 
2025-11-24 19:33:00.787,4.0295134,-6.862615,-0.050249275,0.66484994,-0.27214026,-1.2944988,-32.850002,41.86875,-6.675,0.41407034,-0.5652861,0.52806515,999.19794, , , , 
2025-11-24 19:33:00.807,4.2711883,-7.0540414,-0.19621146,0.53962266,-0.41202828,-0.98234695,-30.956251,40.95,-8.981251,0.42670828,-0.5581686,0.52463436,999.1999, , , , 
2025-11-24 19:33:00.828,4.7018967,-7.420143,-0.2105684,0.39545858,-0.42119128,-0.7056252,-35.7,40.068752,-6.9,0.43485457,-0.55485916,0.5221784,999.1999, , , , 
2025-11-24 19:33:00.847,5.1756754,-7.9513497,-0.526421,0.15172353,-0.31062475,-0.39347327,-36.15,39.393753,-5.71875,0.4404654,-0.5533838,0.520298,999.2011, , , , 
2025-11-24 19:33:00.867,5.517849,-8.181061,-0.57427746,-0.15065452,-0.1273653,-0.102090776,-36.525,39.61875,-7.0875,0.44273132,-0.55385,0.5189119,999.2011, , , , 
2025-11-24 19:33:00.888,5.5393844,-8.054241,-0.29671,-0.41576985,0.10231985,0.1721875,-36.28125,38.756252,-5.68125,0.4409234,-0.5561563,0.51816887,999.1967, , , , 
2025-11-24 19:33:00.907,6.3457656,-8.609376,-0.0741775,-0.67722,0.46639526,0.5490911,-33.487503,38.456253,-10.125,0.43227488,-0.5609014,0.51908946,999.1967, , , , 
2025-11-24 19:33:00.927,6.9535427,-9.032906,-0.3684947,-0.84215343,0.6557633,0.86368644,-36.9375,39.7125,-7.6687503,0.42390442,-0.5644987,0.52087384,999.1989, , , , 
2025-11-24 19:33:00.947,7.1856465,-9.269794,-0.6723832,-1.0193043,0.6698132,1.2027164,-34.40625,41.550003,-4.4812503,0.4062959,-0.57243156,0.5248292,999.1989, , , , 
2025-11-24 19:33:00.967,6.6257257,-8.456235,-0.27517462,-1.200731,0.6423243,1.5362486,-33.45,42.318752,-9.731251,0.38932404,-0.58101636,0.5282743,999.20233, , , , 
2025-11-24 19:33:00.987,6.398408,-7.420143,0.59581286,-1.2990803,0.6789762,1.8337398,-31.85625,42.46875,-6.6562505,0.36976787,-0.5911846,0.53205645,999.20233, , , , 
2025-11-24 19:33:01.007,6.8650084,-7.0372915,1.134198,-1.2489893,0.7217367,2.0707552,-32.081253,42.91875,-4.5,0.3481686,-0.60170895,0.53669643,999.20624, , , , 
2025-11-24 19:33:01.027,7.7790666,-7.372287,1.18684,-1.11521,0.6808088,2.1574981,-27.50625,46.74375,-4.7250004,0.32579413,-0.61181164,0.5422767,999.20624, , , , 
2025-11-24 19:33:01.047,8.281559,-8.441878,0.7728817,-0.8574251,0.47494736,2.296775,-27.13125,46.40625,-4.2937503,0.2987455,-0.62357575,0.5503489,999.2131, , , , 
2025-11-24 19:33:01.067,8.384451,-8.812766,0.6149554,-0.66927874,0.26664248,2.523406,-24.900002,47.268753,-5.6625004,0.28320232,-0.63058317,0.55596966,999.2131, , , , 
2025-11-24 19:33:01.087,8.9826565,-8.149954,1.1892328,-0.42798713,0.0980438,2.899088,-20.081251,50.11875,-4.78125,0.25746775,-0.6424599,0.5673411,999.22626,37.88756996,127.74029049,144.0460205078125,1.56
2025-11-24 19:33:01.107,10.279566,-6.4558353,1.4811572,-0.16103923,0.19211698,3.0847907,-19.29375,50.437504,-4.425,0.23635745,-0.65084016,0.5786305,999.22626, , , , 
2025-11-24 19:33:01.127,11.559726,-4.881358,0.85902333,-0.009544762,0.25870124,2.947957,-16.462502,49.237503,-4.65,0.21554023,-0.6569474,0.5909471,999.23627, , , , 
2025-11-24 19:33:01.150,12.552748,-3.0005996,-0.41874397,0.008781182,0.31184646,2.4030657,-15.0375,51.881252,-5.4,0.19714777,-0.66106915,0.60212564,999.23627, , , , 
2025-11-24 19:33:01.167,11.897114,-2.0937197,-1.2969099,-0.25694498,0.5592467,1.823355,-11.137501,50.79375,-5.7562504,0.18169236,-0.66393507,0.6101455,999.2524, , , , 
2025-11-24 19:33:01.187,10.77488,-2.0338993,-1.2251252,-0.6350703,0.86712253,1.434845,-8.700001,52.031254,-5.0062504,0.16674942,-0.6665871,0.61427736,999.2524, , , , 
2025-11-24 19:33:01.207,10.052248,-2.1272194,-0.2440679,-0.8867466,1.01373,1.1825578,-7.425,52.65,-4.2375,0.1472455,-0.67042685,0.61522233,999.2485, , , , 
2025-11-24 19:33:01.227,10.047462,-2.306681,0.8925229,-0.8574251,1.014341,1.0567197,-3.4875002,51.825,-4.2937503,0.13534854,-0.67260474,0.6146441,999.2485, , , , 
2025-11-24 19:33:01.247,10.593026,-1.995614,1.4285151,-0.66561353,0.9514219,0.82703453,-3.15,53.5875,-3.35625,0.11777829,-0.67491174,0.61375535,999.25116, , , , 
2025-11-24 19:33:01.267,10.4159565,-1.8735801,1.2251252,-0.4823541,0.83596843,0.612621,-4.8375,53.268753,-2.23125,0.10658109,-0.6753422,0.6132044,999.25116, , , , 
2025-11-24 19:33:01.287,10.727024,-2.009971,1.0049855,-0.3644572,0.7150172,0.47151124,-4.9875,53.381252,-1.29375,0.09791009,-0.6751389,0.6127697,999.25116, , , , 
2025-11-24 19:33:01.307,11.607583,-2.2588246,1.0839486,-0.34429866,0.7199041,0.337121,-4.1062503,53.343754,-1.2375001,0.09073994,-0.674646,0.6121596,999.25116, , , , 
2025-11-24 19:33:01.327,12.543177,-2.7302105,0.8925229,-0.34552038,0.6337722,0.15874848,-3.8625002,53.11875,-1.2375001,0.08484643,-0.67395544,0.61092824,999.2492, , , , 
2025-11-24 19:33:01.347,13.715659,-3.7615173,0.9762716,-0.4004982,0.36987862,-0.1674533,-2.775,53.475002,-0.3,0.08088402,-0.67386395,0.60759294,999.2492, , , , 
2025-11-24 19:33:01.367,14.043476,-4.651647,1.3998013,-0.46952593,0.17684536,-0.40202537,-3.075,54.187504,-0.15,0.08077009,-0.6748714,0.6031681,999.2465, , , , 
2025-11-24 19:33:01.387,14.175081,-5.2163534,2.0075781,-0.5690969,0.14691298,-0.63476485,-3.7125,54.61875,-0.73125005,0.082432546,-0.6765647,0.59727454,999.2465, , , , 
2025-11-24 19:33:01.407,13.981263,-6.111269,2.7421749,-0.6399572,0.27091852,-0.86261743,-0.8625,52.575,-2.9250002,0.0848019,-0.67823625,0.5899719,999.2443, , , , 
2025-11-24 19:33:01.427,13.749159,-7.7216387,3.4672,-0.5898663,0.41202828,-1.0684788,-5.1937504,53.2125,1.0500001,0.08748701,-0.6791932,0.58175546,999.2443, , , , 
2025-11-24 19:33:01.447,13.110275,-8.343773,3.8093736,-0.3675115,0.4187478,-1.1497239,-5.71875,53.643753,2.0062501,0.09071823,-0.6788027,0.5738764,999.2387, , , , 
2025-11-24 19:33:01.467,12.282358,-8.319844,3.8285162,-0.040088,0.2678642,-1.2242494,-9.0,53.41875,3.6000001,0.0955676,-0.6769662,0.5673794,999.2387, , , , 
2025-11-24 19:33:01.488,11.050055,-7.274181,3.8644085,0.29100072,0.052839804,-1.2743403,-10.40625,52.912502,2.3812501,0.10327792,-0.67394084,0.56265026,999.2297, , , , 
2025-11-24 19:33:01.507,9.482756,-6.070591,3.3260236,0.73082334,-0.21899502,-1.3287072,-11.56875,53.04375,2.9625,0.11751111,-0.6686093,0.55942833,999.2297, , , , 
2025-11-24 19:33:01.527,9.107083,-5.907879,3.2614172,1.049084,-0.43707374,-1.4026219,-13.125001,52.631252,3.7687502,0.1320498,-0.6632723,0.5585351,999.23016, , , , 
2025-11-24 19:33:01.547,9.164511,-6.7501526,2.105684,1.3117558,-0.6722567,-1.4777583,-13.14375,52.162502,-0.84375006,0.14964738,-0.65709794,0.5588155,999.23016, , , , 
2025-11-24 19:33:01.567,9.253045,-7.8077803,0.8853444,1.3838378,-0.9318742,-1.546786,-13.462501,52.0125,-0.63750005,0.16959862,-0.6509352,0.5592882,999.2304, , , , 
2025-11-24 19:33:01.587,9.075976,-8.12124,0.23449662,1.3135884,-1.1041381,-1.5504512,-15.356251,51.318752,-1.3312501,0.18548718,-0.64690244,0.5591281,999.2304, , , , 
2025-11-24 19:33:01.607,8.157132,-7.716853,0.42592242,1.0069343,-1.2428044,-1.4985276,-16.59375,50.831253,-3.4875002,0.21722905,-0.64144194,0.5562758,999.22723, , , , 
2025-11-24 19:33:01.629,7.381858,-6.8243303,1.538585,0.818177,-1.1707224,-1.4349977,-18.1875,50.287502,-1.8937501,0.2366446,-0.6391326,0.55274725,999.22723, , , , 
2025-11-24 19:33:01.647,6.9344,-6.1998034,2.201397,0.73204505,-0.9813543,-1.4301108,-21.31875,49.218754,-2.5875,0.254361,-0.6366526,0.5487476,999.22943, , , , 
2025-11-24 19:33:01.667,6.4175506,-5.6685967,2.2779672,0.7100539,-0.733954,-1.4667627,-23.60625,48.112503,-2.2875001,0.2706452,-0.6330898,0.54477584,999.22943, , , , 
2025-11-24 19:33:01.687,5.8337016,-5.3240304,1.8711873,0.69600403,-0.46028662,-1.533347,-24.525002,47.90625,-2.6437502,0.28573763,-0.6281471,0.54100126,999.2275, , , , 
2025-11-24 19:33:01.707,5.0847483,-5.2929235,1.3639089,0.66668254,-0.30695954,-1.5571706,-25.95,46.631252,-2.7375002,0.2998714,-0.62205744,0.5372965,999.2275, , , , 
2025-11-24 19:33:01.727,4.2424746,-5.3096733,0.7298109,0.597044,-0.23487751,-1.4979168,-24.73125,46.03125,-4.36875,0.31295183,-0.6155723,0.53358364,999.23065, , , , 
2025-11-24 19:33:01.747,3.6849468,-5.6374903,0.5072784,0.49686214,-0.22082762,-1.3561962,-27.6375,46.10625,-3.91875,0.32470423,-0.60958,0.5297924,999.23065, , , , 
2025-11-24 19:33:01.767,3.3619158,-6.1064835,0.36610186,0.41317368,-0.21288638,-1.1246784,-30.7875,46.537502,-4.0687504,0.33729145,-0.6032758,0.5254234,999.2309, , , , 
2025-11-24 19:33:01.788,3.249453,-6.6185474,0.34217364,0.36125016,-0.19089524,-0.9328669,-29.212502,46.2,-5.1375003,0.34345272,-0.60024863,0.52332324,999.2309, , , , 
2025-11-24 19:33:01.807,3.0077782,-6.9655066,0.44506502,0.24762931,-0.17745622,-0.4936551,-30.50625,44.193752,-4.425,0.35071597,-0.59689164,0.5212017,999.23724, , , , 
2025-11-24 19:33:01.827,3.694518,-7.3435726,0.5455636,0.15111268,-0.18356487,-0.08743002,-31.237501,44.1375,-6.05625,0.35359237,-0.59607506,0.5209784,999.23724, , , , 
2025-11-24 19:33:01.848,4.5535417,-7.8149586,0.41156548,0.057650365,-0.16829325,0.17951788,-30.13125,44.60625,-4.8,0.35401922,-0.59688556,0.5219066,999.24384, , , , 
2025-11-24 19:33:01.867,5.994021,-8.729017,-0.02632105,-0.14882194,-0.15424335,0.46295914,-28.312502,42.581253,-6.58125,0.35208654,-0.5993189,0.52348626,999.24384, , , , 
2025-11-24 19:33:01.888,6.8171515,-9.020942,-0.2536392,-0.46219558,-0.053450666,0.66759884,-29.60625,44.925003,-5.9625,0.34753615,-0.6036132,0.5249381,999.24554, , , , 
2025-11-24 19:33:01.907,7.1282187,-8.628518,0.2727818,-0.81099933,0.2073886,0.8221476,-30.056252,43.612503,-3.825,0.33953717,-0.60949135,0.52573454,999.24554, , , , 
2025-11-24 19:33:01.927,7.685746,-8.793623,0.7465607,-0.9899827,0.52564913,0.94126624,-29.212502,45.05625,-1.6875001,0.32779744,-0.61575747,0.5263202,999.2448, , , , 
2025-11-24 19:33:01.947,7.7407813,-9.066405,0.5814559,-1.0602322,0.73212147,1.0799326,-28.800001,46.10625,-4.7250004,0.30921265,-0.6229384,0.52781016,999.2448, , , , 
2025-11-24 19:33:01.967,7.4153576,-8.611769,0.20338993,-1.0834451,0.74006265,1.2424226,-28.2,45.65625,-2.7375002,0.29248232,-0.62863165,0.52961195,999.2504, , , , 
2025-11-24 19:33:01.987,7.3172517,-8.489735,0.023928227,-1.1121557,0.6191115,1.4085778,-27.675001,47.568752,-1.66875,0.27939057,-0.6333614,0.53109014,999.2504, , , , 
2025-11-24 19:33:02.007,7.331609,-8.190632,0.4019942,-1.1011602,0.5067123,1.728671,-24.16875,48.187504,-2.7,0.25654468,-0.642533,0.5339218,999.24896, , , , 
2025-11-24 19:33:02.027,8.01117,-7.7383885,0.930808,-1.0101413,0.5018254,1.9217043,-23.1,50.025,-0.75,0.23700593,-0.6502616,0.53731143,999.24896, , , , 
2025-11-24 19:33:02.047,8.9013,-7.312466,1.026521,-0.8097776,0.65759593,2.0591488,-21.91875,49.275,-1.29375,0.21681327,-0.65701306,0.5421447,999.25165, , , , 
2025-11-24 19:33:02.067,9.963714,-7.2263246,1.1389836,-0.45914125,0.7180715,2.1562762,-17.34375,50.756252,-3.0937502,0.19120735,-0.66267174,0.5506262,999.25165, , , , 
2025-11-24 19:33:02.088,10.597812,-6.9822564,0.6723832,-0.08651373,0.52626,2.2637885,-16.462502,51.693752,-0.76875,0.1768483,-0.6645965,0.55743194,999.2692,37.88758202,127.74028313,144.14154052734375,1.6
2025-11-24 19:33:02.107,11.286944,-5.582455,-0.19142582,0.27939427,0.10537417,2.3358705,-15.993751,51.131252,-0.7875,0.15647615,-0.66672087,0.57131743,999.2692, , , , 
2025-11-24 19:33:02.127,11.657832,-3.7016966,-0.83030945,0.40095636,-0.14752385,2.1055746,-13.668751,51.843754,0.61875004,0.1441215,-0.6682495,0.58279186,999.29315, , , , 
2025-11-24 19:33:02.147,11.210374,-2.5148566,-1.2777673,0.303218,-0.08032872,1.6944625,-10.387501,53.437504,-0.73125005,0.1346669,-0.66942996,0.5926062,999.29315, , , , 
2025-11-24 19:33:02.167,10.260424,-2.036292,-1.4045869,0.10346522,0.06750056,1.2564725,-9.543751,52.425003,-2.625,0.12693281,-0.67028594,0.59960973,999.30634, , , , 
2025-11-24 19:33:02.187,8.997013,-1.9669002,-1.7395821,-0.17692171,0.20127994,0.9247729,-6.4687505,53.11875,-3.1312501,0.12009384,-0.6712466,0.60363173,999.30634, , , , 
2025-11-24 19:33:02.207,8.348558,-2.400001,-1.8376877,-0.68516123,0.3924806,0.72135496,-8.231251,53.925003,-2.0625,0.110641226,-0.67406726,0.60420686,999.3134, , , , 
2025-11-24 19:33:02.227,8.4012,-2.8713872,-1.105484,-1.1011602,0.58307046,0.57658,-7.1625004,52.893753,0.80625004,0.1035266,-0.6771048,0.6018934,999.3134, , , , 
2025-11-24 19:33:02.247,8.183454,-3.586841,0.44506502,-1.4750093,0.7816015,0.39515316,-7.4062505,53.850002,1.25625,0.08917283,-0.6835621,0.5940808,999.31464, , , , 
2025-11-24 19:33:02.267,7.735996,-3.9577286,1.6965113,-1.5764129,0.7278454,0.29130614,-6.7500005,51.43125,2.5500002,0.07691455,-0.68930244,0.5856053,999.31464, , , , 
2025-11-24 19:33:02.287,7.4512496,-4.2185464,2.3665016,-1.5379285,0.5855139,0.29436046,-5.925,53.362503,2.98125,0.06823833,-0.69375074,0.5788875,999.32025, , , , 
2025-11-24 19:33:02.307,7.8699937,-4.546363,3.3547373,-1.3528364,0.377209,0.42325294,-6.15,53.2125,5.3250003,0.054843742,-0.7010531,0.5685361,999.32025, , , , 
2025-11-24 19:33:02.328,8.736196,-4.558327,3.7280176,-1.1255947,0.2678642,0.54298246,-4.51875,54.862503,6.4500003,0.045068353,-0.7062344,0.5620423,999.309, , , , 
2025-11-24 19:33:02.347,10.3848505,-4.9052863,4.6325045,-0.8244384,0.14935644,0.55825406,-1.9125,54.000004,7.2937503,0.036336135,-0.7103743,0.5574508,999.309, , , , 
2025-11-24 19:33:02.367,12.253645,-5.4149575,4.510471,-0.40416342,0.09560034,0.40065095,-1.7625,52.631252,8.2875,0.028857278,-0.7132595,0.5546,999.31024, , , , 
2025-11-24 19:33:02.387,13.16531,-5.723632,4.1874394,-0.05413789,0.05589413,0.17768529,-3.0937502,52.500004,7.05,0.026314722,-0.7134536,0.55415183,999.31024, , , , 
2025-11-24 19:33:02.407,13.421342,-5.6757755,3.5270207,0.25557056,-0.026572619,-0.094760396,-2.79375,52.537502,7.33125,0.027160184,-0.7121688,0.5548821,999.31366, , , , 
2025-11-24 19:33:02.427,14.1009035,-5.7810597,3.0293136,0.3832413,-0.021074835,-0.36598435,-2.4750001,53.325,6.7875004,0.031018948,-0.70990294,0.5559634,999.31366, , , , 
2025-11-24 19:33:02.447,15.084354,-6.9224358,2.4861426,0.4406626,0.05222894,-0.8039744,-4.0125003,53.775,7.5375004,0.037646033,-0.7069307,0.55621433,999.3166, , , , 
2025-11-24 19:33:02.467,14.907285,-7.3698936,2.239682,0.43211046,0.2244928,-1.1937062,-5.2125,53.025,8.793751,0.046413787,-0.7032701,0.5549269,999.3166, , , , 
2025-11-24 19:33:02.487,14.206188,-7.537391,2.376073,0.45715594,0.3741547,-1.4838669,-4.2000003,53.5125,6.3375,0.056583263,-0.6986338,0.5520501,999.3178, , , , 
2025-11-24 19:33:02.507,12.727424,-7.688139,2.4311078,0.655687,0.4083631,-1.745317,-3.6375,53.11875,2.7375002,0.071301565,-0.69100785,0.5476212,999.3178, , , , 
2025-11-24 19:33:02.527,11.576476,-7.5756764,2.2875385,0.86093754,0.26175556,-1.8357251,-7.9687505,53.531254,4.2562504,0.08528789,-0.68372154,0.54463524,999.30927, , , , 
2025-11-24 19:33:02.547,10.703095,-7.4823565,2.1822543,1.1682025,-0.08032872,-1.8919246,-9.525001,53.625004,2.5687501,0.101949155,-0.6759324,0.54266435,999.30927, , , , 
2025-11-24 19:33:02.567,10.313066,-7.690532,1.9549361,1.4889065,-0.54702944,-1.9554545,-12.262501,53.2125,3.0187502,0.12197081,-0.66807425,0.541756,999.30096, , , , 
2025-11-24 19:33:02.587,10.076176,-7.9776707,1.5744773,1.685605,-0.9080505,-2.0104322,-13.368751,50.49375,1.9125,0.14564027,-0.66046876,0.5415427,999.30096, , , , 
2025-11-24 19:33:02.607,9.377472,-7.8963146,0.90448695,1.7528001,-1.2470804,-2.0287583,-14.925,52.218754,1.0500001,0.17218785,-0.6534311,0.5413081,999.2907, , , , 
2025-11-24 19:33:02.627,8.592627,-7.2287173,0.8039884,1.6422336,-1.2837323,-2.003713,-17.1,51.506252,0.69375,0.19957551,-0.64707184,0.54028225,999.2907, , , , 
2025-11-24 19:33:02.647,7.5828547,-6.2644095,1.0360922,1.4644719,-1.0497711,-1.9517894,-20.831251,48.9,-1.2375001,0.23186344,-0.639068,0.5377056,999.2758, , , , 
2025-11-24 19:33:02.667,6.8339014,-5.508278,1.0432707,1.3251948,-0.72845626,-1.885816,-20.643751,49.050003,-2.025,0.2547702,-0.631761,0.5352032,999.2758, , , , 
2025-11-24 19:33:02.689,6.1399827,-5.0799623,0.86141616,1.2127956,-0.47128218,-1.8198426,-23.00625,50.287502,-2.325,0.2700736,-0.6255939,0.53333205,999.25824, , , , 
2025-11-24 19:33:02.707,5.4699926,-4.733003,0.6125626,1.0686315,-0.26847506,-1.7135521,-24.375002,48.43125,-4.6875,0.29242292,-0.6145628,0.53029805,999.25824, , , , 
2025-11-24 19:33:02.727,5.1349974,-4.8239303,0.40438703,0.9415717,-0.21288638,-1.6268092,-26.85,47.175003,-3.9,0.3082636,-0.60581577,0.5276979,999.2514, , , , 
2025-11-24 19:33:02.747,4.84068,-4.9363933,0.5240282,0.81695527,-0.19272783,-1.5217406,-28.181252,46.29375,-4.18125,0.32254472,-0.59764457,0.5247967,999.2514, , , , 
2025-11-24 19:33:02.767,4.7569313,-5.209175,0.66759753,0.71860605,-0.21349724,-1.4130065,-28.5375,45.2625,-4.6875,0.33542812,-0.59021276,0.52170587,999.2431, , , , 
2025-11-24 19:33:02.787,4.761717,-5.474778,0.67477596,0.63736105,-0.24342962,-1.3244312,-30.112501,43.237503,-4.5750003,0.34720314,-0.5836356,0.5184695,999.2431, , , , 
2025-11-24 19:33:02.808,4.814359,-5.8935223,0.55513483,0.49502954,-0.29352054,-1.2022582,-32.943752,42.956253,-5.025,0.36055273,-0.57675475,0.5140774,999.2497, , , , 
2025-11-24 19:33:02.827,4.8215375,-6.2811594,0.5168497,0.3239874,-0.28069237,-1.0709224,-29.625002,41.831253,-7.93125,0.36973512,-0.57255435,0.5102179,999.2497, , , , 
2025-11-24 19:33:02.847,5.1158547,-6.587441,0.53599226,0.15355614,-0.2849684,-0.9267582,-34.10625,40.631252,-8.025001,0.37709436,-0.56961983,0.5061572,999.24677, , , , 
2025-11-24 19:33:02.867,5.8169518,-7.243074,0.3182454,-0.058413945,-0.32100943,-0.7593813,-35.175003,39.862503,-5.2312503,0.38276094,-0.5681697,0.5018376,999.24677, , , , 
2025-11-24 19:33:02.889,6.8315086,-7.8628154,0.05503492,-0.29726207,-0.38331765,-0.6066651,-34.425003,39.206253,-5.7375,0.38748553,-0.5688883,0.49575028,999.2348, , , , 
2025-11-24 19:33:02.907,7.853244,-8.070991,0.15553348,-0.5275581,-0.34300056,-0.5425243,-35.0625,39.75,-5.4,0.38942018,-0.57133996,0.49003038,999.2348, , , , 
2025-11-24 19:33:02.932,7.539784,-7.944171,0.34217364,-0.7572433,-0.051618073,-0.40813404,-36.80625,39.9375,-3.825,0.3888907,-0.57508916,0.48243704,999.22504, , , , 
2025-11-24 19:33:02.947,7.647461,-8.286345,0.17228323,-0.86842066,0.23732096,-0.23159412,-35.5125,39.7125,-5.0437503,0.38617784,-0.5772032,0.4786379,999.22504, , , , 
2025-11-24 19:33:02.967,7.635497,-8.822337,-0.33260235,-1.006476,0.62888527,0.100105464,-35.325,38.362503,-5.7562504,0.37889713,-0.57975686,0.47544298,999.22626, , , , 
2025-11-24 19:33:02.987,7.32443,-8.666803,-0.72023964,-1.1598032,0.88972455,0.49594584,-36.225002,39.131252,-4.6125,0.36713725,-0.5824965,0.47454488,999.22626, , , , 
2025-11-24 19:33:03.007,7.1976104,-8.456235,-0.9451649,-1.3583342,0.88422674,0.9266055,-34.631252,38.925003,-5.4,0.35164747,-0.5865436,0.4751166,999.2243, , , , 
2025-11-24 19:33:03.027,6.8721867,-7.6067834,-0.52163535,-1.5452588,0.7492257,1.2644137,-34.725002,40.78125,-4.2562504,0.33326092,-0.59281516,0.4761675,999.2243, , , , 
2025-11-24 19:33:03.047,7.015756,-6.9391856,0.9882358,-1.5788563,0.5720749,1.5368594,-33.2625,40.800003,-3.9375002,0.30767173,-0.60348946,0.47749847,999.2343, , , , 
2025-11-24 19:33:03.067,7.3363943,-6.869794,2.1559331,-1.3009129,0.41935867,1.737834,-33.862503,42.3375,-1.03125,0.28692126,-0.6125291,0.47977853,999.2343, , , , 
2025-11-24 19:33:03.088,7.7144604,-7.1473613,2.4598217,-0.7932843,0.21899502,1.9803473,-31.406252,44.325,-1.7062501,0.26762965,-0.6207775,0.48486897,999.24115,37.88759373,127.74027693,144.6295166015625,1.47
2025-11-24 19:33:03.107,8.13799,-7.3746796,2.0697916,-0.23128867,-0.06750056,2.3004403,-30.45,44.79375,-0.3,0.25064427,-0.6281692,0.4938242,999.24115, , , , 
2025-11-24 19:33:03.128,8.843872,-6.9152575,1.4285151,0.27084216,-0.32100943,2.6193118,-26.6625,45.9375,-2.775,0.23593035,-0.6349479,0.5067292,999.25116, , , , 
2025-11-24 19:33:03.147,9.805787,-5.666204,0.59342,0.6434697,-0.44379327,2.822119,-23.831251,45.487503,-3.1875002,0.22289701,-0.64083433,0.52266634,999.25116, , , , 
2025-11-24 19:33:03.167,10.41835,-4.261617,-0.2440679,0.74976015,-0.41263917,2.7653084,-23.493752,48.0,-1.3687501,0.2110532,-0.6454455,0.5398036,999.24774, , , , 
2025-11-24 19:33:03.188,10.923235,-3.062813,-0.715454,0.58727014,-0.20677772,2.4549892,-20.925001,49.7625,-1.8937501,0.19720574,-0.6495451,0.5595033,999.24774, , , , 
2025-11-24 19:33:03.207,11.114661,-2.1559331,-0.23928227,0.4406626,0.053450666,2.040212,-20.400002,50.30625,-0.43125,0.18650472,-0.6513919,0.5722991,999.2475, , , , 
2025-11-24 19:33:03.227,11.179267,-1.7252251,-0.30388847,0.2824486,0.37843072,1.6193261,-17.19375,50.8875,-1.8750001,0.17889208,-0.6516798,0.58013797,999.2475, , , , 
2025-11-24 19:33:03.247,10.554741,-1.8711873,-0.27756742,-0.027870705,0.8164208,1.1764492,-15.76875,52.031254,-3.0187502,0.16589785,-0.6504917,0.58941996,999.2553, , , , 
2025-11-24 19:33:03.267,9.559326,-1.7970098,-0.16031912,-0.27466008,1.0015128,0.98158336,-13.406251,54.16875,-4.93125,0.15424217,-0.6489001,0.5940571,999.2553, , , , 
2025-11-24 19:33:03.287,9.298509,-1.7084754,-0.4833502,-0.5648208,0.95753056,0.87895805,-13.06875,52.425003,-1.63125,0.14193529,-0.6480011,0.5967243,999.2575, , , , 
2025-11-24 19:33:03.307,9.540184,-1.9908284,-0.11006984,-0.89468783,0.8542944,0.7861066,-11.45625,51.61875,-2.98125,0.12925777,-0.6490256,0.59674644,999.2575, , , , 
2025-11-24 19:33:03.327,9.772287,-2.2971098,0.971486,-1.0816125,0.6227766,0.7091377,-9.543751,52.425003,-2.9250002,0.116624705,-0.65202665,0.5943063,999.25946, , , , 
2025-11-24 19:33:03.347,10.30828,-2.4382863,2.28036,-1.0419062,0.3100139,0.7066942,-9.056251,52.612503,-3.91875,0.10266123,-0.65769273,0.5896765,999.25946, , , , 
2025-11-24 19:33:03.367,11.035698,-2.333002,2.388037,-0.9331723,0.14385866,0.7378483,-9.20625,52.706253,-1.5937501,0.093459204,-0.6625934,0.5863639,999.2668, , , , 
2025-11-24 19:33:03.388,12.2991085,-2.5339992,2.4382863,-0.9557743,0.14874557,0.75006557,-9.39375,53.531254,1.63125,0.08487015,-0.66751486,0.5832674,999.2668, , , , 
2025-11-24 19:33:03.407,13.88555,-2.6656044,3.5581272,-0.88124883,0.1432478,0.6608793,-8.34375,53.625004,1.9687501,0.07649945,-0.67221195,0.5799096,999.2695, , , , 
2025-11-24 19:33:03.427,15.14896,-2.5938199,4.5535417,-0.5629883,0.032070402,0.44585493,-6.1125,52.256252,0.112500004,0.07037559,-0.67570853,0.57704425,999.2695, , , , 
2025-11-24 19:33:03.448,15.842878,-2.7684958,4.7018967,-0.20013458,-0.1065959,0.13614649,-7.05,53.5125,2.15625,0.06860258,-0.6770962,0.57566315,999.288, , , , 
2025-11-24 19:33:03.467,15.773487,-3.2350962,3.9457645,0.09613484,-0.13530655,-0.30062184,-4.78125,53.1375,1.1625,0.071344644,-0.6772267,0.57415605,999.288, , , , 
2025-11-24 19:33:03.489,16.108482,-4.5798626,3.4791641,0.21342088,-0.047952887,-0.5608502,-5.71875,54.281254,1.0500001,0.07819004,-0.67559487,0.57232654,999.2944, , , , 
2025-11-24 19:33:03.507,15.933806,-5.1158547,3.438486,0.26534438,0.07849612,-0.8106939,-5.0437503,53.343754,1.95,0.084842406,-0.673089,0.5703621,999.2944, , , , 
2025-11-24 19:33:03.527,15.062819,-5.6279187,3.8476589,0.4125628,-0.03451386,-1.0580941,-7.6312504,52.725002,0.71250004,0.0932134,-0.66973376,0.56787294,999.3095, , , , 
2025-11-24 19:33:03.547,14.02194,-5.7834525,4.106084,0.65629786,-0.26053384,-1.2382993,-9.31875,53.04375,0.09375,0.104563005,-0.6657907,0.56560683,999.3095, , , , 
2025-11-24 19:33:03.567,13.354343,-6.068198,4.211368,0.9861648,-0.5201514,-1.4856995,-10.63125,51.787502,1.7062501,0.119394615,-0.6611193,0.56397825,999.311, , , , 
2025-11-24 19:33:03.588,12.619746,-6.45105,3.8093736,1.2097414,-0.67653275,-1.6872848,-11.868751,52.050003,0.112500004,0.13795352,-0.65543604,0.56276894,999.311, , , , 
2025-11-24 19:33:03.607,11.784652,-7.042077,3.1848469,1.3795618,-0.86529,-1.876653,-13.200001,53.4,-0.43125,0.15951203,-0.6489646,0.5615619,999.31464, , , , 
2025-11-24 19:33:03.627,11.373086,-7.628319,2.5746772,1.3991094,-0.97341305,-1.9927173,-12.712501,53.250004,-5.11875,0.18297711,-0.64221615,0.5598449,999.31464, , , , 
2025-11-24 19:33:03.647,10.557134,-7.7479596,2.309074,1.2922081,-0.991739,-2.0861795,-16.181252,50.006252,-2.4,0.21313967,-0.6338841,0.5561931,999.3073, , , , 
2025-11-24 19:33:03.667,9.439685,-7.30768,2.3712873,1.143768,-0.85551614,-2.1038947,-16.556252,50.11875,-5.30625,0.236455,-0.6271926,0.551937,999.3073, , , , 
2025-11-24 19:33:03.687,8.190632,-6.5252275,2.751746,1.0185406,-0.6368265,-2.070908,-20.925001,50.287502,-4.5375004,0.25782683,-0.6200469,0.547014,999.2961, , , , 
2025-11-24 19:33:03.707,7.3172517,-5.8169518,2.9479575,0.96173024,-0.36071566,-2.0330343,-24.393751,48.43125,-4.0687504,0.2770689,-0.61198413,0.5421071,999.2961, , , , 
2025-11-24 19:33:03.728,6.960721,-5.4484572,2.9790642,0.9757801,-0.1640172,-2.0464733,-24.281252,48.075,-5.925,0.2946367,-0.6025998,0.53756756,999.27655, , , , 
2025-11-24 19:33:03.747,6.35773,-5.3623157,2.8546374,1.0503056,-0.05222894,-2.0916774,-27.281252,45.54375,-6.39375,0.31139255,-0.59179807,0.5333529,999.27655, , , , 
2025-11-24 19:33:03.768,5.831309,-5.6470613,2.5435705,1.1553744,-0.13775001,-2.0739622,-28.2,45.318752,-6.1312504,0.33260366,-0.5771404,0.52837616,999.26605, , , , 
2025-11-24 19:33:03.787,5.6709895,-6.0155563,2.3258235,1.2219586,-0.2819141,-2.0189846,-28.050001,43.85625,-7.2937503,0.34576118,-0.5683744,0.5254665,999.26605, , , , 
2025-11-24 19:33:03.807,5.6183476,-6.4055862,1.8544376,1.238452,-0.46822786,-1.9236896,-32.2125,42.05625,-7.6875005,0.36831915,-0.55465627,0.52046967,999.25555, , , , 
2025-11-24 19:33:03.827,5.4341,-6.6185474,1.605584,1.1785872,-0.5696314,-1.8320599,-36.15,39.80625,-9.450001,0.38182965,-0.5471767,0.51720446,999.25555, , , , 
2025-11-24 19:33:03.847,5.144569,-6.7429743,1.2346965,0.98249966,-0.6081159,-1.6628503,-35.0625,38.04375,-8.55,0.4031896,-0.5362825,0.5112306,999.2431, , , , 
2025-11-24 19:33:03.867,4.7952166,-6.7094746,1.2586247,0.76747525,-0.5348121,-1.4814235,-37.5,38.287502,-8.925,0.4181556,-0.529056,0.50608826,999.2431, , , , 
2025-11-24 19:33:03.887,4.5726843,-6.7334027,1.3615161,0.5958222,-0.4517345,-1.2804489,-37.5,38.287502,-8.606251,0.430461,-0.523082,0.5011534,999.23334, , , , 
2025-11-24 19:33:03.907,4.938786,-7.1856465,1.3495519,0.407065,-0.33628106,-0.99578595,-37.537502,36.54375,-9.58125,0.43998566,-0.5184044,0.49692497,999.23334, , , , 
2025-11-24 19:33:03.927,5.328816,-7.8029947,1.2466606,0.24640758,-0.21777329,-0.7257837,-38.9625,35.4,-8.75625,0.44673637,-0.51504225,0.49369824,999.2292, , , , 
2025-11-24 19:33:03.947,5.3359947,-8.094919,1.3686945,0.11262819,-0.13469568,-0.38064513,-40.3875,34.0125,-9.76875,0.4512836,-0.5128759,0.4914374,999.2292, , , , 
2025-11-24 19:33:03.967,5.0943193,-7.9106717,1.3519448,0.0032833982,-0.08277218,-0.026954409,-38.100002,33.6375,-10.743751,0.45207506,-0.5129749,0.49124274,999.2316, , , , 
2025-11-24 19:33:03.987,4.807181,-7.2263246,1.5146568,-0.08956805,0.010079269,0.36338818,-39.73125,34.575,-7.3875003,0.45020163,-0.5147889,0.49272,999.2316, , , , 
2025-11-24 19:33:04.007,5.749953,-7.5254273,1.3950156,-0.11950042,0.12614357,0.78060883,-37.912502,35.5125,-8.868751,0.44566178,-0.5179791,0.4962372,999.2321, , , , 
2025-11-24 19:33:04.027,6.4606214,-7.63789,1.0695918,-0.13293944,0.16340633,1.0878738,-39.881252,33.693752,-9.168751,0.43870726,-0.5223509,0.50191295,999.2321, , , , 
2025-11-24 19:33:04.047,6.843473,-7.3363943,0.60777694,-0.17997603,0.16157374,1.4427862,-38.8125,34.55625,-10.106251,0.4299046,-0.5281496,0.50907576,999.23456, , , , 
2025-11-24 19:33:04.067,6.8219376,-6.6927247,0.6436693,-0.22640176,0.16584979,1.7573816,-37.29375,37.068752,-8.71875,0.4162918,-0.53734016,0.5195987,999.23456, , , , 
2025-11-24 19:33:04.087,6.661618,-5.7858453,1.430908,-0.13171771,0.12370012,2.0976334,-37.59375,37.03125,-8.681251,0.4036486,-0.54578984,0.52935,999.2382,37.88760582,127.74027162,145.0596923828125,1.58
2025-11-24 19:33:04.107,7.664211,-5.9318075,1.9334008,0.22136213,-0.040011644,2.4042873,-35.362503,40.125,-8.625,0.39067113,-0.55431294,0.54117304,999.2382, , , , 
2025-11-24 19:33:04.127,9.288938,-6.34098,1.3591232,0.6135373,-0.28130323,2.5747187,-33.7125,41.04375,-8.85,0.38191146,-0.56041574,0.55158645,999.238, , , , 
2025-11-24 19:33:04.147,10.817951,-6.836294,-0.25842485,0.931187,-0.6343831,2.6400812,-31.95,42.581253,-7.89375,0.37052485,-0.56990296,0.5703185,999.238, , , , 
2025-11-24 19:33:04.167,10.920842,-6.640083,-0.9954142,0.9201914,-0.8182534,2.6394703,-29.156252,44.643753,-10.931251,0.36363253,-0.5775314,0.58463347,999.2341, , , , 
2025-11-24 19:33:04.187,10.439885,-5.9916277,-0.971486,0.7424298,-0.8133665,2.708498,-27.862501,45.375,-8.325001,0.3569582,-0.58569384,0.59751815,999.2341, , , , 
2025-11-24 19:33:04.207,10.432707,-4.9579287,-0.04546363,0.57016593,-0.66614807,2.7879105,-24.862501,46.3125,-10.5375,0.34852067,-0.5943891,0.6092997,999.238, , , , 
2025-11-24 19:33:04.227,10.928021,-3.9290147,0.9403793,0.5946005,-0.49999282,2.7329326,-22.95,47.86875,-9.28125,0.33832717,-0.60252637,0.6206261,999.238, , , , 
2025-11-24 19:33:04.247,11.327622,-3.2350962,1.0767702,0.78152514,-0.39736754,2.5069127,-21.712502,48.881252,-10.25625,0.325646,-0.6097092,0.6349496,999.24286, , , , 
2025-11-24 19:33:04.267,11.502298,-2.914458,0.5312066,0.9275218,-0.40775225,2.1923172,-18.525002,49.218754,-12.76875,0.3173722,-0.6126839,0.64619565,999.24286, , , , 
2025-11-24 19:33:04.287,11.239088,-2.6751757,-0.32303107,0.9702823,-0.5720749,1.8502331,-16.987501,48.2625,-11.475,0.31199595,-0.6139516,0.6562752,999.2409, , , , 
2025-11-24 19:33:04.307,11.069198,-2.416751,-1.0073783,0.8084032,-0.7663299,1.574733,-16.125,50.2125,-12.918751,0.30942345,-0.6149316,0.66428405,999.2409, , , , 
2025-11-24 19:33:04.327,10.286744,-2.1104696,0.18185452,0.6049852,-0.84452057,1.312672,-13.743751,51.600002,-15.712501,0.308686,-0.61662614,0.6697302,999.22284, , , , 
2025-11-24 19:33:04.347,11.717652,-2.361716,-1.3375878,0.30749404,-0.7449496,1.1996621,-13.2375,50.1375,-11.981251,0.30861473,-0.6187771,0.67342365,999.22284, , , , 
2025-11-24 19:33:04.367,11.509477,-2.036292,0.10289137,-0.13965896,-0.5042689,0.9534836,-12.8625,51.16875,-12.243751,0.30735233,-0.6235819,0.67445815,999.217, , , , 
2025-11-24 19:33:04.388,11.504691,-2.0003998,1.2418749,-0.25999933,-0.43890634,0.7928261,-10.2375,51.075,-12.806251,0.30602843,-0.6269866,0.6738099,999.217, , , , 
2025-11-24 19:33:04.407,12.1148615,-1.9597218,3.010171,-0.100563616,-0.6130028,0.49777845,-8.71875,50.60625,-13.575001,0.30508563,-0.6318976,0.6720745,999.2177, , , , 
2025-11-24 19:33:04.427,12.545569,-2.2348964,4.1347976,0.2690096,-0.84329885,0.22899793,-8.26875,49.800003,-15.262501,0.30808458,-0.63345605,0.67115504,999.2177, , , , 
2025-11-24 19:33:04.447,12.837494,-2.9982069,4.0845485,0.7491493,-0.9929607,-0.09353867,-11.00625,51.61875,-13.5375,0.31541568,-0.631343,0.6718337,999.2194, , , , 
2025-11-24 19:33:04.467,12.64846,-4.0007997,2.7397819,0.9690606,-0.9141591,-0.39408416,-10.59375,51.525,-12.656251,0.32576334,-0.6259569,0.6738809,999.2194, , , , 
2025-11-24 19:33:04.487,12.251252,-4.7545385,2.4909284,0.82611823,-0.72601277,-0.6280454,-10.89375,50.531254,-15.656251,0.33949742,-0.6175654,0.6763257,999.22284, , , , 
2025-11-24 19:33:04.507,11.523834,-5.1014977,3.5413775,0.7228821,-0.6386591,-0.8039744,-13.593751,51.112503,-14.00625,0.35021868,-0.6107341,0.6773724,999.22284, , , , 
2025-11-24 19:33:04.527,10.320244,-5.625526,6.472585,0.8737657,-0.6197223,-0.89621496,-15.000001,50.5875,-14.137501,0.3583904,-0.6052133,0.6780226,999.21576, , , , 
2025-11-24 19:33:04.547,10.325029,-5.9844494,4.9435716,1.0362557,-0.4743365,-0.9524146,-14.45625,50.287502,-16.181252,0.3717896,-0.5934855,0.6811657,999.21576, , , , 
2025-11-24 19:33:04.567,10.186246,-6.936793,4.453043,1.1095595,-0.3045161,-1.0006728,-15.375001,47.831253,-16.25625,0.3821405,-0.58286613,0.68437326,999.248, , , , 
2025-11-24 19:33:04.587,9.834501,-7.850851,4.5248275,1.1278855,-0.13775001,-0.9047671,-16.331251,48.131252,-17.56875,0.39122686,-0.5716441,0.6882946,999.248, , , , 
2025-11-24 19:33:04.607,9.9756775,-8.338987,5.6781683,1.2573888,-0.050396346,-0.6482039,-14.587501,46.96875,-21.862501,0.39818808,-0.56044424,0.69330734,999.27094, , , , 
2025-11-24 19:33:04.627,10.018748,-7.726424,6.501299,1.595197,-0.19883649,-0.48082694,-17.681252,47.006252,-20.456251,0.40407598,-0.5485549,0.6998674,999.27094, , , , 
2025-11-24 19:33:04.647,9.595219,-6.398408,6.8410797,2.1229842,-0.5665771,-0.4344012,-18.225,44.34375,-20.550001,0.4136404,-0.53088176,0.70990515,999.2907, , , , 
2025-11-24 19:33:04.667,9.609575,-5.8887367,6.3194447,2.6446626,-1.0033454,-0.5272527,-18.84375,44.04375,-22.331251,0.42526895,-0.51336247,0.7186735,999.2907, , , , 
2025-11-24 19:33:04.687,9.5665045,-6.094519,5.302495,3.008738,-1.3582579,-0.6720276,-20.268751,44.15625,-22.48125,0.43686625,-0.49799854,0.72508335,999.30804, , , , 
2025-11-24 19:33:04.707,9.226724,-6.7812595,3.0987053,3.0771549,-1.5769475,-0.78748107,-20.71875,41.86875,-23.400002,0.4601535,-0.4695396,0.7342257,999.30804, , , , 
2025-11-24 19:33:04.729,9.312865,-7.070791,2.292324,2.7478988,-1.5256348,-0.8027527,-22.931252,40.818752,-27.431252,0.47922918,-0.44707683,0.73933,999.3117, , , , 
2025-11-24 19:33:04.747,9.260223,-6.960721,2.5507488,2.3465607,-1.4156791,-0.84856755,-24.0,39.075,-27.375002,0.4968253,-0.42671245,0.7423498,999.3117, , , , 
2025-11-24 19:33:04.767,8.932407,-6.680761,3.4360933,1.9965352,-1.2770128,-0.9371429,-23.475,36.318752,-32.04375,0.516627,-0.4039233,0.7438965,999.31366, , , , 
2025-11-24 19:33:04.787,8.221739,-6.1878395,4.173083,1.8267148,-1.0852013,-1.0544289,-26.831251,35.081253,-29.475,0.5307439,-0.38662267,0.7443938,999.31366, , , , 
2025-11-24 19:33:04.807,7.4679995,-5.948557,4.213761,1.7906737,-0.9587523,-1.1802671,-28.237501,32.34375,-31.1625,0.54362726,-0.36899078,0.74491227,999.31805, , , , 
2025-11-24 19:33:04.827,6.812366,-5.8337016,4.0295134,1.7735696,-0.82191855,-1.25296,-30.618752,31.575,-29.493752,0.55558836,-0.35073918,0.7455438,999.31805, , , , 
2025-11-24 19:33:04.847,6.314659,-5.879165,3.3882368,1.7699044,-0.7840449,-1.3048835,-32.23125,30.056252,-29.7,0.56673354,-0.33204752,0.74622625,999.321, , , , 
2025-11-24 19:33:04.867,5.6709895,-5.962914,2.589034,1.7094287,-0.82497287,-1.3219877,-32.98125,28.48125,-30.91875,0.577767,-0.3132684,0.74634224,999.321, , , , 
2025-11-24 19:33:04.887,5.4149575,-6.128019,1.9334008,1.6055818,-0.89338976,-1.3195443,-34.74375,25.575,-30.4125,0.5889092,-0.2950617,0.74547905,999.3151, , , , 
2025-11-24 19:33:04.907,5.072784,-6.4606214,2.105684,1.4107158,-0.82741636,-1.2749511,-33.35625,22.96875,-30.243752,0.5999026,-0.27801722,0.7436012,999.3151, , , , 
2025-11-24 19:33:04.929,4.9770713,-6.9726853,2.3808584,1.2812126,-0.5720749,-1.1509455,-33.300003,23.00625,-33.506252,0.6092531,-0.26239294,0.741922,999.3156, , , , 
2025-11-24 19:33:04.947,5.1996036,-7.2287173,2.3018954,1.21585,-0.33322674,-1.0470986,-34.706253,20.71875,-29.831251,0.6175522,-0.2444958,0.7414353,999.3156, , , , 
2025-11-24 19:33:04.967,4.9363933,-7.2263246,1.4620147,1.0564142,-0.15851942,-0.9536363,-36.16875,18.337502,-32.006252,0.6221475,-0.23127592,0.74200016,999.3327, , , , 
2025-11-24 19:33:04.988,5.06082,-7.2622166,1.1126626,0.70028013,0.17989968,-0.77892894,-38.1375,17.400002,-31.593752,0.62483644,-0.22028548,0.7431278,999.3327, , , , 
2025-11-24 19:33:05.007,5.508278,-7.568498,1.0432707,0.42539096,0.4065305,-0.6262128,-37.7625,17.0625,-31.462502,0.62466216,-0.21228667,0.7454611,999.3376, , , , 
2025-11-24 19:33:05.027,6.0729837,-8.037491,0.69152576,0.1834885,0.5513055,-0.49793115,-37.443752,15.731251,-31.875002,0.6224535,-0.2070462,0.7485219,999.3376, , , , 
2025-11-24 19:33:05.049,6.6999035,-8.530413,0.43788654,-0.11339177,0.6368265,-0.3354411,-36.693752,14.94375,-33.0,0.61878693,-0.20481755,0.7517982,999.33514, , , , 
2025-11-24 19:33:05.067,6.903293,-8.523234,0.6125626,-0.45547605,0.7186824,-0.06971494,-33.5625,14.2875,-35.60625,0.6124875,-0.20648468,0.75592154,999.33514, , , , 
2025-11-24 19:33:05.087,7.5661054,-8.575876,0.96430755,-0.6301834,0.7357866,0.12637265,-36.375,16.48125,-34.5,0.60784245,-0.2098018,0.75840026,999.3288,37.88761746,127.74026703,145.7293701171875,1.42
2025-11-24 19:33:05.107,8.410771,-9.298509,0.7968099,-0.78717566,0.6582068,0.34139705,-38.268753,15.150001,-32.53125,0.59950006,-0.21842459,0.76210266,999.3288, , , , 
2025-11-24 19:33:05.127,8.315059,-9.257831,0.60777694,-0.9765437,0.56902057,0.53381944,-35.68125,16.931252,-34.912502,0.59280574,-0.22801967,0.7642368,999.3254, , , , 
2025-11-24 19:33:05.147,6.530013,-7.2933235,1.9573289,-1.0779473,0.42302385,0.80137825,-34.59375,18.768751,-34.050003,0.58613354,-0.24008366,0.7654895,999.3254, , , , 
2025-11-24 19:33:05.167,4.9268217,-4.8646083,3.6011982,-0.7767909,0.2525926,1.1269692,-32.643753,20.475,-34.350002,0.5796075,-0.25305226,0.76640594,999.3083, , , , 
2025-11-24 19:33:05.187,5.1613183,-3.7543387,3.9361932,-0.16042836,0.030237807,1.4879903,-34.275,20.306252,-34.800003,0.5737919,-0.26453033,0.7677444,999.3083, , , , 
2025-11-24 19:33:05.207,7.0325055,-4.1467614,2.1870399,0.46570805,-0.20494513,1.696906,-33.693752,21.73125,-34.631252,0.568733,-0.2747859,0.7699555,999.299, , , , 
2025-11-24 19:33:05.227,8.303095,-4.792824,0.55513483,0.723493,-0.3930915,1.7097342,-33.28125,21.6375,-34.050003,0.56702375,-0.2789611,0.771098,999.299, , , , 
2025-11-24 19:33:05.247,9.272188,-5.5130634,-1.2346965,0.7228821,-0.6985239,1.6071088,-32.2125,21.768751,-35.71875,0.56696093,-0.28438866,0.7711272,999.2836, , , , 
2025-11-24 19:33:05.267,9.104691,-5.8672013,-2.115255,0.41011935,-0.9007201,1.5411354,-30.843752,22.893751,-33.91875,0.56928843,-0.28943,0.76858383,999.2836, , , , 
2025-11-24 19:33:05.287,8.551949,-5.6374903,-1.3423735,0.038713556,-1.0180062,1.6058872,-33.131252,24.6375,-33.46875,0.5726251,-0.29708582,0.7637837,999.2629, , , , 
2025-11-24 19:33:05.307,8.475378,-5.4173503,-0.485743,-0.35468337,-0.90377444,1.710345,-32.60625,25.800001,-33.112503,0.5754812,-0.30763385,0.75771385,999.2629, , , , 
2025-11-24 19:33:05.327,8.848659,-5.2283173,0.13160525,-0.7199805,-0.5665771,1.7561599,-30.6,25.743752,-31.1625,-0.57636696,0.32096088,-0.75150317,999.2504, , , , 
2025-11-24 19:33:05.347,8.937193,-5.0775695,1.2418749,-1.0034218,-0.13041963,1.7573816,-32.925003,25.7625,-31.3875,-0.57414806,0.3367084,-0.7461646,999.2504, , , , 
2025-11-24 19:33:05.368,8.69791,-4.792824,2.7110682,-1.029689,0.3026835,1.7812053,-29.587502,29.962502,-31.35,-0.56652164,0.35800266,-0.7418572,999.2463, , , , 
2025-11-24 19:33:05.388,8.571091,-4.35733,3.8476589,-0.7413608,0.4346303,1.8630612,-27.581251,30.300001,-33.28125,-0.5597727,0.370266,-0.74079883,999.2463, , , , 
2025-11-24 19:33:05.407,9.58804,-3.7998023,3.8069808,-0.106672265,0.19578215,1.9088761,-27.2625,32.0625,-31.25625,-0.5476848,0.38677078,-0.74087715,999.24506, , , , 
2025-11-24 19:33:05.427,10.537991,-3.2303107,3.0532417,0.4076759,-0.228158,1.7757076,-28.556252,31.556252,-30.7875,-0.5404469,0.39479214,-0.741133,999.24506, , , , 
2025-11-24 19:33:05.447,11.32523,-2.6416762,1.9070797,0.69600403,-0.68875,1.5063162,-27.825,33.112503,-29.1,-0.53701997,0.39841503,-0.7403998,999.2536, , , , 
2025-11-24 19:33:05.467,11.789437,-1.9980069,1.5290136,0.7448732,-0.892168,1.2338705,-25.66875,35.5875,-31.312502,-0.5370768,0.39908755,-0.7383531,999.2536, , , , 
2025-11-24 19:33:05.487,12.265609,-1.5002998,1.0767702,0.6269763,-0.7345649,0.9669226,-26.343752,35.268753,-30.768751,-0.538908,0.39807993,-0.7358122,999.2536, , , , 
2025-11-24 19:33:05.507,12.842279,-1.2610176,0.4139583,0.24824017,-0.15913028,0.68164873,-23.6625,35.41875,-31.2,-0.5400002,0.39714342,-0.7338496,999.2536, , , , 
2025-11-24 19:33:05.527,13.313665,-1.5409778,0.4235296,-0.1787543,0.51159924,0.42447466,-26.400002,35.006252,-29.962502,-0.5378015,0.398697,-0.7342648,999.2519, , , , 
2025-11-24 19:33:05.547,13.184453,-1.8065811,1.4739788,-0.38461575,0.8970549,0.18318307,-24.618752,35.175003,-29.550001,-0.53278506,0.40203914,-0.73662645,999.2519, , , , 
2025-11-24 19:33:05.567,13.1078825,-2.306681,2.1511476,-0.2709949,0.82069683,-0.051999863,-21.975,34.237503,-32.4,-0.5272521,0.40463945,-0.7400545,999.25165, , , , 
2025-11-24 19:33:05.587,13.263416,-3.0987053,2.359323,0.04176788,0.32223117,-0.33299765,-23.400002,35.943752,-31.425001,-0.5240738,0.404346,-0.74324477,999.25165, , , , 
2025-11-24 19:33:05.607,13.268202,-4.0007997,2.4430718,0.32337654,-0.1933387,-0.54008085,-24.487501,35.8125,-29.906252,-0.52510935,0.4003624,-0.74517876,999.25507, , , , 
2025-11-24 19:33:05.630,13.655839,-4.802395,2.4239295,0.58665925,-0.5378664,-0.7080686,-23.456251,36.318752,-32.662502,-0.5297866,0.39317068,-0.745951,999.25507, , , , 
2025-11-24 19:33:05.647,14.5818615,-6.503692,1.3734802,0.62147856,-0.6081159,-0.83146334,-25.48125,34.256252,-32.643753,-0.53661096,0.38363495,-0.74616927,999.2548, , , , 
2025-11-24 19:33:05.667,14.849857,-7.3698936,1.2562319,0.4767036,-0.5335904,-0.9982294,-26.7,33.24375,-32.775,-0.5461383,0.37118682,-0.74587625,999.2548, , , , 
2025-11-24 19:33:05.688,14.562718,-7.2789664,1.6271194,0.37835437,-0.4847212,-1.1576651,-25.725,32.362503,-32.662502,-0.55181473,0.36392653,-0.74562955,999.258, , , , 
2025-11-24 19:33:05.707,13.385449,-7.082755,2.1487548,0.25190535,-0.4065305,-1.424613,-24.768751,31.95,-32.756252,-0.56148976,0.35146704,-0.74522245,999.258, , , , 
2025-11-24 19:33:05.727,11.980863,-6.3050876,2.8498518,0.25740314,-0.32956156,-1.5718315,-26.175001,30.825,-33.0,-0.56914103,0.34093443,-0.7451273,999.2636, , , , 
2025-11-24 19:33:05.747,10.975878,-5.8504515,3.3284163,0.4021781,-0.2196059,-1.7520366,-30.431252,28.743752,-30.88125,-0.5762209,0.329008,-0.74585193,999.2636, , , , 
2025-11-24 19:33:05.767,10.04507,-6.7118673,2.6608188,0.62514377,-0.13164136,-1.9921064,-32.25,28.556252,-29.925001,-0.58445036,0.31083322,-0.7481295,999.27094, , , , 
2025-11-24 19:33:05.787,9.382257,-7.5661054,2.0865414,0.6886737,-0.116980605,-2.0379212,-31.218752,27.675001,-31.987501,-0.5891909,0.29873145,-0.74977535,999.27094, , , , 
2025-11-24 19:33:05.807,8.8701935,-8.109276,1.6414764,0.75342536,-0.2751946,-1.9462916,-33.05625,24.2625,-33.131252,-0.5970835,0.27825215,-0.7519214,999.27167, , , , 
2025-11-24 19:33:05.827,8.606983,-7.9011,1.2346965,0.7473167,-0.5213731,-1.8467206,-34.893753,24.056252,-30.468752,-0.6044114,0.26219547,-0.752068,999.27167, , , , 
2025-11-24 19:33:05.847,8.154739,-7.025327,1.3351951,0.6269763,-0.716239,-1.7752494,-33.506252,22.837502,-31.781252,-0.6129261,0.24696629,-0.7504665,999.26337, , , , 
2025-11-24 19:33:05.867,7.948957,-6.204589,1.7084754,0.51946414,-0.7553343,-1.8228968,-36.768753,21.2625,-31.500002,-0.6221181,0.23255399,-0.7475757,999.26337, , , , 
2025-11-24 19:33:05.887,7.3196445,-5.7930236,1.9812572,0.4473821,-0.6081159,-1.8980333,-37.21875,18.975,-32.100002,0.6309574,-0.21829209,0.74446315,999.2641, , , , 
2025-11-24 19:33:05.907,6.355337,-5.383851,2.009971,0.39423686,-0.32100943,-1.957898,-35.943752,16.518751,-33.46875,0.6381013,-0.20401493,0.74230605,999.2641, , , , 
2025-11-24 19:33:05.927,5.690132,-5.4173503,1.6773686,0.407065,-0.1084285,-1.9811108,-38.71875,16.06875,-29.75625,0.64330685,-0.1895931,0.74136657,999.26483, , , , 
2025-11-24 19:33:05.947,4.7688956,-5.6374903,1.1844472,0.41134107,0.08643737,-1.9108614,-38.71875,14.475,-31.368752,0.64751226,-0.17143391,0.74156386,999.26483, , , , 
2025-11-24 19:33:05.967,3.6921253,-5.871987,0.7298109,0.4125628,0.13775001,-1.7324889,-39.3375,12.900001,-31.06875,0.6496317,-0.15764298,0.7421973,999.25995, , , , 
2025-11-24 19:33:05.987,2.8785655,-5.852844,0.41156548,0.3606393,0.14569125,-1.3745221,-38.9625,11.83125,-31.2,0.6507967,-0.14576942,0.7430277,999.25995, , , , 
2025-11-24 19:33:06.008,2.4119651,-5.666204,0.3804588,0.32643086,0.07666353,-0.8998802,-39.412502,8.8125,-32.5125,0.6515751,-0.1366646,0.7436278,999.257, , , , 
2025-11-24 19:33:06.029,2.2037897,-5.7667027,0.30388847,0.29161158,0.06811142,-0.4380664,-36.73125,8.212501,-33.225002,0.6520647,-0.13051242,0.74408066,999.257, , , , 
2025-11-24 19:33:06.047,3.266203,-5.0249276,0.49292147,0.31787875,-0.082161315,-0.03367392,-37.95,8.83125,-32.2125,0.65231174,-0.12753358,0.74443316,999.26483, , , , 
2025-11-24 19:33:06.067,4.0127635,-5.2977095,0.06699903,0.3520872,-0.16340633,0.19601123,-39.65625,8.400001,-31.5375,0.65306926,-0.12630086,0.744263,999.26483, , , , 
2025-11-24 19:33:06.087,4.8263235,-5.5633125,-0.2105684,0.3087158,-0.11575887,0.33895358,-40.162502,7.4625,-29.737501,0.6540765,-0.12636805,0.7437487,999.2746,37.88762817,127.74025169,146.5908203125,1.9
2025-11-24 19:33:06.107,5.611169,-6.309873,-0.74895346,0.21952952,-0.0772744,0.5106066,-39.300003,7.9500003,-31.85625,0.65460485,-0.12833445,0.7434377,999.2746, , , , 
2025-11-24 19:33:06.128,6.1160545,-7.135397,-1.4045869,-0.01809687,0.011911863,0.7549525,-37.6875,7.9875,-31.725,0.6542637,-0.13245149,0.74339384,999.278, , , , 
2025-11-24 19:33:06.147,6.5443697,-7.4344997,-1.2921243,-0.30825764,-0.025961753,1.0542762,-41.15625,7.6125,-29.94375,0.6531673,-0.14032575,0.7432512,999.278, , , , 
2025-11-24 19:33:06.167,7.5517483,-7.5254273,-0.6891329,-0.57520556,-0.11026109,1.3621521,-39.35625,9.806251,-32.737503,0.6519504,-0.15204054,0.7423152,999.2712, , , , 
2025-11-24 19:33:06.187,8.7266245,-8.226524,-0.30149564,-0.68638295,-0.11942407,1.5283073,-37.96875,9.5625,-31.0125,0.6504593,-0.1666089,0.7407449,999.2712, , , , 
2025-11-24 19:33:06.207,9.466006,-9.188439,-0.39720857,-0.78289956,-0.07910699,1.769599,-37.66875,10.96875,-32.2125,0.64832807,-0.18311311,0.73890275,999.2714, , , , 
2025-11-24 19:33:06.228,9.877572,-9.3104725,-0.46660042,-0.9050725,-0.01924224,2.0878594,-37.95,14.437501,-34.068752,0.6441357,-0.20674859,0.73643965,999.2714, , , , 
2025-11-24 19:33:06.247,9.9756775,-8.733803,-0.4211368,-1.0718386,9.162972E-4,2.351753,-38.49375,15.618751,-31.7625,-0.6395575,0.22840565,-0.73396385,999.28046, , , , 
2025-11-24 19:33:06.267,9.62154,-7.3603225,0.3493521,-1.2471569,0.076052666,2.542343,-37.95,16.9125,-31.125002,-0.6337804,0.25239038,-0.73089075,999.28046, , , , 
2025-11-24 19:33:06.290,10.107283,-6.3625154,1.4189439,-1.2978586,0.15790854,2.6040401,-36.675003,21.13125,-29.175001,-0.6266088,0.27767605,-0.72752404,999.2856, , , , 
2025-11-24 19:33:06.307,10.734202,-6.5659056,1.8544376,-1.133536,0.23548837,2.5209625,-34.40625,24.13125,-33.45,-0.61830056,0.30214846,-0.7243672,999.2856, , , , 
2025-11-24 19:33:06.328,10.516456,-7.051648,1.6797615,-0.8696424,0.1933387,2.4843106,-32.362503,26.325,-32.25,-0.6070438,0.329548,-0.7210481,999.28534, , , , 
2025-11-24 19:33:06.347,10.499705,-7.23111,1.3854443,-0.5984184,-0.00641408,2.5350125,-30.431252,28.743752,-31.2,-0.6005104,0.34439108,-0.71879596,999.28534, , , , 
2025-11-24 19:33:06.367,10.69831,-6.6592255,1.3208381,-0.37117672,-0.22204934,2.6235878,-30.656252,30.581251,-30.35625,-0.59081733,0.3668341,-0.7137598,999.2834, , , , 
2025-11-24 19:33:06.387,11.657832,-5.096712,1.7706888,-0.10361794,-0.45601055,2.532569,-28.85625,33.75,-29.79375,-0.5855453,0.3789309,-0.71016794,999.2834, , , , 
2025-11-24 19:33:06.407,11.875579,-3.3403804,1.6845472,0.22319472,-0.38453937,2.0414338,-29.475,33.675003,-28.031252,-0.578733,0.39376897,-0.7043774,999.2819, , , , 
2025-11-24 19:33:06.429,11.260623,-2.536392,1.1006985,0.29955283,-0.123089254,1.6437608,-27.093752,34.443752,-30.6375,-0.5735532,0.4011866,-0.70186687,999.2819, , , , 
2025-11-24 19:33:06.447,9.851251,-2.1535404,0.2321038,0.25557056,0.21105379,1.2955679,-28.85625,34.5,-29.062502,-0.56782466,0.40641847,-0.70144665,999.2858, , , , 
2025-11-24 19:33:06.467,9.432507,-1.9812572,-0.41635114,0.12606722,0.36926776,1.1245257,-27.525002,36.75,-29.493752,-0.5614204,0.4112405,-0.70222133,999.2858, , , , 
2025-11-24 19:33:06.488,9.52822,-2.062613,-0.55752766,-0.035201084,0.43035424,0.9681443,-24.956251,34.893753,-29.493752,-0.5550783,0.41637772,-0.70314246,999.2885, , , , 
2025-11-24 19:33:06.507,10.207782,-2.2612174,0.03589234,-0.23128867,0.54519683,0.6749292,-23.98125,36.75,-31.406252,-0.54796547,0.42298806,-0.7042122,999.2885, , , , 
