Time,Accel_X,Accel_Y,Accel_Z,Gyro_X,Gyro_Y,Gyro_Z,Mag_X,Mag_Y,Mag_Z,Orient_X,Orient_Y,Orient_Z,Pressure,Lat,Lng,Alt,Speed
2025-11-24 19:54:37.191,-1.012164,3.2733815,8.298309,0.30459246,0.2700786,0.023594651,38.175003,-3.7875001,-33.787502,0.07786033,-0.13828808,-0.9798966,999.32635,37.88749007,127.74031313,143.758544921875,0.0
2025-11-24 19:54:37.210,-2.766103,3.6275191,6.326623,-0.60315263,-0.08300125,0.06024654,36.09375,-4.6312504,-32.5875,0.07912918,-0.13788019,-0.9799169,999.33636, , , , 
2025-11-24 19:54:37.230,-1.9477576,3.1154552,8.319844,-0.8420007,-0.1966221,0.117056966,39.09375,-4.03125,-38.34375,0.07679725,-0.1298725,-0.9809935,999.3315, , , , 
2025-11-24 19:54:37.251,-1.6821543,2.9742785,9.303294,-0.736932,-0.2296088,0.06207913,37.40625,-3.35625,-34.96875,0.07391345,-0.12266772,-0.9819955,999.3315, , , , 
2025-11-24 19:54:37.271,-1.7802601,2.629712,9.413364,-0.6306415,-0.22838707,0.035201084,38.0625,-3.15,-36.600002,0.07101335,-0.116585866,-0.98286897,999.3205, , , , 
2025-11-24 19:54:37.290,-2.2755744,2.3976083,9.60479,-0.6257546,-0.16791146,0.11522437,33.99375,-2.7375002,-32.943752,0.06849287,-0.11094131,-0.9836106,999.3205, , , , 
2025-11-24 19:54:37.310,-2.3928227,2.3162522,10.313066,-0.56894416,-0.1117119,0.30764678,36.506252,-1.9687501,-33.7125,0.066484466,-0.10534821,-0.9841051,999.31537, , , , 
2025-11-24 19:54:37.330,-2.1678972,2.4789643,10.851451,-0.3728566,-0.024969097,0.4078286,35.775,-1.29375,-35.23125,0.0649942,-0.100738145,-0.9842307,999.31537, , , , 
2025-11-24 19:54:37.350,-1.969293,2.7756743,10.459028,-0.1786016,0.08193224,0.3992765,37.3875,-1.25625,-34.4625,0.06455632,-0.098091945,-0.9839788,999.30634, , , , 
2025-11-24 19:54:37.370,-1.4668003,3.1058838,9.803394,-0.116293386,0.20105088,0.27893612,35.5875,-1.44375,-34.275,0.06565645,-0.09661857,-0.9834277,999.30634, , , , 
2025-11-24 19:54:37.391,-1.2873386,3.0915267,9.49472,-0.14866921,0.35376707,0.13965896,35.756252,-1.5375,-36.28125,0.06796572,-0.09544514,-0.9830452,999.3068, , , , 
2025-11-24 19:54:37.410,-1.1820544,2.9766715,9.102298,-0.23541202,0.37942338,0.057192214,36.15,-1.5187501,-33.54375,0.071290836,-0.09353788,-0.9827879,999.3068, , , , 
2025-11-24 19:54:37.431,-0.89013004,3.0077782,8.413164,-0.4834231,0.40385798,-0.11323906,35.4,-0.84375006,-32.8875,0.07455914,-0.090167,-0.9827878,999.3044, , , , 
2025-11-24 19:54:37.450,-1.0624132,2.6273193,8.743374,-0.7754165,0.26702428,-0.2409098,36.075,0.45000002,-31.800001,0.07739315,-0.08398001,-0.9832557,999.3044, , , , 
2025-11-24 19:54:37.470,-1.0887343,1.995614,9.399008,-1.0240384,-0.1220966,-0.23113596,33.9,-0.0375,-30.150002,0.07702564,-0.07320115,-0.98441553,999.29974, , , , 
2025-11-24 19:54:37.490,-1.1629118,1.8592232,10.176675,-1.0613012,-0.2296088,-0.19265148,35.2125,0.4875,-31.875002,0.07486553,-0.0658472,-0.98525816,999.29974, , , , 
2025-11-24 19:54:37.510,-0.9212367,1.4811572,10.839486,-0.96478456,-0.25770858,-0.0881936,33.018753,0.63750005,-30.712502,0.07123158,-0.056253303,-0.9862543,999.3039, , , , 
2025-11-24 19:54:37.530,-0.7968099,1.2705889,11.382657,-0.7583123,-0.1966221,0.020540329,34.443752,1.8937501,-30.16875,0.0675875,-0.04795271,-0.98695266,999.3039, , , , 
2025-11-24 19:54:37.550,-0.5886344,0.997807,11.143375,-0.51763153,0.03611738,0.11400264,32.5875,3.45,-31.9125,0.064781435,-0.04035315,-0.9873122,999.29926, , , , 
2025-11-24 19:54:37.572,-0.038285162,0.930808,10.310673,-0.37041312,0.23648103,0.15248711,31.593752,3.0937502,-29.625002,0.065252714,-0.036045205,-0.9872125,999.29926, , , , 
2025-11-24 19:54:37.590,-0.2105684,1.1820544,9.293723,-0.3184896,0.11064288,0.100563616,32.5125,3.1875002,-30.806252,0.06655214,-0.032598753,-0.9870217,999.2951, , , , 
2025-11-24 19:54:37.610,-0.64606214,1.2299109,9.288938,-0.12728895,-0.06956223,0.19402592,32.568752,3.45,-30.825,0.06636911,-0.030119283,-0.98692113,999.2951, , , , 
2025-11-24 19:54:37.630,0.06699903,1.026521,8.551949,0.18547381,-0.15691589,0.30642503,34.443752,3.2812502,-31.63125,0.06521115,-0.030337028,-0.9866542,999.29315, , , , 
2025-11-24 19:54:37.650,1.2514462,1.0863415,6.829116,0.24533857,-0.26381722,0.18425208,32.04375,3.0187502,-30.6,0.06333179,-0.033090215,-0.98631436,999.29315, , , , 
2025-11-24 19:54:37.670,1.7036897,1.8855443,6.3768725,-0.035048366,-0.63461214,-0.047265664,32.25,3.91875,-32.0625,0.058346607,-0.03591468,-0.9863951,999.3017, , , , 
2025-11-24 19:54:37.690,1.6845472,2.2564318,8.300702,-0.20486878,-1.0176244,-0.18593197,31.987501,2.025,-31.1625,0.05002927,-0.036267925,-0.9870279,999.3017, , , , 
2025-11-24 19:54:37.710,2.2061825,1.3232309,9.71486,-0.18837543,-1.3468804,-0.34658942,31.987501,2.41875,-34.875,0.03802115,-0.036298424,-0.9879526,999.3132, , , , 
2025-11-24 19:54:37.730,3.6586258,1.2035898,9.332008,-0.3276526,-1.2515856,-0.73754287,32.831253,2.90625,-36.393753,0.023949487,-0.036272906,-0.98911935,999.3132, , , , 
2025-11-24 19:54:37.750,4.2592244,1.4907285,8.774481,-0.7112757,-0.58635384,-1.1058943,33.131252,1.95,-38.831253,0.012568373,-0.03359133,-0.99059385,999.3195, , , , 
2025-11-24 19:54:37.771,2.5866413,1.3830515,9.174082,-1.0674099,-0.14775293,-1.1987457,31.518751,4.03125,-39.862503,0.0068561635,-0.026390864,-0.99229646,999.3195, , , , 
2025-11-24 19:54:37.790,1.3686945,1.7060826,9.3104725,-1.1682025,-0.58757555,-0.9232457,32.025,4.33125,-40.237503,0.003101261,-0.016187638,-0.99379313,999.31586, , , , 
2025-11-24 19:54:37.810,-0.68195444,1.942972,9.458828,-1.0869576,-1.5130357,-0.17004949,31.9125,3.825,-40.518753,-0.0097470535,-0.004302766,-0.9947384,999.31586, , , , 
2025-11-24 19:54:37.830,0.8853444,2.0865414,10.296316,-0.96295196,-2.0701444,0.42554367,31.593752,5.7937503,-41.362503,-0.022992874,0.0015962904,-0.99449486,999.3134, , , , 
2025-11-24 19:54:37.850,1.4811572,2.3641088,10.210175,-0.6953932,-1.9754603,0.8910226,29.475,4.59375,-43.0875,-0.049296606,0.008813435,-0.99273765,999.3134, , , , 
2025-11-24 19:54:37.870,1.4763715,2.1296122,10.193424,-0.50174904,-1.3438262,0.96005034,27.900002,3.9562502,-44.41875,-0.06623742,0.012442425,-0.9906829,999.30096, , , , 
2025-11-24 19:54:37.890,2.3688943,2.0673988,9.820144,-0.6477457,-0.6981421,0.47074768,26.493752,3.5625002,-43.95,-0.07684842,0.016184544,-0.9889268,999.30096, , , , 
2025-11-24 19:54:37.910,1.5146568,2.012364,9.796216,-0.91347194,-0.28397575,-0.12912154,25.237501,3.80625,-43.987503,-0.08339374,0.02197063,-0.98802036,999.3027, , , , 
2025-11-24 19:54:37.930,0.85184485,1.39023,10.746166,-0.9226349,0.31955865,-0.52801627,25.143751,5.64375,-42.375,-0.08519422,0.03209292,-0.9881764,999.3027, , , , 
2025-11-24 19:54:37.950,0.13160525,0.60777694,10.490134,-0.6453023,0.5327504,-0.70333445,26.2875,5.4,-44.49375,-0.0818782,0.039352227,-0.98902,999.3095, , , , 
2025-11-24 19:54:37.970,-0.50009996,-0.016749758,9.506684,-0.28916812,0.5248092,-0.66301733,24.618752,6.4875,-45.0,-0.07700531,0.043801673,-0.9900545,999.3095, , , , 
2025-11-24 19:54:37.990,-1.2610176,-0.35413775,8.006385,0.049861837,0.19494222,-0.4577668,25.7625,6.4687505,-43.875,-0.072964646,0.044982497,-0.9909335,999.31415, , , , 
2025-11-24 19:54:38.010,-1.5218352,-0.4833502,6.6161547,0.38644832,-0.6132319,-0.09369139,25.800001,5.2125,-42.881252,-0.07335335,0.042715743,-0.9912822,999.31415, , , , 
2025-11-24 19:54:38.030,-1.0695918,-0.39720857,4.87418,0.5990293,-1.9607996,0.1928042,24.975,6.01875,-45.61875,-0.083488114,0.03689775,-0.9905779,999.3188, , , , 
2025-11-24 19:54:38.050,0.0047856453,-0.5623133,4.4913282,0.60391617,-3.3315802,0.3088685,23.775002,5.775,-46.40625,-0.10673054,0.028735807,-0.9882231,999.3188, , , , 
2025-11-24 19:54:38.070,0.59342,-1.146162,4.9603214,0.49334967,-3.811109,0.42920887,20.56875,4.4625,-46.612503,-0.1393786,0.01999901,-0.9838347,999.32245, , , , 
2025-11-24 19:54:38.090,1.0049855,-1.9405792,4.8382874,0.12072215,-3.842874,0.622853,14.325001,3.8437502,-48.093754,-0.17499033,0.013101072,-0.9775682,999.32245, , , , 
2025-11-24 19:54:38.110,1.5529419,-2.5268207,5.623133,-0.27328563,-3.724977,0.9905936,10.63125,3.7125,-48.318752,-0.2192346,0.010461518,-0.9674685,999.3212, , , , 
2025-11-24 19:54:38.130,2.7996025,-2.845066,6.4199433,-0.62514377,-3.7646832,1.3253475,8.56875,3.5062501,-49.93125,-0.25432864,0.012782862,-0.9574036,999.3212, , , , 
2025-11-24 19:54:38.150,3.8285162,-3.1752756,7.893922,-1.0386992,-3.544161,1.4853941,3.075,3.9375002,-48.91875,-0.28930056,0.019460067,-0.9455839,999.3327, , , , 
2025-11-24 19:54:38.171,5.17089,-3.3427732,8.968299,-1.1633157,-3.2142942,1.5312089,0.01875,5.3812504,-50.381252,-0.32101426,0.029644012,-0.93315905,999.3327, , , , 
2025-11-24 19:54:38.190,6.678368,-2.0817556,8.834301,-1.2696061,-2.9607852,1.268537,-4.2375,6.05625,-50.756252,-0.34981743,0.040138412,-0.92048544,999.3293,37.88748227,127.74030674,143.95782470703125,0.0
2025-11-24 19:54:38.210,6.8745794,-2.4263222,9.18126,-1.7967824,-2.6132033,0.99303705,-5.4750004,8.775001,-48.91875,-0.3769598,0.05187318,-0.9078489,999.3293, , , , 
2025-11-24 19:54:38.230,6.7094746,-3.4839497,11.267802,-2.2341616,-1.9369758,1.0962732,-6.7500005,8.90625,-49.256252,-0.40004247,0.06869918,-0.8962365,999.3295, , , , 
2025-11-24 19:54:38.250,8.1738825,-3.3786657,14.787644,-2.2567635,-1.2699115,1.3852123,-7.89375,12.8625,-46.893753,-0.419423,0.09605462,-0.8840269,999.3295, , , , 
2025-11-24 19:54:38.270,10.097712,-2.6943183,15.969698,-1.9501095,-1.1202496,1.3931534,-7.5937505,14.400001,-47.006252,-0.43044323,0.11707838,-0.8752039,999.3261, , , , 
2025-11-24 19:54:38.290,11.004591,-2.0003998,17.850456,-0.9507347,-1.4861577,1.2569306,-10.59375,17.0625,-45.61875,-0.4404786,0.13261144,-0.86671317,999.3261, , , , 
2025-11-24 19:54:38.310,12.098111,-1.4452649,18.826729,0.42065677,-2.2289693,1.200731,-10.106251,17.25,-46.29375,-0.4525522,0.13781151,-0.8573307,999.33734, , , , 
2025-11-24 19:54:38.330,13.596018,-0.29192436,17.309679,1.7578398,-2.523406,1.0144173,-11.15625,18.618752,-45.487503,-0.46695444,0.12879843,-0.84693635,999.33734, , , , 
2025-11-24 19:54:38.350,14.727823,0.57906306,12.098111,2.6631413,-2.3236532,0.68088514,-14.306251,15.937501,-46.85625,-0.48055992,0.10734416,-0.83685833,999.351, , , , 
2025-11-24 19:54:38.372,15.034104,1.1676974,7.3435726,2.4670537,-1.6132175,0.14576761,-16.21875,13.012501,-46.331253,-0.49244034,0.07523164,-0.8269037,999.351, , , , 
2025-11-24 19:54:38.390,14.75893,0.74177504,5.7116675,1.815261,-0.87773633,-0.3569741,-18.112501,11.681251,-45.600002,-0.4965513,0.05777291,-0.8232609,999.3471, , , , 
2025-11-24 19:54:38.411,13.270595,0.09810573,6.690332,1.4756203,-0.25648686,-0.77969253,-17.19375,10.5375,-44.7,-0.49828336,0.034338146,-0.8219974,999.3471, , , , 
2025-11-24 19:54:38.430,11.866008,-1.0887343,6.142376,1.4921136,0.048334677,-1.0325905,-20.8875,6.7875004,-43.631252,-0.49549153,0.016988156,-0.8244555,999.3359, , , , 
2025-11-24 19:54:38.452,9.870394,-2.062613,5.1421757,1.5385393,0.1466839,-1.2170718,-20.212502,5.8500004,-43.5,-0.49074858,-7.2507665E-4,-0.82814276,999.3359, , , , 
2025-11-24 19:54:38.470,8.843872,-2.9192436,4.206582,1.5000548,0.07154754,-1.2848777,-20.19375,4.2562504,-45.581253,-0.48578376,-0.018644022,-0.83176666,999.3293, , , , 
2025-11-24 19:54:38.490,7.9944205,-3.4887354,3.6203406,1.4084251,-0.1550833,-1.346575,-20.306252,1.63125,-44.943752,-0.48194847,-0.03642525,-0.834552,999.3293, , , , 
2025-11-24 19:54:38.511,7.1569324,-4.058227,3.3140593,1.2587632,-0.36033386,-1.3881139,-20.60625,0.84375006,-44.4,-0.47983357,-0.058240134,-0.8363733,999.32733, , , , 
2025-11-24 19:54:38.530,6.6448684,-4.4578285,3.1633115,1.1494185,-0.52709997,-1.3978877,-20.306252,0.26250002,-44.25,-0.47983903,-0.07492298,-0.83676225,999.32733, , , , 
2025-11-24 19:54:38.550,6.3218374,-4.9842496,2.9862428,1.029689,-0.63827735,-1.4131593,-21.69375,-1.6125001,-45.075,-0.4811066,-0.09093072,-0.83634204,999.3227, , , , 
2025-11-24 19:54:38.570,6.463014,-5.4149575,2.751746,0.9227876,-0.761672,-1.4430916,-21.09375,-2.9437501,-44.1375,-0.48290056,-0.10239421,-0.83516437,999.3227, , , , 
2025-11-24 19:54:38.590,6.0729837,-6.465407,2.0793629,0.72120225,-0.96753347,-1.4455352,-20.8875,-3.4125001,-44.1375,-0.48752543,-0.12047665,-0.83326745,999.32684, , , , 
2025-11-24 19:54:38.610,5.7260246,-7.149754,1.8233309,0.4841867,-1.1984403,-1.3404664,-22.743752,-5.9812503,-43.48125,-0.49356583,-0.13321398,-0.8302044,999.32684, , , , 
2025-11-24 19:54:38.630,5.3886366,-7.62114,1.5672989,0.24411684,-1.3554326,-1.1645373,-22.893751,-6.7312503,-43.425003,-0.50165486,-0.14385538,-0.8259752,999.3298, , , , 
2025-11-24 19:54:38.650,5.7810597,-8.362915,1.457229,-0.028328855,-1.3963605,-0.9360739,-23.1375,-6.2812505,-41.268753,-0.5139043,-0.15326898,-0.81952316,999.3298, , , , 
2025-11-24 19:54:38.670,5.938986,-9.178867,1.2729816,-0.25557056,-1.3792564,-0.7766382,-24.937502,-7.8375,-39.9,-0.52189165,-0.15660815,-0.8153733,999.3332, , , , 
2025-11-24 19:54:38.690,4.843073,-9.631111,1.18684,-0.5500074,-1.2473096,-0.45349073,-26.306252,-7.36875,-39.487503,-0.5354862,-0.157884,-0.8086001,999.3332, , , , 
2025-11-24 19:54:38.710,3.0029924,-9.238688,1.5529419,-0.76381004,-1.19111,0.20685409,-29.456251,-7.70625,-38.5125,-0.54636145,-0.15415406,-0.80330956,999.33685, , , , 
2025-11-24 19:54:38.730,1.969293,-8.372486,1.9190438,-0.7741948,-1.2210424,0.8055016,-29.643751,-7.8562503,-37.875,-0.5549805,-0.14837995,-0.7987774,999.33685, , , , 
2025-11-24 19:54:38.751,2.0865414,-6.9894347,2.8498518,-0.529238,-1.3413827,1.77922,-31.087502,-5.5125003,-38.006252,-0.5707578,-0.13424194,-0.7888243,999.3466, , , , 
2025-11-24 19:54:38.771,3.534199,-6.573084,3.1800613,-0.08391755,-1.3597087,2.3552656,-32.23125,-5.26875,-36.65625,-0.58407617,-0.12117394,-0.7781898,999.3466, , , , 
2025-11-24 19:54:38.791,5.845666,-6.754938,2.333002,0.44142616,-1.2234858,2.6429827,-32.775,-2.9437501,-37.2,-0.59927124,-0.10616951,-0.7623632,999.3571, , , , 
2025-11-24 19:54:38.811,7.0348988,-6.7525454,0.701097,0.66805696,-1.0530546,2.646648,-33.54375,-0.91875005,-36.318752,-0.6091933,-0.096204415,-0.7488837,999.3571, , , , 
2025-11-24 19:54:38.830,7.6139617,-7.2023964,-0.74895346,0.5318341,-0.84719306,2.578231,-34.893753,-0.31875002,-35.5875,-0.61732376,-0.086630695,-0.7356739,999.3564, , , , 
2025-11-24 19:54:38.851,7.594819,-7.4775705,-1.6606189,-0.10957387,-0.56924963,2.5873942,-34.2,1.7437501,-34.6875,-0.6245214,-0.07446299,-0.72333866,999.3564, , , , 
2025-11-24 19:54:38.870,7.8699937,-8.013563,-1.8257236,-0.96478456,-0.22227842,2.6796348,-34.3875,4.5750003,-33.45,-0.631335,-0.056471843,-0.71242094,999.35785, , , , 
2025-11-24 19:54:38.891,8.195417,-8.315059,-0.4331009,-1.8700862,0.117362395,2.7566037,-33.506252,5.90625,-34.537502,-0.63773113,-0.030684754,-0.7034165,999.35785, , , , 
2025-11-24 19:54:38.912,8.690732,-8.812766,1.7371893,-2.5285983,0.34765843,2.8848853,-35.006252,10.35,-32.175003,-0.64500904,0.01104923,-0.69385684,999.35297, , , , 
2025-11-24 19:54:38.930,9.08794,-9.18126,3.7184465,-2.7759986,0.55474156,3.0412667,-34.95,13.35,-33.581253,-0.64937097,0.049436368,-0.6864763,999.35297, , , , 
2025-11-24 19:54:38.951,9.6071825,-9.142975,5.2546387,-2.624504,0.5932261,3.2214718,-31.462502,16.81875,-34.443752,-0.6514364,0.08942832,-0.6787434,999.361, , , , 
2025-11-24 19:54:38.971,10.334601,-9.016156,5.9844494,-2.3080761,0.46860963,3.3864052,-30.562502,20.00625,-32.568752,-0.6516674,0.11877666,-0.67197603,999.361, , , , 
2025-11-24 19:54:38.990,11.91865,-8.683554,6.5539412,-1.744248,0.118584126,3.4493244,-27.393751,24.075,-32.8125,-0.6503821,0.1637975,-0.658163,999.3732, , , , 
2025-11-24 19:54:39.011,13.170095,-7.396215,6.869794,-1.1993567,-0.39209884,3.3485317,-28.500002,25.81875,-32.643753,-0.64950407,0.18666404,-0.6481252,999.3732, , , , 
2025-11-24 19:54:39.030,14.806787,-5.393422,5.8360944,-0.533514,-1.0182352,3.016832,-25.48125,28.593752,-30.337502,-0.6497268,0.2149118,-0.62839043,999.38324, , , , 
2025-11-24 19:54:39.050,16.302301,-3.7184465,4.7808595,-0.39668033,-0.9235512,2.6729152,-24.900002,30.018751,-30.487501,-0.6510484,0.23049514,-0.6116871,999.38324, , , , 
2025-11-24 19:54:39.070,17.06322,-1.9046868,3.735196,-0.63552845,-0.07506001,2.2165992,-23.75625,32.1375,-29.962502,-0.65063107,0.24772763,-0.59567547,999.38153, , , , 
2025-11-24 19:54:39.090,16.843079,-0.74177504,3.8141594,-0.9757801,0.76732254,1.8696281,-23.175001,32.0625,-30.31875,-0.6483052,0.25963986,-0.5905659,999.38153, , , , 
2025-11-24 19:54:39.110,16.630117,-0.22013968,4.0127635,-1.1718677,1.6439135,1.5061635,-18.88125,34.612503,-28.9125,-0.64030105,0.28306964,-0.5898656,999.38007, , , , 
2025-11-24 19:54:39.130,17.22593,-0.16749759,4.223332,-0.9916626,1.8302273,1.1707987,-17.925001,36.3375,-29.56875,-0.6309962,0.30201864,-0.59443074,999.38007, , , , 
2025-11-24 19:54:39.151,18.10649,-0.4331009,3.9864426,-0.5603921,1.3965132,0.61674434,-16.06875,36.881252,-28.556252,-0.6219286,0.3165575,-0.60065824,999.3874, , , , 
2025-11-24 19:54:39.170,18.218952,-1.253839,4.007978,-0.089415334,0.57245666,0.08773545,-15.731251,37.162502,-28.7625,-0.6161842,0.3231313,-0.6065073,999.3874, , , , 
2025-11-24 19:54:39.191,18.398413,-1.9381863,3.455236,0.3504073,-0.08727731,-0.4125628,-15.618751,37.4625,-31.725,-0.6148922,0.32084274,-0.6109097,999.3979,37.88748227,127.74030674,143.95782470703125,0.0
2025-11-24 19:54:39.211,18.78605,-3.4648073,2.457429,0.55504704,-0.31146467,-0.9195806,-15.525001,35.831253,-30.4125,-0.616925,0.3115631,-0.61500365,999.3979, , , , 
2025-11-24 19:54:39.231,18.228523,-5.204389,1.6486548,0.541608,-0.31146467,-1.3453534,-15.375001,36.7125,-29.400002,-0.6218157,0.29472104,-0.6215209,999.392, , , , 
2025-11-24 19:54:39.250,17.520247,-6.1040907,1.9310079,0.5141191,-0.39515316,-1.6917137,-16.7625,36.318752,-29.531252,-0.6268807,0.27928367,-0.62748635,999.392, , , , 
2025-11-24 19:54:39.271,15.921842,-6.1064835,3.0269206,0.71509355,-0.6388882,-2.0728934,-18.018751,35.081253,-30.73125,-0.6331206,0.26119506,-0.6335345,999.38934, , , , 
2025-11-24 19:54:39.291,14.91207,-6.5252275,3.330809,1.0602322,-0.8575778,-2.4375796,-20.56875,33.956253,-31.48125,-0.64017326,0.2386806,-0.6396146,999.38934, , , , 
2025-11-24 19:54:39.310,14.361721,-7.9393854,2.5818555,1.3827688,-0.94798577,-2.8486915,-22.59375,31.893751,-32.0625,-0.6473596,0.21118313,-0.64608884,999.3837, , , , 
2025-11-24 19:54:39.333,13.138989,-9.82493,1.6151553,1.5696934,-0.9913572,-3.190165,-27.2625,29.04375,-32.193752,-0.6558165,0.1712714,-0.6547285,999.3837, , , , 
2025-11-24 19:54:39.350,11.794223,-10.9375925,0.94755775,1.594128,-1.0817652,-3.2610252,-28.462502,27.54375,-31.2,-0.66056424,0.14577433,-0.659495,999.37836, , , , 
2025-11-24 19:54:39.371,10.150353,-11.073983,0.8255238,1.4853941,-1.2961787,-3.1144178,-30.750002,22.837502,-30.54375,-0.66863036,0.10348516,-0.6647795,999.37836, , , , 
2025-11-24 19:54:39.392,9.116654,-10.336994,1.052842,1.264261,-1.3939171,-2.8144832,-31.218752,20.306252,-32.5125,-0.67557293,0.07159302,-0.6659303,999.3669, , , , 
2025-11-24 19:54:39.410,8.7984085,-9.585648,1.4189439,1.0492367,-1.2638029,-2.6238933,-34.537502,18.46875,-31.743752,-0.6822278,0.042827904,-0.66546094,999.3669, , , , 
2025-11-24 19:54:39.432,8.5016985,-8.882157,1.8065811,0.8574251,-1.0377829,-2.5127158,-34.706253,15.468751,-31.406252,-0.6874971,0.01715227,-0.6651934,999.3632, , , , 
2025-11-24 19:54:39.450,7.834101,-8.516056,1.9812572,0.8293253,-0.94676405,-2.5017204,-36.693752,12.375001,-29.175001,-0.69147766,-0.0068489425,-0.66540015,999.3632, , , , 
2025-11-24 19:54:39.471,7.3627152,-8.178668,1.713261,0.84398603,-0.9614248,-2.5084398,-39.0,11.025001,-29.625002,-0.6946472,-0.03058744,-0.6654824,999.351, , , , 
2025-11-24 19:54:39.490,6.3696938,-7.618747,2.4263222,0.91851157,-1.0878738,-2.535318,-40.78125,8.1,-28.35,-0.69768745,-0.05462644,-0.6647113,999.351, , , , 
2025-11-24 19:54:39.510,5.568098,-7.422536,2.3904297,1.0492367,-1.1404082,-2.5047746,-38.925003,6.43125,-28.9125,-0.70045406,-0.0796051,-0.66290224,999.3476, , , , 
2025-11-24 19:54:39.530,4.9842496,-7.3603225,1.995614,1.1084905,-1.1055889,-2.390543,-40.237503,5.15625,-27.000002,-0.7027,-0.10487469,-0.66015834,999.3476, , , , 
2025-11-24 19:54:39.550,4.354937,-7.216753,1.6749759,1.0693952,-0.91255563,-2.1797945,-41.456253,2.04375,-26.081251,-0.704256,-0.13479105,-0.6563448,999.34686, , , , 
2025-11-24 19:54:39.572,3.9625144,-7.2526455,1.1629118,0.91667897,-0.57352567,-1.9311726,-39.862503,-0.15,-26.118752,-0.70395803,-0.15599647,-0.65413535,999.34686, , , , 
2025-11-24 19:54:39.590,3.4839497,-7.1186476,0.86141616,0.7267,-0.26870415,-1.6489531,-41.0625,-3.7875001,-24.243752,-0.70219684,-0.17379352,-0.6533922,999.3537, , , , 
2025-11-24 19:54:39.610,3.117848,-6.963114,0.35413775,0.50434524,-0.021914775,-1.3368012,-41.90625,-3.73125,-25.706251,-0.69941354,-0.18768322,-0.654043,999.3537, , , , 
2025-11-24 19:54:39.630,3.0532417,-6.6687965,-0.043070808,0.27160576,0.08743002,-1.0710751,-40.7625,-6.0937505,-25.837502,-0.69631284,-0.19749355,-0.65571547,999.3442, , , , 
2025-11-24 19:54:39.650,3.2709885,-6.6329045,-0.08135597,-0.021609342,0.06788235,-0.7754165,-41.456253,-7.2937503,-25.06875,-0.69383603,-0.20354645,-0.6576934,999.3442, , , , 
2025-11-24 19:54:39.670,3.6993039,-6.7764735,0.08135597,-0.22991423,-0.044516772,-0.5762746,-40.331253,-7.55625,-25.650002,-0.69271564,-0.20653617,-0.65918314,999.34467, , , , 
2025-11-24 19:54:39.690,4.1611185,-7.204789,0.567099,-0.37407833,-0.15630503,-0.41134107,-40.40625,-7.18125,-25.2,-0.6930582,-0.20723106,-0.6599147,999.34467, , , , 
2025-11-24 19:54:39.710,3.7423747,-7.499106,1.4620147,-0.39118254,-0.19906557,-0.12240203,-40.818752,-8.475,-25.237501,-0.6949688,-0.20552061,-0.6598415,999.3554, , , , 
2025-11-24 19:54:39.731,3.546163,-7.8077803,1.6486548,-0.28367034,-0.083612114,0.20441063,-39.5625,-8.212501,-26.60625,-0.696337,-0.20309597,-0.6594669,999.3554, , , , 
2025-11-24 19:54:39.751,4.048656,-9.332008,1.18684,-0.10224349,0.21143557,0.83299047,-41.381252,-7.6687503,-25.5375,-0.6978749,-0.19603294,-0.65896744,999.3632, , , , 
2025-11-24 19:54:39.773,4.642076,-9.899107,0.24885355,-0.045433067,0.50465065,1.5965714,-41.025,-8.231251,-26.925001,-0.6982778,-0.18312141,-0.65873104,999.3632, , , , 
2025-11-24 19:54:39.790,5.5776696,-10.336994,-0.5192425,-0.12789981,0.67508197,2.1799474,-40.03125,-4.03125,-27.112501,-0.6982571,-0.17149681,-0.6584838,999.36127, , , , 
2025-11-24 19:54:39.810,6.465407,-9.817751,-1.0025927,-0.393626,0.738001,2.8720572,-41.775,-4.5750003,-26.437502,-0.69853514,-0.14491847,-0.6571387,999.36127, , , , 
2025-11-24 19:54:39.830,7.0492554,-8.843872,-0.4642076,-0.61842424,0.69890565,3.287445,-39.600002,-1.85625,-27.281252,-0.6992344,-0.12487521,-0.65528595,999.3564, , , , 
2025-11-24 19:54:39.850,8.422736,-8.267202,0.8350951,-0.642248,0.65370166,3.6118143,-40.59375,2.6437502,-26.962502,-0.7006443,-0.08703992,-0.6501386,999.3564, , , , 
2025-11-24 19:54:39.870,10.729417,-8.008778,1.1102697,-0.35391977,0.5370265,3.6215882,-39.506252,5.0062504,-28.7625,-0.700768,-0.05639511,-0.64417,999.3603, , , , 
2025-11-24 19:54:39.891,12.01197,-8.018349,0.1268196,-0.028939718,0.3598757,3.175046,-37.36875,7.4625,-29.906252,-0.6998898,-0.029644342,-0.63684404,999.3603, , , , 
2025-11-24 19:54:39.910,11.186446,-7.8053875,-1.0600204,0.050472703,0.1503491,2.7902012,-38.268753,11.1,-28.931252,-0.6985832,-0.007923313,-0.62895054,999.37225, , , , 
2025-11-24 19:54:39.931,10.370493,-7.9704924,-1.5337993,-0.124234624,-0.09521855,2.6521459,-36.3375,13.181251,-31.25625,-0.6984445,0.010982581,-0.61981565,999.37225, , , , 
2025-11-24 19:54:39.950,9.796216,-7.733603,-0.9523434,-0.47120583,-0.46845692,2.7834818,-36.80625,16.96875,-28.331251,-0.7013297,0.03479406,-0.6050779,999.3747, , , , 
2025-11-24 19:54:39.970,10.581061,-7.140183,0.2009971,-0.6831759,-0.5576432,2.934976,-35.456253,17.1,-28.48125,-0.7054102,0.05560231,-0.5905478,999.3747, , , , 
2025-11-24 19:54:39.990,11.600404,-6.381658,1.174876,-0.7314342,-0.36216646,2.9514694,-35.006252,21.50625,-28.1625,-0.70891327,0.07775285,-0.5757023,999.3776, , , , 
2025-11-24 19:54:40.010,12.162718,-5.5465627,1.8161523,-0.61659163,0.073380135,2.7468297,-34.256252,22.44375,-26.60625,-0.70994645,0.099827915,-0.56326485,999.3776, , , , 
2025-11-24 19:54:40.030,12.416357,-5.139783,1.7922242,-0.43272135,0.58956087,2.4914885,-32.04375,24.656252,-26.962502,-0.7074247,0.12109844,-0.5550208,999.3786, , , , 
2025-11-24 19:54:40.050,12.057433,-4.496114,1.3591232,-0.2079231,1.0373248,2.200106,-30.937502,27.150002,-28.29375,-0.7015112,0.14118356,-0.5511332,999.3786, , , , 
2025-11-24 19:54:40.071,12.0023985,-3.8548372,0.5192425,-0.09735657,1.2468513,1.9930227,-28.931252,26.98125,-27.4125,-0.6931865,0.15992403,-0.55035895,999.38275, , , , 
2025-11-24 19:54:40.090,11.741581,-3.1489546,-0.10049855,-0.116293386,1.3305398,1.7217988,-27.6,29.00625,-30.300001,-0.6839056,0.1773084,-0.5514838,999.38275, , , , 
2025-11-24 19:54:40.110,11.710474,-2.833102,-0.60059845,-0.25251624,1.3427571,1.4139229,-25.650002,30.056252,-29.493752,-0.6727896,0.19704299,-0.55445194,999.3825, , , , 
2025-11-24 19:54:40.130,11.650654,-2.6679974,-0.96909314,-0.44310603,1.3531419,1.1726313,-25.312502,30.112501,-31.687502,-0.66689014,0.20809552,-0.55677855,999.3825, , , , 
2025-11-24 19:54:40.150,11.693725,-2.9886355,-0.72023964,-0.75342536,1.3354268,0.7859539,-21.91875,31.593752,-32.11875,-0.6589125,0.22586386,-0.56146836,999.3825, , , , 
2025-11-24 19:54:40.171,11.284552,-3.4767714,0.09092726,-0.8206205,1.1142937,0.58742285,-22.331251,32.643753,-29.831251,-0.6544308,0.2387051,-0.56548494,999.3825, , , , 
2025-11-24 19:54:40.191,11.397015,-3.9457645,0.715454,-0.73204505,0.7239511,0.46402815,-20.306252,31.743752,-30.6,-0.6517564,0.24920987,-0.56826645,999.38226,37.88747776,127.74029454,143.5457763671875,0.8
2025-11-24 19:54:40.210,12.045469,-4.438686,1.1653047,-0.5738311,0.36659524,0.34613127,-20.081251,34.36875,-30.000002,-0.65064937,0.25688398,-0.56953305,999.38226, , , , 
2025-11-24 19:54:40.230,12.784851,-4.9579287,1.2346965,-0.4143954,0.09598213,0.21235187,-21.056252,33.9,-30.0375,-0.65095824,0.26126802,-0.56967384,999.38544, , , , 
2025-11-24 19:54:40.250,13.5481615,-5.288138,1.1533405,-0.22991423,-0.16058108,0.008933897,-21.018751,34.893753,-28.85625,-0.6524831,0.26239595,-0.56920946,999.38544, , , , 
2025-11-24 19:54:40.270,14.718252,-6.1328044,0.701097,-0.2042579,-0.2778671,-0.2494619,-19.143751,35.34375,-29.85,-0.6558604,0.26016507,-0.5685312,999.3808, , , , 
2025-11-24 19:54:40.290,15.522241,-7.0325055,0.72023964,-0.2702313,-0.31146467,-0.6172025,-20.1,33.61875,-29.343752,-0.65991986,0.25604498,-0.56883126,999.3808, , , , 
2025-11-24 19:54:40.310,14.976677,-7.537391,1.39023,-0.26656613,-0.39209884,-0.9489021,-18.862501,34.612503,-30.000002,-0.6652038,0.24974956,-0.5701716,999.39056, , , , 
2025-11-24 19:54:40.330,14.431113,-7.975278,1.6582261,-0.18471023,-0.4709004,-1.0747402,-19.96875,35.625,-30.243752,-0.67106706,0.24149908,-0.5718703,999.39056, , , , 
2025-11-24 19:54:40.350,14.545969,-8.669196,2.1631117,-0.018555017,-0.33467755,-1.4614177,-22.3875,33.24375,-27.843752,-0.67684865,0.23147097,-0.57419956,999.3847, , , , 
2025-11-24 19:54:40.373,12.224931,-6.4462643,2.9958138,0.2673297,-0.15874848,-1.8688644,-23.94375,33.46875,-28.462502,-0.6824066,0.21462215,-0.5815327,999.3847, , , , 
2025-11-24 19:54:40.390,12.100504,-6.9822564,2.7613173,0.60147274,0.014126248,-2.26837,-25.29375,32.5875,-28.743752,-0.68511397,0.19746064,-0.5903014,999.3764, , , , 
2025-11-24 19:54:40.410,11.813365,-8.085348,2.0338993,0.8904118,0.12102758,-2.6593235,-25.275002,28.987501,-29.925001,-0.6862505,0.17647743,-0.60159254,999.3764, , , , 
2025-11-24 19:54:40.430,10.997413,-8.953942,1.1676974,1.0425171,0.14240785,-2.9213843,-26.475,30.862501,-30.993752,-0.6863298,0.15851831,-0.6110805,999.3715, , , , 
2025-11-24 19:54:40.450,9.245867,-9.590433,0.66759753,1.0950515,0.021456625,-3.046001,-30.13125,26.1,-27.862501,-0.68586046,0.12620942,-0.6268167,999.3715, , , , 
2025-11-24 19:54:40.471,7.2861447,-9.284152,0.6221339,1.0755038,-0.19967642,-2.9152758,-29.906252,23.925001,-32.4,-0.6856904,0.0998034,-0.63756794,999.37396, , , , 
2025-11-24 19:54:40.490,6.3625154,-8.693125,0.9762716,1.0370194,-0.45929396,-2.6306129,-30.468752,21.993752,-31.29375,-0.6863164,0.07423351,-0.6454001,999.37396, , , , 
2025-11-24 19:54:40.510,6.04427,-8.059027,1.4093726,1.0529019,-0.68531394,-2.381991,-32.775,19.275002,-30.900002,-0.68777,0.04987919,-0.65022916,999.38495, , , , 
2025-11-24 19:54:40.530,6.070591,-7.826923,1.753939,1.1274273,-0.8551343,-2.201175,-33.28125,18.112501,-32.175003,-0.68979055,0.026186323,-0.6526254,999.38495, , , , 
2025-11-24 19:54:40.550,5.907879,-7.5182486,1.7826529,1.2404373,-0.98341596,-2.0490696,-37.55625,13.1625,-29.118752,-0.6925597,-0.0033549976,-0.6530644,999.3835, , , , 
2025-11-24 19:54:40.570,5.7834525,-7.2358956,1.5553347,1.2893065,-1.0273982,-1.9256749,-37.03125,10.6125,-29.812502,-0.694659,-0.026850546,-0.6518851,999.3835, , , , 
2025-11-24 19:54:40.590,5.5298133,-6.977471,1.2610176,1.2648718,-1.0164026,-1.812054,-38.15625,10.2375,-28.593752,-0.6964991,-0.049692173,-0.649849,999.3835, , , , 
2025-11-24 19:54:40.610,5.352744,-6.7405815,1.0193424,1.1530837,-1.0115157,-1.6733876,-40.143753,6.4125004,-26.156252,-0.69813895,-0.07126885,-0.6472323,999.3835, , , , 
2025-11-24 19:54:40.631,5.601598,-6.8099732,1.0504491,1.0437388,-1.0622175,-1.6031382,-39.075,6.525,-26.8875,-0.6999944,-0.09137368,-0.64394295,999.3781, , , , 
2025-11-24 19:54:40.650,5.8193445,-6.9678993,1.1533405,0.9398918,-1.155069,-1.5530473,-40.800003,3.9750001,-25.0125,-0.7030313,-0.1151556,-0.6386665,999.3781, , , , 
2025-11-24 19:54:40.670,5.5369916,-6.7429743,1.3686945,0.8433752,-1.2442552,-1.5255585,-43.5,-0.15,-26.812502,-0.70601165,-0.13352118,-0.63354737,999.3759, , , , 
2025-11-24 19:54:40.690,5.2235317,-6.6305118,1.3543376,0.72059137,-1.2063816,-1.4516438,-42.112503,0.22500001,-25.893751,-0.7092378,-0.15106164,-0.6279606,999.3759, , , , 
2025-11-24 19:54:40.710,4.8287163,-6.367301,1.3615161,0.5306124,-0.94615316,-1.2775474,-43.18125,-1.8937501,-22.893751,-0.71199465,-0.16644181,-0.6229945,999.3735, , , , 
2025-11-24 19:54:40.730,4.948357,-6.424729,1.2969099,0.28870997,-0.4757873,-1.0637447,-42.300003,-4.05,-22.85625,-0.7134136,-0.17836605,-0.62001306,999.3735, , , , 
2025-11-24 19:54:40.750,5.345566,-6.800402,1.0959128,0.08773545,0.0025198173,-0.8902591,-45.112503,-4.0875,-22.10625,-0.71294624,-0.1864972,-0.6199004,999.372, , , , 
2025-11-24 19:54:40.771,5.515456,-7.0731835,0.72263247,-0.07658717,0.40324712,-0.7387646,-43.0125,-3.8812501,-21.712502,-0.7104574,-0.19097935,-0.6228591,999.372, , , , 
2025-11-24 19:54:40.790,5.5130634,-7.379465,0.30149564,-0.25679228,0.7899245,-0.53901184,-43.65,-4.93125,-22.81875,-0.70623153,-0.19192606,-0.62853694,999.37494, , , , 
2025-11-24 19:54:40.810,5.5633125,-7.769495,-0.09810573,-0.4718167,1.0971895,-0.20303617,-42.3375,-3.43125,-22.275002,-0.7009374,-0.18931071,-0.6360648,999.37494, , , , 
2025-11-24 19:54:40.830,5.9270215,-8.456235,-0.44506502,-0.5829941,1.2602904,0.0816268,-43.162502,-5.49375,-23.456251,-0.69522905,-0.18313545,-0.6444847,999.3786, , , , 
2025-11-24 19:54:40.850,5.804988,-9.047262,-0.65084773,-0.68500847,1.392848,0.5953641,-41.1375,-4.3875003,-26.362501,-0.6878642,-0.17013662,-0.6553216,999.3786, , , , 
2025-11-24 19:54:40.871,5.7020965,-9.408579,-0.65324056,-0.7259364,1.3494767,1.1995094,-41.25,-3.525,-27.468752,-0.68264383,-0.15511191,-0.66276747,999.3837, , , , 
2025-11-24 19:54:40.890,5.1996036,-8.946764,0.27996024,-0.7741948,1.3036618,2.0987022,-39.5625,-2.5875,-29.56875,-0.6787355,-0.13524549,-0.66782117,999.3837, , , , 
2025-11-24 19:54:40.910,6.1064835,-7.479964,0.80159557,-0.63369584,1.3452007,2.814025,-40.48125,0.056250002,-29.925001,-0.6750807,-0.11035703,-0.6706285,999.3813, , , , 
2025-11-24 19:54:40.931,9.805787,-7.5732837,0.5910272,-0.50480336,1.2132539,3.07181,-38.23125,3.15,-30.956251,-0.6700317,-0.07565798,-0.67079145,999.3813, , , , 
2025-11-24 19:54:40.950,12.047862,-7.2646093,0.64845496,-0.39057165,1.009225,2.7761514,-37.03125,4.5375004,-33.16875,-0.6671186,-0.055767853,-0.66945094,999.3891, , , , 
2025-11-24 19:54:40.970,12.052648,-7.350751,-0.20578274,-0.28489205,0.6879101,2.2471426,-37.912502,7.4437504,-32.775,-0.6628888,-0.028498806,-0.66609186,999.3891, , , , 
2025-11-24 19:54:40.990,10.789237,-7.379465,-0.9164511,-0.44432777,0.44356418,1.9618686,-35.79375,9.262501,-32.79375,-0.6611709,-0.0107322745,-0.6623391,999.3945, , , , 
2025-11-24 19:54:41.010,9.638289,-7.0899334,-1.079163,-0.7803034,0.3201695,1.8983387,-34.143753,12.31875,-33.91875,-0.6612638,0.006821375,-0.65766716,999.3945, , , , 
2025-11-24 19:54:41.030,9.013762,-6.515656,-0.4953143,-1.1694243,0.34643668,1.89223,-34.55625,12.618751,-31.25625,-0.6627421,0.026337793,-0.65243995,999.3925, , , , 
2025-11-24 19:54:41.050,8.556734,-5.9270215,0.61016977,-1.4650828,0.49304423,1.8317544,-34.256252,14.775001,-32.193752,-0.66451585,0.048032977,-0.6475546,999.3925, , , , 
2025-11-24 19:54:41.070,8.2145605,-5.503492,1.1796615,-1.5829797,0.7557161,1.7272965,-32.381252,17.34375,-34.3875,-0.6654513,0.07104583,-0.64379746,999.38495, , , , 
2025-11-24 19:54:41.090,7.795816,-5.465207,1.3830515,-1.6031382,1.081307,1.6594906,-30.056252,19.44375,-33.825,-0.66444737,0.0948231,-0.6420311,999.38495, , , , 
2025-11-24 19:54:41.110,7.300502,-5.302495,1.3351951,-1.549993,1.3268746,1.7034729,-29.98125,21.31875,-33.0,-0.65995765,0.12563102,-0.6422051,999.38226, , , , 
2025-11-24 19:54:41.130,7.331609,-5.1900325,1.1485549,-1.4589741,1.3586396,1.7822744,-29.362501,21.50625,-33.393753,-0.65603334,0.14442216,-0.6426117,999.38226, , , , 
2025-11-24 19:54:41.150,7.661818,-4.9603214,0.77766734,-1.355738,1.1924844,1.8396957,-26.2875,25.687502,-34.725002,-0.64868075,0.17521366,-0.6423778,999.3781, , , , 
2025-11-24 19:54:41.171,7.9513497,-4.752146,0.57906306,-1.3160318,0.968297,1.8128176,-24.018751,29.025002,-34.068752,-0.64337385,0.19853358,-0.64055717,999.3781, , , , 
2025-11-24 19:54:41.190,8.090134,-4.5487556,0.37567315,-1.3563489,0.679358,1.7682245,-23.60625,28.312502,-32.53125,-0.63947797,0.22035697,-0.636884,999.38226,37.88747068,127.74028339,143.335693359375,1.42
2025-11-24 19:54:41.210,8.575876,-4.584648,0.4235296,-1.4656937,0.5150354,1.7217988,-21.806252,30.093752,-31.125002,-0.63696855,0.24134833,-0.6315986,999.38226, , , , 
2025-11-24 19:54:41.230,9.097511,-4.814359,0.8111669,-1.5316671,0.41790786,1.6228386,-19.21875,32.625,-33.09375,-0.6355619,0.26181877,-0.6252527,999.384, , , , 
2025-11-24 19:54:41.251,9.745967,-5.0751767,1.2083755,-1.5493822,0.2700786,1.5214351,-19.556252,32.568752,-30.4125,-0.6350593,0.28129703,-0.61815554,999.384, , , , 
2025-11-24 19:54:41.270,10.734202,-5.4723854,1.2873386,-1.5823689,0.12713623,1.391321,-14.962501,34.050003,-33.0,-0.6354968,0.30388886,-0.6084917,999.3864, , , , 
2025-11-24 19:54:41.290,11.3683,-5.953343,1.227518,-1.6715552,0.111253746,1.2208896,-14.212501,37.10625,-32.79375,-0.6363904,0.31654692,-0.6025546,999.3864, , , , 
2025-11-24 19:54:41.310,12.131611,-6.9966135,1.5720844,-1.893299,0.08804089,0.99670225,-15.243751,38.943752,-27.375002,-0.63912493,0.3369228,-0.59258085,999.3864, , , , 
2025-11-24 19:54:41.330,12.315858,-7.2861447,2.7637103,-1.9195662,0.033063058,0.9007965,-14.1,38.7,-28.406252,-0.64222467,0.35270548,-0.584408,999.3864, , , , 
2025-11-24 19:54:41.350,12.576675,-7.1688967,4.0103707,-1.6966006,-0.12454005,0.75113463,-13.275001,40.875,-25.5375,-0.64552987,0.36687446,-0.5763714,999.38983, , , , 
2025-11-24 19:54:41.370,13.2610235,-7.405786,4.7042894,-1.3679553,-0.29619306,0.58864456,-12.356251,40.4625,-24.206251,-0.6490634,0.37779507,-0.56885964,999.38983, , , , 
2025-11-24 19:54:41.390,14.1009035,-7.429714,5.2259245,-0.8432225,-0.42325294,0.3644572,-12.262501,40.21875,-23.2875,-0.65267515,0.38425386,-0.56261426,999.39276, , , , 
2025-11-24 19:54:41.410,14.670396,-7.0468626,5.15414,-0.15538873,-0.37132943,-0.066813335,-11.512501,41.79375,-22.987501,-0.6564702,0.38519716,-0.55867857,999.39276, , , , 
2025-11-24 19:54:41.431,14.14876,-6.099305,5.245067,0.40538514,-0.18196134,-0.47242755,-14.493751,41.5875,-21.900002,-0.6584652,0.38027254,-0.5599793,999.39545, , , , 
2025-11-24 19:54:41.450,13.622339,-5.582455,4.6492543,0.9521091,-0.0035888306,-0.9244675,-14.55,40.59375,-22.59375,-0.65911204,0.37027037,-0.56582993,999.39545, , , , 
2025-11-24 19:54:41.470,13.3352,-5.895915,3.5557344,1.4200315,0.031230463,-1.5011238,-13.481251,41.456253,-23.7,-0.6591731,0.35497147,-0.5754244,999.3842, , , , 
2025-11-24 19:54:41.490,13.3352,-6.869794,2.7493532,1.7266856,-0.10682498,-2.0582325,-17.175001,38.98125,-24.862501,-0.6598469,0.3341606,-0.58728105,999.3842, , , , 
2025-11-24 19:54:41.510,13.232309,-8.305488,1.9405792,1.8818454,-0.36338818,-2.5811327,-16.931252,38.643753,-26.56875,-0.66211206,0.30776757,-0.59986264,999.3874, , , , 
2025-11-24 19:54:41.530,12.734602,-9.600004,1.6366907,1.9117777,-0.57352567,-3.018512,-19.893751,36.24375,-27.50625,-0.66633666,0.27680197,-0.6118459,999.3874, , , , 
2025-11-24 19:54:41.550,11.729616,-10.509277,1.7874385,1.8622977,-0.7225767,-3.3471572,-22.1625,34.3875,-27.31875,-0.67335284,0.2339644,-0.62534696,999.3874, , , , 
2025-11-24 19:54:41.570,10.370493,-10.729417,2.3042881,1.9081125,-0.7323505,-3.5353036,-25.893751,31.66875,-30.16875,-0.6790105,0.19775231,-0.63517565,999.3874, , , , 
2025-11-24 19:54:41.590,9.140582,-10.583454,2.5579274,2.0308964,-0.66576624,-3.5847836,-28.25625,28.687502,-29.906252,-0.68332386,0.16037211,-0.64462525,999.38666, , , , 
2025-11-24 19:54:41.610,7.8149586,-10.301102,2.4239295,2.253251,-0.5442042,-3.5236971,-31.331251,25.125002,-29.23125,-0.6854768,0.12214302,-0.6538527,999.38666, , , , 
2025-11-24 19:54:41.631,6.687939,-9.674182,1.6271194,2.410854,-0.3835467,-3.3013422,-31.85625,22.462502,-30.4125,-0.6846595,0.07434332,-0.66472507,999.3798, , , , 
2025-11-24 19:54:41.650,6.087341,-9.030513,0.89730847,2.3827543,-0.27236933,-3.0661595,-33.05625,19.25625,-32.268753,-0.6825248,0.04672368,-0.6706339,999.3798, , , , 
2025-11-24 19:54:41.670,5.7547383,-8.360522,0.2943172,2.2459207,-0.119653136,-2.774777,-32.662502,15.431251,-32.23125,-0.6783214,0.012282875,-0.6776686,999.3803, , , , 
2025-11-24 19:54:41.690,5.989235,-7.905886,-0.30149564,1.9924119,0.031230463,-2.5011096,-35.081253,10.481251,-34.48125,-0.67139184,-0.026019907,-0.6855282,999.3803, , , , 
2025-11-24 19:54:41.710,5.8624153,-7.537391,-0.35413775,1.7437899,0.036728244,-2.3343434,-37.518753,8.1,-31.781252,-0.66536105,-0.053036977,-0.69113874,999.3742, , , , 
2025-11-24 19:54:41.731,5.6350975,-7.355537,-0.3182454,1.5501457,-0.057344932,-2.1950662,-37.2,8.137501,-32.41875,-0.66120124,-0.07162463,-0.69458896,999.3742, , , , 
2025-11-24 19:54:41.750,5.2163534,-7.109076,-0.17467605,1.2911391,-0.21067199,-1.9769875,-37.7625,2.4750001,-31.893751,-0.65559894,-0.09975586,-0.698526,999.3703, , , , 
2025-11-24 19:54:41.770,4.948357,-6.920043,0.014356935,1.137812,-0.3163516,-1.8059454,-37.800003,2.23125,-32.9625,-0.6524313,-0.119760275,-0.70009285,999.3703, , , , 
2025-11-24 19:54:41.790,4.8382874,-6.8075805,0.21535404,0.97776544,-0.3890445,-1.608636,-38.081253,-1.9125,-31.612501,-0.6503451,-0.13758494,-0.7004388,999.3691, , , , 
2025-11-24 19:54:41.810,4.7712884,-6.606583,0.2440679,0.7896191,-0.3652208,-1.3960551,-36.393753,-3.0,-30.7875,-0.6489159,-0.15314499,-0.70009995,999.3691, , , , 
2025-11-24 19:54:41.831,4.9603214,-6.771688,-0.11006984,0.5629883,-0.2680933,-1.251891,-36.956253,-5.15625,-31.85625,-0.6476896,-0.16620539,-0.6997736,999.37225, , , , 
2025-11-24 19:54:41.850,4.9531426,-7.204789,-0.5455636,0.20013458,-0.10560325,-1.0900118,-36.862503,-6.0375004,-30.4125,-0.6462777,-0.17832468,-0.700225,999.37225, , , , 
2025-11-24 19:54:41.870,4.6731825,-7.5062847,-0.7680961,-0.13767365,0.031841327,-0.8792635,-36.99375,-6.6562505,-31.143751,-0.6455015,-0.18272063,-0.701236,999.3686, , , , 
2025-11-24 19:54:41.890,4.1874394,-7.6666036,-0.7513463,-0.6428588,0.31406087,-0.42111492,-37.425003,-5.2125,-31.181252,-0.64446974,-0.183762,-0.7042883,999.3686, , , , 
2025-11-24 19:54:41.910,3.9696927,-7.652247,-0.3182454,-0.92507833,0.4918225,0.00160352,-37.3125,-6.9375005,-32.175003,-0.64365,-0.17816675,-0.70802885,999.36127, , , , 
2025-11-24 19:54:41.930,4.831109,-8.226524,-0.019142581,-1.10284,0.58467394,0.4909062,-37.03125,-5.4375,-30.750002,-0.64304334,-0.16728246,-0.71210957,999.36127, , , , 
2025-11-24 19:54:41.950,5.4723854,-8.446664,0.20338993,-1.1584287,0.59200436,1.0516801,-34.29375,-4.4812503,-35.25,-0.64298785,-0.15223682,-0.71552294,999.3654, , , , 
2025-11-24 19:54:41.970,6.3457656,-8.630911,0.14596218,-1.1132247,0.48632473,1.4957788,-34.03125,-3.73125,-33.018753,-0.64369136,-0.13413715,-0.7174972,999.3654, , , , 
2025-11-24 19:54:41.991,7.1306114,-8.841479,-0.2440679,-1.0777946,0.28473935,1.9814162,-36.75,-1.2750001,-33.018753,-0.64618886,-0.10867377,-0.7169464,999.3676, , , , 
2025-11-24 19:54:42.010,7.1545396,-8.389236,-0.124426775,-1.1297181,0.07765619,2.335718,-35.68125,0.975,-35.268753,-0.6496593,-0.086111255,-0.7138458,999.3676, , , , 
2025-11-24 19:54:42.031,7.7623167,-8.106883,0.34456646,-1.1401027,-0.13309216,2.55624,-35.9625,2.5500002,-33.787502,-0.654538,-0.06183094,-0.70820206,999.3698, , , , 
2025-11-24 19:54:42.050,9.205189,-8.262417,0.5886344,-1.0826814,-0.29924738,2.678413,-35.850002,5.925,-34.612503,-0.6603188,-0.037049774,-0.70027435,999.3698, , , , 
2025-11-24 19:54:42.070,10.006784,-8.606983,0.5694918,-1.0222058,-0.33040148,2.6887977,-35.475002,6.3375,-34.66875,-0.6660807,-0.012665863,-0.6909759,999.37494, , , , 
2025-11-24 19:54:42.091,10.609776,-9.317652,0.52163535,-0.9605085,-0.33895358,2.7022367,-36.1875,10.33125,-31.425001,-0.67235786,0.01709826,-0.67840606,999.37494, , , , 
2025-11-24 19:54:42.110,10.332209,-9.267402,1.0671989,-0.88231784,-0.34017533,2.864116,-33.693752,13.837501,-32.8125,-0.6766315,0.040867075,-0.6674596,999.37933, , , , 
2025-11-24 19:54:42.130,10.183853,-8.408379,1.8329022,-0.7253256,-0.32429284,3.0430992,-34.48125,13.63125,-31.781252,-0.67901874,0.058910362,-0.6587416,999.37933, , , , 
2025-11-24 19:54:42.150,10.554741,-6.597012,2.6416762,-0.2543488,-0.40248352,3.147557,-33.506252,18.5625,-30.7875,-0.680908,0.0877553,-0.6432677,999.3698, , , , 
2025-11-24 19:54:42.170,10.872986,-5.206782,2.3282163,0.067576915,-0.3701077,2.9868996,-34.331253,20.98125,-30.993752,-0.6805674,0.10730962,-0.630489,999.3698, , , , 
2025-11-24 19:54:42.190,10.755738,-4.0127635,1.2179468,0.1494328,-0.08239039,2.6228242,-32.2125,21.431252,-30.150002,-0.67839223,0.123500966,-0.6193667,999.3671,37.88746416,127.74027086,143.560546875,1.27
2025-11-24 19:54:42.210,9.966106,-3.101098,-0.09092726,-0.19020802,0.5132028,2.2782965,-30.975,23.8125,-31.81875,-0.6742595,0.13903308,-0.6117334,999.3671, , , , 
2025-11-24 19:54:42.230,9.585648,-2.9240294,-0.0023928226,-0.58482665,0.97990346,2.0791547,-29.19375,25.987501,-32.5875,-0.6686474,0.15706125,-0.60770965,999.35956, , , , 
2025-11-24 19:54:42.250,9.375079,-3.0412776,0.634098,-0.9098067,1.1833215,1.8262566,-25.9125,26.962502,-32.98125,-0.6604757,0.18264462,-0.60617745,999.35956, , , , 
2025-11-24 19:54:42.270,9.19801,-2.9958138,0.9619147,-0.96173024,0.9346995,1.6374995,-26.681252,28.368752,-31.9125,-0.6546582,0.20259559,-0.6051803,999.36444, , , , 
2025-11-24 19:54:42.291,9.224331,-3.0819557,0.8279166,-1.0136538,0.56756973,1.5165482,-23.737501,29.156252,-32.268753,-0.6517608,0.2160121,-0.6032704,999.36444, , , , 
2025-11-24 19:54:42.310,9.815358,-3.4767714,1.1940185,-1.2127956,0.12286018,1.4065925,-23.19375,31.837502,-32.006252,-0.6504239,0.23606059,-0.5970833,999.36053, , , , 
2025-11-24 19:54:42.330,10.707881,-3.67059,2.1631117,-1.3080906,-0.042073313,1.3992622,-21.6375,31.612501,-31.5375,-0.6519046,0.2511821,-0.5897668,999.36053, , , , 
2025-11-24 19:54:42.350,12.134004,-3.7543387,3.629912,-1.2121848,-0.14347686,1.3119085,-20.1375,33.881252,-32.1375,-0.654152,0.26544592,-0.5816324,999.3642, , , , 
2025-11-24 19:54:42.370,13.672588,-3.6993039,4.1180477,-0.9434043,-0.120264,1.060843,-18.35625,35.775,-28.575,-0.6560568,0.27739263,-0.57432735,999.3642, , , , 
2025-11-24 19:54:42.390,14.955141,-4.113262,4.098905,-0.60620695,0.111253746,0.5923098,-17.53125,35.49375,-28.95,-0.6572686,0.28739488,-0.56902087,999.36835, , , , 
2025-11-24 19:54:42.410,15.364314,-4.5535417,3.6203406,-0.3276526,0.3598757,0.14332415,-17.8125,36.206253,-29.118752,-0.65688807,0.29131487,-0.5693157,999.36835, , , , 
2025-11-24 19:54:42.430,15.436099,-5.046463,3.0604203,-0.15477787,0.5180897,-0.2616792,-16.3875,36.84375,-27.900002,-0.65601486,0.2920628,-0.5720502,999.36957, , , , 
2025-11-24 19:54:42.450,15.062819,-5.7690954,2.9336007,0.009544762,0.48571387,-0.6972258,-17.118752,36.787502,-29.212502,-0.6546354,0.28913066,-0.5799335,999.36957, , , , 
2025-11-24 19:54:42.470,14.854643,-7.379465,3.0556345,0.30581418,0.19310963,-1.2763256,-21.0,35.11875,-26.7,-0.655146,0.2796118,-0.5894621,999.3625, , , , 
2025-11-24 19:54:42.491,14.323437,-8.4682,2.8809586,0.55810136,0.10025818,-1.576871,-19.050001,36.581253,-29.625002,-0.6565557,0.2672576,-0.59783113,999.3625, , , , 
2025-11-24 19:54:42.510,13.981263,-9.516255,2.4119651,0.7114284,0.05383246,-1.7821217,-21.0,34.162502,-30.056252,-0.65763056,0.25595024,-0.6046131,999.36444, , , , 
2025-11-24 19:54:42.531,12.713067,-9.516255,2.3688943,0.84826213,0.0049632764,-1.8847469,-21.54375,33.7125,-29.5125,-0.65904677,0.23909089,-0.6138588,999.36444, , , , 
2025-11-24 19:54:42.550,10.889736,-7.8987074,3.0053852,1.1280382,-0.066507906,-1.9140685,-22.95,31.087502,-28.893751,-0.6601078,0.21594962,-0.62524146,999.3564, , , , 
2025-11-24 19:54:42.570,10.183853,-6.867401,2.9862428,1.5079961,-0.142866,-2.0606759,-23.737501,30.768751,-30.337502,-0.659993,0.19483179,-0.63434345,999.3564, , , , 
2025-11-24 19:54:42.590,10.013963,-7.219146,2.2755744,1.7896048,-0.27420193,-2.273257,-25.462502,28.612501,-31.425001,-0.65915453,0.1701426,-0.6437379,999.35394, , , , 
2025-11-24 19:54:42.610,9.80818,-8.166703,0.91405827,1.9588143,-0.5796343,-2.5359287,-25.44375,24.900002,-34.162502,-0.6587048,0.14175655,-0.65232533,999.35394, , , , 
2025-11-24 19:54:42.630,9.274581,-8.865408,0.043070808,1.8775692,-0.8190933,-2.69231,-27.675001,25.5375,-32.86875,-0.6597352,0.11080536,-0.65897065,999.3527, , , , 
2025-11-24 19:54:42.650,7.776674,-9.396614,-0.37567315,1.4982222,-0.99685496,-2.679482,-30.956251,20.1,-33.45,-0.66322756,0.0722053,-0.6642376,999.3527, , , , 
2025-11-24 19:54:42.670,6.946364,-9.178867,-0.19860429,1.1714096,-0.99013543,-2.503553,-32.23125,16.743752,-33.600002,-0.6660434,0.0510826,-0.6659892,999.34955, , , , 
2025-11-24 19:54:42.690,5.7667027,-8.128419,0.701097,0.78473216,-0.92721635,-2.327013,-34.875,16.06875,-31.743752,-0.67114013,0.020571329,-0.66760975,999.34955, , , , 
2025-11-24 19:54:42.710,4.2927237,-7.5230346,1.847259,0.6802743,-0.7781654,-1.8969642,-34.537502,14.64375,-34.162502,-0.67471063,1.09512635E-4,-0.6683214,999.35077, , , , 
2025-11-24 19:54:42.730,4.6612186,-7.233503,2.0745773,0.68271774,-0.553978,-1.5218933,-35.5875,12.525001,-32.53125,-0.6766337,-0.016411629,-0.66883385,999.35077, , , , 
2025-11-24 19:54:42.751,4.9435716,-6.4558353,1.713261,0.6607266,-0.2314414,-1.143768,-35.5875,10.40625,-31.181252,-0.6765216,-0.029833676,-0.67004454,999.352, , , , 
2025-11-24 19:54:42.770,4.2520456,-6.556334,0.95712906,0.64789844,-0.28397575,-1.0832924,-35.325,7.8375,-34.3125,-0.6755208,-0.041351173,-0.671479,999.352, , , , 
2025-11-24 19:54:42.790,4.9028935,-5.649454,0.64606214,0.5617665,-0.6010146,-0.91163933,-37.518753,8.1,-31.781252,-0.6757631,-0.052184522,-0.67136455,999.3498, , , , 
2025-11-24 19:54:42.810,3.9673,-6.0514483,0.94277215,0.58864456,-0.8227585,-0.98249966,-39.112503,6.6937504,-32.1375,-0.67848706,-0.066141956,-0.6686598,999.3498, , , , 
2025-11-24 19:54:42.830,4.4721856,-6.0490556,0.9906286,0.60513794,-0.9828051,-0.8872047,-38.081253,5.175,-32.625,-0.68108106,-0.07494875,-0.6657849,999.3625, , , , 
2025-11-24 19:54:42.850,4.469793,-6.1495543,0.95473623,0.70165455,-0.95898134,-0.76747525,-39.206253,5.6625004,-29.456251,-0.6857884,-0.089503355,-0.6597615,999.3625, , , , 
2025-11-24 19:54:42.870,4.4817567,-6.302695,0.46181476,0.7297543,-0.76778066,-0.6294198,-39.3375,4.3875003,-28.44375,-0.68869424,-0.10044394,-0.65501314,999.36835, , , , 
2025-11-24 19:54:42.890,4.948357,-6.5276203,-0.033499517,0.5745947,-0.5307651,-0.53779006,-38.456253,2.86875,-29.362501,-0.6905549,-0.10963431,-0.6511866,999.36835, , , , 
2025-11-24 19:54:42.910,5.1182475,-7.01097,-0.3900301,0.40905032,-0.34139705,-0.48769918,-40.912502,1.63125,-29.19375,-0.6916423,-0.11686626,-0.6485304,999.3703, , , , 
2025-11-24 19:54:42.930,4.9459643,-7.702496,-0.80159557,0.18303037,-0.109268434,-0.416228,-39.768753,1.5937501,-27.000002,-0.6921035,-0.12184479,-0.64718366,999.3703, , , , 
2025-11-24 19:54:42.950,4.752146,-8.776874,-1.3280165,-0.21097742,0.30184355,-0.19814926,-39.5625,1.7625,-29.04375,-0.6916338,-0.123085074,-0.6478517,999.3703, , , , 
2025-11-24 19:54:42.971,4.517649,-9.934999,-1.1174482,-0.72227126,1.0153337,0.22273657,-40.256252,1.4250001,-27.093752,-0.68927866,-0.116528645,-0.6522466,999.3703, , , , 
2025-11-24 19:54:42.991,5.556134,-10.992627,-0.6723832,-1.1327723,1.3983458,0.6271291,-38.643753,0.375,-31.368752,-0.68508506,-0.10311308,-0.65926176,999.3703, , , , 
2025-11-24 19:54:43.010,5.8935223,-13.191631,-0.6412765,-1.6031382,1.6652937,0.9386701,-39.675003,2.625,-29.38125,-0.68008244,-0.08352933,-0.6676203,999.3703, , , , 
2025-11-24 19:54:43.030,5.6207404,-13.55534,0.5072784,-1.9947026,1.6830088,1.1744639,-36.45,5.34375,-31.725,-0.6753214,-0.058209874,-0.6760064,999.36835, , , , 
2025-11-24 19:54:43.050,4.8287163,-14.110476,1.3567305,-2.1125994,1.4575998,1.3491713,-36.525,8.56875,-32.68125,-0.6711152,-0.030137442,-0.6832184,999.36835, , , , 
2025-11-24 19:54:43.070,3.4408789,-13.328022,2.617748,-2.0166936,1.262123,1.752342,-35.775,9.28125,-33.881252,-0.6678117,-7.273863E-4,-0.6878604,999.3757, , , , 
2025-11-24 19:54:43.090,1.6271194,-10.514063,3.0675986,-1.7528001,1.0739766,2.4780493,-34.987503,13.106251,-35.268753,-0.6634921,0.03784745,-0.6896346,999.3757, , , , 
2025-11-24 19:54:43.110,3.546163,-10.281959,2.361716,-1.6324598,1.0898591,3.0266058,-31.5375,15.056251,-32.943752,-0.65917283,0.071012475,-0.68765193,999.383, , , , 
2025-11-24 19:54:43.131,6.250053,-10.727024,2.2372892,-1.6452879,1.1613303,3.3656359,-31.1625,16.85625,-34.800003,-0.65334386,0.106629774,-0.6838408,999.383, , , , 
2025-11-24 19:54:43.150,8.63809,-10.887343,3.141776,-1.4522547,1.045266,3.5580583,-27.431252,21.581251,-33.75,-0.6461452,0.1430509,-0.6784253,999.3886, , , , 
2025-11-24 19:54:43.170,10.755738,-10.030712,3.5724843,-0.88353956,0.5577959,3.62281,-26.025002,24.225,-34.050003,-0.6382771,0.17661536,-0.67082447,999.3886, , , , 
2025-11-24 19:54:43.191,12.263216,-8.554341,3.1657043,-0.43455392,-0.045127634,3.5629451,-24.375002,27.993752,-34.29375,-0.631393,0.20448017,-0.66007787,999.3842,37.88745464,127.74025494,143.5860595703125,1.9
2025-11-24 19:54:43.210,13.806586,-7.140183,3.0197423,-0.17921245,-0.47151124,3.2214718,-22.275002,27.468752,-35.25,-0.62659806,0.22627692,-0.64652574,999.3842, , , , 
2025-11-24 19:54:43.231,14.091332,-6.4175506,3.17049,-0.06253728,-0.55336714,2.8024185,-21.825,29.868752,-32.9625,-0.62278867,0.2458482,-0.6293502,999.3881, , , , 
2025-11-24 19:54:43.250,14.053047,-5.4891353,3.034099,-0.013057235,-0.021303909,2.253862,-20.625,32.2125,-32.1375,-0.6189498,0.25819576,-0.6187179,999.3881, , , , 
2025-11-24 19:54:43.270,13.325629,-4.5655055,2.4119651,-0.16760603,0.75266176,1.9258276,-18.712502,31.5375,-31.987501,-0.61256003,0.27061284,-0.61289406,999.39325, , , , 
2025-11-24 19:54:43.291,12.339787,-3.574877,1.9453648,-0.41378453,1.47898,1.7187444,-18.150002,32.737503,-33.825,-0.6054758,0.2817708,-0.61203736,999.39325, , , , 
2025-11-24 19:54:43.310,11.492727,-2.536392,1.8783658,-0.76381004,1.9914955,1.427362,-13.9875,33.675003,-35.23125,-0.590618,0.30433458,-0.61536175,999.3886, , , , 
2025-11-24 19:54:43.331,11.157732,-2.201397,2.696711,-0.7858012,1.7807472,1.1793509,-12.3,34.8375,-34.55625,-0.5787382,0.32298794,-0.6195373,999.3886, , , , 
2025-11-24 19:54:43.350,10.693524,-1.9381863,3.022135,-0.5671116,1.0519855,0.8696424,-10.181251,34.537502,-33.525,-0.56974936,0.33750382,-0.6224724,999.3891, , , , 
2025-11-24 19:54:43.371,10.700703,-1.8568304,2.9862428,-0.4174497,0.5009855,0.6252965,-8.19375,34.875,-33.9,-0.56453764,0.3467418,-0.62344027,999.3891, , , , 
2025-11-24 19:54:43.390,10.978271,-1.902294,2.9168508,-0.37652177,0.17783801,0.37728536,-6.5062504,35.0625,-36.2625,-0.5624871,0.35197926,-0.62315273,999.393, , , , 
2025-11-24 19:54:43.410,11.533405,-2.4598217,3.2853456,-0.42905614,0.084375694,0.05535962,-6.7125,37.03125,-35.268753,-0.56313807,0.35515854,-0.62253535,999.393, , , , 
2025-11-24 19:54:43.431,11.887543,-3.2087753,3.7184465,-0.4559342,0.055054188,-0.20731224,-5.775,37.36875,-35.23125,-0.5652799,0.35587847,-0.62295854,999.3945, , , , 
2025-11-24 19:54:43.450,12.421143,-4.4721856,4.331009,-0.4229475,-0.0041996953,-0.5316814,-8.38125,38.456253,-32.23125,-0.568613,0.3548308,-0.62432903,999.3945, , , , 
2025-11-24 19:54:43.470,13.016955,-5.8193445,5.032106,-0.2286925,-0.16852233,-0.83528125,-8.64375,37.068752,-33.206253,-0.57290787,0.35137984,-0.6266371,999.39764, , , , 
2025-11-24 19:54:43.491,13.445271,-6.690332,5.54417,0.082848534,-0.40248352,-1.1352159,-7.6125,37.800003,-33.525,-0.5782596,0.34429425,-0.6297031,999.39764, , , , 
2025-11-24 19:54:43.510,14.127225,-7.793423,5.460421,0.48663014,-0.63705564,-1.5151737,-9.075001,36.393753,-33.43125,-0.5862827,0.3288406,-0.63484925,999.4001, , , , 
2025-11-24 19:54:43.532,14.790037,-8.958728,4.881358,0.73403037,-0.7549525,-1.8383212,-10.6875,37.10625,-33.300003,-0.5917169,0.31600514,-0.6387186,999.4001, , , , 
2025-11-24 19:54:43.550,14.828321,-10.444671,4.2855453,0.9405027,-0.7207441,-2.1602468,-11.981251,36.46875,-33.300003,-0.60130674,0.29008842,-0.646492,999.3979, , , , 
2025-11-24 19:54:43.570,13.55534,-10.506885,4.1587257,1.1036036,-0.71463543,-2.2830307,-14.85,33.9375,-32.850002,-0.60825706,0.2670762,-0.6536981,999.3979, , , , 
2025-11-24 19:54:43.590,11.648261,-9.305687,4.584648,1.4139229,-0.73296136,-2.2750895,-15.262501,31.687502,-35.925003,-0.614097,0.24249326,-0.660995,999.3942, , , , 
2025-11-24 19:54:43.610,10.3848505,-8.372486,4.23051,1.8659629,-0.806876,-2.2885284,-20.775002,30.375002,-36.506252,-0.6183166,0.21549504,-0.6682745,999.3942, , , , 
2025-11-24 19:54:43.630,9.542577,-8.288737,3.290131,2.1029785,-0.91011214,-2.3477824,-20.962502,28.10625,-35.268753,-0.6213102,0.18568183,-0.67526525,999.3962, , , , 
2025-11-24 19:54:43.650,8.513663,-8.508878,1.6845472,2.113363,-1.0939825,-2.3911538,-24.0375,25.06875,-37.55625,-0.6249851,0.1460352,-0.6823067,999.3962, , , , 
2025-11-24 19:54:43.670,7.8317084,-8.855837,0.8781659,1.8946735,-1.2057707,-2.300135,-25.462502,22.425001,-36.318752,-0.62881994,0.114739515,-0.68564117,999.3913, , , , 
2025-11-24 19:54:43.690,7.4249287,-8.829515,0.65084773,1.6521602,-1.3865867,-2.1242058,-26.681252,20.8125,-35.9625,-0.6323373,0.09277431,-0.68660736,999.3913, , , , 
2025-11-24 19:54:43.710,7.2095747,-8.583055,0.83030945,1.3259584,-1.597335,-1.893299,-28.312502,18.4125,-36.881252,-0.6403227,0.059197865,-0.68457115,999.38934, , , , 
2025-11-24 19:54:43.730,7.1688967,-8.181061,1.2203395,1.0351868,-1.6003894,-1.7570761,-32.53125,13.6125,-35.23125,-0.6479538,0.03535324,-0.68074685,999.38934, , , , 
2025-11-24 19:54:43.750,7.1377897,-7.692925,1.9214365,0.7767909,-1.4342341,-1.7405828,-31.5375,13.462501,-35.325,-0.6554651,0.013984833,-0.6766237,999.39545, , , , 
2025-11-24 19:54:43.770,6.721439,-7.4536424,2.3425734,0.61491174,-1.2442552,-1.8181627,-32.9625,12.937501,-35.15625,-0.6620543,-0.0056669163,-0.67339885,999.39545, , , , 
2025-11-24 19:54:43.790,6.2668023,-7.4273214,2.4622145,0.43409577,-1.0787108,-1.8535929,-35.11875,9.712501,-33.206253,-0.66875666,-0.0284297,-0.6709607,999.3945, , , , 
2025-11-24 19:54:43.810,5.7690954,-7.298109,2.5627131,0.28565565,-0.9204969,-1.802891,-36.46875,8.83125,-32.381252,-0.67330545,-0.04491689,-0.6697363,999.3945, , , , 
2025-11-24 19:54:43.830,5.2977095,-7.4919276,2.725425,0.14026983,-0.75067645,-1.7185917,-36.54375,7.8187504,-31.85625,-0.6760752,-0.055997126,-0.6693807,999.4023, , , , 
2025-11-24 19:54:43.850,5.3216376,-7.475178,3.2470603,0.1268308,-0.6627119,-1.6013056,-38.643753,6.9750004,-30.206251,-0.6797499,-0.07209102,-0.669359,999.4023, , , , 
2025-11-24 19:54:43.870,5.0847483,-7.479964,3.4337006,0.24350597,-0.55153453,-1.5121194,-39.487503,4.275,-29.962502,-0.681607,-0.08412326,-0.6696596,999.403, , , , 
2025-11-24 19:54:43.890,4.752146,-7.5756764,3.0412776,0.36567894,-0.5112175,-1.3930007,-38.49375,3.3750002,-29.85,-0.6825719,-0.096085615,-0.66994715,999.403, , , , 
2025-11-24 19:54:43.910,4.692325,-7.6426754,2.5627131,0.43470666,-0.4794525,-1.2463932,-38.625,3.4875002,-30.000002,-0.68315494,-0.10764297,-0.66981894,999.40326, , , , 
2025-11-24 19:54:43.931,4.658826,-7.611569,2.105684,0.43715012,-0.35422522,-1.0857358,-40.40625,1.9312501,-29.41875,-0.68343645,-0.11833155,-0.66938525,999.40326, , , , 
2025-11-24 19:54:43.950,4.517649,-7.9011,1.6606189,0.3748419,-0.05978839,-0.908585,-40.518753,-0.71250004,-28.48125,-0.68239206,-0.12926812,-0.66987306,999.39935, , , , 
2025-11-24 19:54:43.970,4.615755,-8.403593,1.038485,0.302149,0.16195552,-0.72899073,-40.6875,-1.5937501,-29.19375,-0.68019485,-0.13559288,-0.67155355,999.39935, , , , 
2025-11-24 19:54:43.990,4.7210393,-8.678768,0.33738798,0.059635673,0.32994333,-0.5151881,-39.9,-0.63750005,-29.325,-0.67747116,-0.1391544,-0.67403156,999.3945, , , , 
2025-11-24 19:54:44.010,4.8191447,-8.523234,-0.009571291,-0.2775617,0.44906196,-0.24579671,-39.43125,-2.7,-29.868752,-0.6748551,-0.13891375,-0.67724735,999.3945, , , , 
2025-11-24 19:54:44.031,5.386244,-8.683554,0.19142582,-0.43027788,0.4570032,-0.083306685,-38.7,-2.0062501,-29.681252,-0.67281604,-0.13540182,-0.68057775,999.39056, , , , 
2025-11-24 19:54:44.050,5.613562,-9.573684,-0.94277215,-0.6300307,0.4570032,0.06818778,-40.256252,-1.66875,-29.081251,-0.6713927,-0.12974158,-0.68368006,999.39056, , , , 
2025-11-24 19:54:44.070,5.4317074,-10.408778,-1.8999012,-0.9482912,0.52603096,0.23128867,-37.350002,-1.85625,-30.6,-0.6708046,-0.121537514,-0.68648994,999.38544, , , , 
2025-11-24 19:54:44.090,4.6492543,-11.564512,-2.3808584,-1.4467568,0.6946296,0.52450377,-37.0125,-0.31875002,-31.500002,-0.67077124,-0.10921775,-0.68971056,999.38544, , , , 
2025-11-24 19:54:44.110,2.8426733,-11.155339,-1.0193424,-1.9549963,0.8229112,1.2673154,-38.41875,0.76875,-30.806252,-0.6711973,-0.084157944,-0.6942724,999.38763, , , , 
2025-11-24 19:54:44.131,2.2325034,-9.887143,0.8446664,-1.974544,0.6756928,2.113363,-36.956253,3.6562502,-30.956251,-0.67213595,-0.056486543,-0.6961181,999.38763, , , , 
2025-11-24 19:54:44.150,3.7974095,-9.415757,1.7300107,-1.7503567,0.498542,2.7309473,-36.43125,3.9750001,-32.11875,-0.6732354,-0.033058874,-0.69518393,999.38666, , , , 
2025-11-24 19:54:44.170,6.762117,-9.183653,2.2588246,-1.2341759,0.20288347,3.2098653,-36.412502,11.19375,-33.300003,-0.67484677,0.0070247557,-0.689433,999.38666, , , , 
2025-11-24 19:54:44.190,8.839087,-9.32483,2.132005,-0.7937424,-0.090942495,3.3039386,-36.16875,11.83125,-31.66875,-0.6760006,0.036801342,-0.681282,999.38885,37.88744744,127.74024109,143.7752685546875,1.37
2025-11-24 19:54:44.210,9.88475,-9.195618,2.0673988,-0.40095636,-0.37132943,3.3460882,-35.4375,15.4125,-32.71875,-0.67714834,0.06306591,-0.67049426,999.38885, , , , 
2025-11-24 19:54:44.231,10.827522,-8.879765,2.0315065,-0.09491312,-0.5747474,3.4114506,-34.162502,17.400002,-32.34375,-0.67814475,0.08610656,-0.65738535,999.38104, , , , 
2025-11-24 19:54:44.250,11.925828,-7.2646093,2.0793629,0.15920663,-0.7433461,3.350975,-32.4,19.575,-32.34375,-0.67902374,0.11104816,-0.6383921,999.38104, , , , 
2025-11-24 19:54:44.270,12.528819,-6.178268,1.7324036,0.18974987,-0.48189595,3.1084619,-29.475,21.618752,-34.162502,-0.67843634,0.12846059,-0.62355155,999.38153, , , , 
2025-11-24 19:54:44.291,12.691531,-5.477171,2.28036,0.10178535,0.036728244,2.737056,-28.9125,24.525002,-31.9125,-0.67555255,0.1452434,-0.6117507,999.38153, , , , 
2025-11-24 19:54:44.310,12.090933,-4.8215375,2.2636101,0.1598175,0.29206973,2.4676647,-27.956251,25.612501,-32.23125,-0.6704247,0.16122241,-0.60340273,999.3791, , , , 
2025-11-24 19:54:44.331,12.1866455,-4.254439,1.4979069,0.20685409,0.61766064,2.299066,-27.88125,26.868752,-30.768751,-0.6635694,0.17619097,-0.5974272,999.3791, , , , 
2025-11-24 19:54:44.350,11.968899,-3.6466618,0.85184485,0.1390481,0.7868702,2.0113487,-25.3875,28.875002,-32.53125,-0.6551136,0.19071355,-0.5939684,999.3796, , , , 
2025-11-24 19:54:44.371,11.660225,-3.1537402,0.51445687,0.05108357,0.7948114,1.7547854,-24.581251,29.212502,-33.7125,-0.646743,0.20416373,-0.59200305,999.3796, , , , 
2025-11-24 19:54:44.390,11.935399,-2.751746,0.1363909,-0.13217586,0.77709633,1.5000548,-22.10625,29.1,-33.825,-0.63943225,0.21652636,-0.59043527,999.3781, , , , 
2025-11-24 19:54:44.410,11.940185,-2.172683,0.11006984,-0.37896523,0.873613,1.133536,-20.71875,30.225,-32.79375,-0.63199645,0.23112266,-0.58975166,999.3781, , , , 
2025-11-24 19:54:44.431,11.643475,-1.8592232,0.019142581,-0.6428588,0.9536363,0.80122554,-17.400002,30.468752,-35.775,-0.62740725,0.24226753,-0.5907417,999.3769, , , , 
2025-11-24 19:54:44.450,11.356337,-1.8424734,0.3062813,-0.94523686,1.067868,0.57520556,-19.556252,31.593752,-33.91875,-0.6240328,0.2537095,-0.59281254,999.3769, , , , 
2025-11-24 19:54:44.474,12.05504,-2.5603201,1.5409778,-1.1364375,0.94691676,0.37178758,-16.25625,33.318752,-35.1375,-0.6218359,0.2655642,-0.5953396,999.36884, , , , 
2025-11-24 19:54:44.490,13.552947,-3.5533416,2.5316064,-1.0771837,0.6408735,0.15431972,-16.66875,33.506252,-34.0125,-0.62129486,0.27583462,-0.59732574,999.36884, , , , 
2025-11-24 19:54:44.510,14.81875,-4.347759,3.3427732,-0.82978344,0.14362958,-0.1627191,-16.181252,34.55625,-33.675003,-0.6235036,0.28312948,-0.59883916,999.36884, , , , 
2025-11-24 19:54:44.530,15.553348,-4.814359,3.8572302,-0.5512291,-0.21067199,-0.49991646,-15.225,35.643753,-33.206253,-0.62768054,0.28323227,-0.5993741,999.36884, , , , 
2025-11-24 19:54:44.550,15.620346,-4.5942197,4.213761,-0.2738965,-0.32123852,-0.8432225,-15.993751,35.4375,-33.43125,-0.63299704,0.27856633,-0.60053587,999.37225, , , , 
2025-11-24 19:54:44.570,16.467405,-5.601598,3.8165522,-0.052763447,-0.08605558,-1.2806016,-16.650002,35.23125,-31.968752,-0.63798887,0.27019605,-0.60406387,999.37225, , , , 
2025-11-24 19:54:44.590,16.041483,-6.4462643,3.3044882,0.07246383,0.34643668,-1.595197,-17.775002,36.24375,-31.593752,-0.64063245,0.2624149,-0.6092981,999.3725, , , , 
2025-11-24 19:54:44.610,14.323437,-6.5108705,2.5411777,0.24228424,0.923093,-1.8468733,-18.5625,31.66875,-30.31875,-0.6411413,0.24886487,-0.62333137,999.3725, , , , 
2025-11-24 19:54:44.631,13.045669,-6.8602223,1.9094725,0.28687736,1.0764201,-1.9989786,-18.225,31.725,-32.5125,-0.6388685,0.23769082,-0.63760066,999.3735, , , , 
2025-11-24 19:54:44.650,11.559726,-6.8506513,1.8975084,0.35651594,0.84795666,-2.0722823,-21.675001,32.100002,-31.725,-0.6360993,0.22590172,-0.6520566,999.3735, , , , 
2025-11-24 19:54:44.670,11.117054,-6.9702926,2.5531418,0.63629204,0.35193446,-2.2378268,-22.0125,29.60625,-33.54375,-0.6347609,0.21185791,-0.6646039,999.3681, , , , 
2025-11-24 19:54:44.691,10.786844,-7.6594253,1.9621146,0.8690315,-0.45257443,-2.4589598,-23.8875,28.29375,-33.9,-0.6371234,0.18748498,-0.67617714,999.3681, , , , 
2025-11-24 19:54:44.710,10.84188,-8.659625,1.6558332,0.8213841,-0.8581886,-2.6819255,-26.1,26.062502,-32.925003,-0.64320076,0.16387305,-0.6813865,999.3659, , , , 
2025-11-24 19:54:44.732,10.179068,-9.662218,1.8137596,0.6259073,-1.0359503,-2.8126504,-27.431252,25.931252,-34.162502,-0.651257,0.13916332,-0.68450975,999.3659, , , , 
2025-11-24 19:54:44.750,9.738789,-10.059426,2.4717858,0.54221886,-1.0744348,-2.841361,-28.462502,23.71875,-34.3875,-0.6599299,0.11485407,-0.6863382,999.3547, , , , 
2025-11-24 19:54:44.770,8.925228,-9.80818,3.0173492,0.6717222,-0.91377735,-2.7717226,-29.831251,20.587502,-33.600002,-0.66758275,0.090824485,-0.6878947,999.3547, , , , 
2025-11-24 19:54:44.790,8.097312,-9.3104725,3.050849,0.78228873,-0.725631,-2.706971,-30.075,19.44375,-33.206253,-0.6730938,0.066902794,-0.6899364,999.3493, , , , 
2025-11-24 19:54:44.810,6.7166533,-8.350951,2.9742785,0.97715455,-0.37194028,-2.553644,-32.98125,18.150002,-32.5125,-0.67629075,0.03749526,-0.6939154,999.3493, , , , 
2025-11-24 19:54:44.831,6.0753765,-7.8077803,2.524428,1.0718386,-0.109268434,-2.4424665,-33.28125,16.612501,-32.850002,-0.6761253,0.020294184,-0.6971784,999.3525, , , , 
2025-11-24 19:54:44.850,5.651847,-7.4392858,2.065006,1.1494185,0.18150319,-2.3428955,-34.7625,10.012501,-33.5625,-0.6727619,-0.007332845,-0.7040389,999.3525, , , , 
2025-11-24 19:54:44.870,5.8863435,-7.1545396,1.68694,1.2288308,0.3965276,-2.3337326,-33.675003,10.875,-34.65,-0.6676842,-0.028835598,-0.710591,999.33905, , , , 
2025-11-24 19:54:44.890,6.3194447,-6.843473,1.1485549,1.3265692,0.48265955,-2.4919465,-34.93125,8.493751,-32.850002,-0.662746,-0.045301676,-0.7159826,999.33905, , , , 
2025-11-24 19:54:44.910,6.013163,-6.6089764,0.29910284,1.4603486,0.3617083,-2.725297,-35.025,3.5062501,-34.237503,-0.65354425,-0.07512167,-0.7248387,999.3427, , , , 
2025-11-24 19:54:44.930,4.465007,-6.7932234,-0.3684947,1.5159373,0.062995434,-2.625726,-36.0,0.16875,-33.956253,-0.64672,-0.1010046,-0.73018986,999.3427, , , , 
2025-11-24 19:54:44.950,3.1345978,-6.884151,-1.1820544,1.3894883,-0.28214318,-2.2494333,-35.41875,-2.7562501,-33.693752,-0.6419296,-0.1261567,-0.73250705,999.3405, , , , 
2025-11-24 19:54:44.970,2.5220351,-6.7262244,-1.538585,0.9918153,-0.517937,-1.6281837,-35.4,-4.125,-33.91875,-0.64003325,-0.15216757,-0.73114425,999.3405, , , , 
2025-11-24 19:54:44.991,2.8115666,-6.6759753,-1.2705889,0.62163126,-0.46357,-1.1193334,-37.18125,-7.05,-32.643753,-0.64049715,-0.16318628,-0.7292173,999.34393, , , , 
2025-11-24 19:54:45.010,3.3236306,-7.192825,-0.7896315,0.1720348,-0.11415535,-0.42355835,-34.48125,-6.01875,-33.600002,-0.64162374,-0.17322336,-0.72677374,999.34393, , , , 
2025-11-24 19:54:45.030,3.9074793,-7.728817,-0.4642076,-0.049709123,0.1295797,0.064522594,-36.16875,-7.70625,-31.48125,-0.6417786,-0.17407109,-0.7264544,999.34784, , , , 
2025-11-24 19:54:45.050,4.5559344,-8.073383,-0.15314065,-0.16699515,0.24197881,0.57337296,-35.49375,-7.4812503,-34.65,-0.64163387,-0.16969328,-0.726911,999.34784, , , , 
2025-11-24 19:54:45.070,4.9316072,-7.9968133,0.11246266,-0.18104506,0.21021384,1.0919971,-34.8375,-4.93125,-33.6375,-0.64203864,-0.16168727,-0.7268876,999.35345, , , , 
2025-11-24 19:54:45.091,5.8169518,-8.391629,0.043070808,-0.15538873,0.12408191,1.5024983,-36.15,-5.5687504,-32.53125,-0.6438369,-0.14805229,-0.7251481,999.35345, , , , 
2025-11-24 19:54:45.110,6.7381887,-9.099904,-0.38524446,-0.19387321,-0.037797257,1.9435426,-36.7125,-3.2625,-32.90625,-0.6467493,-0.13455883,-0.7217557,999.3483, , , , 
2025-11-24 19:54:45.131,7.688139,-9.396614,-0.72741807,-0.3050506,-0.14530946,2.272188,-35.90625,-4.3125,-32.325,-0.6498588,-0.122624196,-0.7179569,999.3483, , , , 
2025-11-24 19:54:45.150,8.532805,-9.645468,-0.8207382,-0.57444197,-0.25526512,2.614272,-35.60625,-0.15,-35.2125,-0.65664274,-0.098783456,-0.70944464,999.3542, , , , 
2025-11-24 19:54:45.170,8.152347,-8.338987,-0.1052842,-0.8554398,-0.23266312,2.898935,-36.45,2.3625002,-33.412502,-0.6629042,-0.07591798,-0.7012084,999.3542, , , , 
2025-11-24 19:54:45.190,7.783852,-7.1138616,0.8135597,-0.9867757,-0.15630503,3.0388231,-35.41875,3.0937502,-33.412502,-0.66863346,-0.05024539,-0.6925788,999.3581,37.88744194,127.7402245,143.951904296875,1.56
2025-11-24 19:54:45.210,8.523234,-6.9224358,1.9214365,-0.8749874,-0.13675736,3.1921504,-36.506252,6.4687505,-32.86875,-0.6732164,-0.023314523,-0.6836514,999.3581, , , , 
2025-11-24 19:54:45.230,10.207782,-7.635497,1.8400806,-0.51763153,-0.17768529,3.3900704,-35.737503,10.275001,-32.7,-0.6770592,0.009625121,-0.6709387,999.3652, , , , 
2025-11-24 19:54:45.250,11.607583,-7.826923,1.0456635,-0.31482443,-0.2766454,3.5104108,-35.193752,11.45625,-33.600002,-0.67884564,0.03458821,-0.65894186,999.3652, , , , 
2025-11-24 19:54:45.270,13.136597,-7.7240314,0.40917268,-0.36247188,-0.28214318,3.3888488,-33.487503,16.462502,-31.593752,-0.68017864,0.058548838,-0.6456332,999.3642, , , , 
2025-11-24 19:54:45.290,13.672588,-7.2382884,0.11485548,-0.60437435,-0.14042254,3.1182356,-33.037502,15.01875,-31.875002,-0.6808984,0.0760616,-0.6358859,999.3642, , , , 
2025-11-24 19:54:45.310,13.131811,-6.233303,0.9284152,-1.0753511,0.25175264,2.6362634,-32.71875,20.268751,-31.125002,-0.6814707,0.1054775,-0.6221084,999.36566, , , , 
2025-11-24 19:54:45.331,12.696317,-5.680561,1.9357935,-1.2451715,0.711123,2.3137267,-32.737503,22.368752,-30.31875,-0.68037885,0.12964492,-0.6148113,999.36566, , , , 
2025-11-24 19:54:45.350,12.02872,-4.8454657,2.3904297,-1.2421172,1.4319434,1.9349905,-29.475,24.075,-30.45,-0.6761155,0.1539884,-0.6122608,999.35834, , , , 
2025-11-24 19:54:45.370,10.992627,-4.3118663,1.6175481,-1.2011893,2.0519712,1.6289473,-26.831251,26.962502,-30.4125,-0.6652458,0.18417503,-0.6163551,999.35834, , , , 
2025-11-24 19:54:45.391,10.145568,-3.940979,1.1485549,-1.2622757,2.4166574,1.3974296,-26.23125,26.925001,-32.49375,-0.6564819,0.20237939,-0.62167805,999.362, , , , 
2025-11-24 19:54:45.410,9.250652,-3.5940197,0.8757731,-1.3245839,2.3622904,1.1879029,-21.50625,30.54375,-35.04375,-0.64068943,0.23221637,-0.6320863,999.362, , , , 
2025-11-24 19:54:45.432,8.776874,-3.1657043,1.3830515,-1.2818234,1.953011,1.0028108,-19.425001,30.750002,-34.2,-0.62943184,0.25407624,-0.6391067,999.36664, , , , 
2025-11-24 19:54:45.450,8.618947,-3.2470603,1.442872,-1.1578178,1.257847,0.826271,-17.493752,32.30625,-34.331253,-0.6212274,0.27220026,-0.6433576,999.36664, , , , 
2025-11-24 19:54:45.470,8.56152,-3.4121652,1.3040884,-1.1510984,0.8913281,0.74991286,-15.7875,33.487503,-34.725002,-0.6162567,0.28700876,-0.64475644,999.3693, , , , 
2025-11-24 19:54:45.490,8.657232,-3.76391,1.5122639,-1.2781582,0.8381828,0.7425825,-15.337501,35.025,-34.237503,-0.61305684,0.30077735,-0.64451593,999.3693, , , , 
2025-11-24 19:54:45.510,9.104691,-4.1180477,2.4191437,-1.4052181,0.9078214,0.77984524,-15.187501,35.8875,-32.925003,-0.609232,0.31915087,-0.64352894,999.3674, , , , 
2025-11-24 19:54:45.531,10.095319,-4.7138605,3.2039895,-1.3911681,0.97501653,0.7859539,-13.462501,36.5625,-31.9125,-0.605541,0.3344801,-0.642849,999.3674, , , , 
2025-11-24 19:54:45.550,11.444871,-5.369494,3.7854455,-1.2262347,0.9511928,0.7267,-11.587501,37.125,-31.987501,-0.6012245,0.3490028,-0.642695,999.3691, , , , 
2025-11-24 19:54:45.570,13.014563,-6.029913,4.429115,-0.97822356,0.81924605,0.5929206,-10.70625,38.456253,-32.60625,-0.59794337,0.35837463,-0.64294755,999.3691, , , , 
2025-11-24 19:54:45.590,14.239688,-6.0251274,4.1108694,-0.5829941,0.5510764,0.18425208,-11.231251,39.131252,-28.893751,-0.59363425,0.36866498,-0.6444031,999.3691, , , , 
2025-11-24 19:54:45.610,15.091533,-7.2622166,3.9864426,-0.27939427,0.20960298,-0.41683885,-10.21875,38.98125,-29.60625,-0.5928441,0.37074152,-0.6466107,999.3691, , , , 
2025-11-24 19:54:45.630,14.74218,-8.295917,4.3070807,0.029092435,0.055665053,-0.87804174,-11.4375,38.737503,-29.306252,-0.59474814,0.36741284,-0.649663,999.3691, , , , 
2025-11-24 19:54:45.650,14.347364,-8.829515,3.845266,0.35285076,-0.010308343,-1.2390629,-11.925,38.550003,-28.781252,-0.59771013,0.35946056,-0.6543319,999.3691, , , , 
2025-11-24 19:54:45.670,11.408978,-8.492127,3.7615173,0.5990293,-0.017027855,-1.3618467,-12.3,39.525,-29.718752,-0.6021095,0.34468248,-0.6615684,999.37616, , , , 
2025-11-24 19:54:45.690,10.162318,-7.283752,3.4480574,0.81588626,0.05261073,-1.3954443,-13.8,37.987503,-29.175001,-0.6038778,0.33483297,-0.66671795,999.37616, , , , 
2025-11-24 19:54:45.710,9.552148,-6.257231,3.0388846,1.2037854,-0.04696023,-1.5041782,-12.3,37.18125,-31.7625,-0.605902,0.31574517,-0.67625314,999.3798, , , , 
2025-11-24 19:54:45.730,9.635897,-6.975078,1.4883357,1.5586978,-0.36705336,-1.6831615,-15.39375,34.987503,-31.462502,-0.60790193,0.29657313,-0.6839885,999.3798, , , , 
2025-11-24 19:54:45.750,9.609575,-7.6809607,0.15314065,1.6161191,-0.7103594,-1.8713078,-17.04375,33.206253,-32.8875,-0.6118777,0.27413052,-0.69024915,999.3774, , , , 
2025-11-24 19:54:45.770,9.255438,-8.338987,-0.2009971,1.4719551,-0.987692,-2.0478477,-19.29375,30.6375,-34.66875,-0.6182549,0.24987619,-0.6944485,999.3774, , , , 
2025-11-24 19:54:45.790,8.382058,-9.056833,0.40677986,1.264261,-0.9748638,-2.1590252,-21.69375,31.875002,-33.393753,-0.62821203,0.2193818,-0.6975277,999.3798, , , , 
2025-11-24 19:54:45.810,7.8436728,-9.114262,0.62931234,1.1494185,-0.99502236,-2.1993423,-22.5375,29.175001,-33.9375,-0.6361723,0.195787,-0.69925743,999.3798, , , , 
2025-11-24 19:54:45.831,7.4416785,-9.109476,0.73459655,1.038241,-1.0640501,-2.1834598,-23.8875,26.56875,-36.73125,-0.64431036,0.1727969,-0.70000213,999.37787, , , , 
2025-11-24 19:54:45.850,6.7238317,-8.784052,0.92602235,0.9417244,-1.0658827,-2.1425319,-27.468752,23.56875,-34.18125,-0.6524738,0.15055479,-0.6998162,999.37787, , , , 
2025-11-24 19:54:45.870,5.922236,-8.157132,0.8039884,0.87514013,-0.8911753,-2.0728934,-27.806252,22.556252,-35.325,-0.65982175,0.12927987,-0.69946426,999.38055, , , , 
2025-11-24 19:54:45.891,5.211568,-7.609176,0.51206404,0.8134428,-0.66393363,-1.9708788,-28.181252,22.875,-34.8375,-0.66563046,0.10928337,-0.6996585,999.38055, , , , 
2025-11-24 19:54:45.910,4.4841495,-7.32443,0.040677983,0.7077632,-0.36094472,-1.8316017,-31.706251,20.025002,-33.675003,-0.6695423,0.091080636,-0.70076627,999.3791, , , , 
2025-11-24 19:54:45.931,3.4600215,-7.223932,-0.57906306,0.56787515,-0.13125958,-1.6458988,-29.79375,18.487501,-35.49375,-0.6713718,0.07543498,-0.7030485,999.3791, , , , 
2025-11-24 19:54:45.950,2.7493532,-7.066005,-1.5888343,0.23556472,-0.06284271,-1.2225695,-31.10625,17.1,-34.818752,-0.6723803,0.06099517,-0.7059439,999.3791, , , , 
2025-11-24 19:54:45.970,2.7278178,-6.987042,-1.8807586,-0.043600474,-0.14714205,-0.9073633,-32.41875,14.868751,-35.943752,-0.6736733,0.054103233,-0.70701045,999.3791, , , , 
2025-11-24 19:54:45.991,2.9120653,-6.908079,-1.6031911,-0.27145302,-0.34994915,-0.6569087,-30.937502,14.26875,-35.4375,-0.67624617,0.050627172,-0.7064052,999.3735, , , , 
2025-11-24 19:54:46.010,3.1465619,-7.2215385,-0.9164511,-0.38690647,-0.5661953,-0.46082112,-33.84375,15.20625,-33.80625,-0.68039876,0.049266733,-0.7039349,999.3735, , , , 
2025-11-24 19:54:46.030,4.584648,-7.4129643,-0.7704889,-0.45287988,-0.7109702,-0.38568476,-33.43125,15.000001,-35.0625,-0.6856732,0.049217116,-0.70000756,999.37396, , , , 
2025-11-24 19:54:46.050,3.4504502,-8.035098,-0.3062813,-0.46021026,-0.5655844,-0.14439316,-34.74375,15.225,-32.775,-0.69140023,0.050004408,-0.6953879,999.37396, , , , 
2025-11-24 19:54:46.070,4.237689,-8.729017,-0.14596218,-0.5603921,-0.39881834,0.028481571,-33.768753,17.19375,-32.381252,-0.6957452,0.05301396,-0.69151205,999.37885, , , , 
2025-11-24 19:54:46.090,4.570291,-9.568898,0.047856454,-0.68561935,-0.03718639,0.24717116,-34.631252,16.706251,-30.093752,-0.6983679,0.058635425,-0.68896765,999.37885, , , , 
2025-11-24 19:54:46.110,4.6229334,-10.092926,0.10049855,-0.86093754,0.2890154,0.5086213,-35.60625,17.60625,-30.975,-0.6987721,0.0696912,-0.68802536,999.37933, , , , 
2025-11-24 19:54:46.130,4.4051867,-9.860822,0.6891329,-1.0478622,0.5284744,0.7438042,-35.5125,17.25,-32.193752,-0.69722867,0.08224047,-0.68854326,999.37933, , , , 
2025-11-24 19:54:46.150,4.5655055,-10.200603,1.1557333,-1.0753511,0.70134914,0.96432644,-33.0,20.25,-32.175003,-0.6939017,0.09743753,-0.69013846,999.3752, , , , 
2025-11-24 19:54:46.170,5.3910294,-10.724631,1.0025927,-1.0716859,0.8387937,1.173853,-33.15,18.862501,-30.843752,-0.6894101,0.11421289,-0.6919083,999.3752, , , , 
2025-11-24 19:54:46.191,5.814559,-11.507084,0.4139583,-1.1712569,0.96341014,1.3455061,-30.581251,21.243752,-32.943752,-0.6836071,0.13254385,-0.6940819,999.37787,37.88743784,127.74020911,144.2823486328125,1.43
2025-11-24 19:54:46.210,5.690132,-11.602797,0.37088752,-1.3905573,0.99578595,1.6320016,-29.1,22.143751,-32.850002,-0.6769604,0.15333948,-0.6959218,999.37787, , , , 
2025-11-24 19:54:46.232,5.7547383,-10.872986,1.442872,-1.5909209,1.0599267,1.9258276,-28.725,25.650002,-29.831251,-0.6695885,0.17753352,-0.6968419,999.37445, , , , 
2025-11-24 19:54:46.250,6.0825553,-9.736395,2.8307092,-1.5548799,1.0843613,2.1775038,-27.13125,27.675001,-30.73125,-0.658736,0.2108953,-0.69704175,999.37445, , , , 
2025-11-24 19:54:46.270,6.6592255,-8.872586,3.6729827,-1.3227513,1.1649956,2.253862,-24.0375,29.250002,-30.843752,-0.6484012,0.23743567,-0.69706196,999.37054, , , , 
2025-11-24 19:54:46.290,7.4344997,-8.432307,3.4911282,-1.0869576,1.2798381,2.1872778,-24.075,30.375002,-31.66875,-0.63949364,0.2560464,-0.69761944,999.37054, , , , 
2025-11-24 19:54:46.310,7.838887,-8.829515,2.2444677,-1.0313689,1.4911972,2.09015,-20.493752,32.850002,-31.875002,-0.62284243,0.28455546,-0.6998518,999.37665, , , , 
2025-11-24 19:54:46.330,8.221739,-8.946764,1.9669002,-1.1474332,1.5272382,2.0767112,-18.9375,34.7625,-32.006252,-0.6083704,0.30725852,-0.7018976,999.37665, , , , 
2025-11-24 19:54:46.350,9.059227,-9.092726,2.1224337,-1.2586105,1.3965132,2.0241768,-16.800001,35.9625,-31.368752,-0.59400475,0.33029443,-0.70296586,999.3742, , , , 
2025-11-24 19:54:46.370,9.549755,-8.62134,2.696711,-1.2763256,1.1808779,1.9038365,-13.125001,36.09375,-30.675001,-0.5809014,0.35273382,-0.7024447,999.3742, , , , 
2025-11-24 19:54:46.391,9.611969,-7.8699937,2.9742785,-1.2329541,1.1155155,1.7621158,-11.625,38.5875,-28.81875,-0.5662175,0.3785052,-0.7005044,999.37177, , , , 
2025-11-24 19:54:46.410,9.870394,-7.051648,3.17049,-1.2329541,1.329929,1.6100105,-10.70625,38.0625,-28.875002,-0.5543171,0.3978267,-0.6993204,999.37177, , , , 
2025-11-24 19:54:46.430,9.4229355,-6.2931237,3.1944182,-1.2072979,1.6940044,1.4646246,-6.1312504,39.54375,-30.375002,-0.5408415,0.41644815,-0.6997772,999.3759, , , , 
2025-11-24 19:54:46.450,9.071191,-5.407779,2.507678,-1.2353977,2.0654101,1.4908918,-4.93125,41.268753,-28.893751,-0.5249202,0.4350013,-0.7019601,999.3759, , , , 
2025-11-24 19:54:46.470,9.695718,-4.5272202,1.8400806,-1.383227,2.3311365,1.5391501,-4.2375,42.581253,-28.125002,-0.5066273,0.4545475,-0.7047736,999.372, , , , 
2025-11-24 19:54:46.490,10.578669,-3.952943,1.9238294,-1.5444952,2.4447572,1.4640138,-1.9125,42.5625,-28.050001,-0.48691428,0.47524828,-0.7072914,999.372, , , , 
2025-11-24 19:54:46.510,11.638689,-3.5940197,2.5196424,-1.4742458,2.1594834,1.0467931,0.76875,42.9375,-25.725,-0.46379662,0.49961695,-0.70944977,999.3752, , , , 
2025-11-24 19:54:46.530,11.566905,-3.7615173,2.5866413,-1.2689952,1.8919246,0.59108806,2.2687502,43.95,-24.093752,-0.44894433,0.5149464,-0.71087337,999.3752, , , , 
2025-11-24 19:54:46.550,11.162518,-4.072584,2.0338993,-1.157207,1.7917428,0.12377647,4.5375004,45.05625,-23.625,-0.43727517,0.52646315,-0.7126633,999.37787, , , , 
2025-11-24 19:54:46.570,10.356136,-4.634897,1.7922242,-1.1608721,1.8626031,-0.18409938,6.2812505,44.23125,-23.60625,-0.42751077,0.535756,-0.71489143,999.37787, , , , 
2025-11-24 19:54:46.590,9.437292,-5.1493545,1.564906,-1.2176826,1.9633957,-0.36186102,5.9812503,45.91875,-21.0375,-0.41805556,0.5442975,-0.7172644,999.3737, , , , 
2025-11-24 19:54:46.610,8.784052,-5.2953167,1.8831514,-1.2390629,1.948735,-0.40462157,7.425,46.6875,-19.3875,-0.40844998,0.5526467,-0.7193606,999.3737, , , , 
2025-11-24 19:54:46.630,9.052048,-5.278567,2.306681,-1.1046726,1.7966297,-0.4125628,6.99375,46.0125,-18.993752,-0.3990163,0.56039286,-0.7210479,999.3752, , , , 
2025-11-24 19:54:46.650,9.927821,-5.4676,2.158326,-0.8395573,1.5565598,-0.5139664,7.2000003,47.8875,-17.118752,-0.38886294,0.56747705,-0.7231918,999.3752, , , , 
2025-11-24 19:54:46.670,11.13859,-6.5539412,1.5744773,-0.642248,1.2297472,-0.7253256,5.9625,46.256252,-15.187501,-0.3833367,0.5703667,-0.72503376,999.3747, , , , 
2025-11-24 19:54:46.690,11.58844,-7.8699937,1.0504491,-0.53901184,0.9182061,-0.94768035,8.15625,47.71875,-15.356251,-0.38159978,0.57107204,-0.7260148,999.3747, , , , 
2025-11-24 19:54:46.710,10.564312,-8.812766,1.1030912,-0.46326458,0.47716177,-1.0270928,4.96875,47.8875,-14.56875,-0.3830794,0.5704476,-0.72633666,999.373, , , , 
2025-11-24 19:54:46.730,9.152547,-7.999206,2.1511476,-0.24457498,0.009850195,-0.8230639,3.7125,46.125,-13.406251,-0.38683006,0.56912273,-0.72555035,999.373, , , , 
2025-11-24 19:54:46.750,9.312865,-6.300302,3.2350962,0.3003164,-0.41836601,-0.61659163,2.86875,47.662502,-14.325001,-0.39227968,0.5661959,-0.7249393,999.3708, , , , 
2025-11-24 19:54:46.770,10.291531,-5.6853466,2.8953154,0.9087377,-0.6547707,-0.76686436,4.2562504,49.425003,-14.56875,-0.39959887,0.5594437,-0.7261839,999.3708, , , , 
2025-11-24 19:54:46.790,11.047662,-6.5084777,1.1485549,1.3082433,-0.83192146,-1.0619121,2.6625001,46.7625,-13.481251,-0.41272414,0.5443736,-0.73028207,999.37177, , , , 
2025-11-24 19:54:46.810,11.4018,-7.6139617,-0.4019942,1.4084251,-0.94615316,-1.3410772,0.76875,48.075,-15.375001,-0.42590344,0.5291354,-0.7339029,999.37177, , , , 
2025-11-24 19:54:46.831,11.69851,-8.30788,-1.0145568,1.2587632,-1.1636211,-1.5286127,-1.06875,46.050003,-17.681252,-0.44108933,0.513365,-0.73613024,999.3732, , , , 
2025-11-24 19:54:46.850,11.966506,-8.571091,-0.88295156,1.0803907,-1.4043018,-1.7002658,-1.5375,45.768753,-19.1625,-0.45409617,0.5017362,-0.7362411,999.3732, , , , 
2025-11-24 19:54:46.870,11.767901,-8.3581295,0.023928227,0.862312,-1.5441898,-2.0411284,-3.6750002,46.6875,-21.150002,-0.47871524,0.48246348,-0.7335262,999.37225, , , , 
2025-11-24 19:54:46.890,10.997413,-8.008778,0.60777694,0.7089849,-1.3768128,-2.3215153,-7.0687504,45.206253,-19.63125,0.4994821,-0.46653813,0.7299587,999.37225, , , , 
2025-11-24 19:54:46.910,9.966106,-7.759924,0.8279166,0.5916989,-1.0115157,-2.5408156,-9.975,44.53125,-20.831251,0.5192922,-0.45002082,0.72640157,999.37616, , , , 
2025-11-24 19:54:46.930,8.719446,-7.649854,0.6652047,0.5238929,-0.47639817,-2.661767,-13.481251,44.662502,-19.706251,0.536346,-0.43297115,0.724076,999.37616, , , , 
2025-11-24 19:54:46.950,7.2358956,-7.537391,-0.050249275,0.46708247,-0.025579963,-2.6269476,-15.468751,44.2125,-19.931252,0.54953355,-0.4157158,0.7236785,999.37396, , , , 
2025-11-24 19:54:46.970,6.068198,-7.2693954,-0.68195444,0.33880088,0.24503313,-2.4534621,-14.812501,40.800003,-21.1875,0.56129146,-0.39536956,0.72475886,999.37396, , , , 
2025-11-24 19:54:46.990,5.5130634,-6.991828,-0.7752745,0.2447277,0.3079522,-2.3099089,-17.94375,41.25,-21.825,0.568299,-0.3807455,0.725715,999.37054, , , , 
2025-11-24 19:54:47.010,4.996214,-6.735796,-0.70348984,0.21235187,0.290848,-2.1962879,-20.2875,38.90625,-23.4375,0.5743186,-0.36713848,0.72630453,999.37054, , , , 
2025-11-24 19:54:47.031,4.6468616,-7.1856465,-1.0600204,0.17386739,0.19860741,-2.064341,-19.63125,36.975002,-24.487501,0.58000445,-0.35426766,0.7263212,999.3737, , , , 
2025-11-24 19:54:47.051,3.8955152,-7.2933235,-1.4524434,0.091400646,0.1155298,-1.8639776,-24.4125,35.98125,-22.237501,0.585492,-0.3426533,0.7255497,999.3737, , , , 
2025-11-24 19:54:47.070,3.1513474,-7.2646093,-1.7635103,-0.10346522,0.006185006,-1.5396084,-22.987501,35.006252,-23.1,0.5917776,-0.331293,0.7233369,999.36615, , , , 
2025-11-24 19:54:47.090,2.8402805,-7.243074,-1.7228323,-0.31115925,-0.01763872,-1.2408954,-26.56875,36.24375,-21.862501,0.5949369,-0.32690454,0.7213651,999.36615, , , , 
2025-11-24 19:54:47.110,2.7756743,-7.3603225,-1.6175481,-0.61842424,0.033063058,-0.8200096,-25.687502,36.225002,-21.806252,0.5981856,-0.3243149,0.7176478,999.3659, , , , 
2025-11-24 19:54:47.131,3.1441689,-7.7551384,-1.2155539,-0.8963677,0.12102758,-0.4473821,-26.831251,34.74375,-23.90625,0.59842104,-0.326764,0.7146625,999.3659, , , , 
2025-11-24 19:54:47.150,3.5676985,-7.8628154,-0.6221339,-1.1358267,0.24258968,-0.12606722,-27.525002,35.268753,-19.85625,0.5962801,-0.3328763,0.7120065,999.36664, , , , 
2025-11-24 19:54:47.170,3.8548372,-7.960921,0.11485548,-1.3074797,0.39041895,0.17753258,-26.643751,35.23125,-20.25,0.5918091,-0.3417981,0.7099104,999.36664, , , , 
2025-11-24 19:54:47.191,4.058227,-7.9968133,0.55513483,-1.3612359,0.4954877,0.40721774,-27.35625,35.4,-19.10625,0.5851805,-0.35272846,0.708564,999.36395,37.88743594,127.74019617,144.34613037109375,1.25
2025-11-24 19:54:47.210,4.7282176,-8.7673025,0.4761717,-1.3899465,0.5926152,0.68393946,-26.025002,37.0125,-17.79375,0.5766963,-0.3651082,0.70800817,999.36395, , , , 
2025-11-24 19:54:47.232,5.3814583,-9.559326,0.2632105,-1.4485894,0.62132585,0.93439406,-25.81875,37.40625,-17.38125,0.5666378,-0.37895486,0.70793253,999.3591, , , , 
2025-11-24 19:54:47.250,6.5228343,-10.959127,-0.27996024,-1.5842015,0.5803979,1.1988984,-24.018751,39.7125,-17.85,0.5522969,-0.39882734,0.7076963,999.3591, , , , 
2025-11-24 19:54:47.270,7.1162543,-11.75833,-0.35413775,-1.8065562,0.5138136,1.4823397,-23.56875,40.612503,-16.556252,0.53955984,-0.41754836,0.7065567,999.35736, , , , 
2025-11-24 19:54:47.290,6.9726853,-11.598011,0.18903299,-1.99287,0.41851872,1.7743331,-21.1875,40.85625,-16.050001,0.52906984,-0.43356198,0.70493776,999.35736, , , , 
2025-11-24 19:54:47.310,6.3218374,-9.793823,2.009971,-2.0484586,0.31283912,2.2495859,-18.900002,42.7125,-15.937501,0.5097113,-0.46347666,0.70098925,999.3483, , , , 
2025-11-24 19:54:47.330,6.465407,-8.255239,3.1800613,-1.8059454,0.3030653,2.565403,-17.325,44.9625,-12.675,0.49241984,-0.48823756,0.69800705,999.3483, , , , 
2025-11-24 19:54:47.350,7.5637126,-7.609176,3.65384,-1.382616,0.41851872,2.6949062,-14.531251,44.475002,-10.63125,0.4738738,-0.51126933,0.69649804,999.34955, , , , 
2025-11-24 19:54:47.370,8.666803,-7.422536,3.2685957,-0.8401681,0.5987238,2.7083454,-13.087501,45.975002,-8.55,0.4495027,-0.5346716,0.6982156,999.34955, , , , 
2025-11-24 19:54:47.391,9.844072,-7.3292155,2.2372892,-0.32887432,0.80336356,2.5721226,-8.7375,47.8125,-10.181251,0.4297888,-0.5484915,0.70245576,999.35175, , , , 
2025-11-24 19:54:47.410,10.305887,-7.2526455,1.0671989,-0.09613484,1.0330487,2.3118942,-7.1250005,48.600002,-9.618751,0.41017914,-0.5583034,0.70858043,999.35175, , , , 
2025-11-24 19:54:47.431,9.985249,-6.735796,0.09332009,-0.18532111,1.3812417,1.9630903,-5.15625,49.031254,-8.15625,0.3905352,-0.5656997,0.7152242,999.3498, , , , 
2025-11-24 19:54:47.452,9.963714,-6.424729,-0.70348984,-0.5481748,1.7300454,1.7040837,-3.3187501,48.843754,-7.1062503,0.37006685,-0.5726701,0.72114426,999.3498, , , , 
2025-11-24 19:54:47.471,9.221938,-6.013163,-1.0552348,-1.1633157,2.0959535,1.431638,-1.5937501,49.162502,-9.618751,0.34791997,-0.58110386,0.7250593,999.35516, , , , 
2025-11-24 19:54:47.490,8.382058,-5.7379885,-0.8063812,-1.9049054,2.3989422,1.2404373,0.95625,49.7625,-6.2250004,0.3238376,-0.59261495,0.72551256,999.35516, , , , 
2025-11-24 19:54:47.512,7.877172,-5.771488,1.3232309,-2.439412,2.6921575,1.1158209,1.63125,49.575,-4.5750003,0.29005194,-0.61146617,0.72090405,999.34515, , , , 
2025-11-24 19:54:47.530,7.8963146,-5.642276,3.0293136,-2.3257914,2.4704134,1.0803907,3.16875,50.081253,-2.7562501,0.2619681,-0.62684244,0.7151333,999.34515, , , , 
2025-11-24 19:54:47.550,8.4705925,-5.477171,2.952743,-1.956829,1.9908847,1.0229695,3.6000001,50.23125,0.28125,0.23673022,-0.63988835,0.7093861,999.3483, , , , 
2025-11-24 19:54:47.571,8.922835,-5.3766723,2.024328,-1.7491349,1.4997494,0.8678098,7.1062503,50.325,1.29375,0.21584183,-0.65087974,0.7036214,999.3483, , , , 
2025-11-24 19:54:47.590,8.939586,-5.2331033,1.7180467,-1.7644066,1.1564434,0.7047089,5.34375,49.74375,4.2937503,0.19882813,-0.6612446,0.6968729,999.3564, , , , 
2025-11-24 19:54:47.610,9.169296,-5.3718867,1.9788643,-1.8523711,0.9560797,0.5965858,5.55,47.15625,4.40625,0.18461373,-0.6719296,0.6886134,999.3564, , , , 
2025-11-24 19:54:47.630,9.293723,-5.395815,2.6225336,-1.8725296,0.8253547,0.50434524,6.2250004,48.468754,5.8125,0.17199698,-0.6828416,0.67916447,999.3615, , , , 
2025-11-24 19:54:47.650,9.446864,-5.3790655,3.318845,-1.7955607,0.7434988,0.47258025,7.0312505,49.125004,10.012501,0.16059676,-0.69335747,0.6693466,999.3615, , , , 
2025-11-24 19:54:47.670,10.01157,-5.3790655,3.8787656,-1.5377758,0.6781363,0.4011091,8.025001,49.218754,12.375001,0.14765693,-0.70478964,0.65799916,999.3625, , , , 
2025-11-24 19:54:47.690,10.516456,-5.6327047,3.8117664,-1.3251948,0.6103303,0.29115343,7.4812503,48.037502,13.575001,0.14096862,-0.71033525,0.65207744,999.3625, , , , 
2025-11-24 19:54:47.711,11.2343025,-6.3338017,3.9984066,-1.0118212,0.4313469,0.0834594,9.243751,47.568752,16.050001,0.13254438,-0.7175365,0.64353067,999.3674, , , , 
2025-11-24 19:54:47.730,11.806187,-7.058827,4.0869412,-0.70089096,0.2022726,-0.1107956,8.962501,48.281254,15.731251,0.12901528,-0.7213852,0.63810027,999.3674, , , , 
2025-11-24 19:54:47.752,12.794423,-8.269595,3.897908,-0.4058433,-0.09521855,-0.31787875,6.6562505,47.175003,17.118752,0.12907425,-0.7235625,0.63407,999.363, , , , 
2025-11-24 19:54:47.772,13.127025,-8.989835,4.0534415,-0.1419497,-0.42447466,-0.5432879,6.8625,47.550003,18.46875,0.1332419,-0.7244638,0.6310648,999.363, , , , 
2025-11-24 19:54:47.790,12.452249,-8.671589,4.627719,0.25633413,-0.6321687,-0.75098187,7.5000005,47.5125,15.3,0.14127721,-0.72398335,0.6291947,999.3671, , , , 
2025-11-24 19:54:47.811,11.356337,-8.008778,5.304888,0.7877865,-0.6621011,-0.88231784,5.5687504,47.4375,15.975,0.15521862,-0.7198171,0.63013935,999.3671, , , , 
2025-11-24 19:54:47.830,10.466207,-7.1162543,5.2307105,1.3497821,-0.57108223,-0.94462603,5.4375,46.93125,16.800001,0.16503873,-0.71446925,0.6334688,999.37274, , , , 
2025-11-24 19:54:47.850,10.135997,-6.4845495,3.8261235,1.9710315,-0.33773187,-1.0270928,5.0062504,48.787502,12.562501,0.18252242,-0.70006186,0.64412344,999.37274, , , , 
2025-11-24 19:54:47.871,10.652846,-6.611369,2.0697916,2.2685227,-0.19051345,-1.2244021,4.9500003,49.162502,11.306251,0.19713129,-0.6845845,0.65549433,999.36957, , , , 
2025-11-24 19:54:47.891,11.181661,-7.0205417,0.8350951,2.2605815,-0.24976733,-1.5402192,1.40625,49.443752,7.65,0.21315004,-0.66736186,0.66681194,999.36957, , , , 
2025-11-24 19:54:47.911,11.406586,-7.7623167,0.12921242,2.0925937,-0.5851321,-2.0246348,1.4625001,48.956253,7.2000003,0.23732477,-0.6454754,0.67775804,999.36835, , , , 
2025-11-24 19:54:47.931,10.951949,-8.516056,0.14596218,1.8012111,-0.9889137,-2.4644575,-0.95625,50.475002,3.825,0.26160014,-0.6290631,0.68206805,999.36835, , , , 
2025-11-24 19:54:47.950,10.212567,-9.066405,0.47377887,1.5244894,-1.2583051,-2.7509532,-3.91875,49.443752,1.8750001,0.2821551,-0.61767775,0.68246114,999.37103, , , , 
2025-11-24 19:54:47.972,9.456435,-9.647861,1.3112668,1.173853,-1.3499348,-2.9537604,-6.6375003,49.781254,2.1375,0.3184388,-0.60058975,0.6783059,999.37103, , , , 
2025-11-24 19:54:47.990,8.642876,-9.657433,2.184647,1.0614539,-1.1520146,-3.0038512,-9.8625,48.843754,0.375,0.34664533,-0.5873827,0.6725941,999.3786, , , , 
2025-11-24 19:54:48.012,8.02792,-9.499506,2.3688943,1.0871103,-0.8783472,-2.9928555,-11.681251,48.54375,-0.3375,0.37278402,-0.5731121,0.6668664,999.3786, , , , 
2025-11-24 19:54:48.032,7.381858,-9.152547,2.4526432,1.1628574,-0.57108223,-2.9476516,-15.093751,47.568752,-0.54375005,0.39656866,-0.5573682,0.6618625,999.3742, , , , 
2025-11-24 19:54:48.051,6.867401,-8.729017,2.2588246,1.2850304,-0.2729802,-2.8902304,-17.1375,46.875,-0.75,0.4179207,-0.539844,0.6581458,999.3742, , , , 
2025-11-24 19:54:48.070,6.384051,-8.422736,1.6438692,1.368108,0.020845762,-2.841361,-21.28125,45.09375,-2.3812501,0.44157562,-0.51552135,0.65528214,999.37177, , , , 
2025-11-24 19:54:48.090,5.9150577,-8.166703,1.1653047,1.3815471,0.21937682,-2.7931027,-23.38125,44.006252,-3.6375,0.4583087,-0.4947425,0.65385455,999.37177, , , , 
2025-11-24 19:54:48.110,5.501099,-8.04467,0.63170516,1.3387865,0.417297,-2.7265186,-27.431252,41.98125,-4.5,0.4731369,-0.47335353,0.65281045,999.3669, , , , 
2025-11-24 19:54:48.131,5.046463,-7.9298143,0.22492532,1.2544872,0.6127737,-2.5872414,-27.7875,40.725002,-7.4812503,0.48575652,-0.451835,0.65211517,999.3669, , , , 
2025-11-24 19:54:48.151,4.8693943,-8.01117,-0.11724831,1.165301,0.72211856,-2.4259732,-30.750002,38.550003,-6.1125,0.49618417,-0.43074715,0.65172875,999.3713, , , , 
2025-11-24 19:54:48.170,4.4051867,-8.035098,-0.46181476,1.1207078,0.7465531,-2.1962879,-32.175003,37.050003,-8.19375,0.5047103,-0.41050255,0.6516634,999.3713, , , , 
2025-11-24 19:54:48.191,3.6801612,-8.073383,-0.81834537,1.0529019,0.6378192,-1.8517603,-34.050003,36.375,-10.125,0.5118336,-0.39178896,0.6519253,999.3659,37.88743594,127.74019617,144.34613037109375,1.25
2025-11-24 19:54:48.211,2.7948167,-8.13799,-1.5481563,0.88185966,0.3446041,-1.2598323,-34.03125,35.643753,-11.00625,0.51924616,-0.37286067,0.6524609,999.3659, , , , 
2025-11-24 19:54:48.230,2.2325034,-8.154739,-2.268396,0.5513818,-0.10071633,-0.59032446,-33.73125,34.068752,-13.275001,0.524111,-0.3640633,0.6524998,999.362, , , , 
2025-11-24 19:54:48.251,2.3688943,-8.094919,-2.0793629,0.12866339,-0.6920334,0.14210242,-32.831253,33.412502,-13.012501,0.52829224,-0.3633641,0.6512361,999.362, , , , 
2025-11-24 19:54:48.271,3.158526,-8.181061,-1.2059826,-0.16821688,-1.1404082,0.8293253,-34.518753,33.975002,-10.70625,0.53184664,-0.37083083,0.64864177,999.3532, , , , 
2025-11-24 19:54:48.291,4.9028935,-8.889337,-0.32063824,-0.28855726,-1.434845,1.4206424,-32.737503,34.893753,-10.012501,0.5342984,-0.38410679,0.6458104,999.3532, , , , 
2025-11-24 19:54:48.310,6.3385873,-9.334401,0.35653058,-0.18104506,-1.5674027,1.8409173,-34.0875,35.60625,-8.0625,0.53583914,-0.40066448,0.64344645,999.35126, , , , 
2025-11-24 19:54:48.331,7.393822,-9.659825,0.62931234,0.026038112,-1.5576289,2.1622322,-32.456253,36.412502,-8.75625,0.5365701,-0.418282,0.64231837,999.35126, , , , 
2025-11-24 19:54:48.351,7.21436,-8.970692,0.6628119,0.2202931,-1.349324,2.5183663,-32.04375,37.912502,-5.7937503,0.5354837,-0.43987295,0.6434717,999.35614, , , , 
2025-11-24 19:54:48.371,6.539584,-7.4919276,1.0001999,0.35101816,-1.0432807,2.8103597,-30.675001,39.5625,-6.6375003,0.5315923,-0.45637795,0.6470005,999.35614, , , , 
2025-11-24 19:54:48.391,6.745367,-6.664011,0.9762716,0.4078286,-0.7323505,2.9331436,-27.206251,39.412502,-5.7562504,0.5266486,-0.46801302,0.6511197,999.35126, , , , 
2025-11-24 19:54:48.410,8.2145605,-6.606583,0.55513483,0.360792,-0.28031057,2.7975316,-25.143751,41.60625,-6.1125,0.51496136,-0.48546618,0.65972346,999.35126, , , , 
2025-11-24 19:54:48.430,9.102298,-7.1545396,0.05742774,0.2410625,0.111253746,2.546466,-21.91875,42.956253,-7.7625003,0.5031241,-0.4971655,0.6672826,999.3625, , , , 
2025-11-24 19:54:48.450,9.430114,-7.82453,-0.61734825,-0.09613484,0.5468003,2.1713953,-21.243752,42.768753,-6.43125,0.4894646,-0.50748616,0.67455167,999.3625, , , , 
2025-11-24 19:54:48.470,8.76491,-8.193025,-0.9020941,-0.610483,0.8821651,1.9588143,-18.112501,45.825,-7.5375004,0.4739335,-0.51795685,0.6805933,999.36273, , , , 
2025-11-24 19:54:48.491,7.9011,-8.525627,-0.73459655,-1.1920263,1.1259001,2.0144029,-16.125,46.162502,-8.55,0.4559162,-0.5305334,0.68475115,999.36273, , , , 
2025-11-24 19:54:48.510,7.288538,-8.647661,0.49052864,-1.8053344,1.5290709,2.2453098,-13.575001,46.537502,-7.5937505,0.42769372,-0.5511011,0.6872836,999.3647, , , , 
2025-11-24 19:54:48.530,7.1712894,-8.463413,2.2875385,-2.0307436,1.9023093,2.4597235,-11.475,46.125,-6.5625005,0.3994697,-0.57012826,0.6884625,999.3647, , , , 
2025-11-24 19:54:48.550,7.716853,-7.7790666,3.6873398,-1.8468733,2.1179445,2.565403,-8.8125,48.506252,-6.20625,0.36754078,-0.58851,0.69025797,999.35565, , , , 
2025-11-24 19:54:48.570,8.260024,-7.123433,3.8141594,-1.4345396,2.075795,2.5055382,-5.68125,49.050003,-2.23125,0.33514372,-0.6034517,0.69357544,999.35565, , , , 
2025-11-24 19:54:48.590,8.796016,-6.391229,2.7900312,-0.9543999,1.8668791,2.3546546,-2.4,50.025,-3.4125001,0.30508178,-0.6143819,0.6980743,999.3537, , , , 
2025-11-24 19:54:48.611,9.109476,-5.697311,1.6606189,-0.72227126,1.5064689,2.1023674,0.13125001,50.381252,-1.06875,0.27845865,-0.62251264,0.70256835,999.3537, , , , 
2025-11-24 19:54:48.630,9.288938,-5.3240304,0.8111669,-0.6880628,1.1497239,1.8977278,0.4875,49.406254,0.3375,0.25586605,-0.6294079,0.7058639,999.3488, , , , 
2025-11-24 19:54:48.650,9.678967,-5.0536413,0.10289137,-0.86826795,0.8302416,1.7101923,5.4187503,49.050003,-0.61875004,0.23243886,-0.638326,0.70726997,999.3488, , , , 
2025-11-24 19:54:48.670,10.305887,-5.048856,-0.42831525,-1.2378411,0.71845335,1.5617522,4.2937503,50.04375,0.20625001,0.22009346,-0.6447823,0.70610255,999.34955, , , , 
2025-11-24 19:54:48.690,10.911271,-5.4460645,-0.19860429,-1.7534109,0.7593813,1.4243076,5.7562504,48.80625,3.05625,0.20016056,-0.6586382,0.69986767,999.34955, , , , 
2025-11-24 19:54:48.710,11.169696,-5.7260246,1.227518,-2.165134,0.78076154,1.3393974,9.76875,50.5875,3.4687502,0.18358827,-0.67261106,0.69095427,999.3488, , , , 
2025-11-24 19:54:48.730,11.856436,-5.895915,2.845066,-2.3019676,0.6170498,1.1982876,9.168751,48.61875,7.2000003,0.16732082,-0.68773973,0.6797273,999.3488, , , , 
2025-11-24 19:54:48.750,12.607782,-6.719046,4.2592244,-2.1523056,0.31528258,1.0022,9.8625,45.80625,10.05,0.15356961,-0.70238054,0.6675813,999.3454, , , , 
2025-11-24 19:54:48.770,12.966706,-7.405786,5.6303115,-1.7723478,0.06971494,0.95821774,10.3125,47.456253,11.925,0.14266214,-0.7152763,0.65621334,999.3454, , , , 
2025-11-24 19:54:48.790,13.751552,-7.5613194,6.259624,-1.2842668,-0.12454005,0.91362464,11.306251,48.693752,11.4375,0.13428667,-0.7252516,0.6475756,999.35345, , , , 
2025-11-24 19:54:48.810,14.160725,-7.1162543,6.769295,-0.49136436,-0.24060437,0.65217453,11.962501,46.256252,13.05,0.12794401,-0.7322219,0.6420948,999.35345, , , , 
2025-11-24 19:54:48.830,14.711074,-7.094719,6.498906,0.12560907,-0.29802567,0.27893612,12.39375,46.93125,12.656251,0.12704432,-0.7330497,0.64206314,999.35736, , , , 
2025-11-24 19:54:48.851,14.866607,-6.936793,5.7020965,0.6924916,-0.26198465,-0.18471023,12.95625,44.8125,13.2375,0.12917584,-0.73096025,0.64424175,999.35736, , , , 
2025-11-24 19:54:48.870,13.945371,-6.501299,4.1491547,1.1304816,-0.32307112,-0.65202177,13.06875,46.725002,13.9875,0.13789535,-0.7227321,0.6511955,999.36176, , , , 
2025-11-24 19:54:48.890,12.392428,-5.723632,2.9766715,1.3888774,-0.703029,-1.0356449,13.556251,48.05625,9.69375,0.15019374,-0.7134023,0.65812904,999.36176, , , , 
2025-11-24 19:54:48.910,11.799008,-5.680561,2.2971098,1.4762311,-1.1623993,-1.5536582,8.887501,46.706253,9.65625,0.16810825,-0.7030634,0.66457343,999.36884, , , , 
2025-11-24 19:54:48.930,11.492727,-7.001399,2.0865414,1.391321,-1.3603195,-2.0673954,10.106251,47.71875,9.46875,0.19138943,-0.69220024,0.6692089,999.36884, , , , 
2025-11-24 19:54:48.950,11.277373,-9.322437,2.7110682,1.3082433,-1.2931244,-2.5683045,8.3625,48.300003,7.2937503,0.22519913,-0.67781806,0.6718984,999.36957, , , , 
2025-11-24 19:54:48.970,10.741381,-10.992627,3.089134,1.3876557,-1.1379647,-2.8352525,6.675,47.8875,6.4125004,0.25356027,-0.66457814,0.6728679,999.36957, , , , 
2025-11-24 19:54:48.990,9.549755,-12.193824,2.6656044,1.4395792,-1.0500002,-2.860298,5.3250003,49.0125,4.4812503,0.27464372,-0.6533983,0.67363966,999.37225, , , , 
2025-11-24 19:54:49.010,8.367701,-12.234502,2.2707887,1.363832,-1.0396155,-2.7509532,0.056250002,50.343754,3.2625,0.30858293,-0.63408065,0.6744244,999.37225, , , , 
2025-11-24 19:54:49.030,8.236095,-12.409178,2.845066,1.2520437,-0.94615316,-2.6666539,-2.11875,49.518753,0.76875,0.33381233,-0.6191345,0.6739519,999.36615, , , , 
2025-11-24 19:54:49.050,7.190432,-11.38505,3.438486,1.4010947,-0.83375406,-2.6190064,-4.33125,49.425003,0.375,0.3572278,-0.6036914,0.67349917,999.36615, , , , 
2025-11-24 19:54:49.070,5.663811,-10.265209,2.8953154,1.5336524,-0.7861066,-2.5200462,-7.74375,49.818752,-0.82500005,0.3854251,-0.5825182,0.6738061,999.35614, , , , 
2025-11-24 19:54:49.090,4.8622155,-9.123833,2.629712,1.6784273,-0.84963655,-2.3569453,-9.0,48.581253,-2.4750001,0.40694332,-0.5647565,0.67456555,999.35614, , , , 
2025-11-24 19:54:49.110,4.386044,-8.415557,2.0195422,1.7718897,-1.0249548,-2.2573745,-12.750001,49.4625,-4.14375,0.42865625,-0.5466536,0.6751846,999.3569, , , , 
2025-11-24 19:54:49.130,3.8261235,-7.8029947,1.1533405,1.752342,-1.0353395,-2.2292747,-14.55,47.79375,-4.78125,0.45055848,-0.5283439,0.675152,999.3569, , , , 
2025-11-24 19:54:49.150,3.4217365,-7.5589266,0.14117654,1.494557,-0.8368084,-2.1938446,-17.1,45.91875,-5.49375,0.4712582,-0.51045877,0.674299,999.3498, , , , 
2025-11-24 19:54:49.170,3.0293136,-7.8293157,-0.0741775,1.232496,-0.55336714,-2.1516948,-18.018751,45.487503,-9.075001,0.48948926,-0.4936453,0.6726852,999.3498, , , , 
2025-11-24 19:54:49.192,2.2851455,-8.01117,-0.50488555,0.9392809,-0.17096578,-1.9586616,-21.2625,44.53125,-10.06875,0.50760907,-0.4742055,0.6707629,999.3388,37.887446,127.74018285,144.64617919921875,1.04
2025-11-24 19:54:49.210,1.9190438,-8.238488,-1.012164,0.65095276,0.042836893,-1.7247003,-22.931252,42.862503,-9.806251,0.51546615,-0.46403083,0.66998833,999.3388, , , , 
2025-11-24 19:54:49.230,1.9597218,-8.571091,-0.8446664,0.2325104,0.17478369,-1.3166426,-22.987501,41.86875,-9.58125,0.5241481,-0.45119575,0.6685735,999.3317, , , , 
2025-11-24 19:54:49.250,2.6799614,-9.12144,-0.69152576,0.008933897,0.21082471,-1.1113921,-24.768751,40.93125,-10.125,0.5279074,-0.4445748,0.66725665,999.3317, , , , 
2025-11-24 19:54:49.270,3.4313076,-9.889536,-0.74416786,-0.21586435,0.14118612,-0.9409608,-25.968752,41.568752,-10.03125,0.5301237,-0.4406292,0.6653781,999.3378, , , , 
2025-11-24 19:54:49.290,3.5964124,-10.315458,-0.4642076,-0.41989318,0.114308074,-0.81634444,-25.95,40.95,-10.14375,0.53111666,-0.4392938,0.6634117,999.3378, , , , 
2025-11-24 19:54:49.310,4.072584,-11.004591,-0.02871387,-0.6446914,-0.0054214248,-0.57138765,-26.250002,40.162502,-10.2375,0.53134775,-0.439958,0.65936106,999.33514, , , , 
2025-11-24 19:54:49.330,4.8382874,-11.674582,0.038285162,-0.81634444,-0.0054214248,-0.37896523,-27.806252,39.75,-9.731251,0.53055376,-0.44316393,0.65549207,999.33514, , , , 
2025-11-24 19:54:49.351,5.0081778,-12.062219,0.15314065,-1.0160972,0.1796706,-0.19265148,-28.425001,38.925003,-8.38125,0.5278171,-0.44844428,0.65171885,999.3461, , , , 
2025-11-24 19:54:49.370,3.8285162,-11.509477,0.6652047,-1.2311217,0.44417506,0.23312128,-26.79375,39.84375,-7.36875,0.5216419,-0.45572612,0.64897466,999.3461, , , , 
2025-11-24 19:54:49.391,2.9455647,-10.095319,1.4476577,-1.2323433,0.5266418,0.8085559,-27.2625,38.925003,-8.6625,0.51174396,-0.46536115,0.64793247,999.342, , , , 
2025-11-24 19:54:49.410,3.3906298,-8.807981,1.9286151,-1.0093777,0.5816196,1.4346923,-24.768751,41.175003,-7.6687503,0.49535993,-0.47995418,0.64988846,999.342, , , , 
2025-11-24 19:54:49.430,4.5224347,-8.425129,1.2969099,-0.8132901,0.6744711,1.7779983,-23.94375,42.375,-7.8187504,0.48004034,-0.4920845,0.6541787,999.34125, , , , 
2025-11-24 19:54:49.451,5.460421,-8.492127,0.50009996,-0.7094431,0.81008303,1.9887466,-25.331251,42.206253,-5.49375,0.4632487,-0.5039184,0.6600402,999.34125, , , , 
2025-11-24 19:54:49.470,6.04427,-8.786445,-0.047856454,-0.7925207,0.94569504,2.1530693,-20.6625,43.55625,-4.9875,0.44483405,-0.51574856,0.6666116,999.3344, , , , 
2025-11-24 19:54:49.490,6.3625154,-9.078369,0.21774685,-0.9098067,1.0110576,2.3430483,-20.34375,45.318752,-3.43125,0.42434877,-0.5283116,0.6731405,999.3344, , , , 
2025-11-24 19:54:49.510,6.7166533,-8.69791,0.6125626,-0.9849431,0.8998802,2.5898376,-18.806252,44.98125,-2.6437502,0.40208003,-0.5419382,0.67932963,999.3366, , , , 
2025-11-24 19:54:49.533,7.288538,-8.207381,0.95712906,-1.0466404,0.7587704,2.818301,-12.88125,46.59375,-5.0437503,0.3730948,-0.56047547,0.68595535,999.3366, , , , 
2025-11-24 19:54:49.550,8.020741,-7.542177,1.6845472,-0.9568433,0.4588358,2.9575782,-10.5375,46.59375,-5.2875004,0.35007006,-0.5758452,0.6902446,999.34, , , , 
2025-11-24 19:54:49.570,8.817552,-6.95115,2.2372892,-0.7717513,0.13141228,3.0095017,-8.981251,47.850002,-3.3750002,0.32879272,-0.5906537,0.693872,999.34, , , , 
2025-11-24 19:54:49.590,9.5353985,-6.314659,3.0556345,-0.46143198,-0.17096578,2.9618542,-7.8562503,47.831253,-1.1625,0.31013173,-0.60387003,0.6972198,999.342, , , , 
2025-11-24 19:54:49.610,10.755738,-5.5537415,3.0460632,0.011988222,-0.41592255,2.8836637,-3.5062501,49.125004,0.15,0.29442137,-0.61428887,0.7012663,999.342, , , , 
2025-11-24 19:54:49.630,12.007184,-5.1086764,2.4502504,0.3595703,-0.48067424,2.6900194,-0.93750006,50.268753,-0.4875,0.28142813,-0.6214112,0.70639235,999.3525, , , , 
2025-11-24 19:54:49.650,12.404392,-3.9984066,1.3950156,0.5519927,-0.42936158,2.3943608,1.3125,49.631252,-1.7625,0.27073732,-0.62537944,0.71223277,999.3525, , , , 
2025-11-24 19:54:49.670,13.648661,-3.7615173,0.14117654,0.47624546,-0.14347686,2.0070727,2.9625,49.18125,-1.29375,0.25926858,-0.62781924,0.7191841,999.3588, , , , 
2025-11-24 19:54:49.690,14.177474,-3.6610186,-0.3804588,0.28321218,0.038560838,1.5837433,4.0875,48.187504,-1.9875001,0.25283766,-0.6288047,0.72249216,999.3588, , , , 
2025-11-24 19:54:49.710,14.175081,-3.5246277,-0.37806597,0.05291616,0.11797326,0.984485,7.6875005,49.18125,-3.1875002,0.24448001,-0.630485,0.72564703,999.3527, , , , 
2025-11-24 19:54:49.730,13.354343,-3.603591,-0.28953153,-0.1627191,-0.0041996953,0.4896845,7.05,48.35625,-1.8375001,0.2410777,-0.6319927,0.72604305,999.3527, , , , 
2025-11-24 19:54:49.750,12.6676035,-4.1491547,0.06460621,-0.40401068,0.026343543,0.18669555,10.481251,46.987503,-4.275,0.24018107,-0.63412064,0.724583,999.352, , , , 
2025-11-24 19:54:49.770,12.447463,-5.0344987,1.1916257,-0.5151881,0.117362395,0.021762058,8.962501,50.437504,-3.075,0.23997937,-0.6370382,0.7217292,999.352, , , , 
2025-11-24 19:54:49.790,12.751352,-5.7260246,1.8927227,-0.41134107,0.100869045,-0.020998476,8.512501,49.125004,-1.25625,0.23987858,-0.63968617,0.7188483,999.3464, , , , 
2025-11-24 19:54:49.810,13.514663,-5.953343,2.2707887,-0.047265664,-0.14103341,-0.22136213,8.418751,49.256252,-2.9625,0.24168646,-0.6406569,0.71673185,999.3464, , , , 
2025-11-24 19:54:49.830,14.380864,-6.8913293,1.3806586,0.11217005,-0.41836601,-0.55061823,7.4437504,49.631252,-0.71250004,0.24716793,-0.63908786,0.7158547,999.35077, , , , 
2025-11-24 19:54:49.850,14.718252,-8.17149,1.105484,0.08834632,-0.5655844,-0.89514595,7.2937503,48.768753,-2.04375,0.2564623,-0.6366566,0.71416867,999.35077, , , , 
2025-11-24 19:54:49.870,14.763716,-9.040084,1.105484,0.06513346,-0.6779835,-1.1987457,6.6562505,50.062504,-0.80625004,0.26833466,-0.63374424,0.71152234,999.3481, , , , 
2025-11-24 19:54:49.890,13.63191,-9.035298,1.5074782,0.010766491,-0.7567851,-1.4705806,5.30625,49.18125,-1.5375,0.28247625,-0.6304125,0.7078274,999.3481, , , , 
2025-11-24 19:54:49.910,11.454442,-7.597212,2.7278178,0.08834632,-0.8190933,-1.6746094,3.80625,48.9,-2.60625,0.29800925,-0.6264472,0.70353884,999.3537, , , , 
2025-11-24 19:54:49.930,10.195817,-6.599405,3.4480574,0.31680974,-0.7598394,-1.8939099,1.44375,50.287502,-2.5875,0.31463066,-0.620798,0.69967496,999.3537, , , , 
2025-11-24 19:54:49.950,9.798609,-6.7740808,3.5318062,0.60635966,-0.63644475,-2.151084,1.5937501,49.55625,-3.0375001,0.3322086,-0.6121692,0.69714475,999.3527, , , , 
2025-11-24 19:54:49.970,9.485149,-7.984849,2.2851455,0.99303705,-0.42875072,-2.4632359,-0.16875,50.1375,-4.5750003,0.35535312,-0.5963168,0.69627076,999.3527, , , , 
2025-11-24 19:54:49.990,9.152547,-8.721839,0.8805587,1.0761147,-0.34017533,-2.5872414,-2.86875,49.10625,-4.3875003,0.36944747,-0.5847721,0.6964763,999.3493, , , , 
2025-11-24 19:54:50.010,8.020741,-8.867801,-0.5910272,0.807945,-0.32246023,-2.5615852,-8.19375,48.693752,-5.8125,0.39243907,-0.5652057,0.69585484,999.3493, , , , 
2025-11-24 19:54:50.030,7.692925,-8.724232,-0.76570326,0.3681224,-0.38782278,-2.4107015,-9.675,48.54375,-6.2625003,0.40949607,-0.55206686,0.6929351,999.35175, , , , 
2025-11-24 19:54:50.050,7.5589266,-8.539984,0.050249275,-0.049098257,-0.48433942,-2.335565,-11.55,47.98125,-6.1875005,0.4251052,-0.5423137,0.6872694,999.35175, , , , 
2025-11-24 19:54:50.070,6.8315086,-8.051848,1.4117653,-0.22624904,-0.5442042,-2.2983024,-13.031251,46.4625,-6.1125,0.43979582,-0.5348963,0.6794187,999.3527, , , , 
2025-11-24 19:54:50.090,5.912665,-7.4919276,2.4765713,-0.112017326,-0.4965567,-2.2072835,-16.0125,47.025,-4.59375,0.45722958,-0.5261034,0.6690017,999.3527, , , , 
2025-11-24 19:54:50.110,5.271388,-7.075577,2.6632116,0.16959134,-0.31329727,-2.0887759,-17.868752,45.84375,-5.1000004,0.470092,-0.51765615,0.66222966,999.3532, , , , 
2025-11-24 19:54:50.130,4.95075,-6.9702926,2.053042,0.45853037,-0.10438152,-1.9458334,-19.95,46.36875,-5.0625,0.48143348,-0.5071338,0.65815187,999.3532, , , , 
2025-11-24 19:54:50.150,4.1036906,-7.164111,0.39720857,0.79939294,0.2767981,-1.7980042,-22.462502,44.11875,-4.9875,0.49111447,-0.49447575,0.65693957,999.3554, , , , 
2025-11-24 19:54:50.170,3.2015967,-7.207182,-1.1246266,0.80122554,0.46677706,-1.6605595,-24.16875,42.206253,-4.6875,0.49876073,-0.48059857,0.65791565,999.3554, , , , 
2025-11-24 19:54:50.191,2.4263222,-7.1617184,-2.4071796,0.473802,0.4655553,-1.4211005,-24.375002,42.45,-7.4625,0.5044353,-0.46811384,0.6590673,999.3554,37.88745723,127.7401806,144.985107421875,1.11
2025-11-24 19:54:50.210,2.120041,-7.365108,-2.3784657,0.08834632,0.2694677,-1.1724786,-26.437502,39.487503,-6.61875,0.508388,-0.45916885,0.6587887,999.3554, , , , 
2025-11-24 19:54:50.230,2.0434706,-7.8556366,-1.9477576,-0.32643086,-0.12148573,-0.8187879,-27.487501,41.4,-8.775001,0.51157683,-0.454791,0.65625304,999.35956, , , , 
2025-11-24 19:54:50.250,2.2229323,-8.207381,-1.1294123,-0.533514,-0.32184938,-0.5585595,-27.4125,39.768753,-6.525,0.51424676,-0.45524472,0.6516074,999.35956, , , , 
2025-11-24 19:54:50.270,3.062813,-8.836694,0.09571291,-0.68256503,-0.4654026,-0.13217586,-27.16875,40.162502,-7.05,0.5159693,-0.46076238,0.64486766,999.36005, , , , 
2025-11-24 19:54:50.290,3.9816568,-9.853643,0.49292147,-0.6807324,-0.5295434,0.1683696,-29.456251,40.55625,-6.20625,0.5160025,-0.4657795,0.6411674,999.36005, , , , 
2025-11-24 19:54:50.310,4.5918264,-10.009177,0.69152576,-0.6605739,-0.5325977,0.6417898,-27.937502,41.568752,-5.34375,0.5142108,-0.47660986,0.6362588,999.3649, , , , 
2025-11-24 19:54:50.330,5.1254263,-9.858429,0.9236295,-0.61598074,-0.41836601,1.0736712,-27.187502,40.3875,-3.9750001,0.51033247,-0.48714405,0.63409495,999.3649, , , , 
2025-11-24 19:54:50.350,6.3457656,-10.1288185,0.8039884,-0.529238,-0.32368198,1.391321,-27.750002,40.575,-2.3812501,0.50420046,-0.49857417,0.63374555,999.36395, , , , 
2025-11-24 19:54:50.370,7.685746,-10.674382,0.3469593,-0.49136436,-0.3285689,1.5953498,-25.500002,42.300003,-2.5500002,0.49649498,-0.5105154,0.634735,999.36395, , , , 
2025-11-24 19:54:50.390,8.702696,-10.559526,0.2105684,-0.45715594,-0.3352884,1.7621158,-23.41875,43.256252,-1.5937501,0.48796916,-0.52306914,0.6360491,999.36176, , , , 
2025-11-24 19:54:50.410,9.667004,-10.348958,-0.4354937,-0.4418843,-0.2314414,1.8287001,-20.868752,44.775,-4.2562504,0.47620815,-0.53876126,0.6382605,999.36176, , , , 
2025-11-24 19:54:50.430,8.769695,-8.688339,-0.29671,-0.5274054,-0.09644028,1.8128176,-21.431252,44.4375,-1.25625,0.46581575,-0.5510125,0.64001644,999.36884, , , , 
2025-11-24 19:54:50.451,7.678568,-7.1952176,0.3924229,-0.52496195,0.0184023,1.8451934,-18.675001,45.84375,-0.22500001,0.4544402,-0.5628801,0.64177793,999.36884, , , , 
2025-11-24 19:54:50.470,7.513463,-6.786045,0.863809,-0.3502546,0.023900084,1.9490404,-16.1625,47.456253,0.65625,0.4423817,-0.5740029,0.6441518,999.362, , , , 
2025-11-24 19:54:50.490,8.181061,-7.23111,1.0480564,-0.033215772,-0.050625417,2.0797656,-15.843751,47.49375,-0.76875,0.43025124,-0.58395535,0.64766425,999.362, , , , 
2025-11-24 19:54:50.510,9.030513,-7.245467,1.0839486,0.41943502,-0.17524183,2.2392013,-12.0,49.875004,-0.54375005,0.41858786,-0.59211916,0.65288633,999.3652, , , , 
2025-11-24 19:54:50.530,10.042677,-6.788438,0.4881358,0.9722676,-0.37132943,2.3650393,-11.38125,48.581253,-0.075,0.40552533,-0.5987577,0.6623457,999.3652, , , , 
2025-11-24 19:54:50.550,10.662417,-5.8672013,-0.4881358,1.2471569,-0.46051568,2.3595417,-9.13125,48.693752,-2.325,0.39669597,-0.60123324,0.67145216,999.36884, , , , 
2025-11-24 19:54:50.570,10.99502,-4.6875396,-1.5672989,1.1958442,-0.32429284,2.217821,-6.6375003,48.825,-0.88125,0.38852546,-0.60220504,0.6805624,999.36884, , , , 
2025-11-24 19:54:50.591,11.344372,-3.4480574,-2.510071,0.80000377,0.066049755,1.9569817,-4.0687504,48.131252,-5.2875004,0.37979192,-0.60325456,0.68833876,999.37494, , , , 
2025-11-24 19:54:50.610,11.521441,-2.565106,-2.4909284,0.25083634,0.5492438,1.4847832,-3.3000002,49.068752,-4.3500004,0.36945707,-0.6052583,0.69430196,999.37494, , , , 
2025-11-24 19:54:50.630,11.002198,-2.172683,-2.5220351,-0.22075126,0.8705587,1.0278563,-1.35,50.756252,-4.8,0.35862258,-0.6082545,0.69811153,999.3747, , , , 
2025-11-24 19:54:50.650,9.973285,-2.091327,-2.1894326,-0.6593522,1.0916917,0.68088514,0.26250002,49.93125,-5.8500004,0.34776425,-0.6124805,0.69959253,999.3747, , , , 
2025-11-24 19:54:50.670,9.382257,-2.428715,-1.4859428,-1.0661881,1.2633448,0.4218785,1.8375001,49.95,-3.6937501,0.33387306,-0.6198636,0.6983388,999.3703, , , , 
2025-11-24 19:54:50.690,8.977871,-2.725425,-0.42831525,-1.1975241,1.2627338,0.2758818,1.2750001,50.025,-4.5750003,0.32546014,-0.6250186,0.6963193,999.3703, , , , 
2025-11-24 19:54:50.710,8.85823,-3.1944182,0.38285163,-1.1608721,1.1332306,0.1805869,2.5875,49.406254,-2.04375,0.31496957,-0.63176024,0.69293106,999.3732, , , , 
2025-11-24 19:54:50.730,9.133404,-3.8093736,1.0648061,-0.9238566,0.8705587,0.09445497,2.4562502,50.362503,-0.54375005,0.3040774,-0.63887954,0.6886108,999.3732, , , , 
2025-11-24 19:54:50.750,9.343972,-3.9673,1.2969099,-0.68561935,0.6280454,0.0712421,1.3125,49.875004,0.69375,0.29762805,-0.64297915,0.6857856,999.3735, , , , 
2025-11-24 19:54:50.770,9.868001,-4.046263,1.2418749,-0.48097965,0.4276817,0.030314164,0.7875,50.193752,0.73125005,0.2932009,-0.64574003,0.68366855,999.3735, , , , 
2025-11-24 19:54:50.790,10.906486,-4.5487556,1.294517,-0.28550294,0.2609156,-0.089415334,1.1437501,49.725002,0.8625,0.2904065,-0.6475433,0.6817206,999.3693, , , , 
2025-11-24 19:54:50.810,11.69851,-5.2235317,1.18684,-0.12545635,0.1485165,-0.2183078,2.5687501,49.612503,1.1812501,0.29027504,-0.6476237,0.6809171,999.3693, , , , 
2025-11-24 19:54:50.830,12.337394,-5.9318075,1.0456635,0.056581352,-0.0011453715,-0.4125628,0.31875002,50.11875,2.1750002,0.29275388,-0.64603597,0.6801186,999.3674, , , , 
2025-11-24 19:54:50.850,12.887743,-6.8195443,0.8207382,0.14637847,-0.14592032,-0.61659163,-0.1875,50.568752,2.6625001,0.29727784,-0.6434809,0.67958057,999.3674, , , , 
2025-11-24 19:54:50.870,13.600804,-8.099705,0.73459655,0.14454588,-0.3004691,-0.86582446,-1.1437501,49.350002,1.7437501,0.30413952,-0.6403282,0.6784303,999.3647, , , , 
2025-11-24 19:54:50.891,14.007584,-9.099904,1.0815558,0.18303037,-0.42142034,-1.0570252,-0.41250002,49.425003,2.7562501,0.31303546,-0.6367206,0.67651683,999.3647, , , , 
2025-11-24 19:54:50.910,13.823337,-9.427721,1.5768701,0.29604036,-0.46784607,-1.2072979,-1.21875,49.725002,1.10625,0.32365358,-0.63222545,0.6743699,999.3632, , , , 
2025-11-24 19:54:50.930,12.476177,-8.367701,2.2851455,0.5941424,-0.46295914,-1.3868921,-3.9,49.4625,1.10625,0.33557367,-0.625949,0.67294276,999.3632, , , , 
2025-11-24 19:54:50.950,11.157732,-7.149754,2.5220351,0.93256146,-0.42080948,-1.6165773,-5.15625,49.818752,1.3687501,0.34887037,-0.61694354,0.6729542,999.36395, , , , 
2025-11-24 19:54:50.970,10.049855,-6.393622,2.1176481,1.3216823,-0.29802567,-1.8896339,-6.6937504,49.93125,-0.93750006,0.36754674,-0.6009268,0.67522067,999.36395, , , , 
2025-11-24 19:54:50.990,9.229117,-6.6831536,0.91884387,1.5458697,-0.15997021,-2.042961,-7.65,49.4625,-2.0625,0.3835009,-0.5845331,0.6785555,999.3637, , , , 
2025-11-24 19:54:51.010,8.863015,-7.0636125,-0.72502524,1.490281,-0.07933606,-2.0802236,-9.825001,48.24375,-1.29375,0.3992576,-0.56670403,0.6822038,999.3637, , , , 
2025-11-24 19:54:51.030,8.446664,-7.288538,-1.5816557,1.1628574,-0.042073313,-1.9983678,-11.71875,47.325,-3.6750002,0.41399986,-0.54978997,0.6846338,999.3647, , , , 
2025-11-24 19:54:51.050,8.183454,-7.233503,-1.4931214,0.7761801,-0.16241367,-1.8865795,-12.0,48.16875,-3.6937501,0.4272071,-0.53574526,0.68481064,999.3647, , , , 
2025-11-24 19:54:51.070,8.059027,-7.099505,-0.6771688,0.39011353,-0.39881834,-1.7870085,-15.76875,46.050003,-5.3250003,0.43976137,-0.5252617,0.6820962,999.3598, , , , 
2025-11-24 19:54:51.090,8.075776,-6.9056864,0.61016977,0.07063124,-0.6468294,-1.7546327,-16.6875,45.61875,-8.45625,0.4555458,-0.5159425,0.6752186,999.3598, , , , 
2025-11-24 19:54:51.110,7.8173513,-6.778867,1.7180467,0.005268709,-0.68653566,-1.7839543,-17.94375,45.975002,-6.95625,0.46516302,-0.5114171,0.6698274,999.362, , , , 
2025-11-24 19:54:51.130,7.396215,-6.439086,2.4191437,0.08956805,-0.65293807,-1.8022802,-20.53125,44.193752,-5.6625004,0.48098183,-0.5033812,0.66075313,999.362, , , , 
2025-11-24 19:54:51.150,6.8171515,-6.1710896,2.644069,0.25572327,-0.41592255,-1.8199953,-23.4375,43.65,-5.15625,0.49306515,-0.49547228,0.6544798,999.3608, , , , 
2025-11-24 19:54:51.170,5.9174504,-6.0227346,2.28036,0.39561132,-0.10804671,-1.7613522,-26.325,43.10625,-5.1375003,0.50367606,-0.48575452,0.65009385,999.3608, , , , 
2025-11-24 19:54:51.190,5.3072805,-5.948557,1.9597218,0.45914125,0.15645774,-1.6611704,-24.337502,42.693752,-6.0937505,0.512277,-0.4749091,0.64758193,999.36395,37.88746765,127.74017804,144.8228759765625,1.12
2025-11-24 19:54:51.210,4.733003,-5.879165,1.5840486,0.49579313,0.417297,-1.5206715,-25.781252,41.30625,-7.1062503,0.5171197,-0.46636206,0.6469799,999.36395, , , , 
2025-11-24 19:54:51.230,3.8691943,-5.9030933,0.87338024,0.50434524,0.679358,-1.283656,-28.1625,39.693752,-6.15,0.5221252,-0.45194867,0.6482087,999.35297, , , , 
2025-11-24 19:54:51.250,3.1609187,-5.898308,0.66999036,0.5135082,0.72028595,-0.9867757,-28.3875,39.1875,-8.400001,0.5240664,-0.43853185,0.6513678,999.35297, , , , 
2025-11-24 19:54:51.270,2.8115666,-5.9916277,0.49052864,0.5587122,0.6097194,-0.63858277,-29.175001,38.86875,-8.606251,0.5243802,-0.42942175,0.65478224,999.3588, , , , 
2025-11-24 19:54:51.291,3.0269206,-6.2931237,0.22731815,0.6118574,0.42645997,-0.18409938,-29.250002,37.631252,-10.5375,0.52410984,-0.42240348,0.6588487,999.3588, , , , 
2025-11-24 19:54:51.310,3.9050865,-6.95115,-0.25842485,0.5916989,0.23892449,0.16653702,-29.062502,37.7625,-11.025001,0.5234171,-0.4177775,0.6633809,999.3581, , , , 
2025-11-24 19:54:51.330,5.1326046,-7.8077803,-0.7680961,0.4304306,-0.0041996953,0.43837184,-27.806252,38.775,-12.3,0.52251226,-0.41602102,0.6675711,999.3581, , , , 
2025-11-24 19:54:51.350,6.431907,-8.441878,-1.0408778,0.18730642,-0.3108538,0.6485093,-28.706251,37.425003,-9.975,0.52166545,-0.4177169,0.67039543,999.35834, , , , 
2025-11-24 19:54:51.370,7.271788,-8.740981,-0.8877372,-0.1297324,-0.58391035,0.7792344,-29.2875,38.23125,-9.95625,0.52129364,-0.42309967,0.6710105,999.35834, , , , 
2025-11-24 19:54:51.391,8.049456,-9.119047,-0.61734825,-0.4815905,-0.5961277,0.8873575,-28.556252,38.30625,-8.64375,0.5202424,-0.4341315,0.66921043,999.3608, , , , 
2025-11-24 19:54:51.410,8.396415,-10.033105,-0.3684947,-0.8401681,-0.4220312,1.006476,-25.7625,38.23125,-9.8625,0.51722604,-0.44562325,0.6668174,999.3608, , , , 
2025-11-24 19:54:51.430,8.4347,-10.533205,0.33020952,-1.1193334,-0.15080725,1.2208896,-26.587502,39.99375,-8.94375,0.5108824,-0.45933992,0.66451526,999.3608, , , , 
2025-11-24 19:54:51.450,8.178668,-10.566705,1.0456635,-1.2250129,0.13202316,1.494557,-25.725,42.318752,-7.0125003,0.5008125,-0.47446778,0.66335124,999.3608, , , , 
2025-11-24 19:54:51.470,6.4941206,-8.650054,2.321038,-1.0655773,0.45150542,1.8745149,-23.90625,42.61875,-7.0687504,0.48721877,-0.48993403,0.66421294,999.3542, , , , 
2025-11-24 19:54:51.492,5.608776,-6.9942207,2.8235307,-0.73448855,0.6237693,2.1933863,-23.925001,42.61875,-5.9812503,0.47076392,-0.50424534,0.66814506,999.3542, , , , 
2025-11-24 19:54:51.510,6.3290157,-6.084948,2.3688943,-0.24396412,0.67508197,2.4591126,-20.1,44.23125,-4.78125,0.4528821,-0.51648486,0.67513895,999.3564, , , , 
