Time,Accel_X,Accel_Y,Accel_Z,Gyro_X,Gyro_Y,Gyro_Z,Mag_X,Mag_Y,Mag_Z,Orient_X,Orient_Y,Orient_Z,Pressure,Lat,Lng,Alt,Speed
2025-11-24 19:47:35.304,-5.690132,3.8380876,7.0899334,0.07238748,-0.70890856,-0.021685699,9.31875,24.45,-42.54375,-0.027061485,0.28205124,0.6461821,999.257,37.88750372,127.74030241,146.90545654296875,0.0
2025-11-24 19:47:35.325,-4.4434714,3.345166,6.836294,-0.77854717,-0.49205157,0.15485422,9.150001,23.587502,-43.85625,-0.021833152,0.27093577,0.6486306,999.2497, , , , 
2025-11-24 19:47:35.345,-3.7710886,3.1226335,7.5924263,-1.1957678,-0.06017018,0.10476331,9.543751,24.0,-44.23125,-0.026868602,0.26081544,0.65294,999.2475, , , , 
2025-11-24 19:47:35.364,-3.7543387,3.0388846,8.236095,-1.4114031,0.2452622,0.05589413,11.64375,25.593752,-46.40625,-0.03357571,0.25521177,0.65576416,999.2475, , , , 
2025-11-24 19:47:35.385,-3.682554,3.2159536,9.674182,-1.4908155,0.33017242,-0.08460477,8.306251,28.087502,-43.256252,-0.045126084,0.24791011,0.6593773,999.2419, , , , 
2025-11-24 19:47:35.404,-3.6059837,3.359523,10.140782,-1.2935061,0.3594939,-0.39736754,8.775001,29.118752,-41.8125,-0.060367502,0.23929569,0.6616797,999.2419, , , , 
2025-11-24 19:47:35.424,-3.6873398,3.1202407,9.552148,-1.1175771,0.22632541,-0.5677988,7.0125003,29.925001,-40.143753,-0.07140808,0.23338749,0.6610284,999.23334, , , , 
2025-11-24 19:47:35.444,-3.4863427,2.6081767,10.097712,-0.93798286,-0.21532984,-0.67775446,8.418751,29.7,-39.956253,-0.08016451,0.22677003,0.6591084,999.23334, , , , 
2025-11-24 19:47:35.464,-3.7878382,2.5603201,10.727024,-0.5647445,-1.1658354,-0.7082977,7.1250005,31.931252,-40.575,-0.08334893,0.21701056,0.65652657,999.2343, , , , 
2025-11-24 19:47:35.485,-3.6801612,2.6919255,10.042677,-0.2837467,-1.497535,-0.7706059,5.8125,32.662502,-40.78125,-0.07946476,0.20442715,0.65364474,999.2343, , , , 
2025-11-24 19:47:35.504,-3.507878,1.3663018,7.2622166,-0.79320794,-1.5909973,-1.0674862,2.4,33.300003,-39.54375,-0.073080555,0.1873599,0.6481789,999.2309, , , , 
2025-11-24 19:47:35.527,-3.546163,2.4454648,6.489335,-1.5512911,-2.5977025,-0.6649263,0.15,31.575,-39.506252,-0.07089266,0.16678026,0.6441628,999.2309, , , , 
2025-11-24 19:47:35.544,-2.821138,2.1750758,6.2644095,-2.201862,-3.4553566,-0.03084867,-0.91875005,33.075,-36.54375,-0.06609112,0.1348066,0.6455289,999.25385, , , , 
2025-11-24 19:47:35.564,-0.9164511,1.8113668,7.233503,-2.6575673,-3.9086182,0.48227775,-3.61875,34.893753,-36.375,-0.060102265,0.09313677,0.6521334,999.25385, , , , 
2025-11-24 19:47:35.584,0.94277215,1.9621146,7.4536424,-2.5476115,-3.1089964,0.47861254,-5.0062504,36.112503,-34.912502,-0.05487034,0.05000767,0.6598248,999.28973, , , , 
2025-11-24 19:47:35.604,1.1844472,1.2346965,8.650054,-1.9550728,-0.9294308,0.18600832,-7.2187505,37.612503,-33.675003,-0.05634516,0.018559072,0.6644868,999.28973, , , , 
2025-11-24 19:47:35.624,1.6414764,-0.82313097,9.954143,-1.1572833,0.44440413,-0.091324285,-6.525,39.037502,-30.900002,-0.065275535,0.004517762,0.66565794,999.3493, , , , 
2025-11-24 19:47:35.644,-0.55034924,-2.1822543,11.181661,-0.32956156,1.3613122,-0.1640172,-7.1062503,39.09375,-30.675001,-0.07587229,0.0030378646,0.6640724,999.3493, , , , 
2025-11-24 19:47:35.664,-3.182454,-1.7060826,10.360922,0.56352276,0.77854717,0.3808742,-5.7562504,39.99375,-30.712502,-0.08431132,0.011414805,0.66283524,999.4025, , , , 
2025-11-24 19:47:35.684,-4.0941195,-1.5457634,8.516056,1.1792744,-0.83719015,1.2024873,-1.6500001,38.4375,-32.456253,-0.08118321,0.019475272,0.6669962,999.4025, , , , 
2025-11-24 19:47:35.704,-2.1678972,-0.6795616,7.678568,1.5628976,-1.9788965,1.8390085,-0.84375006,38.756252,-32.550003,-0.05856994,0.020143462,0.6810351,999.3852, , , , 
2025-11-24 19:47:35.724,-0.06460621,0.2847459,6.8482585,1.7247767,-2.4889686,1.7455461,-0.95625,38.25,-32.5125,-0.032163825,0.016599398,0.6946789,999.3852, , , , 
2025-11-24 19:47:35.744,0.9882358,0.54317075,5.4053864,1.7773111,-3.617236,0.946535,-1.81875,38.0625,-35.8125,-4.3409932E-4,0.009052345,0.7051582,999.3444, , , , 
2025-11-24 19:47:35.764,0.6628119,0.45224348,4.019942,1.8988732,-5.049103,0.12247839,-3.0187502,35.7,-36.16875,0.039931413,-0.0066131535,0.7088749,999.3444, , , , 
2025-11-24 19:47:35.784,-0.13878371,-0.040677983,3.199204,2.3674064,-6.5255632,-0.13713914,-6.58125,33.862503,-38.006252,0.091339745,-0.030132424,0.70570934,999.3024, , , , 
2025-11-24 19:47:35.804,-1.1533405,-1.3280165,1.39023,2.9959862,-7.9097824,0.1640172,-14.043751,31.743752,-38.34375,0.15579163,-0.059778824,0.69807243,999.3024, , , , 
2025-11-24 19:47:35.824,-0.3589234,-2.5316064,-0.5599205,3.4461937,-8.405805,0.571464,-18.91875,30.000002,-38.9625,0.23061751,-0.093555495,0.6872614,999.29755, , , , 
2025-11-24 19:47:35.844,0.09810573,-3.6753755,-2.009971,3.3056948,-8.429018,1.4883721,-25.95,26.5125,-36.787502,0.32630473,-0.13708888,0.6708265,999.29755, , , , 
2025-11-24 19:47:35.864,2.2444677,-4.7377887,-2.143969,2.8408267,-8.071051,2.4266603,-30.562502,24.281252,-33.7125,0.39595026,-0.17618912,0.65832734,999.2873, , , , 
2025-11-24 19:47:35.884,4.651647,-4.6971107,-1.038485,2.3796237,-6.5976453,2.9532259,-35.98125,25.312502,-29.643751,0.45338935,-0.21496534,0.64810264,999.2873, , , , 
2025-11-24 19:47:35.904,5.0273204,-5.4963136,-1.5218352,1.6001602,-4.3728757,3.5726426,-38.625,23.90625,-27.900002,0.4932486,-0.24852985,0.6437161,999.27216, , , , 
2025-11-24 19:47:35.925,4.9363933,-6.6759753,-2.6464617,0.5665771,-2.3154829,4.334391,-39.0,26.812502,-23.23125,0.5131408,-0.27886453,0.64781374,999.27216, , , , 
2025-11-24 19:47:35.945,5.0009995,-8.295917,-3.4073794,-0.729678,-0.7498365,5.0466595,-38.98125,28.5375,-21.1875,0.511533,-0.3105866,0.66061556,999.28094, , , , 
2025-11-24 19:47:35.965,7.496713,-11.243874,-1.4524434,-2.8787003,0.60689414,5.6966195,-38.081253,32.23125,-21.337502,0.48087013,-0.3598689,0.6817387,999.28094, , , , 
2025-11-24 19:47:35.985,10.683953,-12.777673,3.5796626,-3.9171703,0.8494075,5.969065,-32.025,37.068752,-17.90625,0.43991354,-0.407415,0.69591117,999.2868, , , , 
2025-11-24 19:47:36.005,13.423735,-15.010177,6.367301,-4.1877837,0.4621192,5.8639965,-29.38125,42.412502,-15.562501,0.39370605,-0.45706972,0.70498925,999.2868, , , , 
2025-11-24 19:47:36.024,15.266209,-16.797615,8.271988,-4.294074,0.04612029,5.8352857,-22.29375,46.48125,-13.14375,0.34819314,-0.5065925,0.707586,999.31683, , , , 
2025-11-24 19:47:36.044,18.211773,-17.077576,9.547362,-4.2378745,-0.018631376,5.6184287,-17.643751,48.787502,-9.6,0.30345362,-0.55392945,0.7052503,999.31683, , , , 
2025-11-24 19:47:36.064,22.021147,-14.593825,10.884951,-3.742463,-0.53420126,5.0955286,-13.687501,51.281254,-5.3625,0.26136753,-0.59615374,0.69713974,999.34515, , , , 
2025-11-24 19:47:36.084,26.41437,-11.227124,10.04507,-2.830442,-1.9171991,4.1059275,-7.6687503,53.737503,-3.2062502,0.23024464,-0.6314256,0.6904439,999.34515, , , , 
2025-11-24 19:47:36.104,27.070004,-7.2646093,9.970892,-2.401004,-2.889085,2.2501204,-3.825,53.362503,-0.4875,0.21817224,-0.6663988,0.6743764,999.36395, , , , 
2025-11-24 19:47:36.125,24.43072,-5.615955,11.66501,-2.2006404,-2.314872,1.0448842,-2.5125,52.74375,1.725,0.22236332,-0.6879141,0.6577295,999.36395, , , , 
2025-11-24 19:47:36.145,22.688744,-4.024728,13.172488,-1.4895937,-0.70890856,0.77854717,-1.575,54.05625,4.4812503,0.22510059,-0.7026817,0.6438677,999.3725, , , , 
2025-11-24 19:47:36.164,25.349564,-1.9716859,11.038091,-0.51282096,0.47494736,0.46273008,0.75,53.287502,6.1312504,0.22161122,-0.70899147,0.63813287,999.3725, , , , 
2025-11-24 19:47:36.184,26.51726,-0.3062813,6.5754766,0.25137085,1.0491602,-0.39492407,1.35,54.093754,6.0375004,0.2178137,-0.7067323,0.6392067,999.39813, , , , 
2025-11-24 19:47:36.204,25.844877,-0.086141616,3.0053852,0.7211259,1.0479386,-1.3784164,-0.69375,53.49375,6.9,0.21967095,-0.6982643,0.64270157,999.39813, , , , 
2025-11-24 19:47:36.224,24.406792,-2.0985055,-0.5766702,0.80847955,0.7119629,-2.5378377,-1.6125001,53.287502,6.8437505,0.23354515,-0.6825969,0.6455095,999.4101, , , , 
2025-11-24 19:47:36.244,21.169302,-4.706682,-1.753939,0.47494736,0.4187478,-3.3130252,-3.9562502,53.812504,4.74375,0.25316548,-0.6692884,0.6427303,999.4101, , , , 
2025-11-24 19:47:36.264,18.393627,-6.352944,-1.3304094,-0.02535089,0.34483317,-3.666105,-7.8562503,53.4,4.7250004,0.27568737,-0.657385,0.6346527,999.3974, , , , 
2025-11-24 19:47:36.284,16.500904,-7.4584284,-0.12921242,-0.44501498,0.61422455,-3.8298168,-10.462501,53.625004,5.7562504,0.2969345,-0.64678246,0.62255526,999.3974, , , , 
2025-11-24 19:47:36.305,14.512469,-7.312466,1.8376877,-0.61361367,1.0674862,-3.9208355,-12.937501,52.893753,4.96875,0.31475523,-0.635692,0.6086197,999.37933,37.88750372,127.74030241,146.90545654296875,0.0
2025-11-24 19:47:36.324,13.3639145,-7.34118,2.6895328,-0.4486802,1.3625339,-4.0821037,-17.175001,51.468754,4.2562504,0.32992506,-0.6220875,0.5947354,999.37933, , , , 
2025-11-24 19:47:36.344,11.988042,-8.310273,2.7349963,-0.110871956,1.4633266,-4.236653,-21.581251,50.11875,6.1875005,0.34479383,-0.6048236,0.5814999,999.3676, , , , 
2025-11-24 19:47:36.364,10.27478,-9.645468,2.4191437,0.35338527,1.4248421,-4.193892,-25.29375,48.2625,4.51875,0.3643794,-0.5785248,0.566547,999.3676, , , , 
2025-11-24 19:47:36.385,8.377272,-10.463814,2.3545375,0.82619464,1.2525783,-3.9403832,-28.81875,46.66875,3.43125,0.3809125,-0.55498976,0.5566568,999.3588, , , , 
2025-11-24 19:47:36.405,6.802795,-10.336994,2.1798615,1.4034618,0.8988875,-3.4590218,-34.912502,43.2,2.11875,0.3983779,-0.53049815,0.5494539,999.3588, , , , 
2025-11-24 19:47:36.426,6.111269,-9.966106,1.1892328,1.8060217,0.5225948,-3.0625706,-34.350002,42.15,-0.82500005,0.41724336,-0.50620276,0.54489124,999.35834, , , , 
2025-11-24 19:47:36.446,4.8933225,-9.54497,-0.22731815,1.9367468,0.21899502,-2.7320926,-39.506252,38.4,-0.84375006,0.4374613,-0.4831673,0.54158705,999.35834, , , , 
2025-11-24 19:47:36.464,3.266203,-9.152547,-1.524228,1.8487823,0.12614357,-2.4339907,-39.28125,37.18125,-2.49375,0.4575158,-0.46213904,0.5384895,999.3569, , , , 
2025-11-24 19:47:36.484,1.5672989,-8.539984,-2.6009982,1.6203188,0.3338376,-2.1621559,-41.1375,35.8875,-3.7687502,0.4751447,-0.4428417,0.53582203,999.3569, , , , 
2025-11-24 19:47:36.504,-1.7060826,-8.015956,-4.1371903,1.1774418,0.53420126,-1.700342,-42.675003,33.35625,-3.4687502,0.48849332,-0.42513365,0.534112,999.3476, , , , 
2025-11-24 19:47:36.524,-3.7256248,-7.4416785,-4.4817567,0.75899947,0.4883864,-0.9947933,-42.75,31.3875,-5.8125,0.49690595,-0.411407,0.5335259,999.3476, , , , 
2025-11-24 19:47:36.544,-4.321438,-6.9655066,-3.7471602,0.38637197,0.3564396,-0.06811142,-45.581253,30.35625,-6.5437503,0.50080365,-0.40257585,0.5354397,999.3471, , , , 
2025-11-24 19:47:36.564,-2.7589245,-6.8602223,-3.330809,0.182954,0.160352,0.69546956,-43.66875,31.1625,-6.1687503,0.4995495,-0.4019579,0.53986174,999.3471, , , , 
2025-11-24 19:47:36.584,-1.8927227,-7.051648,-2.6799614,0.08093958,-0.082161315,1.118188,-42.54375,32.287502,-6.95625,0.49622712,-0.4062129,0.54571044,999.3405, , , , 
2025-11-24 19:47:36.604,-1.3447664,-7.391429,-1.9381863,0.040622506,-0.17867795,1.6972878,-41.737503,33.35625,-6.95625,0.49145824,-0.41423246,0.55283475,999.3405, , , , 
2025-11-24 19:47:36.624,-0.49052864,-7.652247,-1.7036897,-0.014966187,-0.1621846,2.2617269,-41.11875,32.8125,-7.4625,0.48428518,-0.42508134,0.5622844,999.34174, , , , 
2025-11-24 19:47:36.644,0.72023964,-8.0614195,-1.8185452,-0.15790854,-0.09987639,2.8151703,-40.78125,34.4625,-7.275,0.47391385,-0.43868265,0.57411844,999.34174, , , , 
2025-11-24 19:47:36.664,2.012364,-8.738588,-1.6199409,-0.318566,-0.28985533,3.382053,-38.41875,37.55625,-5.8500004,0.4559503,-0.4597129,0.5910696,999.3393, , , , 
2025-11-24 19:47:36.684,4.1587257,-9.698111,-0.62452674,-0.29107708,-0.2770272,3.6544986,-35.175003,38.90625,-8.56875,0.43960804,-0.4796847,0.60475665,999.3393, , , , 
2025-11-24 19:47:36.704,5.953343,-11.370693,-0.29192436,-0.2122755,-0.44562587,3.9263334,-33.881252,40.5,-5.5687504,0.42160287,-0.49971753,0.6191522,999.3449, , , , 
2025-11-24 19:47:36.725,7.8987074,-13.014563,0.20578274,-0.2623664,-0.29901832,4.270861,-31.35,44.362503,-4.8187504,0.4021932,-0.5203869,0.63356084,999.3449, , , , 
2025-11-24 19:47:36.744,9.071191,-14.065011,0.57427746,-0.41813695,0.17134757,4.5756826,-28.050001,46.95,-5.0062504,0.37844816,-0.5405858,0.6486079,999.35223, , , , 
2025-11-24 19:47:36.764,11.353944,-15.261423,0.77766734,-0.64721125,0.66431546,4.9049387,-22.650002,48.35625,-4.2562504,0.34862858,-0.56002617,0.66421205,999.35223, , , , 
2025-11-24 19:47:36.784,15.127425,-16.474585,0.30867413,-1.1957678,1.0332778,5.1401215,-19.35,50.812504,-5.2125,0.30283102,-0.58436507,0.68220997,999.3588, , , , 
2025-11-24 19:47:36.804,18.343378,-15.433706,1.7682959,-1.8396193,1.0674862,4.854237,-13.762501,52.3875,-4.8,0.26227263,-0.60539424,0.6912623,999.3588, , , , 
2025-11-24 19:47:36.825,19.334007,-13.150953,5.575277,-1.9972224,0.8213077,4.402197,-9.1875,51.975002,-3.3937502,0.22319417,-0.62656635,0.6944273,999.3554, , , , 
2025-11-24 19:47:36.844,20.446669,-9.77468,7.4273214,-1.4676026,0.31184646,3.7210827,-3.9375002,54.225002,-1.29375,0.18982168,-0.64431703,0.6953024,999.3554, , , , 
2025-11-24 19:47:36.866,20.511276,-6.984649,5.989235,-1.0870339,0.066889696,2.8872523,-0.50625,53.2125,0.24375,0.16529551,-0.65708166,0.69581133,999.36444, , , , 
2025-11-24 19:47:36.887,18.948763,-5.5226345,3.940979,-1.2996148,0.38698283,2.0625849,2.1937501,53.60625,1.1812501,0.14317109,-0.6692537,0.6939794,999.36444, , , , 
2025-11-24 19:47:36.904,17.883957,-4.4434714,4.6564326,-1.5354086,0.6203332,1.6074907,4.14375,53.79375,1.7437501,0.13094786,-0.67660207,0.69047266,999.363, , , , 
2025-11-24 19:47:36.925,17.484356,-3.3714871,5.6207404,-1.4352268,0.558025,1.0754274,4.70625,52.4625,4.6875,0.11296172,-0.6880995,0.68252903,999.363, , , , 
2025-11-24 19:47:36.945,17.520247,-2.725425,5.3216376,-1.2574651,0.30879214,0.5684097,7.51875,53.475002,6.3375,0.103628665,-0.6955838,0.67588574,999.3647, , , , 
2025-11-24 19:47:36.964,17.448463,-2.309074,5.5896335,-1.1267401,0.10415245,0.032070402,7.55625,52.350002,7.4812503,0.10032578,-0.70046335,0.67055297,999.3647, , , , 
2025-11-24 19:47:36.985,15.964912,-2.053042,6.74776,-0.7620538,-0.1621846,-0.675311,7.18125,51.300003,8.8125,0.10251153,-0.70651925,0.6615015,999.3708, , , , 
2025-11-24 19:47:37.005,13.88555,-2.0745773,6.9990063,-0.13652828,-0.19883649,-1.1621703,6.4687505,52.968754,9.88125,0.11058734,-0.7079178,0.65605,999.3708, , , , 
2025-11-24 19:47:37.024,12.581462,-2.2612174,5.8743796,0.42974338,-0.054061532,-1.4144574,3.7500002,52.443752,9.431251,0.1217395,-0.7050838,0.6537548,999.383, , , , 
2025-11-24 19:47:37.044,11.801401,-2.5339992,4.3812585,0.8952223,0.033902995,-1.6258166,4.0125003,53.718754,8.231251,0.13462879,-0.698308,0.6544226,999.383, , , , 
2025-11-24 19:47:37.064,11.303694,-3.0460632,2.9168508,1.20432,-0.052839804,-1.8322889,2.86875,54.487503,7.8562503,0.14962931,-0.68860984,0.6569629,999.39325, , , , 
2025-11-24 19:47:37.084,10.758131,-4.034299,1.8424734,1.4114031,-0.20250167,-2.043648,-0.58125,54.131252,7.6125,0.17189713,-0.67404866,0.6609045,999.39325, , , , 
2025-11-24 19:47:37.105,10.703095,-4.8765726,0.61016977,1.3790272,-0.3265072,-2.1945317,-0.75,54.61875,6.05625,0.19196941,-0.6615737,0.663493,999.383, , , , 
2025-11-24 19:47:37.124,10.514063,-5.7930236,-0.047856454,1.1328487,-0.41935867,-2.365574,-4.89375,53.475002,3.16875,0.21320547,-0.64976424,0.6639865,999.383, , , , 
2025-11-24 19:47:37.145,10.1599245,-6.8195443,0.21535404,0.8151991,-0.4395172,-2.4761405,-6.8437505,53.156254,2.9250002,0.23454803,-0.6394153,0.66167134,999.37787, , , , 
2025-11-24 19:47:37.164,9.942178,-8.051848,0.7322037,0.5158753,-0.41080657,-2.5463898,-8.700001,53.343754,2.34375,0.2550794,-0.6303902,0.6569679,999.37787, , , , 
2025-11-24 19:47:37.184,9.982856,-9.068798,1.3040884,0.341168,-0.3564396,-2.6117523,-11.4375,53.550003,2.30625,0.27459273,-0.62224984,0.6504432,999.3637, , , , 
2025-11-24 19:47:37.204,9.633504,-9.894321,1.7228323,0.25625777,-0.28985533,-2.6722279,-13.51875,52.612503,1.35,0.29314923,-0.61423963,0.6427923,999.3637, , , , 
2025-11-24 19:47:37.225,9.016156,-10.425529,2.1559331,0.2953531,-0.35399613,-2.6740606,-15.525001,51.393753,1.7812501,0.3157208,-0.6038083,0.6324659,999.35394, , , , 
2025-11-24 19:47:37.244,8.602198,-11.059627,2.292324,0.36560258,-0.35399613,-2.604422,-19.5,51.24375,0.95625,0.33359492,-0.59504795,0.6242389,999.35394, , , , 
2025-11-24 19:47:37.264,8.19781,-12.260823,1.902294,0.42852163,-0.23182319,-2.504851,-21.712502,51.15,0.58125,0.3505273,-0.5856599,0.6167032,999.35077, , , , 
2025-11-24 19:47:37.285,6.8865438,-13.036098,1.2897314,0.45478883,0.19639303,-2.3368633,-23.00625,49.781254,0.01875,0.36513236,-0.575518,0.6104574,999.35077, , , , 
2025-11-24 19:47:37.304,4.287938,-13.586447,-0.6652047,0.39431322,1.0436624,-2.14383,-24.431252,48.6375,0.8625,0.37471062,-0.56350946,0.6068975,999.34784,37.88750372,127.74030241,146.90545654296875,0.0
2025-11-24 19:47:37.324,0.81834537,-15.787844,-3.3236306,0.01802051,1.6337578,-1.4676026,-25.85625,47.25,-0.15,0.37681162,-0.5508834,0.6063442,999.34784, , , , 
2025-11-24 19:47:37.344,-2.6919255,-14.550755,-3.723232,-0.5525272,1.1585051,-0.33505934,-27.112501,47.4,-2.9625,0.36927006,-0.5422458,0.6075358,999.34125, , , , 
2025-11-24 19:47:37.364,-3.9074793,-12.940385,-1.875973,-0.8628465,0.2800815,0.6380483,-28.181252,46.65,-0.4875,0.35922208,-0.5458692,0.60802835,999.34125, , , , 
2025-11-24 19:47:37.384,-2.7445676,-10.875379,2.0315065,-0.5506946,-0.6081159,1.4694352,-28.3875,46.875,-2.1750002,0.3493696,-0.55638236,0.6091526,999.33026, , , , 
2025-11-24 19:47:37.404,-1.0695918,-10.255638,3.4313076,0.28741187,-0.9782999,1.9599596,-25.706251,47.15625,-2.1750002,0.34211627,-0.56724316,0.6139566,999.33026, , , , 
2025-11-24 19:47:37.426,1.524228,-11.16491,1.1988041,1.0980295,-1.0357212,2.3240352,-24.91875,47.475002,-0.88125,0.33746028,-0.5749375,0.6240692,999.3486, , , , 
2025-11-24 19:47:37.446,3.723232,-11.356337,-1.4715859,1.2257001,-0.76999503,2.3985605,-22.237501,48.487503,0.01875,0.33334237,-0.579979,0.6373451,999.3486, , , , 
2025-11-24 19:47:37.464,4.359723,-11.114661,-3.07717,0.80664694,-0.31367907,2.3319764,-19.96875,50.343754,0.3,0.3269478,-0.5839822,0.6504759,999.34906, , , , 
2025-11-24 19:47:37.484,4.130012,-10.370493,-2.6895328,0.18051054,0.068722285,2.2922702,-18.6,51.862503,-1.7812501,0.31636205,-0.58921844,0.66112727,999.34906, , , , 
2025-11-24 19:47:37.504,4.199404,-9.939785,-1.0959128,-0.32406378,0.29352054,2.292881,-16.96875,51.281254,-2.0812502,0.29762393,-0.5986678,0.6705509,999.3349, , , , 
2025-11-24 19:47:37.524,4.2017965,-9.631111,0.34217364,-0.4327977,0.3265072,2.3399174,-13.481251,53.1375,-3.3187501,0.28022766,-0.6073763,0.6762934,999.3349, , , , 
2025-11-24 19:47:37.544,4.3334017,-9.226724,0.95473623,-0.35521787,0.31612253,2.4358232,-11.75625,53.062504,-2.7375002,0.26222268,-0.6157159,0.6819147,999.3283, , , , 
2025-11-24 19:47:37.565,4.843073,-8.79123,1.2346965,-0.20983206,0.34361145,2.572046,-9.337501,52.800003,-1.2750001,0.2438234,-0.6230978,0.6880619,999.3283, , , , 
2025-11-24 19:47:37.584,5.4317074,-8.556734,1.3136597,-0.09498947,0.399811,2.6917756,-6.9187503,54.037502,0.26250002,0.22479478,-0.6292957,0.69491595,999.31976, , , , 
2025-11-24 19:47:37.604,6.948757,-8.176275,1.0480564,0.03940078,0.4847212,2.84327,-4.875,53.250004,-0.075,0.20476736,-0.6342061,0.7025248,999.31976, , , , 
2025-11-24 19:47:37.624,10.040284,-7.066005,0.61016977,0.10720677,0.61605716,2.6997168,0.13125001,54.018753,-0.93750006,0.18427151,-0.637849,0.71036917,999.3178, , , , 
2025-11-24 19:47:37.644,12.174682,-5.4699926,-0.23928227,0.094378605,0.8494075,2.0546436,1.6125001,54.05625,-1.725,0.16516495,-0.6397617,0.7172888,999.3178, , , , 
2025-11-24 19:47:37.665,11.423335,-5.556134,-2.254039,-0.3649917,0.90927225,1.4034618,4.0125003,53.68125,-1.03125,0.14559416,-0.64127356,0.7222785,999.3046, , , , 
2025-11-24 19:47:37.684,10.102497,-5.6303115,-2.428715,-1.1872157,1.0937533,1.2568543,6.5437503,52.443752,-1.21875,0.13053259,-0.6463936,0.7209179,999.3046, , , , 
2025-11-24 19:47:37.705,9.973285,-5.9007006,0.1052842,-1.8475605,1.1701115,1.3338232,6.76875,52.8375,-1.10625,0.112508886,-0.6563313,0.7146486,999.29974, , , , 
2025-11-24 19:47:37.724,11.215159,-5.6614184,3.5940197,-1.9349142,1.0149518,1.2574651,7.2187505,51.73125,2.60625,0.09358418,-0.66841465,0.7057676,999.29974, , , , 
2025-11-24 19:47:37.745,12.710674,-5.4580283,5.7403817,-1.4407246,0.8286381,0.9453133,7.9125004,50.925003,3.9750001,0.077483006,-0.6786529,0.6975248,999.3046, , , , 
2025-11-24 19:47:37.765,13.201202,-5.599205,4.752146,-0.959974,0.9740239,0.6062833,10.40625,51.9,6.7500005,0.062328577,-0.6859714,0.6906205,999.3046, , , , 
2025-11-24 19:47:37.784,13.624732,-6.2285175,4.113262,-0.8365793,1.0833687,0.40958482,9.918751,51.600002,6.3562503,0.054338526,-0.6883822,0.687488,999.3227, , , , 
2025-11-24 19:47:37.804,14.416757,-6.9894347,4.436293,-0.7211259,0.88972455,0.14080434,8.85,51.487503,7.55625,0.04311366,-0.6913163,0.68229777,999.3227, , , , 
2025-11-24 19:47:37.824,15.677774,-8.039884,5.276174,-0.4346303,0.39553493,-0.24404047,11.3625,50.250004,8.90625,0.03910338,-0.6928895,0.6784493,999.33636, , , , 
2025-11-24 19:47:37.845,16.077375,-9.068798,5.2953167,-0.037568185,-0.37659815,-0.7486148,11.137501,51.45,10.556251,0.04267766,-0.6932772,0.67569417,999.33636, , , , 
2025-11-24 19:47:37.864,15.912271,-9.38465,5.5106707,0.24587308,-0.82436204,-1.0919209,10.3125,50.86875,9.450001,0.054047216,-0.6927644,0.6738679,999.3444, , , , 
2025-11-24 19:47:37.885,14.634503,-8.60459,5.828916,0.6325505,-1.1041381,-1.4352268,8.19375,51.393753,10.556251,0.0711359,-0.6907262,0.673054,999.3444, , , , 
2025-11-24 19:47:37.904,12.892529,-7.2861447,5.7523456,1.0180062,-1.1511747,-1.6520838,7.9500003,51.506252,9.0375,0.09173377,-0.6863193,0.67371,999.3188, , , , 
2025-11-24 19:47:37.925,11.980863,-6.3744793,4.76411,1.4138465,-1.113301,-1.872606,5.15625,52.10625,7.74375,0.120397955,-0.6767392,0.67688847,999.3188, , , , 
2025-11-24 19:47:37.945,11.801401,-6.6185474,3.4719856,1.6227623,-1.0344995,-2.1322236,4.2000003,53.006252,6.2625003,0.13890195,-0.66893303,0.679549,999.29755, , , , 
2025-11-24 19:47:37.964,11.181661,-7.2765737,1.5409778,1.6135993,-0.9453133,-2.5213444,1.21875,51.862503,4.1625004,0.17182514,-0.65367717,0.6832181,999.29755, , , , 
2025-11-24 19:47:37.984,10.179068,-8.087741,0.23449662,1.3271037,-0.8494075,-2.789514,-2.5687501,53.23125,1.5375,0.19907977,-0.64126307,0.6835676,999.2756, , , , 
2025-11-24 19:47:38.004,8.721839,-8.6548395,-0.22731815,0.8750638,-0.7351758,-2.898248,-3.80625,54.3375,1.7625,0.22539395,-0.6302959,0.68055606,999.2756, , , , 
2025-11-24 19:47:38.025,7.649854,-9.114262,0.40677986,0.4138609,-0.67775446,-2.8689265,-6.0375004,52.631252,0.5625,0.24956882,-0.6215418,0.6743192,999.26117, , , , 
2025-11-24 19:47:38.045,6.963114,-9.212367,1.3040884,0.20066908,-0.69302607,-2.7650795,-9.09375,52.818752,1.1812501,0.27164876,-0.61454517,0.6659502,999.26117, , , , 
2025-11-24 19:47:38.064,6.113662,-9.152547,2.2851455,0.21777329,-0.77427113,-2.608087,-11.700001,52.18125,0.5625,0.29237872,-0.6083106,0.65678674,999.2719, , , , 
2025-11-24 19:47:38.085,5.6470613,-8.822337,3.1154552,0.4156935,-0.8952223,-2.4407103,-13.837501,52.331253,-0.46875003,0.31758133,-0.6001732,0.646055,999.2719, , , , 
2025-11-24 19:47:38.104,5.1852465,-8.537591,3.2829528,0.64171344,-1.0039563,-2.3270893,-14.531251,50.287502,-2.11875,0.33292502,-0.5945643,0.6404514,999.2856, , , , 
2025-11-24 19:47:38.124,4.8526444,-8.350951,3.129812,0.89155716,-1.1242967,-2.198197,-17.775002,51.05625,0.3375,0.3592572,-0.58389586,0.6325231,999.2856, , , , 
2025-11-24 19:47:38.144,4.462614,-8.348558,2.8666015,1.0705405,-1.1823288,-2.0552545,-20.550001,49.65,0.09375,0.3806501,-0.5744362,0.6272389,999.3188, , , , 
2025-11-24 19:47:38.165,4.2711883,-8.427522,2.5028925,1.1969895,-1.2012656,-1.8353432,-22.5,49.4625,0.61875004,0.4016013,-0.5645657,0.6228978,999.3188, , , , 
2025-11-24 19:47:38.184,4.2975097,-8.602198,2.0027926,1.2495239,-1.1530073,-1.628871,-24.45,48.91875,-3.3187501,0.4215514,-0.55467665,0.6194294,999.3276, , , , 
2025-11-24 19:47:38.204,4.017549,-8.441878,1.6941184,1.2098176,-1.0760384,-1.4175117,-25.81875,48.018753,-2.1937501,0.4398789,-0.5451465,0.6167413,999.3276, , , , 
2025-11-24 19:47:38.224,3.940979,-8.623733,1.2562319,1.1242967,-0.8988875,-1.2342523,-27.206251,46.893753,-2.9250002,0.4599909,-0.53404236,0.6142201,999.3232, , , , 
2025-11-24 19:47:38.246,3.8333018,-8.807981,1.0073783,0.9935716,-0.7333432,-1.0882556,-29.75625,46.631252,-2.9437501,0.47350985,-0.52586275,0.6128176,999.3232, , , , 
2025-11-24 19:47:38.266,3.3906298,-9.157332,0.72741807,0.8591813,-0.5543598,-0.92271125,-30.112501,45.581253,-2.3812501,0.4846713,-0.5185064,0.6119297,999.32, , , , 
2025-11-24 19:47:38.285,3.4576287,-9.7196455,0.47138608,0.69058263,-0.3081813,-0.67958707,-31.087502,45.0,-4.40625,0.4932034,-0.51229215,0.6117453,999.32, , , , 
2025-11-24 19:47:38.304,3.6777685,-10.21496,-0.14117654,0.4572323,-0.041233372,-0.54458594,-30.88125,43.162502,-3.3937502,0.49870524,-0.5072229,0.61249083,999.3112,37.88750372,127.74030241,146.90545654296875,0.0
2025-11-24 19:47:38.324,3.3954153,-10.683953,-0.38285163,0.1414152,0.23121232,-0.3894263,-31.556252,44.081253,-4.3125,0.5010582,-0.5035791,0.61360365,999.3112, , , , 
2025-11-24 19:47:38.344,2.8259234,-11.217552,-0.3589234,-0.14813471,0.45784315,-0.07299834,-32.49375,42.375,-4.1062503,0.49976096,-0.5019524,0.61515087,999.30023, , , , 
2025-11-24 19:47:38.364,3.0269206,-11.507084,-0.20338993,-0.3827068,0.51282096,0.51159924,-32.34375,44.5125,-5.49375,0.49268016,-0.5041477,0.618353,999.30023, , , , 
2025-11-24 19:47:38.385,4.3525443,-11.349157,-0.15074782,-0.54825115,0.43340856,1.009454,-30.487501,44.2125,-5.5125003,0.48343283,-0.5099573,0.6217714,999.2797, , , , 
2025-11-24 19:47:38.404,5.1493545,-10.365707,0.27996024,-0.68875,0.37110037,1.3582579,-29.60625,43.55625,-5.1000004,0.47206238,-0.51881474,0.6252539,999.2797, , , , 
2025-11-24 19:47:38.424,5.9246287,-9.3200445,0.47138608,-0.8310815,0.48227775,1.6264275,-29.60625,44.175003,-6.525,0.45865658,-0.52955467,0.6288522,999.269, , , , 
2025-11-24 19:47:38.444,6.398408,-8.133204,1.1294123,-0.8805616,0.7345649,1.7828089,-26.00625,46.162502,-5.3250003,0.44261447,-0.54092634,0.6330479,999.269, , , , 
2025-11-24 19:47:38.464,6.946364,-8.015956,1.4859428,-0.7681625,0.9587523,1.9336925,-25.125002,48.35625,-5.08125,0.42426008,-0.5515108,0.63857,999.26263, , , , 
2025-11-24 19:47:38.484,7.9298143,-8.118847,1.3734802,-0.44929105,1.0057888,2.107178,-25.181252,47.362503,-5.175,0.40450698,-0.5606769,0.64590394,999.26263, , , , 
2025-11-24 19:47:38.504,9.008977,-8.126026,0.21774685,-0.25686863,0.82375115,2.151771,-22.0125,49.406254,-3.3000002,0.38522887,-0.5684166,0.65447104,999.26166, , , , 
2025-11-24 19:47:38.524,9.805787,-7.783852,-1.052842,-0.37965247,0.62399834,2.0057745,-20.456251,49.706253,-4.875,0.3634803,-0.5778564,0.6637255,999.26166, , , , 
2025-11-24 19:47:38.544,9.554541,-7.133004,-0.74177504,-0.60872674,0.46700612,1.8280128,-17.456251,50.86875,-3.54375,0.3477049,-0.5863278,0.6683192,999.25653, , , , 
2025-11-24 19:47:38.564,8.786445,-6.2715883,0.19381863,-0.72295845,0.32162032,1.700953,-16.087502,51.768753,-4.36875,0.33332348,-0.59552914,0.6705981,999.25653, , , , 
2025-11-24 19:47:38.584,8.23131,-5.237889,0.70588267,-0.8054252,0.37965247,1.7192789,-14.531251,52.312504,-4.40625,0.31943625,-0.6048873,0.67184997,999.2492, , , , 
2025-11-24 19:47:38.604,8.300702,-4.5248275,1.4620147,-0.8463532,0.6026181,1.764483,-13.556251,51.393753,-3.2250001,0.3042541,-0.6140885,0.67300683,999.2492, , , , 
2025-11-24 19:47:38.624,8.877372,-3.5796626,2.3186452,-0.78893185,1.1951569,1.7693698,-10.368751,53.456253,-2.5875,0.2865717,-0.6220584,0.6750321,999.25165, , , , 
2025-11-24 19:47:38.644,9.590433,-2.8378878,2.0554347,-0.7516691,1.9019275,1.7082833,-9.375,51.825,-2.90625,0.2652107,-0.6274916,0.6787791,999.25165, , , , 
2025-11-24 19:47:38.664,10.679168,-2.5459633,1.3328022,-0.833525,2.4834707,1.565341,-7.18125,53.287502,-1.9875001,0.23985676,-0.63046974,0.683545,999.2541, , , , 
2025-11-24 19:47:38.684,11.356337,-2.091327,0.60777694,-0.99906933,2.6374087,1.2049308,-5.90625,53.156254,-1.6500001,0.20588872,-0.63240194,0.68802994,999.2541, , , , 
2025-11-24 19:47:38.704,11.30848,-1.9453648,0.46899325,-1.1859939,2.4712534,0.8463532,-3.3750002,52.66875,-0.3375,0.18668017,-0.6334907,0.6886807,999.2592, , , , 
2025-11-24 19:47:38.724,10.99502,-2.0027926,1.1126626,-1.3142756,1.9917246,0.4083631,-2.8312502,53.9625,-0.16875,0.15948601,-0.63640225,0.68561566,999.2592, , , , 
2025-11-24 19:47:38.744,10.707881,-2.603391,1.8951155,-1.3234385,1.3045018,0.11331542,-2.8125,52.706253,1.44375,0.14346667,-0.6398745,0.6803264,999.26337, , , , 
2025-11-24 19:47:38.764,10.79163,-3.2733815,2.9862428,-1.2525783,0.69058263,-0.08704823,-2.5500002,52.725002,2.8125,0.13287573,-0.64452356,0.6734371,999.26337, , , , 
2025-11-24 19:47:38.784,10.978271,-3.7088752,4.5822554,-1.0204496,0.12858704,-0.22204934,-2.5875,52.4625,2.8312502,0.12756936,-0.64979976,0.6659572,999.26117, , , , 
2025-11-24 19:47:38.804,11.8899355,-4.369294,5.1924253,-0.6704241,-0.1915061,-0.3252855,-2.625,53.943752,4.59375,0.12706211,-0.6544257,0.6593748,999.26117, , , , 
2025-11-24 19:47:38.824,12.748959,-5.1062837,4.9722853,-0.38026333,-0.23365578,-0.44196066,-1.7062501,54.16875,4.9500003,0.12980112,-0.6573847,0.65430146,999.2653, , , , 
2025-11-24 19:47:38.844,13.899907,-6.046663,4.570291,-0.16462806,-0.14874557,-0.62766355,-3.45,52.968754,7.51875,0.1354278,-0.65858996,0.64949566,999.2653, , , , 
2025-11-24 19:47:38.864,14.321044,-6.8410797,4.302295,-0.017409647,-0.12125666,-0.92271125,-6.6375003,53.025,6.61875,0.14165029,-0.6578118,0.64600843,999.26654, , , , 
2025-11-24 19:47:38.884,13.914264,-7.752745,4.0031924,0.10293072,-0.22204934,-1.199433,-6.9187503,53.100002,7.2562504,0.1503118,-0.6559281,0.6422149,999.26654, , , , 
2025-11-24 19:47:38.904,13.332808,-8.303095,3.912265,0.22082762,-0.3515527,-1.348484,-6.9750004,53.60625,7.70625,0.1613009,-0.65344113,0.6381701,999.27264, , , , 
2025-11-24 19:47:38.924,12.502499,-8.286345,4.1347976,0.41080657,-0.42974338,-1.4120139,-8.793751,53.287502,7.4437504,0.17392397,-0.65026736,0.63434106,999.27264, , , , 
2025-11-24 19:47:38.944,11.511869,-7.3028946,4.6301117,0.7064651,-0.44623673,-1.3826925,-9.58125,52.218754,6.6562505,0.18742564,-0.64577043,0.6316864,999.27826, , , , 
2025-11-24 19:47:38.964,11.294123,-6.391229,4.651647,1.0931425,-0.45295623,-1.4309508,-10.9875,52.4625,5.5687504,0.20209563,-0.6391241,0.63099706,999.27826, , , , 
2025-11-24 19:47:38.984,11.124232,-5.8839507,3.6873398,1.4608831,-0.42729992,-1.6453643,-12.468751,52.312504,4.9500003,0.22316091,-0.62701267,0.63253206,999.2861, , , , 
2025-11-24 19:47:39.004,10.767702,-6.4151573,2.7469604,1.5958842,-0.39064804,-1.8597778,-13.575001,52.350002,1.66875,0.23739047,-0.6180034,0.63379323,999.2861, , , , 
2025-11-24 19:47:39.024,10.037891,-7.1712894,1.7515461,1.6001602,-0.2886336,-2.0295982,-15.543751,49.800003,0.7875,0.26224318,-0.6013294,0.6352174,999.2836, , , , 
2025-11-24 19:47:39.044,9.0544405,-7.5637126,1.2107682,1.4883721,-0.21105379,-2.0784674,-16.368752,50.831253,0.80625004,0.2816807,-0.5874155,0.6353967,999.2836, , , , 
2025-11-24 19:47:39.064,8.080562,-7.62114,1.0935199,1.357647,-0.2593121,-1.9782856,-19.29375,50.662502,-0.88125,0.30010605,-0.57392293,0.6347258,999.2939, , , , 
2025-11-24 19:47:39.084,7.0636125,-7.1784678,1.4045869,1.2696824,-0.3356702,-1.7870849,-21.6,49.331253,-2.41875,0.31741604,-0.5616115,0.6334766,999.2939, , , , 
2025-11-24 19:47:39.105,6.326623,-6.5276203,1.7108682,1.222035,-0.36438084,-1.5909973,-23.41875,49.0125,-2.6625001,0.33734956,-0.54757684,0.63197803,999.3005, , , , 
2025-11-24 19:47:39.124,5.465207,-6.029913,1.8448663,1.2122612,-0.34666577,-1.4315616,-24.281252,46.818752,-3.8437502,0.3520491,-0.5368641,0.63115764,999.3005, , , , 
2025-11-24 19:47:39.144,4.587041,-5.5130634,1.8999012,1.2281437,-0.3265072,-1.2507457,-25.143751,46.10625,-4.18125,0.36557695,-0.52643466,0.6309837,999.3178, , , , 
2025-11-24 19:47:39.164,3.8572302,-5.0416775,1.8233309,1.2684608,-0.35766134,-1.0516037,-24.91875,46.29375,-7.6125,0.37811938,-0.5163271,0.63157904,999.3178, , , , 
2025-11-24 19:47:39.184,3.2590244,-4.7282176,1.7156538,1.3472623,-0.54275334,-0.77671456,-26.23125,45.65625,-6.9750004,0.39021474,-0.50691277,0.63288945,999.3305, , , , 
2025-11-24 19:47:39.204,3.278167,-4.453043,1.672583,1.4242313,-0.71257377,-0.56718796,-27.562502,44.8875,-6.1687503,0.40246817,-0.49863368,0.6347643,999.3305, , , , 
2025-11-24 19:47:39.224,3.888337,-4.551149,1.3734802,1.506698,-0.90010923,-0.39431322,-28.0125,43.875,-9.450001,0.4151678,-0.49126548,0.6370174,999.34784, , , , 
2025-11-24 19:47:39.244,4.2568316,-4.7952166,0.81595254,1.5219696,-1.0919209,-0.18112141,-28.66875,42.80625,-9.4875,0.43137747,-0.48331073,0.63995284,999.34784, , , , 
2025-11-24 19:47:39.264,4.9292145,-5.367101,0.16510476,1.3888011,-1.1340705,-0.2196059,-27.69375,43.800003,-11.493751,0.4446885,-0.4782464,0.6416204,999.36224, , , , 
2025-11-24 19:47:39.284,4.898108,-5.855237,-0.25124636,1.1572833,-1.2983931,-0.110871956,-28.5375,43.331253,-11.08125,0.4575096,-0.47459736,0.6418902,999.36224, , , , 
2025-11-24 19:47:39.304,5.5776696,-6.463014,-0.4235296,0.79259706,-1.2592977,0.03084867,-30.112501,41.30625,-10.950001,0.4691248,-0.47376654,0.6407721,999.3669,37.88751579,127.74030095,145.2052001953125,1.52
2025-11-24 19:47:39.324,6.3625154,-7.3435726,-0.1698904,0.33750278,-1.1120794,0.22754712,-30.993752,41.34375,-10.70625,0.47776663,-0.47552282,0.6387279,999.3669, , , , 
2025-11-24 19:47:39.344,6.838687,-8.499306,0.19860429,-0.09315688,-0.70402163,0.32100943,-30.337502,44.625,-9.4125,0.48278287,-0.47975588,0.63640153,999.363, , , , 
2025-11-24 19:47:39.364,6.515656,-9.202796,0.72741807,-0.43524116,-0.22571453,0.5372556,-30.018751,42.65625,-8.71875,0.48272818,-0.4856004,0.6347876,999.363, , , , 
2025-11-24 19:47:39.384,6.680761,-10.090533,1.1964114,-0.8353576,0.4309651,0.9257656,-31.25625,42.300003,-9.806251,0.4761713,-0.49313498,0.6352654,999.37054, , , , 
2025-11-24 19:47:39.404,7.2023964,-11.133803,1.524228,-1.0112866,0.80603606,1.344208,-30.581251,43.48125,-8.700001,0.4635229,-0.50244206,0.63784945,999.37054, , , , 
2025-11-24 19:47:39.424,7.649854,-11.341979,1.4596218,-1.0852013,1.0296125,1.6887357,-28.800001,42.91875,-8.231251,0.44134226,-0.5158034,0.6438548,999.3708, , , , 
2025-11-24 19:47:39.444,7.393822,-11.064412,1.3854443,-1.1713332,1.063821,1.8658864,-27.000002,45.3375,-8.25,0.42096776,-0.52736294,0.64935154,999.3708, , , , 
2025-11-24 19:47:39.464,6.3696938,-8.903693,2.4095724,-1.1908809,1.0766492,2.0931282,-22.40625,45.675003,-7.51875,0.39910263,-0.539711,0.65468544,999.3686, , , , 
2025-11-24 19:47:39.484,6.017949,-7.5182486,3.1369905,-1.0528255,1.1102468,2.166432,-21.50625,48.0,-6.9750004,0.37629977,-0.5516215,0.6603697,999.3686, , , , 
2025-11-24 19:47:39.504,5.515456,-7.542177,3.2542388,-0.8133665,1.1670572,2.3399174,-19.40625,49.0875,-5.86875,0.35318407,-0.5619737,0.6669636,999.37445, , , , 
2025-11-24 19:47:39.524,5.1756754,-8.499306,3.1441689,-0.4987711,1.2324197,2.707658,-17.6625,49.0125,-5.5875,0.32902312,-0.5708241,0.6754245,999.37445, , , , 
2025-11-24 19:47:39.544,6.245267,-9.710074,2.7397819,-0.07910699,1.1212423,3.227504,-15.20625,51.000004,-5.9625,0.29627374,-0.57987434,0.6897826,999.3962, , , , 
2025-11-24 19:47:39.565,9.025727,-9.241081,1.8568304,0.19272783,0.71074116,3.3307402,-13.031251,52.218754,-6.5625005,0.2708676,-0.5858846,0.7028856,999.3962, , , , 
2025-11-24 19:47:39.584,10.413564,-7.537391,0.8422736,0.19089524,0.33017242,2.9147413,-7.6312504,52.162502,-6.6562505,0.24996467,-0.5909358,0.71420425,999.3984, , , , 
2025-11-24 19:47:39.604,11.057234,-6.0083776,0.66041905,-0.20066908,0.3753764,2.229351,-5.71875,51.487503,-6.525,0.23334263,-0.5959311,0.72189176,999.3984, , , , 
2025-11-24 19:47:39.624,10.238888,-5.460421,1.7706888,-0.6007855,0.6148354,1.6563598,-4.2562504,52.987503,-5.3625,0.21859562,-0.60162306,0.7253636,999.38666, , , , 
2025-11-24 19:47:39.644,8.760123,-5.419743,3.7686956,-0.6966913,1.0125084,1.2788454,-1.5562501,53.268753,-5.6625004,0.20353344,-0.60716593,0.7263917,999.38666, , , , 
2025-11-24 19:47:39.664,7.5924263,-4.6755753,4.429115,-0.49938196,1.1352922,1.2116503,-1.2,53.79375,-3.8812501,0.18769634,-0.61090803,0.7277151,999.39984, , , , 
2025-11-24 19:47:39.684,7.7814593,-3.65384,3.3906298,-0.22693627,1.3106104,1.2116503,0.056250002,53.550003,-3.3750002,0.16760238,-0.6123703,0.7314226,999.39984, , , , 
2025-11-24 19:47:39.704,8.860622,-3.0053852,2.4023938,-0.18051054,1.4107922,1.1169662,2.90625,52.968754,-5.1937504,0.15536335,-0.61198276,0.73424375,999.4062, , , , 
2025-11-24 19:47:39.724,9.865608,-2.268396,1.7060826,-0.20922118,1.2226459,0.7290671,1.5937501,52.331253,-4.40625,0.13687621,-0.6107991,0.73785955,999.4062, , , , 
2025-11-24 19:47:39.744,9.521041,-2.4263222,1.0959128,-0.318566,0.74617136,0.37965247,4.5,52.256252,-3.4687502,0.12690812,-0.61051196,0.7386773,999.38983, , , , 
2025-11-24 19:47:39.764,7.6546397,-3.7710886,1.2251252,-0.49999282,-0.22082762,0.57818353,6.0937505,52.800003,-4.89375,0.12157382,-0.6122658,0.73748124,999.38983, , , , 
2025-11-24 19:47:39.784,10.686346,-3.1513474,3.1728828,-0.33444846,-0.56718796,0.4431824,5.2875004,52.593754,-3.5625002,0.12063679,-0.61739624,0.7351796,999.37494, , , , 
2025-11-24 19:47:39.804,11.313266,-4.7282176,3.0556345,-0.16279547,-0.86040306,0.20799945,6.3750005,54.318752,-3.61875,0.12397882,-0.620771,0.7334427,999.37494, , , , 
2025-11-24 19:47:39.824,11.837294,-4.907679,4.024728,0.07177661,-0.8164208,-3.054324E-4,4.3500004,52.350002,-2.53125,0.13215566,-0.6235646,0.73164564,999.36395, , , , 
2025-11-24 19:47:39.844,12.768102,-5.367101,3.129812,0.21349724,-0.60994846,-0.25198174,3.4687502,52.3875,-1.9687501,0.1396762,-0.6233205,0.731235,999.36395, , , , 
2025-11-24 19:47:39.864,14.210974,-6.1160545,2.2875385,0.14874557,-0.4517345,-0.54641855,4.65,52.3875,-2.25,0.14559303,-0.6224555,0.73075324,999.35175, , , , 
2025-11-24 19:47:39.884,15.570097,-7.0731835,2.4502504,0.047952887,-0.3179551,-1.2318088,4.21875,52.237503,-4.51875,0.1575621,-0.62078923,0.727792,999.35175, , , , 
2025-11-24 19:47:39.904,14.045869,-8.073383,2.9383862,-0.040011644,-0.29840744,-1.8060217,2.8125,52.706253,-3.0,0.17025837,-0.6186584,0.7232447,999.3388, , , , 
2025-11-24 19:47:39.924,13.021741,-9.556933,2.6823542,-0.15302163,-0.17195843,-2.134667,1.5,52.068752,-2.2125,0.18451464,-0.61610913,0.71709245,999.3388, , , , 
2025-11-24 19:47:39.944,12.143575,-10.468599,2.7708886,-0.29962918,-0.19272783,-2.206749,0.31875002,53.325,-3.8625002,0.19872104,-0.6137219,0.70956117,999.32245, , , , 
2025-11-24 19:47:39.964,11.538191,-10.073783,3.5700915,-0.35338527,-0.2904662,-2.1383321,-2.5125,53.268753,-1.3875,0.21259572,-0.6120367,0.7009123,999.32245, , , , 
2025-11-24 19:47:39.984,10.315458,-8.602198,5.063213,-0.02535089,-0.5366447,-2.0412047,-4.8375,51.9,-1.6875001,0.2304841,-0.6096007,0.6903483,999.3256, , , , 
2025-11-24 19:47:40.004,9.391829,-7.7001033,5.558527,0.5702423,-0.7492257,-1.9905028,-7.0125003,52.55625,-3.0375001,0.2426308,-0.60625696,0.68565255,999.3256, , , , 
2025-11-24 19:47:40.024,9.109476,-7.379465,4.7976093,1.0968077,-1.045495,-2.0241005,-10.1625,52.237503,-2.7,0.26680169,-0.5965271,0.6811897,999.33246, , , , 
2025-11-24 19:47:40.044,8.872586,-7.568498,3.5940197,1.46577,-1.2953387,-2.1419973,-9.918751,52.0125,-2.5500002,0.28997883,-0.5859202,0.6790926,999.33246, , , , 
2025-11-24 19:47:40.064,8.819944,-7.4033933,2.9168508,1.6801835,-1.5415173,-2.0265439,-14.231251,50.100002,-4.93125,0.31551853,-0.57415766,0.6771814,999.33246, , , , 
2025-11-24 19:47:40.084,8.492127,-7.6833534,2.2612174,1.7742567,-1.664912,-2.1786492,-15.056251,50.156254,-7.4625,0.34234488,-0.56132215,0.6752422,999.33246, , , , 
2025-11-24 19:47:40.104,7.9369926,-7.3292155,3.3690944,1.8475605,-1.7510439,-2.248288,-18.0,49.350002,-7.275,0.37071022,-0.5476324,0.6720416,999.32855, , , , 
2025-11-24 19:47:40.124,7.5828547,-6.2548385,3.4408789,2.1603234,-1.2525783,-2.2079709,-19.575,48.7125,-8.15625,0.40535942,-0.5278579,0.6689255,999.32855, , , , 
2025-11-24 19:47:40.144,6.2644095,-5.056034,2.1487548,2.2226315,-1.0485494,-2.1273365,-22.21875,46.350002,-10.81875,0.4299747,-0.50799185,0.66926765,999.3178, , , , 
2025-11-24 19:47:40.164,5.211568,-4.898108,0.9092726,1.7540982,-1.0595449,-2.080911,-26.156252,45.693752,-10.21875,0.44751155,-0.49392265,0.6685652,999.3178, , , , 
2025-11-24 19:47:40.184,4.65404,-4.314259,1.8376877,1.3063344,-0.6191115,-1.9837834,-25.893751,44.737503,-11.7375,0.4726995,-0.47405595,0.66464704,999.3188, , , , 
2025-11-24 19:47:40.204,4.7138605,-4.6779685,2.024328,1.2147046,-0.160352,-1.8115195,-27.69375,43.800003,-12.262501,0.48803553,-0.4585588,0.6624005,999.3188, , , , 
2025-11-24 19:47:40.224,4.2687955,-4.831109,1.7826529,1.054658,0.18661919,-1.3778055,-31.125002,41.9625,-12.88125,0.4990038,-0.44342566,0.66220134,999.3151, , , , 
2025-11-24 19:47:40.244,4.4602213,-5.1613183,1.39023,0.78771013,0.71013033,-0.8494075,-32.41875,39.73125,-14.475,0.5052543,-0.42773023,0.66529626,999.3151, , , , 
2025-11-24 19:47:40.264,4.395615,-5.271388,1.012164,0.5415316,1.0980295,-0.6343831,-31.087502,39.862503,-14.625001,0.50479317,-0.4197028,0.6690416,999.32074, , , , 
2025-11-24 19:47:40.284,4.682754,-5.7355957,0.9068798,0.13713914,1.203709,-0.37965247,-32.53125,39.862503,-15.8625,0.49905932,-0.40921757,0.6761565,999.32074, , , , 
2025-11-24 19:47:40.304,4.5224347,-6.2668023,1.3615161,-0.13408482,1.2831215,-0.15363249,-32.15625,38.775,-15.843751,0.49152184,-0.4041557,0.6815343,999.3317,37.88752466,127.74029568,145.4842529296875,1.14
2025-11-24 19:47:40.324,4.694718,-6.613762,1.7754744,-0.341168,1.176831,0.0962112,-29.531252,40.050003,-17.737501,0.4818638,-0.40179825,0.6869194,999.3317, , , , 
2025-11-24 19:47:40.344,5.0679984,-7.389036,2.388037,-0.47739083,0.8805616,0.27091852,-30.206251,38.86875,-17.90625,0.47188613,-0.4022089,0.69134283,999.3371, , , , 
2025-11-24 19:47:40.365,5.096712,-7.9298143,2.589034,-0.49754936,0.5207622,0.40775225,-29.343752,39.45,-18.018751,0.46074262,-0.40580592,0.6954008,999.3371, , , , 
2025-11-24 19:47:40.385,6.6448684,-9.4229355,2.821138,-0.53420126,0.28435755,0.5378664,-29.41875,39.9375,-17.268751,0.45511642,-0.40956756,0.69703364,999.3393, , , , 
2025-11-24 19:47:40.404,6.2668023,-9.377472,2.6775684,-0.4896081,0.5109884,0.56230104,-29.400002,39.9375,-17.587502,0.4477331,-0.4151495,0.6990924,999.3393, , , , 
2025-11-24 19:47:40.424,6.056234,-9.946963,1.5026926,-0.6685915,0.7693842,0.65942854,-29.1,41.34375,-18.768751,0.43582943,-0.4214472,0.7030439,999.3366, , , , 
2025-11-24 19:47:40.444,5.977271,-10.839486,0.60059845,-0.97280216,0.95020014,0.8976658,-27.468752,42.99375,-17.643751,0.42314005,-0.42814064,0.70647705,999.3366, , , , 
2025-11-24 19:47:40.464,5.4795637,-10.851451,0.08853444,-1.3460405,0.9153809,1.3716968,-27.112501,42.54375,-18.431252,0.4071785,-0.43833247,0.7097965,999.3344, , , , 
2025-11-24 19:47:40.484,6.45105,-10.6815605,0.55513483,-1.6728532,0.65881765,1.8597778,-23.19375,43.93125,-17.081251,0.3884225,-0.45288494,0.712575,999.3344, , , , 
2025-11-24 19:47:40.504,7.288538,-10.317851,1.430908,-1.7577634,0.33628106,2.1279476,-23.5125,44.756252,-14.45625,0.36902794,-0.47103372,0.71415454,999.3381, , , , 
2025-11-24 19:47:40.524,8.922835,-9.77468,2.6129622,-1.795637,-0.19089524,2.360687,-20.325,45.84375,-16.556252,0.35090363,-0.49157038,0.71427226,999.3381, , , , 
2025-11-24 19:47:40.544,10.133604,-7.9657063,4.1922255,-1.4126248,-0.4725039,2.079689,-20.212502,48.80625,-13.33125,0.33212438,-0.51717734,0.7125466,999.34467, , , , 
2025-11-24 19:47:40.564,10.375279,-8.439486,3.6753755,-1.1212423,-0.5561924,1.8219042,-18.206251,48.0,-11.8125,0.32400492,-0.5297822,0.71135074,999.34467, , , , 
2025-11-24 19:47:40.584,9.52822,-8.34138,3.0532417,-0.9685261,-0.3601048,1.6728532,-15.675,47.625,-9.262501,0.3124956,-0.54736686,0.70963573,999.3422, , , , 
2025-11-24 19:47:40.605,9.305687,-8.367701,3.333202,-0.9752456,-0.18234314,1.7363831,-12.675,50.175003,-9.4125,0.30221897,-0.5598749,0.7088212,999.3422, , , , 
2025-11-24 19:47:40.624,9.839287,-7.6402826,4.7808595,-0.82008594,0.06750056,1.7351614,-14.00625,51.018753,-7.4812503,0.2905308,-0.571353,0.7087272,999.332, , , , 
2025-11-24 19:47:40.644,10.186246,-6.9224358,4.814359,-0.68875,0.4725039,1.5635084,-12.093751,50.9625,-7.8187504,0.27757394,-0.5801919,0.71005595,999.332, , , , 
2025-11-24 19:47:40.664,8.374879,-5.2953167,4.302295,-0.7608321,0.90194184,1.5286891,-9.056251,52.3875,-6.2250004,0.2629288,-0.586724,0.71217567,999.3149, , , , 
2025-11-24 19:47:40.684,8.504091,-3.7280176,4.0845485,-0.82252944,1.0833687,1.5958842,-7.275,52.55625,-5.7937503,0.24126635,-0.594434,0.71486187,999.3149, , , , 
2025-11-24 19:47:40.704,8.839087,-1.8113668,3.1776686,-0.7223476,1.6343687,1.3301581,-5.34375,53.49375,-4.96875,0.22213252,-0.5990376,0.71739084,999.30585, , , , 
2025-11-24 19:47:40.726,8.049456,-1.2059826,2.143969,-0.7174607,2.6966627,0.85368353,-4.7250004,52.93125,-4.5375004,0.20034286,-0.60013235,0.7203791,999.30585, , , , 
2025-11-24 19:47:40.744,7.719246,-1.0049855,1.7659031,-0.7993166,2.9984298,0.6832523,-1.8750001,53.86875,-5.8125,0.1746213,-0.5982627,0.72322357,999.311, , , , 
2025-11-24 19:47:40.764,6.984649,-1.1700903,2.132005,-0.8646791,2.8713698,0.7156281,-2.325,53.41875,-2.34375,0.14847219,-0.59607226,0.72480905,999.311, , , , 
2025-11-24 19:47:40.784,8.212168,-0.6580262,2.548356,-0.8634574,2.4523168,0.62827444,-0.975,53.437504,-4.03125,0.12321245,-0.5942029,0.72535336,999.3149, , , , 
2025-11-24 19:47:40.804,8.525627,-0.33738798,3.7280176,-0.74372786,1.6209297,0.377209,0.45000002,54.075,-2.0625,0.103278,-0.593269,0.7244086,999.3149, , , , 
2025-11-24 19:47:40.824,9.217153,-0.8255238,4.8047876,-0.44623673,0.6557633,0.20189081,0.91875005,53.60625,-1.3125,0.091311686,-0.5930769,0.72274214,999.32025, , , , 
2025-11-24 19:47:40.844,11.576476,-0.9379865,4.6492543,-0.18173227,-0.32467464,0.17745622,-0.01875,53.268753,-1.9687501,0.08798604,-0.594144,0.7212983,999.32025, , , , 
2025-11-24 19:47:40.864,13.423735,-1.3375878,5.0392847,-0.14630212,-0.92148954,-0.16646065,1.29375,53.79375,-3.825,0.09345236,-0.596611,0.71954495,999.3266, , , , 
2025-11-24 19:47:40.884,15.3906355,-2.2181466,6.4534426,-0.035124727,-0.8518509,-0.5525272,0.46875003,53.456253,-2.1750002,0.103364155,-0.5992124,0.7166197,999.3266, , , , 
2025-11-24 19:47:40.904,16.766508,-3.0436704,7.0492554,0.16340633,-0.4468476,-1.1310161,-1.2375001,53.775,-1.7062501,0.11483358,-0.5991601,0.71325403,999.3205, , , , 
2025-11-24 19:47:40.924,18.027525,-3.6490545,7.5637126,0.3442223,-0.027183482,-1.8890994,-2.5125,54.000004,-1.2750001,0.12746389,-0.5956187,0.7091642,999.3205, , , , 
2025-11-24 19:47:40.944,21.640688,-4.56072,10.652846,1.0259475,0.038179047,-3.1487026,-4.33125,52.95,-1.6500001,0.1489526,-0.5852767,0.70248735,999.31903, , , , 
2025-11-24 19:47:40.964,19.721643,-6.142376,10.301102,1.7516547,-0.17134757,-4.349052,-7.5000005,53.250004,-1.48125,0.1693561,-0.57333905,0.6975973,999.31903, , , , 
2025-11-24 19:47:40.984,13.847264,-7.0492554,6.678368,1.9715661,-0.19761476,-4.5811806,-11.400001,51.881252,-4.0875,0.21242191,-0.5465748,0.6874073,999.3215, , , , 
2025-11-24 19:47:41.004,11.306087,-6.6999035,6.1040907,1.5885539,-0.20616686,-3.9678721,-15.20625,51.000004,-5.34375,0.23659025,-0.53060865,0.6803201,999.3215, , , , 
2025-11-24 19:47:41.024,13.026526,-6.0490556,8.748159,1.4376702,-0.057115857,-3.060738,-18.581251,50.906254,-6.05625,0.26869395,-0.5084949,0.6692624,999.3249, , , , 
2025-11-24 19:47:41.044,15.598811,-6.6568327,8.090134,1.8109087,0.34300056,-3.1749697,-24.45,47.943752,-6.8250003,0.2898128,-0.48942554,0.6633094,999.3249, , , , 
2025-11-24 19:47:41.064,12.184253,-5.6207404,7.9633136,2.1181736,0.3924806,-3.2543821,-24.862501,45.5625,-10.35,0.31099674,-0.46582872,0.65799046,999.32855, , , , 
2025-11-24 19:47:41.084,10.442278,-5.6757755,7.0229344,2.3313653,0.17501275,-2.9648323,-26.1,46.4625,-13.668751,0.33306423,-0.44031143,0.65337926,999.32855, , , , 
2025-11-24 19:47:41.104,9.537791,-5.400601,6.539584,2.3930628,-0.013744458,-2.6325219,-29.212502,43.29375,-14.231251,0.3553328,-0.41554552,0.6495497,999.33466, , , , 
2025-11-24 19:47:41.124,8.410771,-4.510471,6.259624,2.4272711,-0.1065959,-2.346637,-32.79375,40.068752,-15.075001,0.38240144,-0.3862642,0.6455158,999.33466, , , , 
2025-11-24 19:47:41.144,7.946564,-3.2805598,5.845666,2.3576326,-0.15668681,-2.1505494,-32.04375,40.55625,-19.2,0.40311432,-0.36375207,0.64262336,999.331, , , , 
2025-11-24 19:47:41.164,7.798209,-2.6751757,6.017949,2.2672246,-0.24953826,-2.0772457,-35.53125,34.21875,-18.618752,0.41799855,-0.34750468,0.640151,999.331, , , , 
2025-11-24 19:47:41.184,7.32443,-1.9357935,6.4773707,2.1817036,-0.2922988,-2.1456625,-36.018753,32.4375,-19.3875,0.44233057,-0.3215072,0.63458544,999.3376, , , , 
2025-11-24 19:47:41.204,5.7834525,-1.4883357,5.85763,2.1591015,-0.1744019,-2.0729697,-37.40625,31.931252,-20.925001,0.46098933,-0.30029112,0.62930554,999.3376, , , , 
2025-11-24 19:47:41.224,4.4410787,-0.8566305,4.8287163,1.9569054,-0.13347395,-1.542739,-39.318752,28.25625,-21.75,0.47756526,-0.27971876,0.6249791,999.32733, , , , 
2025-11-24 19:47:41.244,6.0490556,-2.510071,4.2855453,1.6972878,-0.1725693,-1.4114031,-39.300003,26.775002,-23.212502,0.49489442,-0.25821877,0.62107885,999.32733, , , , 
2025-11-24 19:47:41.264,7.3363943,-2.8235307,4.883751,1.6117667,-0.19944735,-1.3765838,-41.2125,23.962502,-21.300001,0.5042236,-0.24692245,0.6184269,999.3234, , , , 
2025-11-24 19:47:41.284,8.17149,-3.0317063,4.8263235,1.7510439,-0.30329436,-1.6294818,-41.04375,21.75,-23.04375,0.5202388,-0.2279322,0.61281484,999.3234, , , , 
2025-11-24 19:47:41.305,8.068598,-3.2949169,3.4289148,1.7791437,-0.39675668,-1.8035783,-42.3375,19.125,-21.825,0.53454375,-0.2114061,0.60661733,999.3254,37.88753549,127.74028965,145.704345703125,1.33
2025-11-24 19:47:41.324,7.0492554,-3.9098723,1.6677973,1.5537345,-0.5195405,-1.8603886,-43.0875,18.056252,-24.018751,0.5493161,-0.19526541,0.5985489,999.3254, , , , 
2025-11-24 19:47:41.344,5.9318075,-4.314259,0.44745782,1.1921027,-0.539699,-1.7626504,-42.112503,15.562501,-25.66875,0.56296796,-0.18102536,0.5892859,999.3354, , , , 
2025-11-24 19:47:41.365,4.7832522,-4.6229334,-0.30388847,0.7394518,-0.5244274,-1.5091414,-43.706253,14.906251,-25.312502,0.5742839,-0.16986208,0.5797063,999.3354, , , , 
2025-11-24 19:47:41.384,4.168297,-4.8933225,-0.18903299,0.3167334,-0.40408704,-1.0632101,-44.550003,12.31875,-23.53125,0.58226424,-0.16266046,0.5711597,999.3427, , , , 
2025-11-24 19:47:41.406,4.6085763,-5.278567,0.050249275,0.0051923506,-0.33139414,-0.58001614,-41.68125,11.137501,-25.612501,0.58663684,-0.15959585,0.56516594,999.3427, , , , 
2025-11-24 19:47:41.424,4.95075,-5.8935223,0.1698904,-0.228158,-0.24953826,-0.09498947,-44.775,10.425,-24.6375,0.58849007,-0.16112812,0.56117064,999.34784, , , , 
2025-11-24 19:47:41.444,4.7569313,-6.4008007,-0.03589234,-0.42119128,-0.03084867,0.4071414,-45.73125,9.450001,-23.400002,0.5871582,-0.16581926,0.5612334,999.34784, , , , 
2025-11-24 19:47:41.465,4.587041,-6.9415784,-0.59342,-0.67103493,0.23732096,1.068708,-44.643753,12.675,-23.081251,0.5824817,-0.17341132,0.5653227,999.3393, , , , 
2025-11-24 19:47:41.484,4.7449675,-7.8053875,-1.1150553,-0.92271125,0.27275112,1.7675372,-44.381252,12.450001,-23.081251,0.5744892,-0.18488154,0.5732329,999.3393, , , , 
2025-11-24 19:47:41.504,6.017949,-8.439486,-1.4452649,-1.2122612,0.14080434,2.4743078,-42.375,15.76875,-24.581251,0.5637161,-0.20207307,0.584231,999.33563, , , , 
2025-11-24 19:47:41.524,7.207182,-8.681161,-1.079163,-1.6019928,-0.12064579,2.9825473,-41.25,18.618752,-22.837502,0.5505397,-0.22563837,0.59661514,999.33563, , , , 
2025-11-24 19:47:41.544,8.52802,-7.982456,-0.011964113,-1.9850051,-0.38515025,3.2885904,-43.068752,20.53125,-21.84375,0.53121805,-0.26300812,0.61103255,999.3332, , , , 
2025-11-24 19:47:41.566,9.801002,-8.066205,1.3974084,-2.2214098,-0.46944958,3.3686137,-41.0625,23.118752,-22.81875,0.51370054,-0.29632413,0.620628,999.3332, , , , 
2025-11-24 19:47:41.584,10.547563,-8.396415,2.4095724,-2.2189662,-0.4883864,3.485289,-41.775,27.225,-18.0375,0.49449977,-0.3304477,0.629075,999.3437, , , , 
2025-11-24 19:47:41.604,11.5621195,-9.06162,2.9718857,-2.0644176,-0.6026181,3.6832092,-38.943752,30.2625,-19.125,0.47451717,-0.36438924,0.6371773,999.3437, , , , 
2025-11-24 19:47:41.625,13.170095,-9.29133,3.1848469,-1.9349142,-0.74006265,3.940994,-36.16875,34.125,-15.918751,0.45444942,-0.39827365,0.6450389,999.34467, , , , 
2025-11-24 19:47:41.644,14.524433,-7.9561353,3.802195,-1.9556836,-0.7809906,4.019796,-34.2,38.193752,-15.13125,0.43375382,-0.4319905,0.6522508,999.34467, , , , 
2025-11-24 19:47:41.666,14.840286,-5.4317074,5.319245,-1.9367468,-0.7315106,3.8169885,-32.60625,39.581253,-13.9875,0.4074221,-0.47215167,0.65872765,999.3527, , , , 
2025-11-24 19:47:41.684,14.433506,-3.8165522,5.2163534,-1.9599596,-0.4743365,3.652055,-28.3875,43.237503,-12.618751,0.38598558,-0.5010058,0.66235614,999.3527, , , , 
2025-11-24 19:47:41.704,13.708481,-3.1657043,4.331009,-2.2837179,0.022907428,3.435198,-25.556252,45.131252,-9.9375,0.36224592,-0.5276004,0.6646836,999.3566, , , , 
2025-11-24 19:47:41.724,13.129417,-3.048456,4.4315076,-2.7168212,0.65881765,3.1743588,-21.056252,46.96875,-11.2875,0.33430466,-0.55295783,0.66485924,999.3566, , , , 
2025-11-24 19:47:41.744,13.021741,-3.2183464,5.3910294,-2.9416194,1.045495,2.7864597,-19.612501,50.812504,-7.0312505,0.30245167,-0.5766316,0.66292965,999.35614, , , , 
2025-11-24 19:47:41.764,12.669996,-2.4119651,6.209375,-2.79379,1.0485494,2.3710716,-17.456251,51.61875,-3.9,0.2707595,-0.59777206,0.658913,999.35614, , , , 
2025-11-24 19:47:41.784,14.02194,-1.727618,6.45105,-2.4816382,0.95447624,1.7492113,-14.512501,50.531254,-0.28125,0.24254166,-0.6155121,0.65351063,999.3737, , , , 
2025-11-24 19:47:41.804,13.641482,-0.46899325,6.34098,-2.0949607,0.93981546,0.95020014,-12.900001,51.937504,-0.22500001,0.22015867,-0.6288097,0.64686453,999.3737, , , , 
2025-11-24 19:47:41.824,12.600604,-0.6197411,6.71426,-1.8048,0.5897899,0.3234529,-11.231251,50.98125,1.6500001,0.20104271,-0.64043003,0.636848,999.4096, , , , 
2025-11-24 19:47:41.844,11.789437,-0.7393822,7.7647095,-1.4437789,0.41630435,0.091324285,-9.3,52.425003,0.6,0.19168064,-0.6476568,0.62833035,999.4096, , , , 
2025-11-24 19:47:41.866,12.392428,-0.6723832,9.255438,-0.8542944,0.30757043,-0.09071342,-11.793751,51.375004,6.1687503,0.18542066,-0.6520238,0.6217896,999.4665, , , , 
2025-11-24 19:47:41.884,12.524034,-0.02632105,9.394221,-0.2855793,0.3582722,-0.29596397,-11.868751,51.750004,6.0,0.18304113,-0.65253997,0.61803627,999.4665, , , , 
2025-11-24 19:47:41.907,13.593625,-0.03589234,7.9680996,0.4413498,0.45784315,-0.42668906,-12.675,52.162502,6.2250004,0.18431582,-0.6468009,0.61806405,999.5207, , , , 
2025-11-24 19:47:41.924,14.364115,0.11485548,7.123433,0.75899947,0.341168,-0.42119128,-13.14375,51.24375,5.7000003,0.18696687,-0.6412164,0.6200323,999.5207, , , , 
2025-11-24 19:47:41.944,15.2063875,0.3900301,6.2548385,1.0467168,0.3509418,-0.43890634,-13.9875,52.031254,4.6687503,0.19237234,-0.63251877,0.6240106,999.5507, , , , 
2025-11-24 19:47:41.965,15.565311,0.23449662,5.491528,1.1652246,0.56230104,-0.45967576,-13.931251,53.04375,4.2937503,0.19997694,-0.61916053,0.6306891,999.5507, , , , 
2025-11-24 19:47:41.984,15.503098,-0.9284152,4.898108,1.0943643,0.93981546,-0.6875283,-16.050001,51.093754,2.9250002,0.20488021,-0.60707843,0.63617104,999.5673, , , , 
2025-11-24 19:47:42.004,14.7254305,-2.0315065,4.508078,0.8811724,1.095586,-0.95386535,-13.06875,51.281254,1.3687501,0.2087474,-0.59399223,0.6400627,999.5673, , , , 
2025-11-24 19:47:42.024,13.921442,-2.914458,5.3407803,0.6740893,1.1322379,-1.1053598,-15.76875,51.6375,0.54375005,0.21200007,-0.58182144,0.641603,999.5629, , , , 
2025-11-24 19:47:42.044,13.146168,-3.8955152,6.491728,0.8353576,0.79626226,-1.0961969,-17.493752,51.600002,-1.7437501,0.21565075,-0.5697051,0.64254975,999.5629, , , , 
2025-11-24 19:47:42.064,12.2584305,-4.3669014,6.8075805,1.2165372,0.45234537,-0.9721913,-17.325,51.000004,-1.25625,0.22190338,-0.5577291,0.6443286,999.53925, , , , 
2025-11-24 19:47:42.084,11.629118,-4.5822554,6.8243303,1.6349796,0.12064579,-0.96974784,-19.25625,50.68125,-3.0375001,0.2312512,-0.54490554,0.6479526,999.53925, , , , 
2025-11-24 19:47:42.104,11.062019,-5.2331033,6.3601227,2.0320418,-0.24953826,-1.0845904,-19.21875,48.468754,-6.01875,0.24467513,-0.53092027,0.65260255,999.4899, , , , 
2025-11-24 19:47:42.124,10.820344,-6.2644095,5.6183476,2.3386958,-0.6808088,-1.1798853,-21.50625,49.36875,-7.2187505,0.2625844,-0.516061,0.65745115,999.4899, , , , 
2025-11-24 19:47:42.144,11.327622,-7.678568,5.4987063,2.6343544,-1.0625993,-1.3796381,-22.1625,47.568752,-8.118751,0.29076126,-0.49751985,0.6626705,999.4455, , , , 
2025-11-24 19:47:42.166,9.992428,-6.7094746,5.4795637,2.8683155,-1.4773765,-1.4230095,-24.6375,46.725002,-10.743751,0.31720516,-0.48111287,0.665983,999.4455, , , , 
2025-11-24 19:47:42.184,9.568898,-6.34098,4.699504,2.7882922,-1.6581924,-1.4321724,-26.19375,45.45,-11.2875,0.34621271,-0.46538433,0.66795915,999.40546, , , , 
2025-11-24 19:47:42.204,7.795816,-5.168497,3.8404803,2.559218,-1.4217877,-1.4242313,-28.0125,44.287502,-13.650001,0.37451252,-0.45020208,0.66838044,999.40546, , , , 
2025-11-24 19:47:42.224,6.541977,-4.2664027,3.318845,2.233627,-1.0693188,-1.339321,-27.525002,42.975002,-15.01875,0.39921725,-0.43505296,0.6682439,999.3676, , , , 
2025-11-24 19:47:42.244,5.749953,-3.6179478,3.1872396,1.9459097,-0.8133665,-1.1884375,-29.737501,41.381252,-15.31875,0.4197206,-0.42065406,0.6679216,999.3676, , , , 
2025-11-24 19:47:42.265,5.4867425,-3.2566316,3.101098,1.736994,-0.49938196,-1.1169662,-31.10625,40.256252,-17.118752,0.4403762,-0.40367076,0.6678301,999.3298, , , , 
2025-11-24 19:47:42.284,5.922236,-4.0390844,2.6392834,1.5164719,-0.521984,-1.0919209,-32.11875,38.79375,-18.31875,0.4543505,-0.3905735,0.66770035,999.3298, , , , 
2025-11-24 19:47:42.304,6.2117677,-4.1467614,2.684747,1.2751802,-0.47006044,-1.1200206,-32.925003,37.0875,-17.212502,0.46715283,-0.37921378,0.66639984,999.30194,37.88754792,127.74028347,145.71533203125,1.41
2025-11-24 19:47:42.324,6.2548385,-4.3334017,2.8426733,1.104749,-0.3808742,-1.2617412,-31.85625,36.45,-17.90625,0.47873822,-0.3684341,0.664194,999.30194, , , , 
2025-11-24 19:47:42.344,5.922236,-4.723432,2.7086751,0.9837977,-0.2819141,-1.3313798,-34.7625,35.04375,-18.900002,0.48945677,-0.35759076,0.6612682,999.2895, , , , 
2025-11-24 19:47:42.364,5.6039906,-5.0273204,2.548356,0.87628555,-0.19822562,-1.3106104,-34.800003,34.275,-17.15625,0.4989216,-0.34687993,0.65818363,999.2895, , , , 
2025-11-24 19:47:42.384,5.5130634,-5.575277,2.3186452,0.70707595,-0.16096286,-1.1804962,-36.1875,32.925003,-20.493752,0.50706005,-0.33704525,0.65513194,999.28046, , , , 
2025-11-24 19:47:42.405,5.666204,-5.9724855,2.2468605,0.52992517,-0.13408482,-1.0118976,-39.318752,29.75625,-21.056252,0.5152242,-0.32696947,0.6515727,999.28046, , , , 
2025-11-24 19:47:42.424,5.960521,-6.458228,2.143969,0.35460702,-0.13347395,-0.8591813,-36.65625,30.6375,-20.925001,0.5202406,-0.32090896,0.6489011,999.2797, , , , 
2025-11-24 19:47:42.444,6.5754766,-7.1880393,2.036292,0.1273653,-0.1188132,-0.70707595,-38.268753,30.6,-20.90625,0.5238281,-0.316961,0.6463286,999.2797, , , , 
2025-11-24 19:47:42.464,7.058827,-7.853244,2.07697,-0.13530655,-0.057726722,-0.594066,-38.98125,28.5375,-20.400002,0.5256331,-0.3151928,0.64380634,999.2758, , , , 
2025-11-24 19:47:42.484,6.927222,-8.295917,2.0003998,-0.45417798,0.10415245,-0.37843072,-38.8875,29.04375,-20.1375,0.5251928,-0.3155098,0.6415798,999.2758, , , , 
2025-11-24 19:47:42.504,7.125826,-8.626125,1.9597218,-0.7382301,0.29107708,-0.120034926,-39.75,28.44375,-19.556252,0.5217172,-0.31808347,0.6403106,999.2829, , , , 
2025-11-24 19:47:42.524,7.0779696,-9.238688,1.5361922,-1.0595449,0.5006037,0.25014913,-40.0875,27.656252,-17.60625,0.5148026,-0.32303134,0.64038956,999.2829, , , , 
2025-11-24 19:47:42.544,7.63789,-9.365508,1.457229,-1.4364486,0.68019795,0.7327323,-38.550003,30.056252,-19.29375,0.50047916,-0.33382905,0.6427934,999.2841, , , , 
2025-11-24 19:47:42.566,7.274181,-8.592627,1.4691931,-1.8023565,0.80603606,1.1786636,-38.79375,31.143751,-18.112501,0.48471317,-0.346273,0.6461163,999.2841, , , , 
2025-11-24 19:47:42.584,6.3888364,-6.666404,1.9525433,-2.0167701,0.8793399,1.4327834,-36.09375,32.0625,-19.66875,0.4655446,-0.36140808,0.65011305,999.28925, , , , 
2025-11-24 19:47:42.604,6.393622,-6.1854467,1.9908284,-2.2666137,0.7034108,1.7773111,-36.16875,35.287502,-19.5375,0.4442867,-0.37888053,0.6538971,999.28925, , , , 
2025-11-24 19:47:42.624,7.085148,-5.804988,2.696711,-2.346637,0.8610139,2.0961826,-33.675003,35.5125,-16.875,0.4207747,-0.39887294,0.6576802,999.2924, , , , 
2025-11-24 19:47:42.644,8.695518,-6.503692,2.9575288,-2.1554363,0.6863066,2.401004,-31.10625,38.8875,-16.575,0.39550892,-0.41908258,0.66248935,999.2924, , , , 
2025-11-24 19:47:42.665,10.336994,-6.7501526,2.8833513,-1.9208643,0.2904662,2.568381,-28.575,42.112503,-14.400001,0.3658899,-0.4450002,0.6687176,999.30194, , , , 
2025-11-24 19:47:42.684,10.923235,-6.02752,2.6895328,-1.8933754,-0.17928882,2.603811,-28.95,41.8125,-13.575001,0.34520173,-0.4663407,0.67242324,999.30194, , , , 
2025-11-24 19:47:42.704,11.344372,-5.163711,3.2087753,-2.0271547,-0.43585202,2.5237877,-26.550001,44.175003,-13.8,0.32669476,-0.48905334,0.6737104,999.30194, , , , 
2025-11-24 19:47:42.724,11.674582,-3.9840498,4.0295134,-2.2079709,-0.44562587,2.428493,-23.400002,46.350002,-10.556251,0.30911076,-0.5132208,0.6722659,999.30194, , , , 
2025-11-24 19:47:42.744,11.413764,-2.4119651,5.8241305,-1.9929464,-0.0876591,2.0467024,-23.25,47.2125,-7.9875,0.2907361,-0.5342969,0.67005295,999.3022, , , , 
2025-11-24 19:47:42.765,10.96152,-2.359323,5.5250273,-1.6777401,0.182954,1.7742567,-18.50625,48.318752,-7.6125,0.27350542,-0.55079323,0.66813993,999.3022, , , , 
2025-11-24 19:47:42.784,10.246066,-1.579263,5.15414,-1.4266747,0.59467685,1.6630794,-18.675001,49.143753,-4.875,0.25615838,-0.5634073,0.66734284,999.31244, , , , 
2025-11-24 19:47:42.804,9.9756775,-1.0025927,3.900301,-1.2959496,0.8646791,1.5457933,-17.681252,51.112503,-4.93125,0.23787142,-0.5725424,0.66790354,999.31244, , , , 
2025-11-24 19:47:42.824,9.760324,-0.46660042,2.5794628,-1.3900228,0.8836159,1.3698642,-15.562501,50.193752,-2.625,0.21944085,-0.58011574,0.66824794,999.32025, , , , 
2025-11-24 19:47:42.844,10.078569,-0.50009996,3.1345978,-1.5708388,0.5372556,1.1078032,-15.618751,52.162502,-1.35,0.19816267,-0.5907298,0.66557926,999.32025, , , , 
2025-11-24 19:47:42.866,10.334601,-0.72263247,3.7686956,-1.62826,0.051618073,0.8665117,-14.175,51.54375,0.54375005,0.18481873,-0.6007578,0.6606938,999.31415, , , , 
2025-11-24 19:47:42.884,10.772488,-1.0097711,4.347759,-1.7431027,-0.25686863,0.74006265,-11.306251,52.706253,0.7875,0.17485432,-0.612209,0.65384126,999.31415, , , , 
2025-11-24 19:47:42.904,11.313266,-1.3423735,5.271388,-1.8683299,-0.30634868,0.6960804,-10.44375,51.91875,1.5187501,0.1663322,-0.62491316,0.64529544,999.3105, , , , 
2025-11-24 19:47:42.924,12.047862,-1.4500505,6.862615,-1.9013166,-0.21899502,0.6545416,-11.1,52.575,5.4187503,0.15753004,-0.6378139,0.63580763,999.3105, , , , 
2025-11-24 19:47:42.944,12.940385,-1.4476577,8.2145605,-1.6227623,-0.1084285,0.6203332,-10.63125,52.74375,5.0437503,0.14851111,-0.64927375,0.6267746,999.31903, , , , 
2025-11-24 19:47:42.964,13.418949,-1.6079768,8.834301,-1.1212423,-0.01802051,0.4987711,-10.89375,51.581253,7.2937503,0.14060402,-0.65760475,0.6198679,999.31903, , , , 
2025-11-24 19:47:42.984,13.718052,-2.3521447,9.456435,-0.39003715,-0.16646065,0.42180213,-8.025001,52.74375,7.4062505,0.13456105,-0.66279554,0.615631,999.32513, , , , 
2025-11-24 19:47:43.004,14.81875,-2.7708886,9.803394,0.45295623,-0.61544627,0.40286532,-8.64375,51.937504,7.6687503,0.13483612,-0.6630249,0.6169758,999.32513, , , , 
2025-11-24 19:47:43.024,16.821543,-3.3427732,9.23151,1.3588687,-1.2257001,0.27214026,-8.64375,51.937504,7.9687505,0.14230445,-0.65989375,0.6229921,999.3322, , , , 
2025-11-24 19:47:43.044,18.410378,-3.9290147,7.125826,2.0112722,-1.6087124,-0.18112141,-7.5750003,52.050003,7.0875,0.15775847,-0.65362483,0.6321178,999.3322, , , , 
2025-11-24 19:47:43.064,18.161524,-4.237689,5.5202417,2.0473132,-1.4859285,-0.7278454,-8.962501,52.406254,6.7500005,0.17893575,-0.64478815,0.6408232,999.3295, , , , 
2025-11-24 19:47:43.084,16.632511,-4.4482574,5.06082,1.7828089,-0.95691967,-1.3264929,-9.075001,51.562504,2.4750001,0.20140551,-0.6345257,0.6466705,999.3295, , , , 
2025-11-24 19:47:43.104,14.3569355,-4.496114,5.352744,1.6887357,-0.43035424,-1.7669264,-8.700001,51.862503,1.03125,0.22251852,-0.6224354,0.650154,999.3315, , , , 
2025-11-24 19:47:43.124,12.0430765,-5.4149575,4.7210393,1.7333288,-0.2159407,-2.085187,-13.031251,52.050003,-0.375,0.24759541,-0.6039277,0.65320873,999.3315, , , , 
2025-11-24 19:47:43.144,11.042876,-6.640083,3.9960139,1.7534873,-0.3735438,-2.202473,-13.837501,51.600002,-1.03125,0.26831716,-0.58795327,0.65473455,999.3378, , , , 
2025-11-24 19:47:43.165,10.360922,-7.645068,3.507878,1.7064508,-0.64171344,-2.25684,-15.712501,50.287502,-1.3875,0.2903558,-0.5724931,0.65490496,999.3378, , , , 
2025-11-24 19:47:43.184,9.585648,-8.073383,3.4360933,1.619708,-0.7724385,-2.2715006,-18.975,49.85625,-3.80625,0.31328496,-0.5579285,0.65354013,999.3393, , , , 
2025-11-24 19:47:43.204,8.623733,-8.29113,3.4839497,1.4688244,-0.74128443,-2.2458444,-19.5375,50.68125,-4.70625,0.33581954,-0.5441197,0.650957,999.3393, , , , 
2025-11-24 19:47:43.224,7.4823565,-8.23131,3.8093736,1.3924663,-0.59345514,-2.1865904,-24.16875,47.9625,-5.775,0.35671964,-0.53053814,0.6477974,999.33954, , , , 
2025-11-24 19:47:43.244,6.4965134,-7.9369926,3.505485,1.3570361,-0.45234537,-2.0625849,-23.2875,47.831253,-7.55625,0.37565434,-0.5167319,0.6449008,999.33954, , , , 
2025-11-24 19:47:43.264,5.3407803,-7.472785,2.7182465,1.2696824,-0.36376998,-1.931249,-26.062502,47.04375,-8.606251,0.39676163,-0.49949142,0.64180315,999.34174, , , , 
2025-11-24 19:47:43.284,4.615755,-7.075577,2.115255,1.0937533,-0.35338527,-1.768759,-29.531252,43.59375,-9.13125,0.41189784,-0.48678747,0.6390803,999.34174, , , , 
2025-11-24 19:47:43.304,4.4602213,-6.984649,2.1272194,0.93309593,-0.24281874,-1.6123776,-29.343752,42.99375,-10.5,0.42511782,-0.47550708,0.63611066,999.33954,37.88755794,127.74027971,145.1971435546875,1.12
2025-11-24 19:47:43.324,4.3094735,-7.2095747,2.0027926,0.8634574,0.044287696,-1.4450006,-29.56875,41.850002,-10.106251,0.43587092,-0.46474564,0.63377935,999.33954, , , , 
2025-11-24 19:47:43.344,3.8285162,-7.475178,1.4404793,0.8597922,0.21532984,-1.2550217,-32.15625,41.456253,-9.356251,0.44411004,-0.45376775,0.63289225,999.33636, , , , 
2025-11-24 19:47:43.364,3.694518,-7.9393854,0.77766734,0.80298173,0.19944735,-0.9984585,-33.6375,39.7125,-12.01875,0.45060965,-0.44341147,0.6331532,999.33636, , , , 
2025-11-24 19:47:43.384,3.7304106,-8.513663,0.22253251,0.67958707,0.1621846,-0.7357866,-32.71875,40.66875,-11.56875,0.45577827,-0.4349158,0.63396806,999.33856, , , , 
2025-11-24 19:47:43.404,3.7088752,-8.736196,-0.3278167,0.44745845,0.13530655,-0.49938196,-33.375,39.506252,-13.593751,0.4601038,-0.42756346,0.63525677,999.33856, , , , 
2025-11-24 19:47:43.424,3.37388,-8.989835,-0.55752766,0.18600832,0.20433427,-0.3271181,-33.975002,38.68125,-13.33125,0.46143848,-0.42421308,0.63615894,999.3461, , , , 
2025-11-24 19:47:43.444,3.2231321,-9.580862,-0.6580262,-0.051618073,0.21777329,-0.0962112,-33.037502,38.90625,-13.89375,0.46056312,-0.423189,0.6370789,999.3461, , , , 
2025-11-24 19:47:43.464,3.1680973,-10.217353,-0.5407779,-0.2696968,0.21044292,0.23854269,-33.65625,37.987503,-14.55,0.45750752,-0.42472798,0.6383117,999.3532, , , , 
2025-11-24 19:47:43.484,3.1800613,-10.207782,-0.5623133,-0.4187478,0.24281874,0.6007855,-34.3875,38.662502,-14.981251,0.45234898,-0.428894,0.6401983,999.3532, , , , 
2025-11-24 19:47:43.504,3.7256248,-10.348958,-0.9092726,-0.5897899,0.33017242,0.9300416,-33.581253,39.975002,-12.825001,0.44468418,-0.4352343,0.64317924,999.3537, , , , 
2025-11-24 19:47:43.524,4.6468616,-10.9352,-1.0504491,-0.75777775,0.38637197,1.2232567,-33.73125,39.84375,-13.725,0.43432158,-0.4437648,0.646998,999.3537, , , , 
2025-11-24 19:47:43.544,6.2237315,-11.590833,-0.99302137,-1.0033454,0.41263917,1.5647302,-32.11875,41.475002,-12.13125,0.42127913,-0.4547618,0.65133274,999.35516, , , , 
2025-11-24 19:47:43.566,7.84128,-11.904293,-0.77766734,-1.2654064,0.49999282,1.7180572,-31.44375,40.55625,-10.9125,0.40178296,-0.47135916,0.656587,999.35516, , , , 
2025-11-24 19:47:43.584,7.4033933,-11.440085,-0.24885355,-1.4682134,0.57574004,1.7974696,-29.456251,42.375,-11.231251,0.38387018,-0.48590806,0.65999484,999.352, , , , 
2025-11-24 19:47:43.604,6.2955165,-10.633704,0.86141616,-1.5091414,0.42119128,2.0430372,-27.54375,43.93125,-10.275001,0.3643213,-0.50142187,0.66289383,999.352, , , , 
2025-11-24 19:47:43.624,7.125826,-10.430314,1.6534405,-1.3747512,0.024129158,2.4608688,-26.681252,46.85625,-8.681251,0.34492415,-0.51837766,0.6659738,999.35345, , , , 
2025-11-24 19:47:43.644,9.375079,-10.279566,1.9525433,-1.1560616,-0.26480988,2.8194463,-23.25,47.2125,-8.75625,0.32639027,-0.5363233,0.6697022,999.35345, , , , 
2025-11-24 19:47:43.664,11.547762,-9.942178,1.5601203,-1.095586,-0.30024004,2.8334963,-22.125,47.8125,-6.7500005,0.3041838,-0.55822456,0.67472094,999.3488, , , , 
2025-11-24 19:47:43.684,11.767901,-9.296116,1.5002998,-1.3118321,-0.016798781,2.6710062,-19.21875,49.968754,-6.24375,0.28612006,-0.5748197,0.67745066,999.3488, , , , 
2025-11-24 19:47:43.704,10.7844515,-8.422736,2.5914268,-1.5573997,0.3026835,2.5793765,-16.21875,50.4,-5.3625,0.270954,-0.5868925,0.6784092,999.3464, , , , 
2025-11-24 19:47:43.724,9.415757,-7.094719,4.197011,-1.7205007,0.6227766,2.626413,-14.493751,51.05625,-3.0937502,0.24204263,-0.6062703,0.6787878,999.3464, , , , 
2025-11-24 19:47:43.744,8.985049,-5.879165,5.386244,-1.6569707,1.0552689,2.6972735,-12.468751,51.750004,-2.2687502,0.21572158,-0.62028956,0.6791848,999.34344, , , , 
2025-11-24 19:47:43.764,8.925228,-5.0344987,5.3647084,-1.5402956,1.393688,2.6874995,-7.74375,52.0875,-0.31875002,0.18687794,-0.6315955,0.68052715,999.34344, , , , 
2025-11-24 19:47:43.784,8.793623,-4.168297,5.048856,-1.4126248,1.7021747,2.6435173,-5.34375,54.05625,2.1000001,0.15622313,-0.64019114,0.6824264,999.3449, , , , 
2025-11-24 19:47:43.804,8.891729,-3.7686956,4.342973,-1.3295472,1.687514,2.6123633,-3.2062502,52.406254,3.2062502,0.1250234,-0.646783,0.68438524,999.3449, , , , 
2025-11-24 19:47:43.824,8.997013,-3.7328033,4.0127635,-1.380249,1.4938698,2.558607,-0.6,52.406254,5.1000004,0.087280825,-0.65431774,0.6856501,999.3471, , , , 
2025-11-24 19:47:43.844,8.738588,-4.3357944,4.476971,-1.402851,1.212872,2.613585,3.7125,53.343754,4.59375,0.06575617,-0.65905654,0.68549,999.3471, , , , 
2025-11-24 19:47:43.864,9.140582,-4.156333,6.1232333,-1.2257001,0.74189526,2.7149885,4.6687503,52.443752,6.24375,0.038653094,-0.6655299,0.6850563,999.3503, , , , 
2025-11-24 19:47:43.884,12.6676035,-3.804588,6.7334027,-0.58307046,0.15424335,2.356411,7.5937505,52.593754,9.01875,0.011751558,-0.6713127,0.68682,999.3503, , , , 
2025-11-24 19:47:43.904,13.246666,-3.5820556,5.343173,-0.31734425,-0.18112141,1.723555,9.712501,51.45,7.7625003,-0.0012341809,-0.67323816,0.6897095,999.3681, , , , 
2025-11-24 19:47:43.924,12.894921,-3.8763726,5.063213,-0.41935867,-0.27214026,1.2709042,11.0625,50.850002,7.3500004,-0.0088193035,-0.67516357,0.69149095,999.3681, , , , 
2025-11-24 19:47:43.944,12.524034,-4.7856455,5.73081,-0.5842922,-0.16829325,0.9269873,14.925,50.268753,5.7562504,-0.01402529,-0.67800236,0.69125956,999.36444, , , , 
2025-11-24 19:47:43.964,12.849458,-6.0227346,7.448857,-0.4566214,-0.10109812,0.57940525,14.83125,49.237503,7.8187504,-0.01798466,-0.6810641,0.6897191,999.36444, , , , 
2025-11-24 19:47:43.984,12.751352,-6.8913293,8.255239,0.123089254,-0.1640172,0.19944735,14.08125,49.912502,8.025001,-0.019037034,-0.68179065,0.6896146,999.37787, , , , 
2025-11-24 19:47:44.004,12.29193,-7.628319,7.3100734,0.64171344,-0.24281874,-0.1640172,14.437501,50.081253,6.43125,-0.015372839,-0.67853355,0.69269496,999.37787, , , , 
2025-11-24 19:47:44.024,11.959328,-8.891729,5.680561,0.9111048,-0.3649917,-0.5574141,14.83125,50.60625,7.4437504,-0.007926132,-0.6729598,0.69743556,999.38495, , , , 
2025-11-24 19:47:44.044,11.897114,-10.509277,5.1493545,0.9929607,-0.5537489,-0.8475749,12.750001,50.4,6.9,0.0027926504,-0.66685486,0.70210284,999.38495, , , , 
2025-11-24 19:47:44.064,11.23191,-10.856236,4.8646083,1.1096358,-0.7712168,-1.0766492,11.7375,51.281254,8.19375,0.016732471,-0.66062415,0.70649445,999.38446, , , , 
2025-11-24 19:47:44.084,10.628919,-10.963913,4.1587257,1.172555,-0.9587523,-1.2916735,10.8,52.2,4.8375,0.033629287,-0.65408736,0.7107155,999.38446, , , , 
2025-11-24 19:47:44.104,9.525827,-10.621739,3.7615173,1.20432,-1.0735948,-1.4651592,9.975,51.6375,3.5625002,0.052761566,-0.64743847,0.7143381,999.38934, , , , 
2025-11-24 19:47:44.124,8.922835,-10.351351,3.830909,1.3796381,-1.3099995,-1.6783509,8.7375,52.0125,2.5875,0.07948362,-0.63851345,0.71833026,999.38934, , , , 
2025-11-24 19:47:44.144,8.262417,-10.676775,3.2183464,1.5818343,-1.5806127,-1.9367468,7.33125,52.143753,0.41250002,0.1046397,-0.6300266,0.72151786,999.39056, , , , 
2025-11-24 19:47:44.164,7.556534,-11.459228,2.3377876,1.6221514,-1.8506149,-2.1743731,5.26875,51.187504,-1.3312501,0.13312384,-0.62069744,0.7240158,999.39056, , , , 
2025-11-24 19:47:44.184,6.6568327,-12.105289,2.103291,1.5494585,-2.057698,-2.247066,5.1937504,53.568752,-3.15,0.16389793,-0.6114997,0.72495717,999.3881, , , , 
2025-11-24 19:47:44.204,4.910072,-12.071791,2.3425734,1.3826925,-2.0925174,-2.071748,0.80625004,52.7625,-4.5,0.19496502,-0.6030192,0.72431874,999.3881, , , , 
2025-11-24 19:47:44.224,4.4315076,-10.9352,2.7756743,1.2605195,-1.9691226,-1.8310672,-1.3875,53.41875,-5.8500004,0.22373205,-0.595262,0.7229323,999.3886, , , , 
2025-11-24 19:47:44.244,4.575077,-9.650253,2.8570302,1.2171481,-1.7473787,-1.7040073,-3.0937502,53.381252,-8.90625,0.24966714,-0.58758336,0.72141796,999.3886, , , , 
2025-11-24 19:47:44.264,4.907679,-8.635697,2.4047868,1.1236857,-1.506698,-1.7382157,-5.08125,53.79375,-7.65,0.2734571,-0.5794261,0.7198056,999.3732, , , , 
2025-11-24 19:47:44.284,4.948357,-7.7742805,2.1008983,1.0112866,-1.3154973,-1.9013166,-7.8562503,52.275,-8.962501,0.3011526,-0.56856734,0.71688473,999.3732, , , , 
2025-11-24 19:47:44.304,4.7545385,-7.367501,2.2731814,0.9819651,-1.2092068,-2.098626,-7.1250005,52.125004,-11.19375,0.32278535,-0.55912066,0.7135757,999.3715,37.88756662,127.74027626,145.2998046875,1.11
2025-11-24 19:47:44.324,4.4171505,-7.1808605,2.1343977,0.9996802,-1.2537999,-2.328922,-11.75625,51.768753,-9.918751,0.34495708,-0.5485637,0.7094658,999.3715, , , , 
2025-11-24 19:47:44.344,3.9361932,-7.2382884,2.1080768,0.9837977,-1.312443,-2.4663665,-15.637501,49.875004,-11.25,0.36822483,-0.5372181,0.7042254,999.3725, , , , 
2025-11-24 19:47:44.364,3.4432719,-7.233503,2.1272194,0.9685261,-1.307556,-2.5158465,-18.09375,48.6375,-10.462501,0.39188758,-0.52533793,0.69799984,999.3725, , , , 
2025-11-24 19:47:44.384,2.5220351,-7.611569,2.1966112,0.92148954,-1.1426226,-2.414443,-21.0,47.2125,-11.625,0.4201818,-0.51003104,0.6897287,999.37396, , , , 
2025-11-24 19:47:44.404,2.132005,-8.02792,2.0171494,0.80847955,-0.74556047,-2.1316125,-21.300001,45.581253,-13.35,0.43465397,-0.50098693,0.6854208,999.37396, , , , 
2025-11-24 19:47:44.424,2.172683,-8.398808,1.6247265,0.62583095,-0.31551164,-1.6936226,-23.831251,46.18125,-12.337501,0.45255154,-0.48718095,0.68042666,999.3671, , , , 
2025-11-24 19:47:44.444,3.397808,-8.439486,1.1581261,0.36071566,-0.010690134,-1.344208,-25.687502,45.0,-11.625,0.461407,-0.47827277,0.6781365,999.3671, , , , 
2025-11-24 19:47:44.464,3.3164523,-10.413564,0.52163535,0.057726722,0.18906265,-1.312443,-25.81875,45.73125,-12.4125,0.46671703,-0.47066888,0.6762689,999.3588, , , , 
2025-11-24 19:47:44.484,4.4841495,-10.133604,1.1509477,-0.39492407,0.41813695,-0.92393297,-27.50625,43.2,-12.243751,0.46894684,-0.466333,0.6739554,999.3588, , , , 
2025-11-24 19:47:44.504,4.0366917,-10.5690975,2.0602202,-0.43646288,0.60872674,-0.810923,-27.675001,42.318752,-12.806251,0.46727997,-0.46457794,0.67211455,999.35223, , , , 
2025-11-24 19:47:44.524,3.5940197,-11.186446,1.7443677,-0.4883864,0.84085536,-0.45417798,-28.3875,43.237503,-12.0,0.4632909,-0.46306956,0.6717124,999.35223, , , , 
2025-11-24 19:47:44.544,3.9768713,-12.000006,1.227518,-0.5592467,1.1078032,-0.10720677,-27.768751,43.2,-14.38125,0.45350602,-0.46282956,0.6738886,999.342, , , , 
2025-11-24 19:47:44.566,4.4985065,-12.593426,0.74416786,-0.7064651,1.2782346,0.21166465,-28.125002,44.4,-13.500001,0.4451839,-0.463806,0.6762938,999.342, , , , 
2025-11-24 19:47:44.584,4.2831526,-13.045669,0.41874397,-0.9477567,1.4358376,0.62583095,-28.3875,43.96875,-11.4375,0.42686018,-0.46821332,0.68149364,999.32245, , , , 
2025-11-24 19:47:44.604,3.0604203,-11.274981,0.7800602,-1.2092068,1.3839141,1.1762202,-27.375002,43.8375,-12.618751,0.4084608,-0.4749308,0.68612826,999.32245, , , , 
2025-11-24 19:47:44.624,3.1752756,-9.987641,1.1653047,-1.344208,1.2635738,1.6117667,-24.7875,46.350002,-14.418751,0.38759336,-0.48482403,0.69087064,999.3178, , , , 
2025-11-24 19:47:44.644,4.115655,-9.1669035,1.7802601,-1.3826925,1.0748166,2.035096,-24.73125,46.21875,-11.025001,0.36511865,-0.49721932,0.6956135,999.3178, , , , 
2025-11-24 19:47:44.664,5.623133,-8.9013,1.7395821,-1.3319906,0.8988875,2.2372923,-22.556252,45.956253,-13.2375,0.3421838,-0.51075095,0.70037115,999.31903, , , , 
2025-11-24 19:47:44.684,7.1880393,-8.4347,1.1892328,-1.4010184,0.8836159,2.2079709,-18.2625,49.0125,-13.556251,0.3140891,-0.52796686,0.7054029,999.31903, , , , 
2025-11-24 19:47:44.704,7.109076,-8.592627,1.1916257,-1.6416991,0.9605849,2.144441,-18.46875,49.068752,-8.587501,0.2911962,-0.5419903,0.70769155,999.30927, , , , 
2025-11-24 19:47:44.724,7.140183,-8.295917,1.7802601,-1.8762711,0.9666935,2.1688755,-15.450001,50.250004,-8.981251,0.26699486,-0.556933,0.70818347,999.30927, , , , 
2025-11-24 19:47:44.744,7.2119675,-8.049456,2.6392834,-1.9850051,0.8420771,2.2934918,-12.88125,51.375004,-8.231251,0.24202083,-0.57285213,0.70717776,999.2985, , , , 
2025-11-24 19:47:44.764,7.8556366,-7.6331043,3.5246277,-1.9208643,0.7027999,2.4492624,-11.043751,52.162502,-4.2937503,0.21695593,-0.58900857,0.7055641,999.2985, , , , 
2025-11-24 19:47:44.785,8.872586,-6.7094746,4.328616,-1.5861104,0.61544627,2.4932446,-8.19375,51.825,-3.5062501,0.18646906,-0.6070763,0.70426494,999.289, , , , 
2025-11-24 19:47:44.804,10.279566,-5.4053864,3.1274192,-1.3698642,0.18723005,2.3667955,-5.4375,53.2125,-2.4750001,0.16438754,-0.6192727,0.70386845,999.289, , , , 
2025-11-24 19:47:44.824,10.537991,-4.7832522,2.3521447,-1.3051126,-0.35460702,2.198197,-4.2000003,52.8375,-1.5,0.15124077,-0.6283596,0.7027876,999.2861, , , , 
2025-11-24 19:47:44.844,10.753345,-4.5942197,2.7637103,-1.1053598,-1.1224641,1.9917246,0.39375,54.787502,0.52500004,0.1376948,-0.6443861,0.6991068,999.2861, , , , 
2025-11-24 19:47:44.864,11.416157,-3.9816568,3.9314077,-0.8035926,-1.4187335,1.8102977,0.15,53.625004,1.7062501,0.13289334,-0.65615976,0.69612956,999.2922, , , , 
2025-11-24 19:47:44.884,11.820544,-3.694518,4.752146,-0.42668906,-1.0320561,1.5409064,0.975,52.593754,1.66875,0.13026921,-0.66470057,0.6946273,999.2922, , , , 
2025-11-24 19:47:44.904,11.657832,-3.5605202,4.0701914,-0.08643737,-0.422413,1.308167,4.70625,52.968754,2.025,0.12710713,-0.66905713,0.69534427,999.29486, , , , 
2025-11-24 19:47:44.924,11.799008,-3.5318062,2.3976083,-0.085215636,0.2849684,1.1481204,4.3875003,52.2,2.2687502,0.12141622,-0.67047256,0.6976059,999.29486, , , , 
2025-11-24 19:47:44.944,11.712867,-3.615555,2.3521447,-0.33994624,0.65942854,0.95691967,5.6625004,52.068752,3.2250001,0.112728134,-0.6713728,0.699127,999.29877, , , , 
2025-11-24 19:47:44.964,12.567104,-4.331009,3.35713,-0.49632764,0.8353576,0.7144064,7.2375,51.750004,1.8375001,0.10012069,-0.67331773,0.69872963,999.29877, , , , 
2025-11-24 19:47:44.985,12.801601,-5.029713,4.019942,-0.41141742,0.9611957,0.49449503,8.793751,52.3875,3.9562502,0.09062684,-0.6743359,0.69778705,999.3127, , , , 
2025-11-24 19:47:45.004,12.94517,-5.541777,4.007978,-0.33994624,1.046106,0.25442517,10.387501,52.706253,0.056250002,0.08207859,-0.67419046,0.6970377,999.3127, , , , 
2025-11-24 19:47:45.024,12.894921,-6.1232333,4.4721856,-0.3100139,0.8958332,-0.12125666,9.675,52.350002,4.0125003,0.07524526,-0.6734397,0.69586855,999.32513, , , , 
2025-11-24 19:47:45.044,13.10549,-7.274181,5.8767724,-0.05894845,0.44501498,-0.5225948,8.981251,53.268753,3.8812501,0.07260291,-0.67229265,0.694269,999.32513, , , , 
2025-11-24 19:47:45.064,12.892529,-8.513663,6.1304116,0.30757043,0.050396346,-0.80114913,12.13125,52.85625,2.6437502,0.07625564,-0.66958994,0.69366336,999.3383, , , , 
2025-11-24 19:47:45.084,12.401999,-9.097511,5.3982077,0.66248286,-0.24342962,-1.0149518,8.7375,52.0125,2.5875,0.08486914,-0.6649814,0.69464296,999.3383, , , , 
2025-11-24 19:47:45.104,11.909079,-9.138189,4.8358946,0.8487966,-0.42668906,-1.1841614,8.775001,52.781254,0.84375006,0.09981059,-0.6575781,0.6969444,999.34467, , , , 
2025-11-24 19:47:45.124,10.750952,-8.815159,4.1850467,1.0314451,-0.58001614,-1.3002257,6.58125,52.687504,-0.46875003,0.11413857,-0.6506108,0.6991982,999.34467, , , , 
2025-11-24 19:47:45.144,9.769895,-8.327023,3.818945,1.2434152,-0.8524618,-1.4169009,5.9625,52.500004,-1.0125,0.13087603,-0.6427189,0.70185506,999.3483, , , , 
2025-11-24 19:47:45.167,8.987442,-8.389236,4.007978,1.5341868,-1.3038908,-1.5738931,5.7000003,52.500004,-2.68125,0.1511864,-0.6337583,0.70490056,999.3483, , , , 
2025-11-24 19:47:45.184,8.52802,-9.202796,3.6083765,2.0228786,-2.4174974,-1.6997312,3.1875002,52.36875,-2.5500002,0.17770135,-0.6236739,0.70836043,999.3503, , , , 
2025-11-24 19:47:45.204,7.587641,-9.674182,2.1367905,2.2757766,-3.0344708,-1.8445061,0.20625001,51.956253,-5.0062504,0.21200001,-0.6124673,0.7115943,999.3503, , , , 
2025-11-24 19:47:45.224,7.207182,-10.317851,1.294517,2.1456625,-3.227504,-1.7357723,0.41250002,54.35625,-6.24375,0.24978082,-0.6011321,0.71323186,999.3488, , , , 
2025-11-24 19:47:45.244,6.6017976,-9.62154,0.27038896,1.750433,-2.6484044,-1.6936226,-4.70625,52.2,-5.7375,0.28573766,-0.5904106,0.71280146,999.3488, , , , 
2025-11-24 19:47:45.264,6.384051,-8.013563,1.2323036,1.1737766,-1.9391903,-1.5720605,-4.21875,52.050003,-11.025001,0.31506753,-0.58095044,0.7107044,999.34515, , , , 
2025-11-24 19:47:45.284,6.2141604,-7.2622166,2.132005,0.8054252,-1.2849541,-1.6001602,-6.95625,51.525,-11.64375,0.34295565,-0.5709942,0.7067129,999.34515, , , , 
2025-11-24 19:47:45.304,5.4221363,-6.95115,2.5004997,0.69730216,-0.85551614,-1.6459751,-8.55,50.737503,-12.656251,0.36055693,-0.56282175,0.703691,999.3427,37.88757615,127.74027065,145.4798583984375,1.2
2025-11-24 19:47:45.324,4.5248275,-6.786045,2.4023938,0.7034108,-0.59528774,-1.6276492,-9.337501,51.281254,-11.681251,0.37552527,-0.55395585,0.7013553,999.3427, , , , 
2025-11-24 19:47:45.344,4.2951164,-6.8817577,2.1080768,0.7308997,-0.5415316,-1.5732822,-11.887501,50.906254,-13.087501,0.3890937,-0.54464644,0.69955826,999.34564, , , , 
2025-11-24 19:47:45.364,4.0845485,-6.9128647,1.6606189,0.75411254,-0.57574004,-1.5262456,-13.33125,49.518753,-13.012501,0.4020942,-0.5351843,0.69794494,999.34564, , , , 
2025-11-24 19:47:45.384,3.8931224,-6.963114,1.3950156,0.7498365,-0.7021891,-1.5213587,-13.05,49.312504,-15.825001,0.41530374,-0.52586436,0.6959769,999.34467, , , , 
2025-11-24 19:47:45.404,3.7854455,-7.219146,1.3399807,0.6893609,-0.77304935,-1.4914263,-15.375001,47.2125,-15.76875,0.43254587,-0.5148146,0.69247615,999.34467, , , , 
2025-11-24 19:47:45.424,3.6873398,-7.8963146,1.7778672,0.61055934,-0.52748173,-1.470046,-17.71875,46.48125,-15.937501,0.44539195,-0.50627846,0.6894828,999.3488, , , , 
2025-11-24 19:47:45.444,3.4360933,-8.5016985,2.28036,0.54092073,-0.04978548,-1.375362,-17.53125,47.362503,-16.0125,0.455193,-0.49756387,0.687682,999.3488, , , , 
2025-11-24 19:47:45.464,3.2087753,-8.88455,1.9669002,0.43401942,0.46334094,-1.1523964,-21.300001,44.850002,-13.931251,0.46058947,-0.48849225,0.68814373,999.34467, , , , 
2025-11-24 19:47:45.484,4.319045,-10.095319,1.4596218,0.21655156,0.8457423,-0.92087865,-21.45,44.71875,-14.681251,0.46161562,-0.48047146,0.6902653,999.34467, , , , 
2025-11-24 19:47:45.504,4.347759,-10.114461,1.3830515,-0.041233372,0.8836159,-0.77304935,-21.712502,43.55625,-13.500001,0.45925316,-0.47413802,0.692841,999.34467, , , , 
2025-11-24 19:47:45.524,4.8382874,-10.676775,1.1940185,-0.23182319,0.7009673,-0.6557633,-21.525002,45.075,-15.3,0.45562977,-0.47011742,0.6945781,999.34467, , , , 
2025-11-24 19:47:45.544,5.3096733,-11.947364,2.2636101,-0.41141742,0.48349947,-0.36804602,-22.125,42.675003,-16.650002,0.45166814,-0.46912608,0.6945422,999.3505, , , , 
2025-11-24 19:47:45.564,4.8526444,-10.516456,1.564906,-0.58307046,0.86040306,-0.13164136,-21.45,44.49375,-17.587502,0.44497985,-0.47009984,0.6955488,999.3505, , , , 
2025-11-24 19:47:45.584,5.56092,-11.66501,0.50488555,-0.80970126,1.1682789,0.06627883,-22.48125,44.60625,-15.637501,0.43520275,-0.4723838,0.69732165,999.3486, , , , 
2025-11-24 19:47:45.604,5.395815,-11.997613,0.3397808,-1.1029164,1.3600904,0.32772896,-22.0125,46.162502,-17.00625,0.42207515,-0.4767253,0.69918764,999.3486, , , , 
2025-11-24 19:47:45.624,3.7328033,-11.566905,0.019142581,-1.41629,1.5299108,0.7150172,-21.46875,43.96875,-14.475,0.4056995,-0.4833629,0.7010367,999.3498, , , , 
2025-11-24 19:47:45.644,1.9597218,-10.102497,0.014356935,-1.7620394,1.5763366,1.2696824,-20.643751,45.80625,-15.431251,0.38510498,-0.49330893,0.70295036,999.3498, , , , 
2025-11-24 19:47:45.664,1.9118652,-8.618947,2.1104696,-1.9092579,1.4333942,2.0057745,-18.618752,47.98125,-13.6125,0.35360232,-0.5109812,0.7055439,999.3542, , , , 
2025-11-24 19:47:45.684,3.6370904,-8.145168,3.5318062,-1.6362013,1.2012656,2.4767513,-14.94375,48.225002,-11.700001,0.32621163,-0.52676105,0.70877033,999.3542, , , , 
2025-11-24 19:47:45.704,6.0729837,-8.238488,3.048456,-1.2202024,0.90499616,2.599535,-16.6875,49.031254,-10.931251,0.30013844,-0.54111105,0.7132932,999.3569, , , , 
2025-11-24 19:47:45.724,7.479964,-8.573483,1.875973,-1.0277799,0.67836535,2.5928156,-11.962501,50.625004,-11.212501,0.27706996,-0.55372,0.7179553,999.3569, , , , 
2025-11-24 19:47:45.744,8.506484,-8.779266,1.8999012,-1.109025,0.6539307,2.6972735,-8.25,51.750004,-9.65625,0.25503746,-0.5660702,0.7217947,999.36053, , , , 
2025-11-24 19:47:45.764,9.54497,-7.7790666,2.804388,-1.1163554,0.5897899,2.7950118,-6.3,52.068752,-8.962501,0.23223676,-0.57862663,0.7249269,999.36053, , , , 
2025-11-24 19:47:45.784,11.468799,-6.0107703,3.591627,-1.0045671,0.33139414,2.531729,-1.48125,52.575,-10.275001,0.2107096,-0.5903889,0.7274124,999.3608, , , , 
2025-11-24 19:47:45.804,12.6676035,-4.1922255,3.7423747,-0.9129374,0.022296565,1.8695517,-0.075,52.4625,-9.01875,0.19391206,-0.60060924,0.72831714,999.3608, , , , 
2025-11-24 19:47:45.825,13.014563,-3.7423747,3.6993039,-1.0235039,0.2770272,1.0406082,1.3687501,53.100002,-8.118751,0.1831871,-0.6092176,0.7268128,999.3588, , , , 
2025-11-24 19:47:45.844,11.971292,-3.35713,4.2041893,-1.0479386,0.48716468,0.37843072,0.80625004,53.49375,-4.3875003,0.1726712,-0.6179633,0.72187537,999.3588, , , , 
2025-11-24 19:47:45.865,10.4351,-3.1345978,3.5365918,-1.1621703,0.90010923,0.05222894,1.5937501,51.7125,-3.43125,0.1675459,-0.62202835,0.71825784,999.3649, , , , 
2025-11-24 19:47:45.885,8.618947,-3.5605202,3.1776686,-1.5488477,1.4633266,-0.094378605,2.30625,52.406254,-2.775,0.15483703,-0.62864923,0.71042794,999.3649, , , , 
2025-11-24 19:47:45.904,8.482556,-3.1250265,4.517649,-1.5946625,1.3723078,-0.08093958,1.6125001,52.687504,-1.1812501,0.13851872,-0.63634837,0.7005208,999.3586, , , , 
2025-11-24 19:47:45.924,9.327223,-2.7828526,5.0512486,-1.3313798,1.104749,-0.16340633,1.2,53.5125,-1.1812501,0.12988435,-0.6404974,0.69468635,999.3586, , , , 
2025-11-24 19:47:45.944,10.112068,-2.2157538,4.610969,-1.0155627,0.69913477,-0.3515527,1.5,54.525,1.35,0.12201521,-0.64459103,0.68772876,999.3566, , , , 
2025-11-24 19:47:45.964,10.789237,-2.2707887,4.6325045,-0.7840449,0.3179551,-0.43829548,0.112500004,52.85625,3.7500002,0.11910557,-0.6477632,0.68127865,999.3566, , , , 
2025-11-24 19:47:45.984,11.217552,-2.6416762,5.087141,-0.47555822,0.16279547,-0.36376998,0.93750006,52.575,3.525,0.119370006,-0.6504543,0.6747584,999.3608, , , , 
2025-11-24 19:47:46.004,12.397214,-2.955136,5.328816,-0.25686863,0.26725334,-0.37171122,-1.7625,53.775,4.6687503,0.1201946,-0.6508597,0.67144436,999.3608, , , , 
2025-11-24 19:47:46.025,13.287344,-3.2207394,5.300102,0.0058032153,0.25442517,-0.4914407,-0.112500004,53.2125,3.45,0.12140952,-0.64989245,0.66987324,999.36005, , , , 
2025-11-24 19:47:46.044,14.218152,-4.17069,4.223332,0.29779658,0.01802051,-0.83902276,-0.31875002,52.312504,4.9125004,0.12686248,-0.6459844,0.66841763,999.36005, , , , 
2025-11-24 19:47:46.064,14.584254,-5.4436717,3.3212378,0.29840744,-0.16340633,-1.1749984,-3.7687502,53.2125,2.90625,0.13544825,-0.6422176,0.6667736,999.36127, , , , 
2025-11-24 19:47:46.084,14.644074,-7.6067834,4.2927237,0.20922118,0.2678642,-1.2959496,-3.0187502,54.037502,3.3937502,0.14584136,-0.63857794,0.6636559,999.36127, , , , 
2025-11-24 19:47:46.104,13.931013,-8.602198,4.199404,0.33322674,0.120034926,-1.4731004,-4.65,53.250004,4.2375,0.15432116,-0.633618,0.66043127,999.36127, , , , 
2025-11-24 19:47:46.124,12.473784,-9.162118,4.5535417,0.47922343,0.043065965,-1.4327834,-8.55,52.725002,3.43125,0.16723241,-0.62676,0.6567141,999.36127, , , , 
2025-11-24 19:47:46.144,10.289138,-7.489535,4.895715,0.7394518,-0.042455103,-1.2843432,-8.3625,52.125004,2.68125,0.17770281,-0.6201263,0.65532124,999.3608, , , , 
2025-11-24 19:47:46.165,9.82493,-6.9056864,4.8358946,1.0778708,-0.28435755,-1.3173299,-6.80625,53.175003,0.3,0.18971711,-0.6122603,0.6556459,999.3608, , , , 
2025-11-24 19:47:46.184,9.695718,-7.7503524,4.469793,1.5097523,-0.45417798,-1.501811,-9.1125,52.575,0.112500004,0.20504564,-0.6026425,0.6571044,999.3588, , , , 
2025-11-24 19:47:46.204,9.272188,-8.575876,3.7471602,1.8243476,-0.6191115,-1.5885539,-12.731251,51.3375,-0.82500005,0.22326945,-0.59086347,0.6595822,999.3588, , , , 
2025-11-24 19:47:46.224,8.642876,-8.949157,2.37368,1.9422445,-0.9899064,-1.5390738,-13.5375,52.143753,-3.4125001,0.2439897,-0.57814884,0.66256875,999.3571, , , , 
2025-11-24 19:47:46.244,8.472985,-9.229117,1.6510476,1.7889175,-1.2678498,-1.4101813,-15.618751,51.937504,-4.275,0.26636362,-0.5667285,0.66471195,999.3571, , , , 
2025-11-24 19:47:46.264,7.446464,-8.482556,1.3998013,1.4022402,-1.1798853,-1.2684608,-17.15625,50.156254,-3.8437502,0.29322606,-0.5556202,0.6652271,999.3503, , , , 
2025-11-24 19:47:46.284,7.0396843,-7.5661054,2.0602202,1.1053598,-1.1927135,-1.1731658,-17.90625,49.968754,-5.45625,0.31171843,-0.5489437,0.6639527,999.3503, , , , 
2025-11-24 19:47:46.304,6.532406,-7.070791,2.1511476,0.8597922,-1.1291835,-1.1468986,-17.325,49.050003,-7.4812503,0.32872513,-0.54378706,0.6614373,999.35004,37.8875861,127.74026281,145.505615234375,1.29
2025-11-24 19:47:46.324,6.381658,-6.7094746,1.9262222,0.64537865,-1.0717622,-1.1927135,-19.78125,48.54375,-6.8812504,0.34418806,-0.5394155,0.6580177,999.35004, , , , 
2025-11-24 19:47:46.344,5.7547383,-6.4271216,2.6368906,0.490219,-1.005178,-1.3521492,-19.893751,47.925003,-7.9125004,0.3590486,-0.53577214,0.653088,999.35394, , , , 
2025-11-24 19:47:46.364,4.725825,-6.7022963,3.2135608,0.4816669,-0.8420771,-1.4694352,-23.306252,47.8125,-6.7875004,0.37342507,-0.5315771,0.647376,999.35394, , , , 
2025-11-24 19:47:46.384,3.7734814,-6.7740808,3.6610186,0.64415693,-0.5519163,-1.4327834,-24.393751,46.706253,-7.2187505,0.389821,-0.5244209,0.64125323,999.3615, , , , 
2025-11-24 19:47:46.404,3.1058838,-6.661618,2.7684958,0.8646791,-0.34055713,-1.3723078,-24.656252,46.068752,-7.6125,0.39873722,-0.51851356,0.63913393,999.3615, , , , 
2025-11-24 19:47:46.424,2.2851455,-6.7166533,1.4955142,0.9801325,-0.17623448,-1.2061526,-25.181252,45.54375,-9.84375,0.40969953,-0.5091054,0.6381058,999.3669, , , , 
2025-11-24 19:47:46.444,2.0793629,-6.7764735,0.69152576,0.91477,-0.045509428,-0.93859375,-29.062502,43.125,-8.231251,0.42108938,-0.49754614,0.63868034,999.3669, , , , 
2025-11-24 19:47:46.464,2.3401806,-7.1473613,0.40438703,0.77549285,0.21349724,-0.71257377,-27.300001,42.956253,-10.40625,0.4272813,-0.4892332,0.6402614,999.3649, , , , 
2025-11-24 19:47:46.484,2.7230322,-7.743174,0.08135597,0.63927,0.36987862,-0.39553493,-29.1,44.1375,-10.59375,0.43018997,-0.48192114,0.64311725,999.3649, , , , 
2025-11-24 19:47:46.504,3.6131623,-8.386844,-0.5694918,0.5543598,0.23793183,-0.11331542,-28.837502,42.5625,-10.837501,0.4310692,-0.47640496,0.6467042,999.3664, , , , 
2025-11-24 19:47:46.525,4.273581,-8.700303,-1.0959128,0.42913252,0.19211698,0.19456044,-27.393751,43.0875,-11.64375,0.43114656,-0.47335845,0.6503301,999.3664, , , , 
2025-11-24 19:47:46.544,5.2259245,-8.583055,-1.4931214,0.13347395,0.24098615,0.49571678,-27.562502,41.456253,-12.76875,0.4283543,-0.47298408,0.65528893,999.36615, , , , 
2025-11-24 19:47:46.564,5.599205,-8.623733,-0.6963114,-0.13469568,0.22999059,0.6582068,-27.712502,42.075,-14.325001,0.42501792,-0.47480115,0.6579007,999.36615, , , , 
2025-11-24 19:47:46.584,6.8865438,-9.38465,0.36610186,-0.3149008,0.41935867,0.84085536,-26.325,42.46875,-13.425,0.4167192,-0.48026884,0.6620087,999.372, , , , 
2025-11-24 19:47:46.604,7.5182486,-9.74836,-0.16749759,-0.5024363,0.8854485,0.95630884,-26.456251,44.0625,-12.262501,0.40658963,-0.48501122,0.66636074,999.372, , , , 
2025-11-24 19:47:46.624,7.0325055,-9.499506,-0.849452,-0.8634574,1.2030982,1.145066,-25.237501,44.30625,-12.562501,0.3924443,-0.49020988,0.6713932,999.3659, , , , 
2025-11-24 19:47:46.644,6.869794,-9.399008,-0.6628119,-1.271515,1.316719,1.4107922,-22.425001,45.84375,-13.406251,0.3740844,-0.49765015,0.67609286,999.3659, , , , 
2025-11-24 19:47:46.664,6.541977,-8.578269,1.0097711,-1.5128067,1.2470804,1.6581924,-22.10625,46.10625,-11.75625,0.35248154,-0.50792694,0.67984796,999.3649, , , , 
2025-11-24 19:47:46.684,6.8219376,-7.7072816,2.6416762,-1.4480549,0.9996802,1.8359541,-20.400002,47.925003,-13.275001,0.32986075,-0.51972157,0.68300897,999.3649, , , , 
2025-11-24 19:47:46.704,8.126026,-7.7551384,2.8402805,-1.2336414,0.7626647,1.9019275,-17.737501,49.66875,-11.025001,0.30343997,-0.5342262,0.68699044,999.36127, , , , 
2025-11-24 19:47:46.724,8.762517,-7.9920278,2.3282163,-1.1792744,0.69424784,1.9446881,-16.837502,49.125004,-9.69375,0.28378904,-0.54511404,0.6901174,999.36127, , , , 
2025-11-24 19:47:46.744,9.461221,-8.1738825,2.605784,-1.244637,0.49082986,2.06625,-13.406251,49.48125,-9.76875,0.2644363,-0.5563683,0.6926474,999.3588, , , , 
2025-11-24 19:47:46.764,9.860822,-7.6139617,3.1776686,-1.2574651,0.2403753,2.166432,-12.918751,51.375004,-6.8437505,0.24576792,-0.5685903,0.69437236,999.3588, , , , 
2025-11-24 19:47:46.784,10.411171,-6.2691956,4.3645086,-1.1530073,0.011300999,2.14383,-11.55,50.775,-7.8750005,0.22860211,-0.581217,0.69544405,999.3632, , , , 
2025-11-24 19:47:46.804,9.934999,-4.84068,5.144569,-0.90866137,0.09987639,1.9489641,-9.918751,51.787502,-5.3250003,0.20965585,-0.5947831,0.69681436,999.3632, , , , 
2025-11-24 19:47:46.824,9.652647,-4.2687955,5.1828537,-0.7724385,0.3423897,1.7962478,-8.587501,52.66875,-4.59375,0.19878969,-0.60080826,0.6981608,999.36005, , , , 
2025-11-24 19:47:46.844,9.071191,-3.6083765,5.0129633,-0.6496547,0.8023709,1.520137,-4.7250004,52.18125,-4.3500004,0.17979608,-0.6073643,0.7011371,999.36005, , , , 
2025-11-24 19:47:46.867,8.9108715,-2.9790642,4.402794,-0.6148354,1.095586,1.2440261,-3.6937501,52.29375,-3.99375,0.16378532,-0.6102373,0.7035367,999.3598, , , , 
2025-11-24 19:47:46.884,8.719446,-2.629712,4.213761,-0.6178897,1.1976004,1.0063998,-2.68125,53.756252,-3.1125002,0.14812188,-0.61188745,0.70526016,999.3598, , , , 
2025-11-24 19:47:46.904,8.985049,-2.3712873,4.0366917,-0.6044507,1.2189807,0.6826414,0.01875,53.287502,-3.35625,0.13345109,-0.61270386,0.70605886,999.35516, , , , 
2025-11-24 19:47:46.924,8.829515,-2.3521447,3.644269,-0.6997456,1.2849541,0.4969385,0.075,53.025,-1.5,0.12019064,-0.6131304,0.7057194,999.35516, , , , 
2025-11-24 19:47:46.944,8.949157,-2.7708886,4.436293,-0.70951945,1.3490949,0.37659815,0.50625,53.7,-1.125,0.107724324,-0.61377937,0.7042168,999.35345, , , , 
2025-11-24 19:47:46.964,9.647861,-2.2995026,4.6372905,-0.5403099,0.42302385,0.21349724,1.9312501,55.068752,-0.41250002,0.09511199,-0.6146268,0.7017238,999.35345, , , , 
2025-11-24 19:47:46.984,9.626326,-3.5509489,4.974678,-0.33628106,-0.051007207,0.0858265,0.26250002,52.537502,-0.71250004,0.09261772,-0.61637276,0.69964975,999.3569, , , , 
2025-11-24 19:47:47.004,10.470992,-3.7543387,5.15414,-0.12797616,-0.17684536,0.08643737,1.5937501,53.41875,0.01875,0.09297025,-0.61771125,0.69848186,999.3569, , , , 
2025-11-24 19:47:47.024,11.46162,-4.240082,5.4484572,-0.017409647,-0.15729769,-0.11148282,0.675,55.331253,-1.06875,0.094881795,-0.61804324,0.6977769,999.352, , , , 
2025-11-24 19:47:47.044,12.44507,-4.761717,5.5298133,0.23121232,-0.29474226,-0.3979784,-0.5625,53.5875,-0.69375,0.09905936,-0.6171674,0.69721854,999.352, , , , 
2025-11-24 19:47:47.064,12.691531,-5.453243,5.599205,0.41141742,-0.3753764,-0.6667589,-0.69375,52.312504,0.63750005,0.1063833,-0.6150747,0.6968192,999.3549, , , , 
2025-11-24 19:47:47.084,12.272787,-5.802595,6.02752,0.52564913,-0.44073895,-0.87078774,-2.71875,53.100002,0.3375,0.11606653,-0.6118518,0.6964228,999.3549, , , , 
2025-11-24 19:47:47.104,11.85165,-6.273981,6.4606214,0.6826414,-0.40775225,-1.0479386,-3.7125,53.250004,-0.0375,0.12740809,-0.6076018,0.69605553,999.3581, , , , 
2025-11-24 19:47:47.124,11.030912,-7.1569324,6.73101,0.8512401,-0.31062475,-1.131627,-5.0437503,51.61875,-0.88125,0.14275992,-0.60020787,0.6961778,999.3581, , , , 
2025-11-24 19:47:47.144,10.717453,-7.0636125,6.6305118,1.0650427,-0.228158,-1.0809252,-4.875,53.775,-2.41875,0.15476717,-0.59241986,0.69747514,999.35223, , , , 
2025-11-24 19:47:47.164,10.377672,-6.661618,6.108876,1.2525783,-0.124310985,-1.1615593,-5.34375,52.125004,-3.5062501,0.16690016,-0.5828285,0.69988596,999.35223, , , , 
2025-11-24 19:47:47.184,10.195817,-6.6927247,6.202196,1.3649774,0.15485422,-1.3161082,-7.89375,52.593754,-3.1125002,0.17880109,-0.5713908,0.7027536,999.34393, , , , 
2025-11-24 19:47:47.204,9.781859,-6.984649,6.407979,1.4914263,0.29168794,-1.357647,-7.9687505,51.99375,-5.53125,0.19007948,-0.55808175,0.7059265,999.34393, , , , 
2025-11-24 19:47:47.224,9.5760765,-6.9702926,6.099305,1.7229441,-0.0632245,-1.3338232,-10.837501,52.331253,-6.1875005,0.20178534,-0.54356384,0.70964056,999.34467, , , , 
2025-11-24 19:47:47.244,8.946764,-7.743174,5.721239,1.9300272,-0.61605716,-1.30328,-11.681251,52.36875,-7.33125,0.2173996,-0.5291601,0.7134588,999.34467, , , , 
2025-11-24 19:47:47.264,8.221739,-8.95155,5.5465627,1.8445061,-0.9636392,-1.2195915,-12.0,51.35625,-9.5625,0.23613396,-0.51581025,0.71668565,999.35297, , , , 
2025-11-24 19:47:47.284,6.8315086,-8.939586,5.4963136,1.7174463,-1.2458587,-0.9080505,-13.05,50.287502,-12.168751,0.26024044,-0.502298,0.71954125,999.35297, , , , 
2025-11-24 19:47:47.304,6.4845495,-8.195417,6.2380886,1.7070616,-1.5867213,-0.66187197,-13.781251,50.850002,-14.137501,0.27938065,-0.49387914,0.7214984,999.35956,37.88759671,127.74025443,145.6190185546875,1.25
2025-11-24 19:47:47.324,6.463014,-7.3627152,6.0490556,1.8628322,-1.8188499,-0.59650946,-15.76875,47.53125,-14.043751,0.30017698,-0.48615202,0.7233446,999.35956, , , , 
2025-11-24 19:47:47.344,6.5443697,-6.4606214,5.2498527,1.8982623,-1.8744385,-0.7241802,-15.543751,47.7,-16.706251,0.32234842,-0.47784945,0.724736,999.361, , , , 
2025-11-24 19:47:47.364,6.2261243,-6.1304116,4.9028935,1.8719951,-1.6734641,-0.85734874,-18.7875,47.100002,-14.625001,0.34474605,-0.4686026,0.7252237,999.361, , , , 
2025-11-24 19:47:47.384,5.4388857,-6.135197,4.6468616,1.8145739,-1.1798853,-0.98501945,-18.2625,47.41875,-15.7875,0.36982387,-0.45490077,0.7257738,999.3554, , , , 
2025-11-24 19:47:47.404,4.7425747,-6.1974106,3.885944,1.8127413,-0.95630884,-1.0241148,-18.675001,44.175003,-21.112501,0.38716623,-0.4422869,0.7267988,999.3554, , , , 
2025-11-24 19:47:47.424,4.007978,-6.3194447,2.8977082,1.7516547,-0.8310815,-1.0131192,-23.85,44.25,-17.643751,0.40310663,-0.4291461,0.7279265,999.3586, , , , 
2025-11-24 19:47:47.444,3.5557344,-6.3625154,2.1942184,1.5873321,-0.7492257,-0.98807377,-24.768751,43.29375,-18.5625,0.41775018,-0.41651502,0.72870505,999.3586, , , , 
2025-11-24 19:47:47.464,3.0388846,-6.458228,1.9310079,1.41629,-0.67286754,-0.937372,-24.900002,42.412502,-20.362501,0.43098518,-0.4049196,0.7289095,999.3542, , , , 
2025-11-24 19:47:47.484,2.5914268,-6.6568327,1.4261223,1.2153155,-0.548862,-0.80725783,-25.81875,40.59375,-23.1,0.44503653,-0.3921593,0.7289695,999.3542, , , , 
2025-11-24 19:47:47.504,2.5196424,-6.8051877,1.2705889,1.0180062,-0.594066,-0.6502656,-24.712502,40.331253,-22.275002,0.45231676,-0.3858287,0.728774,999.3571, , , , 
2025-11-24 19:47:47.524,3.1226335,-7.2622166,1.2131611,0.8634574,-0.5891791,-0.4896081,-25.612501,37.3875,-22.0125,0.46319234,-0.37774238,0.7280381,999.3571, , , , 
2025-11-24 19:47:47.544,4.130012,-7.716853,0.71306115,0.7528908,-0.69302607,-0.39370236,-27.6375,38.175003,-22.7625,0.47137183,-0.37314114,0.72699594,999.35785, , , , 
2025-11-24 19:47:47.565,3.8739798,-8.690732,0.22013968,0.377209,-0.30512697,-0.2629773,-28.612501,37.818752,-21.243752,0.47615787,-0.37072474,0.7262584,999.35785, , , , 
2025-11-24 19:47:47.584,4.197011,-9.274581,0.23928227,0.052839804,-0.051618073,0.09498947,-29.79375,37.59375,-23.587502,0.4786505,-0.37043837,0.7260417,999.3547, , , , 
2025-11-24 19:47:47.604,5.5202417,-9.997213,0.31106696,-0.37232208,0.33505934,0.38881543,-27.993752,38.625,-22.29375,0.47607493,-0.3733199,0.7271609,999.3547, , , , 
2025-11-24 19:47:47.625,6.161518,-10.9352,0.5288138,-0.7015782,0.5897899,0.59284425,-28.66875,38.30625,-20.8125,0.46922353,-0.37895915,0.72907645,999.3515, , , , 
2025-11-24 19:47:47.644,5.690132,-10.949556,0.85184485,-1.095586,0.81153387,0.8982767,-26.025002,40.21875,-23.8125,0.45862693,-0.3873494,0.73145,999.3515, , , , 
2025-11-24 19:47:47.664,4.2257247,-9.848858,2.201397,-1.4022402,1.0149518,1.3863577,-27.525002,40.29375,-21.206251,0.44371268,-0.39910296,0.734384,999.35443, , , , 
2025-11-24 19:47:47.684,4.141976,-7.8723865,3.4863427,-1.4822634,1.0430516,1.8890994,-24.468752,40.96875,-20.325,0.42470342,-0.41370183,0.7384354,999.35443, , , , 
2025-11-24 19:47:47.704,6.424729,-6.6257257,2.5603201,-1.4382812,0.8634574,2.1395538,-24.54375,44.193752,-20.8125,0.3997812,-0.43386877,0.74377567,999.3554, , , , 
2025-11-24 19:47:47.724,7.355537,-6.879365,2.210968,-1.6001602,0.97341305,2.1395538,-21.1875,44.90625,-19.96875,0.3780109,-0.45051038,0.74767274,999.3554, , , , 
2025-11-24 19:47:47.744,8.41795,-7.7910304,3.101098,-1.4718786,0.6563742,2.1645994,-18.900002,45.506252,-18.225,0.35735613,-0.46726906,0.75019,999.3537, , , , 
2025-11-24 19:47:47.764,8.85823,-7.7647095,3.4432719,-1.1963787,0.15241076,2.3270893,-16.03125,47.30625,-19.706251,0.33943826,-0.4836504,0.7519272,999.3537, , , , 
2025-11-24 19:47:47.784,9.817751,-6.8506513,3.062813,-0.9807434,-0.47067133,2.464534,-15.468751,49.4625,-17.587502,0.3257127,-0.49972826,0.7530234,999.35223, , , , 
2025-11-24 19:47:47.804,10.69831,-5.5800624,3.3882368,-0.959974,-0.77915806,2.4126105,-11.231251,49.518753,-17.1,0.31564206,-0.51584065,0.75275,999.35223, , , , 
2025-11-24 19:47:47.824,11.442478,-4.4171505,4.575077,-0.9453133,-0.6704241,2.1065671,-8.625,49.3875,-15.675,0.30561668,-0.53482395,0.75072634,999.34955, , , , 
2025-11-24 19:47:47.844,11.499906,-3.8620157,5.2331033,-0.89338976,-0.37598726,1.836565,-7.5375004,51.24375,-14.812501,0.2978664,-0.54778725,0.7487452,999.34955, , , , 
2025-11-24 19:47:47.864,11.351551,-3.656233,5.316852,-0.7980948,0.06994402,1.5916082,-6.2250004,50.625004,-13.9875,0.28879052,-0.55824566,0.7474926,999.34686, , , , 
2025-11-24 19:47:47.885,10.6408825,-3.2566316,5.4699926,-0.6362157,0.47677997,1.4584397,-5.3625,51.318752,-12.262501,0.278172,-0.56626624,0.7473731,999.34686, , , , 
2025-11-24 19:47:47.904,10.396814,-2.4717858,5.151747,-0.39492407,0.29718572,1.3613122,-4.2562504,52.66875,-10.44375,0.2666956,-0.57215625,0.7485057,999.3498, , , , 
2025-11-24 19:47:47.925,11.1936245,-1.8017955,4.54397,-0.10293072,-0.19761476,1.1273509,-3.6375,50.49375,-11.925,0.2586617,-0.57627726,0.7499313,999.3498, , , , 
2025-11-24 19:47:47.944,11.578869,-1.8855443,4.2041893,0.07910699,-0.40286532,0.7693842,-2.3812501,52.36875,-12.168751,0.2561579,-0.57845235,0.75103235,999.3466, , , , 
2025-11-24 19:47:47.964,11.016556,-2.0673988,4.1874394,0.08277218,-0.32223117,0.44257152,0.58125,51.787502,-11.681251,0.25679472,-0.579249,0.7518871,999.3466, , , , 
2025-11-24 19:47:47.984,10.607383,-2.2061825,5.2689953,0.17562363,-0.31612253,0.27214026,-0.63750005,52.18125,-13.425,0.25829324,-0.578816,0.75250494,999.3498, , , , 
2025-11-24 19:47:48.004,10.224531,-2.5866413,6.1974106,0.3894263,-0.24587308,0.16584979,-2.68125,51.825,-9.31875,0.26042646,-0.5767321,0.7539762,999.3498, , , , 
2025-11-24 19:47:48.025,10.224531,-3.101098,6.367301,0.6093376,-0.30390522,0.049174614,0.41250002,51.656254,-12.58125,0.2624138,-0.5737626,0.75594616,999.3476, , , , 
2025-11-24 19:47:48.044,10.499705,-4.1036906,6.5850477,0.9129374,-0.5568032,-0.12980877,-2.1000001,50.04375,-13.14375,0.26857468,-0.56625456,0.7602176,999.3476, , , , 
2025-11-24 19:47:48.067,10.695917,-4.9435716,6.8051877,1.14079,-0.7345649,-0.3478875,-1.03125,50.156254,-14.6625,0.2765769,-0.55804056,0.7641797,999.3459, , , , 
2025-11-24 19:47:48.084,10.068997,-5.6757755,6.9224358,1.2366958,-0.8976658,-0.5403099,-0.69375,50.2125,-16.556252,0.28698093,-0.5482909,0.76813364,999.3459, , , , 
2025-11-24 19:47:48.104,10.04507,-7.1186476,7.6259255,1.2257001,-0.7137955,-0.6649263,-3.8625002,50.625004,-15.000001,0.301489,-0.5349819,0.77269983,999.34564, , , , 
2025-11-24 19:47:48.125,10.157532,-8.810373,8.152347,1.2898409,-0.86040306,-0.85368353,-1.25625,49.537502,-16.9125,0.31292915,-0.5236987,0.7761856,999.34564, , , , 
2025-11-24 19:47:48.144,9.497113,-10.707881,8.338987,1.3264929,-1.0564907,-0.9685261,-3.35625,49.725002,-20.868752,0.32623523,-0.5115747,0.7791044,999.34174, , , , 
2025-11-24 19:47:48.164,7.678568,-10.77488,9.238688,1.4486659,-1.3497057,-0.8164208,-6.7875004,48.225002,-17.493752,0.34109688,-0.49947602,0.78126794,999.34174, , , , 
2025-11-24 19:47:48.184,5.558527,-9.506684,10.447063,1.8683299,-1.5836669,-0.47189304,-9.69375,48.093754,-21.0375,0.35654497,-0.48663288,0.7838776,999.3461, , , , 
2025-11-24 19:47:48.204,4.4602213,-8.633304,9.552148,2.3997822,-1.7186681,-0.085215636,-8.19375,46.85625,-20.362501,0.3721685,-0.47130466,0.7882207,999.3461, , , , 
2025-11-24 19:47:48.224,5.1062837,-8.250452,7.771888,2.7687447,-1.7400483,0.15363249,-10.481251,46.912502,-23.362501,0.38703904,-0.45361418,0.79420316,999.34393, , , , 
2025-11-24 19:47:48.244,5.8504515,-8.329415,5.407779,2.9709408,-1.9703443,0.1621846,-12.01875,44.90625,-26.175001,0.40226945,-0.43383867,0.8004087,999.34393, , , , 
2025-11-24 19:47:48.264,6.719046,-8.142776,4.2951164,2.879311,-2.0204353,-0.09498947,-12.168751,44.025,-27.187502,0.41912597,-0.4130394,0.80499965,999.35077, , , , 
2025-11-24 19:47:48.284,6.1208405,-8.118847,3.2853456,2.6300783,-2.1786492,-0.399811,-12.937501,42.225002,-29.175001,0.4422763,-0.38644227,0.8076438,999.35077, , , , 
2025-11-24 19:47:48.304,5.1469617,-8.348558,3.2207394,2.0845761,-1.994168,-0.51709706,-13.44375,41.0625,-30.750002,0.46124414,-0.3668595,0.80701625,999.3515,37.88760741,127.74024872,145.49407958984375,1.28
2025-11-24 19:47:48.324,4.802395,-8.123632,4.436293,1.7461569,-1.8805472,-0.52626,-15.075001,39.525,-30.956251,0.47828728,-0.35038012,0.80488664,999.3515, , , , 
2025-11-24 19:47:48.344,4.371687,-8.008778,5.3359947,1.5732822,-1.6850705,-0.5403099,-18.056252,36.35625,-30.45,0.49360728,-0.33575708,0.80212116,999.35297, , , , 
2025-11-24 19:47:48.365,4.1515474,-7.60439,5.6590257,1.5567889,-1.4236203,-0.51159924,-18.84375,37.425003,-32.60625,0.5069844,-0.3215907,0.7996973,999.35297, , , , 
2025-11-24 19:47:48.385,3.9649072,-7.159325,5.3407803,1.5231913,-0.9153809,-0.53297955,-21.300001,35.41875,-32.23125,-0.5194983,0.30391234,-0.79858464,999.34564, , , , 
2025-11-24 19:47:48.404,3.7016966,-6.613762,4.922036,1.5476259,-0.6081159,-0.6178897,-21.900002,33.018753,-34.350002,-0.5260415,0.2894965,-0.7995962,999.34564, , , , 
2025-11-24 19:47:48.424,2.8498518,-6.518049,3.723232,1.502422,-0.49449503,-0.620944,-23.962502,32.30625,-33.9375,-0.53083056,0.27476883,-0.80153966,999.3471, , , , 
2025-11-24 19:47:48.444,2.548356,-6.2309103,3.158526,1.4120139,-0.64537865,-0.5531381,-21.2625,33.318752,-34.125,-0.53571415,0.2608548,-0.8028201,999.3471, , , , 
2025-11-24 19:47:48.464,2.4933212,-6.5276203,2.940779,1.2544109,-0.40530878,-0.52564913,-20.94375,31.0125,-36.487503,-0.5404727,0.24811837,-0.80352294,999.3481, , , , 
2025-11-24 19:47:48.484,2.3234308,-6.788438,2.806781,1.1780528,-0.32956156,-0.44073895,-21.018751,31.25625,-37.725002,-0.54335225,0.23670498,-0.8048822,999.3481, , , , 
2025-11-24 19:47:48.504,2.1774685,-7.32443,2.268396,1.0625993,-0.32100943,-0.24342962,-25.556252,28.5375,-35.86875,-0.54584473,0.22651024,-0.8059431,999.351, , , , 
2025-11-24 19:47:48.524,2.7158537,-7.609176,2.1966112,0.90377444,-0.21166465,0.025961753,-25.500002,28.1625,-35.23125,-0.5475749,0.21869443,-0.80666435,999.351, , , , 
2025-11-24 19:47:48.544,4.007978,-8.19781,1.8999012,0.6789762,0.03940078,0.2904662,-25.800001,28.143751,-35.193752,-0.54748946,0.21282464,-0.8078429,999.3527, , , , 
2025-11-24 19:47:48.564,4.914858,-8.724232,1.6366907,0.47494736,0.24281874,0.4621192,-26.38125,27.337502,-36.487503,-0.54569215,0.21162088,-0.8090599,999.3527, , , , 
2025-11-24 19:47:48.584,5.4963136,-9.430114,1.308874,0.25625777,0.28802276,0.6667589,-25.425001,25.462502,-37.875,-0.5412478,0.21302538,-0.81109,999.3593, , , , 
2025-11-24 19:47:48.604,5.73081,-9.406186,1.1557333,0.022296565,0.3271181,0.9459241,-24.581251,27.4125,-38.23125,-0.5370296,0.21724975,-0.81219685,999.3593, , , , 
2025-11-24 19:47:48.624,6.4606214,-9.0544405,1.4141582,-0.15485422,0.27214026,1.1371248,-22.66875,26.00625,-38.193752,-0.53235906,0.22423278,-0.81267476,999.37225, , , , 
2025-11-24 19:47:48.644,8.032705,-9.47797,1.3040884,-0.29779658,0.14752385,1.1536181,-22.81875,27.35625,-38.71875,-0.5281471,0.23295942,-0.812149,999.37225, , , , 
2025-11-24 19:47:48.664,8.781659,-10.021141,0.8111669,-0.53236866,0.003970621,1.0363321,-23.400002,28.1625,-38.381252,-0.52524245,0.24260722,-0.8104159,999.37836, , , , 
2025-11-24 19:47:48.685,7.8987074,-9.8727865,0.62931234,-0.9624175,-0.12064579,0.95203274,-21.54375,29.343752,-38.49375,-0.52395856,0.25689173,-0.80612147,999.37836, , , , 
2025-11-24 19:47:48.704,6.1830535,-8.427522,1.5936198,-1.2904519,-0.22082762,1.063821,-21.393751,31.706251,-36.6375,-0.5238797,0.27141124,-0.801041,999.3774, , , , 
2025-11-24 19:47:48.724,5.9270215,-7.123433,2.5172493,-1.3466514,-0.36804602,1.2232567,-21.35625,29.718752,-36.225002,-0.5242698,0.28361154,-0.7962378,999.3774, , , , 
2025-11-24 19:47:48.744,5.5513487,-6.5252275,2.9958138,-1.4407246,0.15302163,1.3961314,-20.75625,32.8875,-34.612503,-0.5227107,0.30544198,-0.7885686,999.3837, , , , 
2025-11-24 19:47:48.767,5.7188463,-6.4031935,3.1202407,-1.361923,0.22876886,1.5812235,-19.837502,36.1875,-31.650002,-0.51809746,0.3238866,-0.783717,999.3837, , , , 
2025-11-24 19:47:48.784,6.1064835,-6.855437,2.4717858,-1.2977822,0.39553493,1.764483,-14.962501,35.34375,-35.2125,-0.5117945,0.34243664,-0.77922755,999.38495, , , , 
2025-11-24 19:47:48.804,6.687939,-7.5110703,2.416751,-1.3289363,0.36804602,2.0424263,-15.000001,39.80625,-32.362503,-0.5017893,0.36688414,-0.773358,999.38495, , , , 
2025-11-24 19:47:48.824,7.2909307,-7.661818,2.7086751,-1.3179407,0.14385866,2.252564,-14.981251,39.28125,-30.337502,-0.49551627,0.38226265,-0.7689044,999.3864, , , , 
2025-11-24 19:47:48.844,7.8699937,-6.9224358,3.4695928,-1.208596,-0.26908594,2.3838997,-13.6125,41.68125,-31.237501,-0.4866859,0.40753552,-0.7590432,999.3864, , , , 
2025-11-24 19:47:48.864,8.195417,-6.0155563,4.034299,-1.0680971,-0.62766355,2.3319764,-12.075001,42.1875,-29.1,-0.4820019,0.42582178,-0.749272,999.38715, , , , 
2025-11-24 19:47:48.884,8.492127,-5.501099,4.3788652,-0.9306525,-0.91049397,2.2036946,-11.1,43.40625,-28.81875,-0.48007736,0.43786392,-0.7411659,999.38715, , , , 
2025-11-24 19:47:48.904,9.262616,-4.924429,4.9674997,-0.64476776,-1.068708,1.9978333,-8.325001,44.0625,-29.1375,-0.47931,0.45412973,-0.72724545,999.38763, , , , 
2025-11-24 19:47:48.924,10.057034,-4.651647,4.9172506,-0.34361145,-0.9251547,1.7040073,-8.7375,43.0125,-26.41875,-0.47935605,0.4631332,-0.71756595,999.38763, , , , 
2025-11-24 19:47:48.944,10.607383,-4.6564326,4.249653,-0.16584979,-0.51465356,1.2996148,-8.19375,44.175003,-26.531252,-0.47861546,0.4690577,-0.710682,999.37616, , , , 
2025-11-24 19:47:48.964,10.399207,-4.792824,3.8787656,-0.13225223,-0.15363249,0.95447624,-7.0687504,45.525,-25.500002,-0.47609904,0.47437015,-0.7057964,999.37616, , , , 
2025-11-24 19:47:48.984,10.394422,-4.989035,3.8955152,-0.052839804,-0.2122755,0.8512401,-5.7375,46.18125,-27.225,-0.47375777,0.47762218,-0.70342505,999.3747, , , , 
2025-11-24 19:47:49.004,10.875379,-5.0081778,4.0031924,0.13225223,-0.56230104,0.7192933,-5.9437504,45.2625,-25.44375,-0.47288826,0.47903585,-0.7010207,999.3747, , , , 
2025-11-24 19:47:49.024,11.499906,-4.871787,4.173083,0.38331765,-0.95936316,0.4486802,-6.8812504,44.193752,-26.062502,-0.47435078,0.4778021,-0.6989667,999.3757, , , , 
2025-11-24 19:47:49.044,11.643475,-5.1661043,3.993621,0.6655372,-1.308167,-0.06383537,-7.5937505,43.612503,-25.800001,-0.4815855,0.4700015,-0.6957378,999.3757, , , , 
2025-11-24 19:47:49.064,11.351551,-5.6709895,3.9026937,0.79015356,-1.2825106,-0.42302385,-6.3187504,44.625,-28.143751,-0.4901045,0.45965862,-0.6941757,999.37103, , , , 
2025-11-24 19:47:49.084,11.085947,-6.094519,3.912265,0.87750727,-1.1395682,-0.6490438,-6.9187503,43.8375,-28.968752,-0.49687195,0.45043185,-0.69397676,999.37103, , , , 
2025-11-24 19:47:49.104,10.6408825,-7.1210403,3.3619158,0.95936316,-0.7150172,-0.98807377,-7.4437504,43.29375,-29.962502,-0.508876,0.4297156,-0.6970247,999.373, , , , 
2025-11-24 19:47:49.124,10.202995,-7.795816,3.0173492,0.9489784,-0.4798343,-1.1737766,-8.7375,42.65625,-30.243752,-0.51519865,0.4153763,-0.7013789,999.373, , , , 
2025-11-24 19:47:49.144,9.899107,-8.516056,2.7110682,0.8952223,-0.4535671,-1.2904519,-10.931251,41.943752,-30.45,-0.52108485,0.40092424,-0.70637035,999.3652, , , , 
2025-11-24 19:47:49.164,10.183853,-9.487542,2.5914268,0.79259706,-0.5177079,-1.4059052,-10.462501,41.25,-32.006252,-0.5275537,0.3865016,-0.710892,999.3652, , , , 
2025-11-24 19:47:49.184,10.102497,-10.396814,2.9216363,0.7034108,-0.6545416,-1.5121957,-11.71875,40.0125,-32.86875,-0.53512394,0.37198338,-0.7145917,999.3603, , , , 
2025-11-24 19:47:49.204,9.305687,-10.408778,3.4217365,0.729678,-0.8121447,-1.537852,-14.231251,39.35625,-30.4125,-0.5437115,0.35706648,-0.71735317,999.3603, , , , 
2025-11-24 19:47:49.224,8.815159,-10.13839,3.76391,0.8304707,-0.8964441,-1.474933,-15.937501,38.081253,-31.706251,-0.55278254,0.3415863,-0.71915054,999.36346, , , , 
2025-11-24 19:47:49.244,7.542177,-8.803194,4.141976,1.0613775,-0.959974,-1.4865395,-16.612501,37.518753,-32.68125,-0.5615433,0.32476643,-0.7209701,999.36346, , , , 
2025-11-24 19:47:49.268,7.623533,-8.599805,3.7447674,1.3234385,-1.0033454,-1.5433499,-18.975,36.037502,-32.9625,-0.57185787,0.30133548,-0.7234122,999.3591, , , , 
2025-11-24 19:47:49.284,7.9944205,-9.195618,3.1082766,1.4040726,-1.009454,-1.6508621,-20.98125,36.206253,-33.225002,-0.57784826,0.28591073,-0.72501665,999.3591, , , , 
2025-11-24 19:47:49.304,8.159525,-9.961321,2.120041,1.3881903,-1.0338887,-1.8121303,-21.300001,32.325,-34.21875,-0.5880095,0.25871888,-0.72753376,999.3615,37.88761758,127.74023903,145.27264404296875,1.31
2025-11-24 19:47:49.328,7.2909307,-9.79143,1.4596218,1.163392,-1.0619885,-1.9642357,-26.343752,30.675001,-33.131252,-0.5988861,0.2313054,-0.72913903,999.3615, , , , 
2025-11-24 19:47:49.344,6.975078,-9.927821,1.5146568,0.95203274,-1.1126902,-1.9391903,-28.0125,29.75625,-32.4375,-0.6058807,0.21563996,-0.72929156,999.3566, , , , 
2025-11-24 19:47:49.364,5.5968122,-8.958728,2.1870399,0.7956514,-1.2580761,-1.994168,-30.300001,27.150002,-31.743752,-0.61562073,0.19582768,-0.72856134,999.3566, , , , 
2025-11-24 19:47:49.384,5.0368915,-8.362915,2.9096723,0.7547234,-1.4895937,-1.9037601,-30.581251,26.493752,-31.81875,-0.62923366,0.17162842,-0.7253236,999.3576, , , , 
2025-11-24 19:47:49.404,4.5966125,-7.5756764,3.2925239,0.7712168,-1.6588033,-1.786474,-33.131252,24.6375,-32.68125,-0.64097536,0.15223444,-0.7208947,999.3576, , , , 
2025-11-24 19:47:49.424,4.278367,-7.1952176,3.397808,0.83902276,-1.6166537,-1.8561126,-33.9,21.806252,-30.431252,-0.6525391,0.13266556,-0.7157031,999.36273, , , , 
2025-11-24 19:47:49.444,3.7710886,-7.34118,3.1800613,0.90499616,-1.5824453,-1.7754785,-33.9,21.5625,-32.5875,-0.6634237,0.11255717,-0.71036315,999.36273, , , , 
2025-11-24 19:47:49.464,3.0963125,-7.1066833,2.8019953,0.9935716,-1.4321724,-1.6135993,-37.331253,20.0625,-29.212502,-0.67311376,0.09292525,-0.7049559,999.352, , , , 
2025-11-24 19:47:49.484,2.6392834,-6.977471,2.2612174,1.0754274,-1.135903,-1.4004076,-38.8875,18.28125,-28.1625,-0.6808565,0.074229844,-0.7001685,999.352, , , , 
2025-11-24 19:47:49.504,2.3688943,-7.233503,1.3423735,1.095586,-0.7217367,-1.207985,-39.09375,17.15625,-29.156252,-0.6859933,0.05702349,-0.69680923,999.3576, , , , 
2025-11-24 19:47:49.524,2.0291135,-7.3363943,0.18185452,0.95020014,-0.30634868,-0.9135483,-40.6875,15.1125,-29.04375,-0.6881598,0.04230298,-0.6955014,999.3576, , , , 
2025-11-24 19:47:49.544,1.9070797,-7.783852,-0.6029913,0.70402163,0.07788526,-0.5885682,-40.125,13.556251,-29.156252,-0.68751574,0.029576048,-0.69629574,999.35516, , , , 
2025-11-24 19:47:49.565,2.3449662,-7.982456,-0.6987042,0.5103775,0.19944735,-0.22388195,-40.18125,13.293751,-28.837502,-0.68554586,0.024200223,-0.6977899,999.35516, , , , 
2025-11-24 19:47:49.584,3.2877383,-8.506484,-0.82313097,0.36376998,0.25686863,0.05589413,-41.193752,12.056251,-26.493752,-0.68332064,0.0223511,-0.6990374,999.3464, , , , 
2025-11-24 19:47:49.604,4.1204405,-9.363115,-1.2849457,0.12614357,0.3478875,0.27275112,-41.193752,11.83125,-29.250002,-0.68093896,0.023380633,-0.7001544,999.3464, , , , 
2025-11-24 19:47:49.624,4.613362,-10.265209,-1.5601203,-0.20066908,0.40591964,0.4725039,-42.15,12.975,-28.29375,-0.6785861,0.027605625,-0.7012118,999.3598, , , , 
2025-11-24 19:47:49.644,4.907679,-10.880164,-1.0624132,-0.5372556,0.42607817,0.75411254,-41.025,11.962501,-28.81875,-0.6765968,0.03581829,-0.7018913,999.3598, , , , 
2025-11-24 19:47:49.664,5.5106707,-11.712867,-0.61016977,-0.7852667,0.4242456,1.104749,-40.5,15.262501,-29.531252,-0.6749022,0.048197903,-0.7018663,999.3676, , , , 
2025-11-24 19:47:49.684,6.2883377,-12.514462,-0.12921242,-0.9996802,0.35399613,1.533576,-40.256252,15.7875,-29.118752,-0.6730858,0.06914005,-0.7002347,999.3676, , , , 
2025-11-24 19:47:49.704,6.352944,-12.35175,0.59342,-1.1059707,0.25198174,1.9471315,-38.100002,17.00625,-29.268751,-0.6719881,0.08970902,-0.69703263,999.37177, , , , 
2025-11-24 19:47:49.724,5.4867425,-10.703095,1.9214365,-1.0552689,0.15790854,2.4168866,-38.175003,19.612501,-28.781252,-0.67076004,0.112963974,-0.6919741,999.37177, , , , 
2025-11-24 19:47:49.744,5.17089,-8.82473,3.2590244,-0.6673698,0.1084285,2.9239042,-37.987503,20.493752,-28.85625,-0.66840965,0.13750288,-0.6853543,999.37494, , , , 
2025-11-24 19:47:49.764,6.367301,-8.465807,3.2685957,-0.22754712,0.043065965,3.195739,-34.78125,23.306252,-29.19375,-0.66407263,0.16125461,-0.67767435,999.37494, , , , 
