Time,Accel_X,Accel_Y,Accel_Z,Gyro_X,Gyro_Y,Gyro_Z,Mag_X,Mag_Y,Mag_Z,Orient_X,Orient_Y,Orient_Z,Pressure,Lat,Lng,Alt,Speed
2025-11-24 19:40:08.620,3.723232,1.5481563,8.329415,0.19211698,0.13897173,-0.120034926,61.443752,48.61875,-30.69375,0.13723631,-0.17791775,0.30165163,999.2673,37.88749152,127.74030392,142.13189697265625,0.0
2025-11-24 19:40:08.639,4.3262234,1.2131611,6.7908306,-0.07299834,-0.0736092,-0.041233372,58.85625,46.5,-32.30625,0.13896069,-0.17711416,0.30077097,999.24774, , , , 
2025-11-24 19:40:08.659,4.5798626,1.0217353,6.599405,-0.182954,-0.029016078,-0.06811142,59.268753,43.425003,-32.79375,0.13829568,-0.17821988,0.3000489,999.24774, , , , 
2025-11-24 19:40:08.679,4.8287163,1.0289137,6.7525454,-0.30329436,0.12553272,-0.14630212,59.625004,41.775,-38.925003,0.13640098,-0.1788198,0.2988493,999.2287, , , , 
2025-11-24 19:40:08.699,4.65404,1.0552348,7.3340015,-0.39920014,0.20189081,-0.21044292,57.562504,40.3125,-38.456253,0.13329199,-0.17854796,0.29693827,999.2287, , , , 
2025-11-24 19:40:08.720,4.426722,0.9738788,8.025527,-0.47067133,0.18661919,-0.26847506,52.875004,38.2125,-38.325,0.12823306,-0.1777495,0.29364678,999.21625, , , , 
2025-11-24 19:40:08.740,4.106084,0.8135597,8.367701,-0.51159924,0.11453715,-0.27214026,51.581253,37.36875,-41.53125,0.123856656,-0.17753631,0.29054374,999.21625, , , , 
2025-11-24 19:40:08.760,4.249653,0.5312066,8.355737,-0.54580766,-9.162972E-4,-0.23243405,47.943752,35.1375,-42.7125,0.119289204,-0.17820048,0.28743625,999.20624, , , , 
2025-11-24 19:40:08.780,4.7138605,0.14117654,8.078169,-0.57390743,-0.10231985,-0.20127994,43.912502,32.49375,-44.625,0.1146512,-0.18015112,0.28447217,999.20624, , , , 
2025-11-24 19:40:08.801,4.855037,-0.3062813,7.298109,-0.56291187,-0.1744019,-0.18600832,39.75,29.85,-45.881252,0.11002708,-0.18298233,0.2815947,999.19916, , , , 
2025-11-24 19:40:08.820,4.45065,-0.863809,5.7786665,-0.5549707,-0.3930915,-0.13225223,36.487503,29.643751,-45.99375,0.10574718,-0.18682629,0.2788346,999.19916, , , , 
2025-11-24 19:40:08.840,3.8500516,-1.4189439,3.2183464,-0.6172789,-0.6997456,-0.004581486,32.268753,28.85625,-49.050003,0.10094497,-0.1949533,0.27598813,999.1857, , , , 
2025-11-24 19:40:08.860,3.644269,-1.8664017,1.227518,-0.8164208,-1.081536,0.116980605,22.987501,25.556252,-50.68125,0.09657823,-0.2052326,0.27434766,999.1857, , , , 
2025-11-24 19:40:08.880,3.804588,-2.1678972,-0.55513483,-1.1927135,-1.5372412,0.18723005,18.056252,25.575,-53.4,0.09069284,-0.22031812,0.2726793,999.1569, , , , 
2025-11-24 19:40:08.900,3.6059837,-2.8642087,-1.0935199,-1.7314962,-1.9300272,0.2837467,9.675,25.44375,-52.66875,0.08159493,-0.24074566,0.2701935,999.1569, , , , 
2025-11-24 19:40:08.920,3.9146578,-3.8141594,-0.14596218,-2.2201881,-2.1041238,0.3808742,3.3187501,27.6375,-49.65,0.06805548,-0.2652645,0.26698625,999.1252, , , , 
2025-11-24 19:40:08.940,4.347759,-4.914858,1.7060826,-2.640463,-2.1536038,0.52992517,-0.73125005,28.81875,-46.987503,0.050187442,-0.29159507,0.2633909,999.1252, , , , 
2025-11-24 19:40:08.960,4.465007,-5.6949177,3.2997024,-2.8652613,-2.1713188,0.65942854,-6.6000004,31.181252,-43.725002,0.028991815,-0.3186045,0.25984454,999.11127, , , , 
2025-11-24 19:40:08.980,3.4432719,-6.5922265,4.4004006,-2.9080217,-2.3631303,0.8976658,-7.9500003,34.7625,-42.393753,0.005682219,-0.345762,0.256878,999.11127, , , , 
2025-11-24 19:40:09.000,2.656033,-7.350751,4.7018967,-2.8377724,-2.9672756,1.2831215,-9.731251,36.28125,-39.05625,-0.01791463,-0.37501216,0.2561727,999.11395, , , , 
2025-11-24 19:40:09.020,3.5964124,-7.958528,4.388437,-2.77241,-3.4376416,1.8109087,-11.212501,37.96875,-35.5875,-0.041013543,-0.40860695,0.25948307,999.11395, , , , 
2025-11-24 19:40:09.040,4.658826,-8.719446,3.8261235,-2.7656903,-3.345401,2.2678354,-14.400001,39.862503,-32.11875,-0.07084796,-0.4517477,0.26890814,999.1125, , , , 
2025-11-24 19:40:09.060,5.1254263,-9.678967,3.885944,-2.8872523,-3.4058766,2.6331327,-14.250001,43.068752,-28.1625,-0.09707605,-0.48428446,0.2791016,999.1125, , , , 
2025-11-24 19:40:09.080,5.9964137,-10.880164,4.843073,-2.8829763,-3.55676,2.9825473,-13.387501,45.375,-25.29375,-0.12495021,-0.51647496,0.29129282,999.11566, , , , 
2025-11-24 19:40:09.100,7.3842506,-11.52862,5.7188463,-2.7058256,-3.3686137,3.3460119,-12.168751,47.98125,-23.1,-0.15320054,-0.5466111,0.30578026,999.11566, , , , 
2025-11-24 19:40:09.120,8.793623,-11.777473,6.6999035,-2.500575,-2.7992878,3.6373944,-11.606251,48.131252,-19.7625,-0.18197815,-0.57175446,0.32218745,999.133, , , , 
2025-11-24 19:40:09.140,9.647861,-11.765509,7.1688967,-2.2262967,-2.076635,3.8053823,-10.05,49.518753,-17.38125,-0.21155277,-0.5892715,0.33967516,999.133, , , , 
2025-11-24 19:40:09.160,10.738988,-11.866008,7.025327,-1.926973,-1.397964,3.9165595,-5.30625,49.968754,-14.812501,-0.24896337,-0.6005493,0.3618437,999.13837, , , , 
2025-11-24 19:40:09.180,12.110075,-11.928221,6.498906,-1.8212934,-1.1670572,3.9263334,-1.5375,53.475002,-14.325001,-0.2784301,-0.6046995,0.37915877,999.13837, , , , 
2025-11-24 19:40:09.200,13.58884,-11.583654,5.070391,-1.8921536,-1.0247257,3.8725772,0.80625004,54.43125,-10.762501,-0.3072374,-0.60667557,0.39522064,999.1445, , , , 
2025-11-24 19:40:09.220,16.9364,-11.236695,6.058627,-2.0943499,-0.9892955,3.6422813,3.8437502,52.237503,-8.64375,-0.33563387,-0.6084625,0.40854713,999.1445, , , , 
2025-11-24 19:40:09.241,19.511076,-9.458828,8.1020975,-1.7663155,-0.60017467,3.1261005,8.137501,52.537502,-8.493751,-0.36167344,-0.60978454,0.41823596,999.13983, , , , 
2025-11-24 19:40:09.260,21.054447,-7.479964,7.058827,-1.2562435,0.09682207,2.2366815,10.9125,51.825,-7.6687503,-0.3825074,-0.6082822,0.42439437,999.13983, , , , 
2025-11-24 19:40:09.281,19.56611,-6.6041903,6.2380886,-0.8952223,0.6013964,1.171944,13.462501,52.425003,-3.4875002,-0.40069005,-0.6040603,0.42449534,999.1528, , , , 
2025-11-24 19:40:09.300,17.532211,-6.661618,5.503492,-0.4395172,0.9007201,0.60200727,13.125001,52.893753,-3.6375,-0.40967792,-0.6001553,0.42065614,999.1528, , , , 
2025-11-24 19:40:09.320,17.92942,-6.3122663,3.9816568,0.0051923506,0.9117157,0.1395826,14.55,52.143753,-1.2750001,-0.41436207,-0.59517336,0.4162695,999.1667, , , , 
2025-11-24 19:40:09.341,17.694923,-6.8195443,2.9838498,0.29290965,0.87628555,-0.49999282,15.13125,52.0875,-2.25,-0.41410488,-0.5913062,0.410997,999.1667, , , , 
2025-11-24 19:40:09.360,16.969898,-6.9320073,1.9357935,0.490219,0.74189526,-1.0290017,15.20625,53.100002,-2.775,-0.40923354,-0.58888054,0.40438113,999.174, , , , 
2025-11-24 19:40:09.380,16.015162,-7.7814593,2.0147567,0.52564913,0.52992517,-1.5470151,12.225,51.43125,-2.68125,-0.40015185,-0.5889231,0.39624098,999.174, , , , 
2025-11-24 19:40:09.399,14.249259,-8.7577305,2.510071,0.6808088,0.46639526,-1.9410229,11.212501,52.068752,-4.1625004,-0.3873507,-0.59114367,0.38657683,999.1774, , , , 
2025-11-24 19:40:09.420,12.827922,-9.530613,2.0554347,0.80786866,0.481056,-2.1725407,9.9375,51.581253,-4.14375,-0.3717183,-0.5936625,0.37628084,999.1774, , , , 
2025-11-24 19:40:09.440,11.777473,-10.107283,2.065006,0.90194184,0.5024363,-2.3667955,6.9187503,52.518753,-4.8187504,-0.3500124,-0.59651136,0.3624689,999.19257, , , , 
2025-11-24 19:40:09.460,10.69831,-10.655239,2.3114667,0.9752456,0.4401281,-2.53234,4.9500003,52.93125,-4.6312504,-0.33116254,-0.5984987,0.35075235,999.19257, , , , 
2025-11-24 19:40:09.480,9.413364,-11.059627,2.1296122,1.0583233,0.286801,-2.6429064,2.9250002,52.987503,-5.8125,-0.31054544,-0.6008978,0.3390601,999.19354, , , , 
2025-11-24 19:40:09.500,8.12124,-11.140983,1.7682959,1.0888665,0.25014913,-2.6593997,-0.31875002,54.9,-7.5937505,-0.2889522,-0.60335,0.32757616,999.19354, , , , 
2025-11-24 19:40:09.520,6.3194447,-11.174481,1.8783658,1.1175771,0.004581486,-2.6203046,-1.8750001,53.643753,-8.887501,-0.26705122,-0.6058219,0.3164444,999.19794, , , , 
2025-11-24 19:40:09.541,4.496114,-11.1936245,1.4524434,1.1352922,-0.26603162,-2.4455972,-5.175,53.193752,-10.06875,-0.24480732,-0.6090367,0.30672622,999.19794, , , , 
2025-11-24 19:40:09.560,3.089134,-11.102697,1.026521,1.1108576,-0.6191115,-2.17926,-7.3875003,53.081253,-10.762501,-0.2230837,-0.6132659,0.29912415,999.20013, , , , 
2025-11-24 19:40:09.580,1.9501505,-11.097912,0.6364908,0.9752456,-1.1786636,-1.7907501,-9.6,52.987503,-10.368751,-0.1974842,-0.6211576,0.29299283,999.20013, , , , 
2025-11-24 19:40:09.600,0.6843473,-11.08834,0.44745782,0.88605934,-1.4785982,-1.5445716,-11.512501,50.79375,-10.35,-0.17857082,-0.63007313,0.2905795,999.19403, , , , 
2025-11-24 19:40:09.620,-0.52163535,-10.827522,-0.29910284,0.7467822,-1.5286891,-1.1878265,-12.450001,51.73125,-13.70625,-0.16173807,-0.6400049,0.29007712,999.19403,37.88749152,127.74030392,142.13189697265625,0.0
2025-11-24 19:40:09.641,-1.6007984,-11.25823,-1.5696917,0.42485645,-1.1475095,-0.7968731,-15.95625,51.093754,-12.225,-0.14875686,-0.6490873,0.2905652,999.19525, , , , 
2025-11-24 19:40:09.661,-2.713461,-11.916257,-1.8305093,-0.01802051,-0.54458594,-0.29107708,-15.39375,49.537502,-12.337501,-0.14113504,-0.65667534,0.29084483,999.19525, , , , 
2025-11-24 19:40:09.680,-2.861816,-11.437693,-1.3471591,-0.3112356,-0.21899502,0.12858704,-17.550001,49.818752,-11.981251,-0.141842,-0.65908533,0.2911597,999.195, , , , 
2025-11-24 19:40:09.700,-2.507678,-10.549955,-0.5192425,-0.5183188,0.010079269,0.47677997,-16.237501,50.568752,-11.231251,-0.14769574,-0.66055006,0.2920565,999.195, , , , 
2025-11-24 19:40:09.720,-2.2731814,-9.360723,0.45224348,-0.5244274,0.13041963,0.9025527,-14.64375,51.000004,-13.425,-0.16002935,-0.6600827,0.29480574,999.1982, , , , 
2025-11-24 19:40:09.741,-1.6630118,-9.221938,-0.2727818,-0.41263917,0.008857539,1.2110394,-14.962501,51.187504,-9.8625,-0.17149262,-0.65879285,0.29961872,999.1982, , , , 
2025-11-24 19:40:09.760,-1.2658032,-9.5760765,-1.4859428,-0.42791077,-0.1065959,1.4321724,-13.35,51.73125,-11.606251,-0.18372758,-0.6577654,0.30658147,999.2094, , , , 
2025-11-24 19:40:09.781,-0.5240282,-10.399207,-2.9623144,-0.6667589,-0.18417573,1.7162246,-11.025001,51.600002,-11.681251,-0.1978147,-0.6573064,0.31459522,999.2094, , , , 
2025-11-24 19:40:09.800,0.24646074,-11.296515,-3.225525,-1.0296125,-0.20250167,1.976453,-10.425,52.65,-9.4875,-0.21509865,-0.65750813,0.32231855,999.20233, , , , 
2025-11-24 19:40:09.820,1.2849457,-11.60519,-2.3856442,-1.3564253,0.0051923506,2.2146902,-9.431251,52.48125,-8.8125,-0.23620212,-0.65773064,0.3290745,999.20233, , , , 
2025-11-24 19:40:09.840,2.5459633,-11.126625,-0.9882358,-1.5537345,0.42302385,2.3790128,-7.2187505,53.550003,-5.4,-0.2609776,-0.65602386,0.33436757,999.2011, , , , 
2025-11-24 19:40:09.860,3.5102708,-10.671989,0.33738798,-1.6050472,1.1499529,2.392452,-2.86875,54.768753,-6.5437503,-0.29545838,-0.64905137,0.3382358,999.2011, , , , 
2025-11-24 19:40:09.880,3.9457645,-9.946963,1.39023,-1.5140283,1.7589852,2.328922,-0.90000004,53.7,-4.8375,-0.32463723,-0.63814616,0.3386751,999.2143, , , , 
2025-11-24 19:40:09.901,4.0510488,-8.997013,1.7706888,-1.348484,1.9233078,2.2372923,0.0375,53.531254,-2.2875001,-0.3532554,-0.6240854,0.33773074,999.2143, , , , 
2025-11-24 19:40:09.920,4.438686,-8.52802,1.9214365,-1.2599086,2.0412047,2.223853,3.6750002,54.2625,-0.39375,-0.38065147,-0.60849446,0.33640346,999.23016, , , , 
2025-11-24 19:40:09.941,4.9603214,-7.6809607,2.7589245,-1.0992512,1.9795073,2.1688755,4.9500003,54.881252,0.65625,-0.40694663,-0.5915936,0.33478317,999.23016, , , , 
2025-11-24 19:40:09.962,5.508278,-7.257431,2.9599216,-0.87750727,1.6991204,2.04487,7.2937503,54.112503,0.91875005,-0.4306543,-0.5747602,0.33393946,999.247, , , , 
2025-11-24 19:40:09.982,5.3383875,-7.4249287,2.201397,-0.77182764,1.4541636,1.9361359,8.868751,52.65,2.5500002,-0.45583826,-0.5555546,0.334488,999.247, , , , 
2025-11-24 19:40:10.000,5.3647084,-8.032705,2.2636101,-0.84085536,1.4590505,1.9428555,9.675,51.843754,5.7375,-0.474891,-0.5408069,0.33493567,999.2497, , , , 
2025-11-24 19:40:10.020,5.5537415,-9.176475,2.778067,-0.9098831,1.3686426,2.0155482,13.312501,52.350002,4.40625,-0.48932657,-0.52969134,0.3350695,999.2497, , , , 
2025-11-24 19:40:10.040,6.867401,-10.119247,3.8285162,-0.83963364,1.0900882,2.2146902,14.85,51.35625,6.76875,-0.5130977,-0.5112578,0.33688217,999.25433, , , , 
2025-11-24 19:40:10.060,10.10489,-10.700703,3.656233,-0.7620538,0.9776891,2.2977679,17.456251,51.35625,8.6625,-0.5310036,-0.49655786,0.34063023,999.25433, , , , 
2025-11-24 19:40:10.080,13.143775,-10.411171,3.1106694,-0.7956514,0.9807434,2.0680828,19.1625,50.531254,9.76875,-0.54772305,-0.4823838,0.3438705,999.26215, , , , 
2025-11-24 19:40:10.100,15.366707,-9.382257,3.3643086,-0.8268055,1.0259475,1.5305218,18.5625,48.35625,10.575001,-0.5660943,-0.46746424,0.34389183,999.26215, , , , 
2025-11-24 19:40:10.120,16.651653,-8.372486,4.6301117,-0.76327556,1.0516037,0.9795217,21.337502,46.893753,11.4375,-0.5750072,-0.4606304,0.34115472,999.2658, , , , 
2025-11-24 19:40:10.140,16.778473,-8.286345,5.8887367,-0.53053606,1.2171481,0.2525926,21.45,46.7625,12.375001,-0.5850661,-0.45261338,0.33214524,999.2658, , , , 
2025-11-24 19:40:10.160,15.70888,-8.700303,7.8628154,-0.182954,1.4223987,-0.32956156,22.706251,47.268753,13.14375,-0.58900297,-0.4475976,0.32114702,999.25604, , , , 
2025-11-24 19:40:10.180,14.330615,-9.159725,8.477771,0.4083631,1.3271037,-0.6545416,23.325,47.34375,11.981251,-0.5882766,-0.44280565,0.30940723,999.25604, , , , 
2025-11-24 19:40:10.200,13.18206,-9.913465,7.0325055,0.9324851,0.95753056,-0.892168,21.225,47.86875,11.868751,-0.58219707,-0.43899927,0.29968947,999.25653, , , , 
2025-11-24 19:40:10.220,12.638889,-10.889736,5.163711,1.2843432,0.15546508,-1.0448842,19.425001,47.568752,11.306251,-0.5714365,-0.43785217,0.29357675,999.25653, , , , 
2025-11-24 19:40:10.240,12.705888,-11.727223,4.019942,1.4199551,-0.73884094,-1.2061526,19.143751,49.031254,10.931251,-0.5564565,-0.4416315,0.2920415,999.2382, , , , 
2025-11-24 19:40:10.260,13.064812,-12.30868,3.4193435,1.4401137,-1.4126248,-1.4779873,17.85,49.893753,10.556251,-0.5326373,-0.4542548,0.29488075,999.2382, , , , 
2025-11-24 19:40:10.280,12.806387,-12.777673,4.4339004,1.5402956,-1.7247767,-1.840841,15.937501,50.343754,8.26875,-0.51020443,-0.46889058,0.29780698,999.22406, , , , 
2025-11-24 19:40:10.300,11.564512,-13.356736,4.1635113,1.795637,-1.8945972,-2.2391248,14.156251,50.175003,6.9187503,-0.48368624,-0.4859065,0.3004589,999.22406, , , , 
2025-11-24 19:40:10.320,9.829716,-14.02194,3.3930225,1.9440771,-1.6826271,-2.5537202,12.187501,51.000004,3.3750002,-0.45397103,-0.5032536,0.30169037,999.2153, , , , 
2025-11-24 19:40:10.340,7.4847493,-14.553147,2.3641088,2.0155482,-1.556178,-2.7730207,10.293751,52.425003,2.5687501,-0.42262694,-0.51937014,0.3008779,999.2153, , , , 
2025-11-24 19:40:10.360,5.400601,-14.842679,1.6295122,1.9117013,-1.5732822,-2.7815728,6.3,52.050003,-0.54375005,-0.39088038,-0.5346439,0.2988688,999.2131, , , , 
2025-11-24 19:40:10.381,3.8093736,-14.498113,1.0671989,1.687514,-1.6630794,-2.6019785,4.70625,54.131252,-2.6625001,-0.36022273,-0.5496344,0.29662713,999.2131, , , , 
2025-11-24 19:40:10.400,3.481557,-13.421342,1.4739788,1.357647,-1.7156137,-2.3588543,1.7812501,53.98125,-4.6687503,-0.32547408,-0.56806296,0.2940122,999.22015, , , , 
2025-11-24 19:40:10.420,3.278167,-12.268002,2.751746,1.2330306,-1.8457279,-2.2666137,-0.112500004,53.925003,-6.1687503,-0.29984555,-0.5828019,0.29177737,999.22015, , , , 
2025-11-24 19:40:10.441,2.658426,-11.054841,3.4672,1.2580761,-1.9489641,-2.2287402,-2.79375,53.643753,-6.1687503,-0.27418122,-0.5976846,0.2898923,999.2216, , , , 
2025-11-24 19:40:10.460,1.9645073,-9.856036,3.5700915,1.3716968,-1.8732169,-2.1872013,-5.55,53.737503,-7.1250005,-0.24794854,-0.6117267,0.28855675,999.2216, , , , 
2025-11-24 19:40:10.480,0.8111669,-8.774481,3.1680973,1.5280782,-1.827402,-2.1145084,-8.00625,53.11875,-7.6125,-0.22108509,-0.6242033,0.28786218,999.23016, , , , 
2025-11-24 19:40:10.500,-0.30867413,-8.047063,2.4047868,1.6178753,-1.9294164,-1.9477423,-11.55,52.893753,-8.45625,-0.19386,-0.6355795,0.28834996,999.23016, , , , 
2025-11-24 19:40:10.520,-0.60777694,-7.757531,1.5625132,1.5726714,-2.2434008,-1.736994,-12.750001,52.65,-10.012501,-0.16693197,-0.64712894,0.2904681,999.23846, , , , 
2025-11-24 19:40:10.540,-0.8063812,-8.427522,0.7082755,1.3735294,-2.4437644,-1.5311326,-14.400001,52.36875,-11.0625,-0.14098299,-0.6601324,0.29360184,999.23846, , , , 
2025-11-24 19:40:10.560,-0.7920243,-8.446664,0.64606214,1.1102468,-2.43338,-1.2825106,-18.712502,49.818752,-12.0,-0.11200321,-0.67724615,0.29747465,999.2404, , , , 
2025-11-24 19:40:10.580,-0.20578274,-9.91825,-0.24646074,0.74067354,-2.2464552,-1.1652246,-18.28125,49.74375,-12.356251,-0.0923516,-0.69044924,0.29964665,999.2404, , , , 
2025-11-24 19:40:10.600,-0.74895346,-11.119447,-0.23688944,0.22754712,-1.8261802,-1.0534363,-21.956251,48.468754,-9.731251,-0.07708067,-0.7028051,0.29921073,999.236, , , , 
2025-11-24 19:40:10.620,-0.80877405,-10.762917,1.7443677,-0.21105379,-0.991739,-0.8170316,-22.48125,48.675003,-10.78125,-0.06769236,-0.712509,0.29613978,999.236,37.88749152,127.74030392,142.13189697265625,0.0
2025-11-24 19:40:10.640,-0.35174492,-10.408778,3.3403804,-0.29290965,-0.24465135,-0.66187197,-22.9125,48.6375,-11.34375,-0.06342909,-0.71773165,0.29195467,999.23846, , , , 
2025-11-24 19:40:10.660,-0.23928227,-10.195817,3.6203406,-0.2556469,0.5207622,-0.5195405,-23.925001,48.15,-8.887501,-0.062383275,-0.7181771,0.28799143,999.23846, , , , 
2025-11-24 19:40:10.680,-0.62452674,-10.126426,3.493521,-0.1499673,1.1908809,-0.34055713,-24.7875,47.550003,-8.925,-0.064127676,-0.7137334,0.28489217,999.24457, , , , 
2025-11-24 19:40:10.701,-1.4811572,-9.734002,2.9216363,-0.0058032153,1.574504,-0.0632245,-23.400002,47.71875,-10.931251,-0.069419265,-0.7026633,0.2833785,999.24457, , , , 
2025-11-24 19:40:10.720,-2.213361,-9.784252,1.8879371,0.041233372,1.7211115,0.29840744,-22.275002,48.206253,-11.08125,-0.07595743,-0.69152236,0.28462583,999.2485, , , , 
2025-11-24 19:40:10.740,-2.751746,-10.49492,0.33260235,-0.0876591,1.8347324,0.8176425,-21.993752,48.6375,-13.762501,-0.08599839,-0.6792395,0.2882317,999.2485, , , , 
2025-11-24 19:40:10.760,-2.440679,-11.124232,-0.5766702,-0.4761691,1.7088943,1.5616758,-21.91875,48.2625,-14.3625,-0.10170994,-0.6667898,0.29398274,999.24457, , , , 
2025-11-24 19:40:10.780,-1.1509477,-11.004591,-0.05742774,-0.85795957,1.335045,2.2299619,-18.50625,49.237503,-14.156251,-0.12360563,-0.65591586,0.3016489,999.24457, , , , 
2025-11-24 19:40:10.800,1.3280165,-10.327422,1.1988041,-1.063821,0.8805616,2.7913465,-16.3125,50.812504,-11.85,-0.15025803,-0.64737034,0.3114816,999.2336, , , , 
2025-11-24 19:40:10.820,5.180461,-9.906285,2.1128623,-1.0613775,0.45234537,3.011258,-12.543751,51.206253,-13.668751,-0.1787227,-0.6407843,0.3235377,999.2336, , , , 
2025-11-24 19:40:10.842,8.16431,-10.353744,2.5292134,-0.85612696,0.13897173,2.853044,-10.556251,52.518753,-11.775001,-0.2114404,-0.6347795,0.33976257,999.23627, , , , 
2025-11-24 19:40:10.861,9.126225,-10.820344,1.6007984,-0.69730216,0.062002774,2.5708244,-6.61875,51.80625,-11.08125,-0.23341776,-0.6307107,0.3522928,999.23627, , , , 
2025-11-24 19:40:10.880,9.164511,-11.059627,1.1509477,-0.62583095,0.14813471,2.4077234,-4.875,52.4625,-9.900001,-0.2529875,-0.6266147,0.36355335,999.2292, , , , 
2025-11-24 19:40:10.900,10.370493,-10.557134,0.6652047,-0.5250383,0.36193737,2.2275183,-3.6375,52.10625,-10.33125,-0.27134514,-0.6214771,0.37376598,999.2292, , , , 
2025-11-24 19:40:10.920,11.485549,-9.781859,0.069391854,-0.5073232,0.69058263,1.9599596,-0.075,54.45,-10.21875,-0.2885341,-0.6150943,0.38209212,999.22406, , , , 
2025-11-24 19:40:10.940,11.837294,-8.9108715,-0.040677983,-0.5726857,1.280678,1.6154319,0.46875003,52.893753,-9.5625,-0.30514237,-0.6071311,0.38692695,999.22406, , , , 
2025-11-24 19:40:10.960,11.4496565,-8.154739,0.18664017,-0.64721125,1.9770639,1.2831215,4.8,53.437504,-8.043751,-0.3223323,-0.59637564,0.3870335,999.2204, , , , 
2025-11-24 19:40:10.980,10.741381,-7.283752,0.29192436,-0.70707595,2.4681993,0.9685261,4.275,52.275,-7.9125004,-0.34023684,-0.5827261,0.38255775,999.2204, , , , 
2025-11-24 19:40:11.000,9.552148,-6.3050876,0.2847459,-0.8139773,2.6655085,0.6337722,6.8625,52.893753,-6.525,-0.3623711,-0.56374276,0.37174535,999.22186, , , , 
2025-11-24 19:40:11.021,7.989635,-5.905486,0.6221339,-0.9337068,2.568992,0.4413498,8.043751,52.256252,-5.53125,-0.37924516,-0.5490241,0.3601394,999.22186, , , , 
2025-11-24 19:40:11.040,6.9726853,-5.7667027,1.713261,-1.0216713,2.310596,0.37659815,8.681251,52.687504,-3.15,-0.39539993,-0.5356992,0.34766027,999.21967, , , , 
2025-11-24 19:40:11.060,6.3481584,-5.692525,2.9312077,-0.97158045,1.9440771,0.38637197,8.6625,51.91875,-2.6437502,-0.41021812,-0.52401316,0.33607507,999.21967, , , , 
2025-11-24 19:40:11.081,6.15434,-5.692525,3.8931224,-0.8268055,1.5445716,0.4572323,7.0875,52.256252,-1.25625,-0.42318797,-0.51380235,0.32659122,999.22406, , , , 
2025-11-24 19:40:11.100,6.381658,-5.881558,4.4889355,-0.6533199,1.1420118,0.5348121,9.150001,53.081253,-0.6,-0.43417436,-0.50494254,0.31973636,999.22406, , , , 
2025-11-24 19:40:11.120,7.015756,-6.1399827,4.8622155,-0.42485645,0.66126114,0.6185006,9.150001,52.443752,1.1437501,-0.44277075,-0.49779713,0.3160827,999.2426, , , , 
2025-11-24 19:40:11.140,8.7577305,-6.3218374,4.6731825,-0.205556,0.19639303,0.65881765,10.725,53.100002,2.0062501,-0.4497255,-0.49182785,0.3163026,999.2426, , , , 
2025-11-24 19:40:11.161,10.131211,-6.7740808,4.398008,-0.09682207,-0.045509428,0.58062696,11.587501,52.93125,1.4625001,-0.4526407,-0.48932648,0.31864825,999.2548, , , , 
2025-11-24 19:40:11.180,11.023734,-7.7096744,4.5152564,-0.026572619,-0.2941314,0.490219,10.575001,52.218754,0.22500001,-0.45377898,-0.48858997,0.32164812,999.2548, , , , 
2025-11-24 19:40:11.200,12.100504,-8.62134,4.9316072,0.10293072,-0.5977312,0.37659815,11.8125,51.843754,1.2,-0.4528876,-0.4898547,0.32558265,999.26483, , , , 
2025-11-24 19:40:11.220,13.375878,-9.176475,5.0440702,0.26908594,-0.80176,0.19822562,13.14375,52.725002,1.9312501,-0.44934106,-0.49307024,0.33043322,999.26483, , , , 
2025-11-24 19:40:11.240,14.608182,-9.71486,5.1062837,0.45967576,-0.82741636,-0.15363249,11.08125,51.037502,0.09375,-0.4430904,-0.49770844,0.3349753,999.26483, , , , 
2025-11-24 19:40:11.260,13.854444,-10.738988,4.761717,0.68019795,-0.7003565,-0.54764026,12.468751,52.18125,0.0375,-0.43135634,-0.504375,0.33838248,999.26483, , , , 
2025-11-24 19:40:11.280,12.985848,-11.861222,3.845266,0.7852667,-0.64537865,-0.7809906,11.681251,51.73125,-1.8750001,-0.41974312,-0.50954235,0.33946908,999.2607, , , , 
2025-11-24 19:40:11.299,12.251252,-12.684353,3.4528432,0.7651081,-0.82191855,-0.92210037,11.475,52.0875,-2.025,-0.4102778,-0.5138715,0.33976838,999.2607, , , , 
2025-11-24 19:40:11.320,11.310873,-12.155539,4.3238306,0.77304935,-1.316719,-1.0949751,10.425,52.500004,-5.34375,-0.39256987,-0.5242202,0.34048706,999.2558, , , , 
2025-11-24 19:40:11.340,10.621739,-11.356337,5.15414,0.9685261,-1.6337578,-1.3179407,8.56875,53.662502,-2.7375002,-0.37515494,-0.53565246,0.34211498,999.2558, , , , 
2025-11-24 19:40:11.360,9.032906,-10.985449,4.0941195,1.2140938,-1.6264275,-1.5757257,6.76875,52.3875,-6.80625,-0.35437202,-0.5478117,0.34404492,999.2563, , , , 
2025-11-24 19:40:11.380,7.216753,-11.085947,2.7062824,1.2928953,-1.556178,-1.7345506,5.3812504,52.631252,-8.0625,-0.3316632,-0.55943096,0.34524179,999.2563, , , , 
2025-11-24 19:40:11.400,5.4795637,-11.243874,1.3830515,1.131627,-1.5286891,-1.7657046,3.9562502,52.125004,-8.493751,-0.30311987,-0.573389,0.34532687,999.24994, , , , 
2025-11-24 19:40:11.421,5.056034,-10.999805,1.7635103,0.9111048,-1.6026038,-1.7308854,3.0187502,53.775,-10.96875,-0.2818503,-0.5849884,0.344341,999.24994, , , , 
2025-11-24 19:40:11.441,4.962714,-10.506885,2.4335005,0.8151991,-1.6496403,-1.7547091,1.1437501,51.73125,-11.56875,-0.2664847,-0.59408015,0.34305403,999.24384, , , , 
2025-11-24 19:40:11.460,4.2161536,-9.860822,3.1274192,0.7864884,-1.5964952,-1.8286238,-0.675,51.206253,-14.906251,-0.24594976,-0.60624915,0.34059787,999.24384, , , , 
2025-11-24 19:40:11.480,3.5437703,-9.5665045,3.6251264,0.8347467,-1.4865395,-1.8970406,-4.36875,51.187504,-13.125001,-0.22519813,-0.61743796,0.33745742,999.24384, , , , 
2025-11-24 19:40:11.499,2.1918256,-9.080762,3.6203406,0.9911281,-1.2996148,-1.9550728,-5.1937504,50.49375,-15.468751,-0.19839123,-0.6293361,0.33323476,999.24603, , , , 
2025-11-24 19:40:11.520,0.971486,-8.760123,3.5676985,1.1389574,-1.0625993,-1.9361359,-5.1375003,52.0125,-17.71875,-0.17654267,-0.6366721,0.33008516,999.25116, , , , 
2025-11-24 19:40:11.539,-0.19621146,-8.662018,2.7684958,1.271515,-0.88850284,-1.8127413,-8.625,50.662502,-18.206251,-0.15483361,-0.64172786,0.32770392,999.25116, , , , 
2025-11-24 19:40:11.560,-0.98584294,-8.518449,1.4835501,1.231198,-0.79137534,-1.6026038,-11.962501,47.943752,-18.018751,-0.1341438,-0.64513284,0.32650828,999.2509, , , , 
2025-11-24 19:40:11.579,-1.5026926,-8.250452,0.6891329,1.07726,-0.720515,-1.380249,-12.3,48.43125,-18.9375,-0.11581148,-0.64788073,0.32597417,999.2509, , , , 
2025-11-24 19:40:11.600,-1.9740787,-7.9298143,0.42831525,0.78771013,-0.57390743,-1.0210605,-12.150001,47.5875,-20.2875,-0.09765926,-0.65078765,0.325655,999.2492, , , , 
2025-11-24 19:40:11.620,-2.1176481,-7.812566,0.5168497,0.60689414,-0.46028662,-0.75777775,-13.293751,48.3375,-21.300001,-0.089554,-0.6522005,0.32570788,999.2492,37.88750751,127.74029502,142.42364501953125,1.61
2025-11-24 19:40:11.644,-2.2779672,-7.4584284,0.48095736,0.38698283,-0.22510368,-0.36254823,-13.500001,46.4625,-23.175001,-0.080660224,-0.6535806,0.32661188,999.25165, , , , 
2025-11-24 19:40:11.659,-2.103291,-7.216753,0.37806597,0.25442517,-0.11331542,-0.10354158,-12.543751,46.93125,-22.06875,-0.07756222,-0.65372187,0.3282566,999.25165, , , , 
2025-11-24 19:40:11.679,-2.0889342,-7.499106,-0.31585258,0.058337588,0.05894845,0.23793183,-14.6625,45.956253,-21.31875,-0.07769456,-0.6533117,0.33069026,999.2504, , , , 
2025-11-24 19:40:11.699,-1.5960127,-8.271988,-0.81595254,-0.23854269,0.18234314,0.5977312,-14.606251,46.95,-20.775002,-0.08188613,-0.6524096,0.33377555,999.2504, , , , 
2025-11-24 19:40:11.721,-0.5599205,-9.341579,-0.51206404,-0.5855139,0.22204934,0.96791524,-14.7375,46.443752,-19.650002,-0.09354569,-0.6515939,0.33800545,999.24384, , , , 
2025-11-24 19:40:11.739,0.55513483,-9.875179,0.28953153,-0.8298598,0.32467464,1.248913,-14.812501,46.800003,-19.5,-0.10735405,-0.65113944,0.34153014,999.24384, , , , 
2025-11-24 19:40:11.760,1.7659031,-10.3681,0.9379865,-0.9440915,0.5177079,1.4584397,-12.056251,48.075,-20.025002,-0.12442055,-0.6497017,0.34529474,999.24603, , , , 
2025-11-24 19:40:11.779,3.1250265,-11.636296,1.1988041,-1.0296125,0.77182764,1.623984,-11.043751,46.55625,-19.275002,-0.14400014,-0.64653844,0.3492045,999.24603, , , , 
2025-11-24 19:40:11.799,3.7806597,-12.662817,0.85902333,-1.1603377,0.83596843,1.7846415,-7.8375,49.500004,-17.925001,-0.16535373,-0.64219713,0.35306165,999.2458, , , , 
2025-11-24 19:40:11.819,4.587041,-13.426127,0.5168497,-1.2855649,0.8310815,1.890321,-7.36875,49.031254,-16.85625,-0.18251236,-0.63881195,0.35583845,999.2458, , , , 
2025-11-24 19:40:11.839,5.625526,-12.9954195,1.0169497,-1.5720605,0.89155716,2.053422,-3.3187501,50.943752,-17.550001,-0.21346027,-0.6332758,0.3595859,999.2519, , , , 
2025-11-24 19:40:11.859,7.1880393,-11.751152,2.5387847,-1.6496403,1.0039563,2.057698,-3.7875001,51.6375,-15.525001,-0.24008407,-0.62828034,0.3612334,999.2519, , , , 
2025-11-24 19:40:11.879,8.6141615,-10.5690975,4.4410787,-1.3661991,1.1804962,1.800524,0.7875,51.956253,-13.70625,-0.27169186,-0.6201584,0.36174068,999.2546, , , , 
2025-11-24 19:40:11.899,8.082955,-10.286744,4.412365,-0.9153809,1.2696824,1.5274674,1.6875001,51.412502,-12.39375,-0.29280555,-0.6115604,0.3618887,999.2546, , , , 
2025-11-24 19:40:11.919,6.8506513,-9.958928,2.2061825,-0.6325505,1.3521492,1.4199551,3.7125,52.125004,-11.71875,-0.31033728,-0.6014876,0.36278072,999.2675, , , , 
2025-11-24 19:40:11.939,6.606583,-9.580862,0.32063824,-0.66431546,1.2983931,1.4291182,4.8,51.73125,-10.875,-0.32694677,-0.5909381,0.3638669,999.2675, , , , 
2025-11-24 19:40:11.959,7.21436,-9.317652,0.24885355,-0.89338976,1.0852013,1.4199551,7.5750003,52.500004,-10.293751,-0.34399003,-0.58153397,0.36423555,999.2651, , , , 
2025-11-24 19:40:11.979,7.8699937,-8.7673025,1.0025927,-1.0241148,0.9251547,1.3356558,9.075001,51.393753,-8.0625,-0.36094058,-0.57406497,0.363801,999.2651, , , , 
2025-11-24 19:40:11.999,8.30788,-8.130812,2.1487548,-0.9984585,1.0112866,1.1896591,9.637501,51.206253,-8.26875,-0.3771438,-0.56758827,0.36234534,999.2675, , , , 
2025-11-24 19:40:12.019,8.135597,-7.2670026,2.5268207,-0.88422674,1.3173299,1.0290017,12.1125,53.437504,-7.1062503,-0.39232323,-0.5601527,0.3595186,999.2675, , , , 
2025-11-24 19:40:12.039,7.300502,-6.506085,2.2612174,-0.79076445,1.7125595,0.93676114,13.275001,50.550003,-5.68125,-0.41064057,-0.5479706,0.35367393,999.2707, , , , 
2025-11-24 19:40:12.060,7.2382884,-6.0897336,2.5292134,-0.7449496,1.7974696,0.883005,13.087501,51.9,-4.5,-0.42542234,-0.53608584,0.34756804,999.2707, , , , 
2025-11-24 19:40:12.079,7.2789664,-5.749953,2.7158537,-0.64537865,1.4865395,0.77549285,15.0375,50.737503,-4.8,-0.43548483,-0.5275282,0.34314075,999.28094, , , , 
2025-11-24 19:40:12.099,7.300502,-5.517849,2.6129622,-0.5751292,1.0876447,0.66614807,15.900001,49.95,-4.5375004,-0.44924358,-0.5160521,0.33720112,999.28094, , , , 
2025-11-24 19:40:12.120,7.456035,-5.6997037,2.9048867,-0.5433642,0.85673785,0.6050616,17.53125,50.100002,-3.3187501,-0.45828813,-0.5090701,0.33345878,999.2834, , , , 
2025-11-24 19:40:12.140,7.795816,-6.0083776,3.2853456,-0.4639518,0.5891791,0.5189296,18.675001,51.975002,-4.93125,-0.46571976,-0.50377357,0.33058882,999.2834, , , , 
2025-11-24 19:40:12.160,8.226524,-6.501299,3.5174494,-0.3515527,0.40469792,0.42974338,18.69375,50.850002,-2.71875,-0.47143248,-0.49988553,0.3285866,999.2922, , , , 
2025-11-24 19:40:12.180,8.4705925,-6.9415784,3.0580273,-0.20250167,0.23121232,0.3197877,18.54375,50.193752,-1.8937501,-0.47592968,-0.4966175,0.3271593,999.2922, , , , 
2025-11-24 19:40:12.200,8.736196,-7.3866434,2.6656044,-0.1291979,0.094378605,0.26542073,19.425001,50.156254,-1.5187501,-0.47785348,-0.49510852,0.326657,999.29315, , , , 
2025-11-24 19:40:12.219,9.071191,-8.133204,2.5172493,-0.04856375,-0.06017018,0.15974113,19.275002,50.268753,-0.58125,-0.4785486,-0.49471557,0.32664907,999.29315, , , , 
2025-11-24 19:40:12.239,9.293723,-8.999406,2.2755744,0.042455103,-0.26847506,0.101708986,19.706251,50.193752,-1.2375001,-0.4778218,-0.49553472,0.32738322,999.29364, , , , 
2025-11-24 19:40:12.259,9.750752,-9.669396,2.1631117,0.1310305,-0.47006044,0.03573559,18.975,50.23125,-0.54375005,-0.47576168,-0.49748462,0.32898122,999.29364, , , , 
2025-11-24 19:40:12.279,10.753345,-10.01157,1.9142581,0.19944735,-0.64843297,-0.10537417,19.143751,49.518753,-1.5937501,-0.47209948,-0.5008795,0.33130503,999.2868, , , , 
2025-11-24 19:40:12.299,11.468799,-10.107283,2.0865414,0.27885976,-0.62888527,-0.3582722,19.650002,49.93125,-0.45000002,-0.46667096,-0.5057676,0.33329847,999.2868, , , , 
2025-11-24 19:40:12.319,10.916057,-10.537991,2.251646,0.39858928,-0.3924806,-0.64171344,18.84375,52.4625,-0.80625004,-0.45955056,-0.5109664,0.33355924,999.2753, , , , 
2025-11-24 19:40:12.339,9.669396,-10.710274,2.0291135,0.5506946,-0.22937973,-0.80603606,16.9125,50.04375,-2.4750001,-0.44901276,-0.5161368,0.33153123,999.2753, , , , 
2025-11-24 19:40:12.360,9.45165,-10.420743,1.7324036,0.5995638,-0.2159407,-0.878729,17.081251,50.906254,-1.4625001,-0.4420597,-0.5188111,0.3299862,999.27655, , , , 
2025-11-24 19:40:12.380,9.128618,-10.236495,2.009971,0.6374374,-0.32406378,-1.0076214,15.13125,50.60625,-2.9437501,-0.4321131,-0.52268183,0.32762128,999.27655, , , , 
2025-11-24 19:40:12.399,8.212168,-10.691132,2.1655045,0.7156281,-0.6679806,-1.1859939,16.575,51.018753,-5.5875,-0.41752228,-0.52937406,0.32485688,999.26825, , , , 
2025-11-24 19:40:12.419,7.487142,-11.152946,1.8305093,0.76144296,-1.0509928,-1.2935061,13.81875,51.225002,-4.6875,-0.4036153,-0.53711456,0.32361096,999.26825, , , , 
2025-11-24 19:40:12.439,7.003792,-11.408978,1.18684,0.71074116,-1.380249,-1.4010184,10.33125,49.875004,-4.55625,-0.3838258,-0.550285,0.3232622,999.2624, , , , 
2025-11-24 19:40:12.459,6.4677997,-11.609976,0.85184485,0.5745183,-1.4645483,-1.4474441,10.387501,52.143753,-7.1625004,-0.36748773,-0.56268483,0.32279027,999.2624, , , , 
2025-11-24 19:40:12.479,6.06102,-11.775081,1.2155539,0.40591964,-1.3655882,-1.4908155,8.887501,53.362503,-7.5375004,-0.35193855,-0.5753853,0.3211701,999.2624, , , , 
2025-11-24 19:40:12.499,5.709275,-11.4903345,1.9214365,0.33811367,-1.1835505,-1.533576,8.625,53.475002,-8.606251,-0.33734128,-0.58732563,0.3181282,999.2624, , , , 
2025-11-24 19:40:12.519,5.209175,-10.6408825,2.5746772,0.3686569,-0.9343177,-1.605658,6.3,53.475002,-9.13125,-0.32310274,-0.59790933,0.31394815,999.2653, , , , 
2025-11-24 19:40:12.539,4.345366,-9.664611,2.5674987,0.44562587,-0.69363695,-1.6746858,5.34375,55.36875,-8.3625,-0.3087529,-0.60674196,0.30890858,999.2653, , , , 
2025-11-24 19:40:12.559,3.2925239,-8.9013,2.6991038,0.5506946,-0.54275334,-1.732718,0.112500004,53.343754,-8.625,-0.29412568,-0.61382806,0.30326656,999.25995, , , , 
2025-11-24 19:40:12.580,2.1296122,-8.530413,2.6368906,0.7174607,-0.5403099,-1.750433,1.6875001,54.61875,-8.868751,-0.27873105,-0.61974376,0.2977615,999.25995, , , , 
2025-11-24 19:40:12.599,0.6843473,-8.109276,1.2610176,0.8481857,-0.57940525,-1.6765184,-4.3875003,53.625004,-8.175,-0.25815406,-0.626351,0.29246768,999.26385, , , , 
2025-11-24 19:40:12.619,-0.18903299,-7.676175,0.21535404,0.8023709,-0.57390743,-1.5329652,-4.51875,52.875004,-8.887501,-0.24208309,-0.6312659,0.28926402,999.26385,37.88751801,127.74028863,142.624267578125,1.12
2025-11-24 19:40:12.639,-0.82313097,-7.54457,-0.29910284,0.6459895,-0.54519683,-1.3380992,-6.8812504,54.24375,-9.4875,-0.22786988,-0.63582927,0.28639996,999.2592, , , , 
2025-11-24 19:40:12.660,-1.1485549,-7.5110703,-0.2727818,0.48716468,-0.63988084,-1.145066,-7.4625,52.593754,-12.1125,-0.21589822,-0.64051074,0.28386897,999.2592, , , , 
2025-11-24 19:40:12.679,-1.3351951,-7.5589266,-0.3684947,0.31428993,-0.6386591,-0.90377444,-9.46875,52.875004,-10.51875,-0.20599413,-0.64556444,0.2818862,999.2502, , , , 
2025-11-24 19:40:12.699,-1.9381863,-7.8293157,-0.25124636,0.16462806,-0.5250383,-0.6496547,-10.293751,51.037502,-10.03125,-0.19869438,-0.6501933,0.28031892,999.2502, , , , 
2025-11-24 19:40:12.721,-2.347359,-8.047063,-0.0526421,0.04612029,-0.41630435,-0.3741547,-10.9125,50.98125,-9.1875,-0.19444622,-0.65378606,0.27950278,999.2536, , , , 
2025-11-24 19:40:12.739,-2.1655045,-8.396415,0.16031912,-0.04734202,-0.32467464,0.041233372,-10.387501,52.65,-10.875,-0.19353569,-0.6566923,0.2803943,999.2536, , , , 
2025-11-24 19:40:12.760,-1.8879371,-9.008977,-0.3589234,-0.12614357,-0.2941314,0.31245732,-11.8125,51.506252,-10.200001,-0.19493645,-0.65790325,0.2821273,999.25116, , , , 
2025-11-24 19:40:12.779,-1.430908,-9.741181,-0.7896315,-0.3100139,-0.12492185,0.66248286,-10.40625,51.9,-10.368751,-0.20119104,-0.65895826,0.2863318,999.25116, , , , 
2025-11-24 19:40:12.799,-1.2346965,-10.377672,-0.7178468,-0.5042689,-0.06139191,1.010065,-9.3,51.6375,-9.543751,-0.21002866,-0.65875876,0.290425,999.2365, , , , 
2025-11-24 19:40:12.820,-0.70348984,-10.609776,-0.6891329,-0.62949616,-0.060781047,1.2800671,-10.6125,51.750004,-8.64375,-0.2219502,-0.65807134,0.29542854,999.2365, , , , 
2025-11-24 19:40:12.840,0.50488555,-11.813365,-0.5312066,-0.75594515,-0.024129158,1.5470151,-8.53125,51.956253,-8.25,-0.23641904,-0.6569325,0.30120778,999.23846, , , , 
2025-11-24 19:40:12.859,0.7800602,-12.722638,-0.6843473,-0.82741636,-0.01924224,1.7357723,-7.0875,52.706253,-5.9812503,-0.2528562,-0.6551595,0.30759823,999.23846, , , , 
2025-11-24 19:40:12.879,2.120041,-13.521841,-0.9068798,-0.996015,-0.09071342,1.9617922,-6.5625005,53.86875,-5.7937503,-0.27120328,-0.65298563,0.31462047,999.23627, , , , 
2025-11-24 19:40:12.899,3.455236,-13.914264,-0.07178468,-1.145066,-0.13591741,2.0992367,-3.7500002,54.15,-4.40625,-0.29610702,-0.6506169,0.32333297,999.23627, , , , 
2025-11-24 19:40:12.920,4.8885365,-12.691531,1.9142581,-1.0784818,0.2367101,2.2061381,-2.7,54.2625,-4.51875,-0.32231665,-0.6464317,0.33142632,999.23773, , , , 
2025-11-24 19:40:12.941,6.1160545,-11.844472,2.955136,-0.8616248,0.6380483,2.144441,1.725,53.718754,-4.33125,-0.33806702,-0.64144754,0.33590713,999.23773, , , , 
2025-11-24 19:40:12.960,6.3792653,-11.538191,3.1513474,-0.5568032,0.92271125,1.989892,2.4562502,54.525,-3.2250001,-0.35757992,-0.63191354,0.34132704,999.25336, , , , 
2025-11-24 19:40:12.979,5.3886366,-11.772687,1.8185452,-0.25503606,1.1322379,1.8451171,2.6437502,53.531254,-0.09375,-0.37475413,-0.6200534,0.34657475,999.25336, , , , 
2025-11-24 19:40:12.999,4.790431,-11.988042,0.3469593,-0.18967351,1.0858121,1.922086,7.0312505,54.112503,-1.21875,-0.39083433,-0.607,0.35209864,999.2619, , , , 
2025-11-24 19:40:13.019,5.584848,-11.760723,-0.54317075,-0.30024004,0.9776891,2.0198245,7.8187504,52.95,-1.21875,-0.40711257,-0.5940421,0.35822216,999.2619, , , , 
2025-11-24 19:40:13.039,7.0540414,-10.904093,-0.19860429,-0.51404274,1.0509928,2.0613632,9.4125,52.85625,-0.91875005,-0.42860264,-0.5787263,0.36505756,999.26385, , , , 
2025-11-24 19:40:13.060,8.003992,-10.155139,0.8877372,-0.55863583,1.2159263,1.9807291,10.1625,52.2,-1.125,-0.4420346,-0.5691532,0.36770257,999.26385, , , , 
2025-11-24 19:40:13.080,8.157132,-8.719446,1.7443677,-0.37598726,1.3545927,1.7040073,15.825001,50.643753,-0.075,-0.4630194,-0.5524815,0.37002778,999.2746, , , , 
2025-11-24 19:40:13.099,7.726424,-7.6953177,1.4452649,-0.22937973,1.4529419,1.5421281,17.362501,49.55625,0.43125,-0.47761986,-0.5385781,0.3707104,999.2746, , , , 
2025-11-24 19:40:13.119,7.668997,-6.9535427,0.94277215,-0.14080434,1.3362668,1.3930771,18.0375,50.006252,0.80625004,-0.49066317,-0.5245609,0.3708199,999.2768, , , , 
2025-11-24 19:40:13.139,7.8197446,-6.3744793,0.46181476,-0.14813471,1.0974185,1.2165372,17.325,49.537502,2.90625,-0.5018046,-0.51202446,0.37091088,999.2768, , , , 
2025-11-24 19:40:13.160,7.972885,-6.06102,0.47138608,-0.19883649,0.9935716,1.0699297,19.6875,48.9,3.0187502,-0.51137245,-0.50160813,0.37071133,999.28265, , , , 
2025-11-24 19:40:13.181,8.9013,-5.879165,0.7609176,-0.17195843,0.9721913,0.9251547,19.875,47.68125,2.5875,-0.52208686,-0.49006194,0.36945218,999.28265, , , , 
2025-11-24 19:40:13.199,9.688539,-5.800202,0.715454,-0.10354158,0.9782999,0.7480039,20.681252,48.24375,5.71875,-0.52928,-0.48160827,0.36759487,999.278, , , , 
2025-11-24 19:40:13.220,10.052248,-6.0825553,0.634098,-0.057726722,0.8854485,0.4951059,21.300001,49.050003,4.6875,-0.53505707,-0.47404876,0.36473086,999.278, , , , 
2025-11-24 19:40:13.239,10.164711,-6.501299,0.5455636,-0.041233372,0.64415693,0.2715294,22.3875,48.787502,6.1312504,-0.5389961,-0.4684209,0.36142823,999.27875, , , , 
2025-11-24 19:40:13.260,10.358529,-7.0875406,0.7680961,-0.040011644,0.4535671,0.08888082,21.31875,47.925003,7.2187505,-0.5410374,-0.46527955,0.35810152,999.27875, , , , 
2025-11-24 19:40:13.280,10.564312,-8.374879,1.3184453,0.029016078,0.23304491,-0.1310305,22.3125,47.662502,5.7375,-0.54126024,-0.4642823,0.3547553,999.2753, , , , 
2025-11-24 19:40:13.299,10.200603,-8.963513,1.3184453,0.12186752,0.047952887,-0.286801,20.306252,47.193752,6.6000004,-0.53941697,-0.4650608,0.35172898,999.2753, , , , 
2025-11-24 19:40:13.320,11.373086,-10.820344,1.4500505,0.17806709,-0.049174614,-0.5213731,20.85,47.006252,7.0125003,-0.53592765,-0.46734282,0.34896338,999.2729, , , , 
2025-11-24 19:40:13.339,11.155339,-11.598011,1.2897314,0.22937973,-0.2073886,-0.79259706,20.23125,49.687504,5.68125,-0.5287401,-0.47270888,0.3446204,999.2729, , , , 
2025-11-24 19:40:13.359,10.001999,-12.246467,1.68694,0.2953531,-0.31184646,-1.0235039,19.25625,48.468754,5.86875,-0.52096766,-0.47892657,0.34063742,999.2724, , , , 
2025-11-24 19:40:13.381,8.7266245,-13.158132,1.605584,0.39675668,-0.37476555,-1.145066,18.9375,49.050003,5.25,-0.51185685,-0.48580924,0.33653003,999.2724, , , , 
2025-11-24 19:40:13.399,8.456235,-13.744373,1.2729816,0.4309651,-0.5280926,-1.2055416,20.400002,50.23125,1.63125,-0.5017716,-0.49312273,0.33288524,999.27045, , , , 
2025-11-24 19:40:13.419,8.176275,-14.019547,1.0289137,0.4327977,-0.7156281,-1.3069452,17.04375,50.268753,1.66875,-0.49067503,-0.5015936,0.32973164,999.27045, , , , 
2025-11-24 19:40:13.439,7.7742805,-13.091133,1.3854443,0.4156935,-0.84268796,-1.3930771,15.281251,50.325,3.24375,-0.47863615,-0.5114369,0.32679284,999.2641, , , , 
2025-11-24 19:40:13.459,7.4105716,-11.559726,2.3377876,0.51648617,-0.85307264,-1.5628976,16.800001,52.0875,3.1312501,-0.46215937,-0.5247104,0.3228553,999.2641, , , , 
2025-11-24 19:40:13.480,6.1328044,-10.815558,2.0673988,0.73212147,-0.797484,-1.7602068,15.468751,52.593754,0.91875005,-0.44691673,-0.5352001,0.3192706,999.2624, , , , 
2025-11-24 19:40:13.500,4.5678983,-10.69831,0.89730847,0.8518509,-0.8365793,-1.881769,12.50625,52.406254,1.40625,-0.42991582,-0.5453233,0.31551692,999.2624, , , , 
2025-11-24 19:40:13.519,3.2949169,-10.8682,-0.21774685,0.7956514,-0.93309593,-1.9019275,11.587501,52.706253,-1.29375,-0.41204038,-0.5558044,0.31183782,999.259, , , , 
2025-11-24 19:40:13.540,2.1296122,-11.251052,-0.634098,0.52992517,-1.0192279,-1.8060217,11.512501,53.081253,-1.9312501,-0.39502358,-0.56692153,0.30794618,999.259, , , , 
2025-11-24 19:40:13.560,2.0697916,-11.136196,0.24646074,0.2904662,-1.1016946,-1.6826271,7.4812503,51.91875,-1.9125,-0.3800309,-0.57854986,0.30371976,999.248, , , , 
2025-11-24 19:40:13.579,2.388037,-10.590633,1.4859428,0.21044292,-1.0479386,-1.5909973,5.64375,52.987503,-2.23125,-0.36655423,-0.5902901,0.2993575,999.248, , , , 
2025-11-24 19:40:13.599,2.4598217,-10.092926,2.172683,0.2770272,-0.88911366,-1.5983276,5.2125,54.318752,-3.9562502,-0.35030916,-0.60343564,0.29369453,999.2514, , , , 
2025-11-24 19:40:13.620,1.5433706,-9.729217,2.1774685,0.3515527,-0.7290671,-1.6093233,2.2875001,53.1375,-1.4250001,-0.33706307,-0.61241084,0.2889042,999.2514,37.88751801,127.74028863,142.624267578125,1.12
2025-11-24 19:40:13.639,0.8063812,-9.107083,2.4526432,0.44196066,-0.61544627,-1.5519019,-1.5375,54.487503,-1.575,-0.32389998,-0.61991405,0.28425327,999.2548, , , , 
2025-11-24 19:40:13.659,0.10767702,-8.571091,2.6321049,0.6093376,-0.6459895,-1.4798199,0.45000002,54.825,-2.71875,-0.31045797,-0.6263661,0.28051367,999.2548, , , , 
2025-11-24 19:40:13.679,-0.552742,-8.329415,2.0315065,0.75655603,-0.69241524,-1.3570361,-0.52500004,54.000004,-5.9625,-0.29636964,-0.6322765,0.2783936,999.267, , , , 
2025-11-24 19:40:13.699,-0.997807,-8.070991,1.2562319,0.7858775,-0.5873465,-1.207985,-2.5875,53.4,-4.0125003,-0.2825219,-0.63734525,0.27778128,999.267, , , , 
2025-11-24 19:40:13.719,-1.4668003,-7.7790666,0.9595219,0.75777775,-0.38820457,-0.98746294,-3.6562502,53.062504,-5.7375,-0.27022278,-0.6409169,0.27783334,999.2729, , , , 
2025-11-24 19:40:13.739,-2.103291,-7.5924263,0.4977071,0.7363975,-0.24953826,-0.72601277,-5.71875,53.831253,-4.33125,-0.2575307,-0.64311033,0.27895358,999.2729, , , , 
2025-11-24 19:40:13.759,-2.3952155,-7.542177,-0.1052842,0.6692024,-0.23915356,-0.44379327,-6.5625005,53.8875,-6.0937505,-0.24970967,-0.6437123,0.2811958,999.2695, , , , 
2025-11-24 19:40:13.780,-2.2325034,-7.5230346,-0.87338024,0.5213731,-0.22937973,-0.10231985,-7.55625,52.537502,-6.6937504,-0.24434777,-0.643952,0.2847381,999.2695, , , , 
2025-11-24 19:40:13.799,-1.7778672,-7.853244,-1.3328022,0.32833982,-0.14935644,0.14935644,-7.0312505,52.968754,-6.3,-0.2420529,-0.64378065,0.28900698,999.26434, , , , 
2025-11-24 19:40:13.819,-1.0863415,-8.941978,-1.4715859,0.060781047,-0.07177661,0.5006037,-4.3875003,52.125004,-7.93125,-0.24332124,-0.6430927,0.2934685,999.26434, , , , 
2025-11-24 19:40:13.839,0.39481574,-10.064212,-1.3112668,-0.18600832,0.022907428,0.79015356,-7.0125003,53.718754,-7.5937505,-0.24836726,-0.64184785,0.29828545,999.26117, , , , 
2025-11-24 19:40:13.860,1.7491534,-11.040483,-0.6843473,-0.34483317,0.18417573,1.0021237,-4.9500003,52.425003,-6.0375004,-0.25667962,-0.6398805,0.3030604,999.26117, , , , 
2025-11-24 19:40:13.880,3.0317063,-11.499906,-0.1698904,-0.43340856,0.43768463,1.1597267,-4.05,53.156254,-7.0875,-0.26745743,-0.6364218,0.30765754,999.24994, , , , 
2025-11-24 19:40:13.899,4.2185464,-11.863615,0.14596218,-0.46334094,0.6820305,1.2580761,-1.2750001,53.7,-8.962501,-0.28336045,-0.6294611,0.31286436,999.24994, , , , 
2025-11-24 19:40:13.919,4.9459643,-12.725031,-0.22492532,-0.49205157,0.7535017,1.2916735,-0.35625002,53.287502,-7.5000005,-0.29695243,-0.6225456,0.3165985,999.24896, , , , 
2025-11-24 19:40:13.939,5.3910294,-12.815958,-0.35174492,-0.5525272,0.76144296,1.3552035,-0.52500004,54.000004,-6.2812505,-0.30756813,-0.61713666,0.31921917,999.24896, , , , 
2025-11-24 19:40:13.960,6.8051877,-12.471392,-0.39960137,-0.6514873,0.7797689,1.3289363,0.5625,53.737503,-5.1375003,-0.3259192,-0.60815805,0.32303387,999.2465, , , , 
2025-11-24 19:40:13.980,7.2215385,-11.054841,0.40917268,-0.7480039,0.92148954,1.2122612,3.0937502,54.61875,-5.775,-0.34058422,-0.6011242,0.3243722,999.2465, , , , 
2025-11-24 19:40:13.999,7.6067834,-9.678967,2.4215364,-0.67470014,1.2996148,1.0577123,5.2125,54.093754,-6.8812504,-0.35514268,-0.59295946,0.32370344,999.23944, , , , 
2025-11-24 19:40:14.020,7.0372915,-9.049655,3.1202407,-0.38515025,1.5311326,0.9111048,4.40625,52.3875,-5.15625,-0.36849174,-0.5824243,0.32175243,999.23944, , , , 
2025-11-24 19:40:14.040,5.9342003,-9.047262,2.536392,9.162972E-4,1.4816525,0.84329885,5.5687504,52.612503,-2.5125,-0.38180742,-0.56697166,0.32003614,999.25287, , , , 
2025-11-24 19:40:14.060,5.962914,-8.930014,0.63888365,0.17623448,1.3136647,0.88789195,8.175,54.506252,-4.125,-0.38992724,-0.55437785,0.32084203,999.25287, , , , 
2025-11-24 19:40:14.080,6.6089764,-8.609376,-0.6269195,-0.027183482,1.2134829,0.8713986,9.50625,51.656254,-3.9562502,-0.3976911,-0.5427271,0.32212678,999.2487, , , , 
2025-11-24 19:40:14.099,6.991828,-8.334201,0.38524446,-0.24709481,1.1658354,0.80847955,9.4125,52.631252,-4.1625004,-0.40643308,-0.5324683,0.3219947,999.2487, , , , 
2025-11-24 19:40:14.119,7.1138616,-7.6570325,0.8757731,-0.3167334,1.1346813,0.7345649,8.981251,53.456253,-3.54375,-0.41545272,-0.5231206,0.3206512,999.2514, , , , 
2025-11-24 19:40:14.139,6.984649,-6.759724,1.7898313,-0.31367907,1.181107,0.6044507,12.0375,53.4,-3.075,-0.42414352,-0.51425314,0.31826872,999.2514, , , , 
2025-11-24 19:40:14.159,6.3218374,-5.9581285,1.5433706,-0.26908594,1.1346813,0.4761691,12.58125,52.443752,-2.4750001,-0.43183133,-0.50549036,0.31515756,999.2653, , , , 
2025-11-24 19:40:14.179,5.7954164,-5.460421,1.2586247,-0.32284203,1.0595449,0.41141742,11.6625,53.2125,-0.26250002,-0.4387352,-0.49745336,0.31164205,999.2653, , , , 
2025-11-24 19:40:14.200,5.723632,-5.2019963,1.7180467,-0.377209,0.8940006,0.34483317,11.94375,53.11875,-0.13125001,-0.44700083,-0.48889664,0.30685788,999.2985, , , , 
2025-11-24 19:40:14.219,5.436493,-5.235496,1.7084754,-0.40408704,0.7480039,0.30512697,12.900001,51.468754,0.95625,-0.4515024,-0.48472598,0.30405977,999.2985, , , , 
2025-11-24 19:40:14.240,5.2307105,-5.5537415,2.036292,-0.4798343,0.5232057,0.30757043,13.406251,52.3875,-0.24375,-0.45863438,-0.4795108,0.2999073,999.3527, , , , 
2025-11-24 19:40:14.259,5.501099,-6.02752,2.9455647,-0.45478883,0.42485645,0.332005,12.225,53.1375,0.46875003,-0.46408668,-0.47649762,0.29737303,999.3527, , , , 
2025-11-24 19:40:14.280,5.7403817,-6.62094,3.6083765,-0.27397284,0.35521787,0.33139414,14.26875,53.100002,0.24375,-0.46864912,-0.47353616,0.29566354,999.3962, , , , 
2025-11-24 19:40:14.301,5.9318075,-7.1688967,2.766103,-0.1951713,0.29840744,0.36804602,13.8,53.04375,1.06875,-0.47274646,-0.46971136,0.2950045,999.3962, , , , 
2025-11-24 19:40:14.320,6.5659056,-7.6737823,2.3569303,-0.26847506,0.18906265,0.41263917,14.231251,53.812504,3.0,-0.47521147,-0.46764722,0.29500344,999.40936, , , , 
2025-11-24 19:40:14.339,6.838687,-8.090134,2.926422,-0.4101957,0.15974113,0.44073895,12.993751,52.818752,3.1875002,-0.47995555,-0.46588278,0.29521367,999.40936, , , , 
2025-11-24 19:40:14.359,8.382058,-8.147561,3.5988052,-0.29107708,0.07177661,0.4761691,15.656251,52.10625,2.0062501,-0.48398998,-0.46390444,0.29549098,999.4274, , , , 
2025-11-24 19:40:14.380,8.999406,-9.432507,4.0127635,-0.07055488,0.08460477,0.30024004,16.7625,51.73125,1.4625001,-0.48643085,-0.4625353,0.29633605,999.4274, , , , 
2025-11-24 19:40:14.399,8.968299,-10.140782,4.345366,0.18723005,0.053450666,0.07422007,16.03125,51.768753,1.9875001,-0.4865938,-0.46119815,0.2968444,999.41034, , , , 
2025-11-24 19:40:14.419,8.403593,-10.413564,4.115655,0.43585202,-0.13164136,-0.10415245,15.7875,51.375004,2.9625,-0.4836966,-0.46069857,0.29759467,999.41034, , , , 
2025-11-24 19:40:14.440,7.826923,-11.339586,3.0652058,0.56230104,-0.3515527,-0.19639303,17.41875,51.525,3.8625002,-0.47821224,-0.46171403,0.29943854,999.3852, , , , 
2025-11-24 19:40:14.459,7.84128,-11.964113,2.8187451,0.5665771,-0.52687085,-0.23976442,15.806251,49.893753,1.66875,-0.4717534,-0.46394497,0.30203184,999.3852, , , , 
2025-11-24 19:40:14.479,7.9274216,-12.464213,2.7948167,0.54092073,-0.73700833,-0.34300056,15.1125,51.3375,-0.975,-0.4626395,-0.46883938,0.30583325,999.34076, , , , 
2025-11-24 19:40:14.499,7.3459654,-12.449856,2.9048867,0.4828886,-0.88972455,-0.40775225,14.94375,52.162502,1.1625,-0.45666328,-0.47304454,0.30814177,999.34076, , , , 
2025-11-24 19:40:14.519,7.3627152,-11.432906,4.168297,0.5006037,-1.086423,-0.458454,14.418751,51.525,-1.9875001,-0.44611755,-0.48173204,0.31232587,999.28656, , , , 
2025-11-24 19:40:14.539,7.649854,-10.052248,5.022535,0.77488196,-1.2562435,-0.6502656,14.437501,52.275,-2.49375,-0.4355431,-0.4897849,0.31638545,999.28656, , , , 
2025-11-24 19:40:14.559,6.984649,-9.195618,4.005585,1.0711514,-1.308167,-0.883005,15.450001,53.5125,-4.5375004,-0.42154568,-0.49847728,0.32089075,999.24896, , , , 
2025-11-24 19:40:14.579,5.6303115,-8.623733,2.469393,1.2171481,-1.2983931,-1.0754274,11.90625,51.16875,-5.1000004,-0.4048091,-0.5074037,0.3251259,999.24896, , , , 
2025-11-24 19:40:14.599,4.2281175,-8.633304,1.2179468,1.2147046,-1.2611303,-1.2018764,11.00625,53.081253,-6.9750004,-0.38231266,-0.5186292,0.32930005,999.2143, , , , 
2025-11-24 19:40:14.619,3.629912,-8.79123,1.0504491,1.1444552,-1.2379174,-1.2318088,9.975,51.600002,-6.7875004,-0.36887506,-0.5253608,0.3311708,999.2143,37.8875355,127.74028209,142.80499267578125,1.34
2025-11-24 19:40:14.639,2.993421,-9.150154,1.7706888,1.0656536,-1.2208133,-1.2513565,8.19375,52.800003,-8.512501,-0.34708336,-0.536504,0.33343983,999.186, , , , 
2025-11-24 19:40:14.660,2.5028925,-9.128618,2.9431717,1.1444552,-1.1682789,-1.2183698,8.025001,52.66875,-8.793751,-0.32977593,-0.5447278,0.3351803,999.186, , , , 
2025-11-24 19:40:14.679,1.942972,-8.71466,2.3353949,1.3301581,-1.050382,-1.1206315,5.5125003,52.29375,-11.45625,-0.31192926,-0.55141044,0.33787864,999.17303, , , , 
2025-11-24 19:40:14.699,1.7754744,-8.04467,1.6223338,1.3142756,-0.98807377,-1.0534363,4.4812503,51.468754,-12.993751,-0.29429775,-0.5566783,0.34114093,999.17303, , , , 
2025-11-24 19:40:14.719,0.87338024,-7.9034934,1.3375878,1.1621703,-0.8848376,-0.9782999,3.2812502,51.975002,-14.2875,-0.2775637,-0.5615686,0.34415442,999.1591, , , , 
2025-11-24 19:40:14.739,0.29910284,-7.838887,1.3806586,1.0216713,-0.67653275,-0.8213077,1.5937501,50.68125,-15.58125,-0.26294592,-0.5655581,0.34670967,999.1591, , , , 
2025-11-24 19:40:14.761,0.46899325,-7.776674,1.5266209,0.8946115,-0.44196066,-0.6533199,2.1750002,52.237503,-15.1125,-0.2482232,-0.5682413,0.3496139,999.15497, , , , 
2025-11-24 19:40:14.780,0.41156548,-7.7647095,1.4668003,0.80176,-0.39003715,-0.56902057,0.73125005,51.375004,-18.0,-0.23852119,-0.56917334,0.3517255,999.15497, , , , 
2025-11-24 19:40:14.799,-0.3469593,-7.676175,0.52163535,0.6337722,-0.4156935,-0.422413,-0.76875,50.475002,-17.79375,-0.23010077,-0.5702229,0.35386667,999.1528, , , , 
2025-11-24 19:40:14.819,-0.9667004,-7.7910304,0.29671,0.37843072,-0.29779658,-0.15851942,-0.52500004,51.093754,-15.525001,-0.22418882,-0.57151246,0.35608667,999.1528, , , , 
2025-11-24 19:40:14.839,-0.54317075,-7.8149586,0.701097,0.21471897,-0.14691298,0.100487255,0.31875002,50.831253,-17.60625,-0.22193518,-0.5719897,0.3586315,999.1501, , , , 
2025-11-24 19:40:14.861,-0.11485548,-7.9776707,0.9451649,0.16768238,-0.07971785,0.3265072,-1.1625,49.312504,-17.53125,-0.22250977,-0.571295,0.362808,999.1501, , , , 
2025-11-24 19:40:14.879,0.27038896,-8.202596,0.27996024,0.11575887,-0.042455103,0.46028662,1.5562501,50.11875,-21.2625,-0.22453196,-0.57008123,0.3671108,999.1506, , , , 
2025-11-24 19:40:14.899,0.6723832,-8.827123,-0.4354937,-0.08277218,-0.004581486,0.5842922,-1.85625,49.593754,-15.618751,-0.22821991,-0.5689308,0.37143934,999.1506, , , , 
2025-11-24 19:40:14.919,1.0049855,-9.480363,-0.16031912,-0.31917685,0.032070402,0.67836535,-0.7875,51.075,-17.6625,-0.23247768,-0.5683026,0.37425676,999.1486, , , , 
2025-11-24 19:40:14.939,1.3304094,-10.834701,0.11724831,-0.60200727,0.23365578,0.8035926,0.7875,51.73125,-16.95,-0.24292965,-0.5672147,0.3777832,999.1486, , , , 
2025-11-24 19:40:14.959,2.1296122,-12.287145,0.86859465,-0.8659008,0.39186975,0.9514219,2.25,50.906254,-17.98125,-0.25466308,-0.5656658,0.37956995,999.15765, , , , 
2025-11-24 19:40:14.980,2.7302105,-13.490734,1.3328022,-1.0491602,0.5067123,1.0290017,3.8625002,51.693752,-17.56875,-0.26883405,-0.5635805,0.38055757,999.15765, , , , 
2025-11-24 19:40:14.999,2.7996025,-14.337793,1.538585,-1.2171481,0.66126114,1.1304053,4.59375,51.750004,-16.25625,-0.2849369,-0.56096065,0.38069677,999.1711, , , , 
2025-11-24 19:40:15.019,2.565106,-14.507684,1.9238294,-1.4126248,0.83719015,1.2904519,5.68125,51.468754,-14.6625,-0.3033469,-0.5573199,0.38008896,999.1711, , , , 
2025-11-24 19:40:15.039,2.8498518,-13.083954,3.7567315,-1.474933,0.84329885,1.5347978,6.8625,51.693752,-12.4875,-0.32945168,-0.55118686,0.37912583,999.1899, , , , 
2025-11-24 19:40:15.060,4.0869412,-11.32523,5.0919266,-1.2189807,0.66003937,1.6514729,8.34375,51.956253,-10.03125,-0.34992057,-0.5454032,0.3801336,999.1899, , , , 
2025-11-24 19:40:15.079,5.2426744,-10.253245,4.7306104,-0.82619464,0.47311476,1.6007712,10.8,50.9625,-10.6875,-0.36706853,-0.53937274,0.38343275,999.2006, , , , 
2025-11-24 19:40:15.100,5.508278,-10.047462,3.4719856,-0.42913252,0.28252497,1.4724896,10.96875,51.3375,-8.1,-0.38038912,-0.53336096,0.38838908,999.2006, , , , 
2025-11-24 19:40:15.119,5.6733823,-9.954143,2.0865414,-0.21105379,0.1432478,1.3930771,12.0375,52.2,-8.7375,-0.3904226,-0.5277418,0.3947248,999.2177, , , , 
2025-11-24 19:40:15.139,6.142376,-9.564112,0.5096712,-0.15363249,0.0650571,1.3002257,12.525001,51.750004,-8.4375,-0.398426,-0.52280766,0.40161023,999.2177, , , , 
2025-11-24 19:40:15.159,7.429714,-8.487342,0.031106694,-0.3594939,0.30573782,1.1041381,15.243751,50.8875,-6.525,-0.40807587,-0.51773536,0.40842408,999.2138, , , , 
2025-11-24 19:40:15.179,8.066205,-7.9106717,0.66999036,-0.503658,0.63316137,0.883005,15.225,50.643753,-7.5937505,-0.41684344,-0.5134421,0.41020113,999.2138, , , , 
2025-11-24 19:40:15.199,8.075776,-7.539784,1.9645073,-0.5677988,1.0399973,0.5910117,16.5,51.9,-7.4812503,-0.42630756,-0.50828356,0.40799195,999.216, , , , 
2025-11-24 19:40:15.219,7.3627152,-7.200003,2.9336007,-0.48044515,1.3087778,0.37904158,15.000001,51.975002,-4.2375,-0.4333503,-0.5034744,0.40423498,999.216, , , , 
2025-11-24 19:40:15.239,6.276374,-6.573084,2.9359934,-0.29901832,1.4492767,0.20799945,17.775002,51.99375,-3.91875,-0.44386825,-0.49374732,0.3961465,999.23114, , , , 
2025-11-24 19:40:15.259,6.2668023,-6.046663,2.7349963,-0.22327107,1.4126248,0.1310305,18.4125,52.312504,-2.7562501,-0.4510484,-0.48538852,0.38931635,999.23114, , , , 
2025-11-24 19:40:15.279,6.458228,-5.757131,2.78046,-0.17134757,1.3271037,0.024129158,16.650002,50.86875,-2.1937501,-0.4571266,-0.4774334,0.38240016,999.23627, , , , 
2025-11-24 19:40:15.300,6.2141604,-5.773881,2.7637103,-0.11759147,1.176831,-0.07910699,18.075,50.775,-1.5562501,-0.46186253,-0.47037172,0.3754018,999.23627, , , , 
2025-11-24 19:40:15.319,5.8600225,-5.907879,2.603391,-0.07971785,0.9721913,-0.124310985,18.35625,50.568752,-3.43125,-0.46526754,-0.46447834,0.36883315,999.24066, , , , 
2025-11-24 19:40:15.340,5.8935223,-5.953343,2.6105695,-0.07177661,0.69058263,-0.13286309,18.431252,49.687504,-0.76875,-0.46801922,-0.45904425,0.3619578,999.24066, , , , 
2025-11-24 19:40:15.359,6.101698,-6.1447687,3.0723844,-0.07177661,0.43524116,-0.15118903,20.25,49.875004,-1.7437501,-0.4691079,-0.45659062,0.35765076,999.24725, , , , 
2025-11-24 19:40:15.379,6.3792653,-6.407979,3.5653057,-0.012522728,0.27947062,-0.17989968,16.893751,50.775,-1.2750001,-0.46916434,-0.4557263,0.35509545,999.24725, , , , 
2025-11-24 19:40:15.399,6.7573314,-7.1162543,3.6466618,0.1188132,0.20005822,-0.24404047,19.650002,49.706253,-3.9750001,-0.46767694,-0.45508957,0.3517226,999.25653, , , , 
2025-11-24 19:40:15.420,6.778867,-7.8963146,3.5653057,0.2037234,0.15302163,-0.2941314,18.300001,52.65,-1.2375001,-0.4652765,-0.45485944,0.34936646,999.25653, , , , 
2025-11-24 19:40:15.439,6.9559355,-8.853444,3.2422748,0.24648394,-0.041844238,-0.33322674,15.150001,49.4625,-0.24375,-0.46191102,-0.45518,0.3475045,999.26385, , , , 
2025-11-24 19:40:15.459,7.3292155,-9.571291,3.3786657,0.23365578,-0.2611447,-0.39553493,16.59375,51.375004,-2.3625002,-0.4576287,-0.457036,0.34632415,999.26385, , , , 
2025-11-24 19:40:15.480,7.745567,-10.325029,3.8261235,0.22876886,-0.29657486,-0.49205157,16.725,51.881252,-3.4875002,-0.4525154,-0.46037418,0.34537822,999.26434, , , , 
2025-11-24 19:40:15.499,7.5661054,-11.23191,4.139583,0.29901832,-0.1291979,-0.59712034,15.356251,51.73125,-1.95,-0.4455093,-0.46445003,0.34308136,999.26434, , , , 
2025-11-24 19:40:15.520,7.503892,-11.499906,4.2711883,0.36621344,-0.10293072,-0.68019795,14.606251,52.406254,-1.5937501,-0.43948755,-0.4669652,0.34052256,999.2707, , , , 
2025-11-24 19:40:15.540,7.140183,-11.545369,4.725825,0.49266243,-0.13408482,-0.77549285,13.425,53.156254,-1.2,-0.4325945,-0.4694856,0.3377631,999.2707, , , , 
2025-11-24 19:40:15.559,6.2285175,-11.411371,4.3669014,0.6502656,-0.30207264,-0.810923,12.31875,51.80625,-3.3375,-0.42419124,-0.47213888,0.33549342,999.27094, , , , 
2025-11-24 19:40:15.579,5.7188463,-11.327622,3.735196,0.73212147,-0.61055934,-0.79442966,14.175,51.506252,-4.74375,-0.41418785,-0.47586274,0.33476782,999.27094, , , , 
2025-11-24 19:40:15.599,5.558527,-11.30848,3.414558,0.77366024,-1.1029164,-0.7651081,12.13125,52.29375,-4.1062503,-0.39967316,-0.48371223,0.33664256,999.2729, , , , 
2025-11-24 19:40:15.620,5.5704913,-11.191232,3.2350962,0.8005383,-1.2996148,-0.7822124,11.34375,52.725002,-4.9875,-0.38998917,-0.48997393,0.33889794,999.2729,37.88754754,127.74027848,143.285400390625,1.35
2025-11-24 19:40:15.639,5.3144593,-11.217552,2.8187451,0.8042035,-1.41629,-0.8286381,11.56875,52.875004,-7.0125003,-0.3727783,-0.50168484,0.3432004,999.268, , , , 
2025-11-24 19:40:15.659,4.962714,-11.282159,2.4478576,0.75838864,-1.4865395,-0.86223567,10.6875,52.068752,-8.587501,-0.35861778,-0.51171064,0.34655854,999.268, , , , 
2025-11-24 19:40:15.679,4.627719,-10.839486,2.5292134,0.69424784,-1.5274674,-0.89155716,10.837501,51.975002,-10.59375,-0.3444632,-0.52224237,0.3496118,999.26776, , , , 
2025-11-24 19:40:15.699,4.2424746,-9.980463,2.9862428,0.6960804,-1.4559962,-0.9098831,5.025,52.237503,-10.012501,-0.33037373,-0.532827,0.35224715,999.26776, , , , 
2025-11-24 19:40:15.719,4.091727,-9.312865,3.290131,0.7828232,-1.3594795,-0.95569795,4.6687503,52.575,-10.6125,-0.31608614,-0.5424525,0.3545404,999.26776, , , , 
2025-11-24 19:40:15.739,3.4480574,-8.63809,2.5339992,0.92087865,-1.23975,-1.0625993,5.08125,53.006252,-12.843751,-0.29695675,-0.55306345,0.3570379,999.26776, , , , 
2025-11-24 19:40:15.759,2.8187451,-8.130812,1.7347964,0.9758565,-1.0674862,-1.1340705,2.60625,52.3875,-12.543751,-0.28103384,-0.56040704,0.3584329,999.2641, , , , 
2025-11-24 19:40:15.779,2.2181466,-7.7623167,0.83748794,0.95569795,-0.86040306,-1.1804962,1.35,50.4,-13.5375,-0.26536337,-0.56640714,0.3589238,999.2641, , , , 
2025-11-24 19:40:15.799,1.6151553,-7.436893,0.033499517,0.8329141,-0.6637046,-1.2092068,-2.3625002,52.36875,-12.4875,-0.25055984,-0.57141554,0.35828152,999.26117, , , , 
2025-11-24 19:40:15.819,1.2131611,-7.3866434,-0.48095736,0.6808088,-0.45967576,-1.2116503,0.41250002,52.068752,-15.993751,-0.23732147,-0.5755498,0.35626087,999.26117, , , , 
2025-11-24 19:40:15.839,0.59581286,-7.3986077,-0.7513463,0.43401942,-0.1951713,-1.1786636,-2.025,51.581253,-16.800001,-0.22637574,-0.57863665,0.35261068,999.258, , , , 
2025-11-24 19:40:15.859,-0.0071784677,-7.420143,-0.5982057,0.23854269,-0.08460477,-1.1169662,-5.0437503,51.35625,-13.837501,-0.21782897,-0.58096755,0.34764028,999.258, , , , 
2025-11-24 19:40:15.879,-0.8255238,-7.5230346,-0.18903299,0.068722285,0.046731155,-0.9514219,-4.9875,51.393753,-17.1,-0.21018599,-0.5832371,0.3406618,999.25555, , , , 
2025-11-24 19:40:15.899,-1.3304094,-7.8699937,0.023928227,-0.046731155,0.14752385,-0.7333432,-5.15625,50.737503,-14.868751,-0.20674801,-0.58408344,0.33544773,999.25555, , , , 
2025-11-24 19:40:15.919,-1.6462619,-8.298309,0.11485548,-0.13652828,0.20189081,-0.4828886,-6.0,52.275,-16.10625,-0.20580028,-0.58417696,0.33217695,999.25214, , , , 
2025-11-24 19:40:15.940,-1.119841,-9.162118,-0.37806597,-0.38209593,0.32223117,-0.018631376,-7.1625004,50.156254,-15.39375,-0.20804137,-0.58342284,0.32849684,999.25214, , , , 
2025-11-24 19:40:15.959,0.17706887,-10.080962,0.02632105,-0.6649263,0.38881543,0.30573782,-5.08125,50.381252,-15.31875,-0.2143691,-0.5821635,0.32669082,999.2631, , , , 
2025-11-24 19:40:15.980,1.1509477,-10.762917,1.1294123,-0.8384119,0.44196066,0.52870345,-5.30625,52.0875,-15.39375,-0.22428209,-0.5806414,0.3252687,999.2631, , , , 
2025-11-24 19:40:15.999,2.3042881,-11.765509,1.9405792,-0.9178243,0.5225948,0.77915806,-0.95625,50.943752,-17.79375,-0.23656854,-0.57836205,0.32453844,999.26166, , , , 
2025-11-24 19:40:16.019,2.9647074,-12.744173,1.7108682,-0.96791524,0.5647445,0.9770782,-3.45,52.65,-14.38125,-0.250491,-0.575183,0.3247282,999.26166, , , , 
2025-11-24 19:40:16.040,3.6466618,-13.016955,1.3734802,-1.1310161,0.5433642,1.212872,-1.4625001,51.825,-11.45625,-0.27029952,-0.57064134,0.32600918,999.26385, , , , 
2025-11-24 19:40:16.059,4.5415773,-12.933207,1.1988041,-1.3387102,0.5232057,1.3503166,0.52500004,52.912502,-12.50625,-0.28823912,-0.5671996,0.3272107,999.26385, , , , 
2025-11-24 19:40:16.079,5.2570314,-12.052648,2.333002,-1.5317434,0.53053606,1.461494,0.52500004,53.1375,-9.28125,-0.3079145,-0.56396854,0.32773438,999.2663, , , , 
2025-11-24 19:40:16.099,6.1567326,-10.978271,3.4983068,-1.4847069,0.46089748,1.4694352,2.2687502,53.081253,-10.06875,-0.32805,-0.560622,0.32801417,999.2663, , , , 
2025-11-24 19:40:16.119,6.8243303,-10.152746,3.9744785,-1.2788454,0.43157595,1.3955206,3.54375,53.7,-8.700001,-0.34655094,-0.55707437,0.328655,999.2729, , , , 
2025-11-24 19:40:16.139,6.869794,-9.071191,3.9601214,-0.90927225,0.36132652,1.2641847,3.91875,52.8375,-5.6062503,-0.36220175,-0.5530578,0.3299366,999.2729, , , , 
2025-11-24 19:40:16.159,7.0779696,-7.8604226,3.3403804,-0.535423,0.1084285,1.1065816,5.8500004,53.156254,-4.275,-0.37678418,-0.5482686,0.33339727,999.2812, , , , 
2025-11-24 19:40:16.180,7.1042905,-6.6831536,2.4239295,-0.2800815,0.17867795,0.98318684,7.0875,54.787502,-6.0375004,-0.38464975,-0.5451326,0.3373699,999.2812, , , , 
2025-11-24 19:40:16.199,7.2502527,-5.4628143,2.1463618,-0.1517999,0.548862,0.84085536,7.7250004,53.5875,-5.11875,-0.39134112,-0.5404009,0.34045863,999.2829, , , , 
2025-11-24 19:40:16.221,7.2646093,-5.1206403,1.8496519,-0.08460477,0.90377444,0.65881765,7.0687504,53.4,-4.1062503,-0.39607006,-0.5354298,0.3414095,999.2829, , , , 
2025-11-24 19:40:16.239,6.7908306,-5.759524,2.5986054,0.014355322,1.1927135,0.3753764,9.46875,54.393753,-3.9562502,-0.40345934,-0.5250309,0.33976203,999.28143, , , , 
2025-11-24 19:40:16.259,5.881558,-6.458228,2.5507488,0.1499673,1.099862,0.22266021,7.65,51.843754,-4.3875003,-0.40777585,-0.5160878,0.3370447,999.28143, , , , 
2025-11-24 19:40:16.279,5.477171,-6.3218374,1.18684,0.07116575,1.1609485,0.33689192,11.418751,52.237503,-6.1875005,-0.41106874,-0.5075943,0.3348276,999.27606, , , , 
2025-11-24 19:40:16.299,6.9056864,-6.4271216,1.7180467,-0.31734425,1.4333942,0.3478875,10.856251,51.281254,-2.0625,-0.41678363,-0.49843815,0.33155632,999.27606, , , , 
2025-11-24 19:40:16.319,7.2670026,-7.02772,4.4434714,-0.42791077,1.4144574,0.17806709,13.781251,53.2125,-4.18125,-0.42472425,-0.48914203,0.3253458,999.2841, , , , 
2025-11-24 19:40:16.339,6.367301,-7.367501,6.15434,-0.16768238,1.1468986,0.03451386,10.9875,53.287502,-2.6625001,-0.43227336,-0.47876504,0.31682,999.2841, , , , 
2025-11-24 19:40:16.361,5.7427745,-7.5230346,5.6685967,0.3045161,1.0027345,0.00641408,9.76875,50.925003,-2.7,-0.4344271,-0.47104236,0.312271,999.30756, , , , 
2025-11-24 19:40:16.379,5.582455,-7.274181,3.7543387,0.5513055,0.93981546,0.08093958,12.168751,53.287502,-2.9437501,-0.43402085,-0.46273366,0.31000862,999.30756, , , , 
2025-11-24 19:40:16.399,5.948557,-7.0325055,2.510071,0.5836813,0.67592186,0.11636974,12.150001,51.675003,-4.5375004,-0.43257537,-0.45473483,0.30932578,999.3244, , , , 
2025-11-24 19:40:16.420,6.2979093,-7.0540414,2.1918256,0.5232057,0.37232208,0.08704823,10.3125,52.10625,-3.1312501,-0.43037805,-0.44901934,0.30979404,999.3244, , , , 
2025-11-24 19:40:16.439,6.4677997,-7.4656067,1.7754744,0.399811,0.22937973,0.02535089,12.356251,52.800003,-2.9250002,-0.4277524,-0.44572845,0.31063643,999.3298, , , , 
2025-11-24 19:40:16.459,6.4343,-8.01117,2.361716,0.3515527,0.24098615,-0.014966187,11.306251,51.956253,-3.24375,-0.42551124,-0.44338816,0.31090242,999.3298, , , , 
2025-11-24 19:40:16.479,5.7020965,-8.590233,2.4263222,0.36987862,0.2037234,0.011300999,13.81875,52.500004,-7.2375,-0.42274037,-0.44050562,0.311052,999.30365, , , , 
2025-11-24 19:40:16.499,6.168697,-8.863015,2.524428,0.33994624,0.113926284,0.026572619,11.0625,52.18125,-3.2250001,-0.42054415,-0.4384612,0.3117898,999.30365, , , , 
2025-11-24 19:40:16.519,6.570691,-9.049655,3.8261235,0.3081813,-0.044287696,-0.07910699,10.33125,52.631252,-6.2625003,-0.41812667,-0.4374407,0.3124776,999.27386, , , , 
2025-11-24 19:40:16.540,5.2426744,-9.894321,3.5533416,0.4346303,-0.0027488915,-0.03451386,11.26875,51.7125,-3.99375,-0.41467747,-0.4372022,0.3134906,999.27386, , , , 
2025-11-24 19:40:16.559,5.383851,-10.322637,3.2087753,0.36315912,-0.07238748,0.051618073,11.90625,51.9,-4.5375004,-0.41148338,-0.43610135,0.31515548,999.2526, , , , 
2025-11-24 19:40:16.579,5.06082,-10.286744,3.438486,0.28313583,-0.24342962,0.12125666,12.618751,52.48125,-5.1000004,-0.40894434,-0.43585163,0.3174895,999.2526, , , , 
2025-11-24 19:40:16.599,5.0536413,-10.365707,4.1515474,0.23121232,-0.66126114,0.21410811,12.1125,51.318752,-6.675,-0.40649134,-0.43728992,0.32113436,999.25287, , , , 
2025-11-24 19:40:16.622,4.9938207,-10.303494,4.5487556,0.2715294,-1.0430516,0.28802276,13.575001,52.0875,-6.2625003,-0.4024118,-0.44192058,0.3282072,999.25287,37.88755903,127.74027428,143.45660400390625,1.41
2025-11-24 19:40:16.639,5.0440702,-10.1288185,4.273581,0.3179551,-1.2727368,0.31551164,15.825001,50.60625,-9.0375,-0.39780036,-0.44777632,0.33598098,999.2482, , , , 
2025-11-24 19:40:16.660,5.2905307,-9.9015,3.897908,0.37293294,-1.2709042,0.29352054,13.06875,53.04375,-7.5000005,-0.39232123,-0.45458248,0.34467715,999.2482, , , , 
2025-11-24 19:40:16.679,5.0105705,-9.868001,3.5318062,0.38820457,-1.1646137,0.15729769,11.3625,51.24375,-5.9812503,-0.38644293,-0.4608653,0.35259283,999.2524, , , , 
2025-11-24 19:40:16.699,3.8285162,-9.676575,3.426522,0.3827068,-1.1817179,0.098654665,13.218751,52.2,-9.0,-0.38026202,-0.46708116,0.35954052,999.2524, , , , 
2025-11-24 19:40:16.719,3.5820556,-9.444471,3.6634114,0.38881543,-1.2208133,0.07055488,12.806251,53.1375,-7.93125,-0.3738244,-0.47349492,0.36637414,999.2536, , , , 
2025-11-24 19:40:16.740,3.6227336,-8.867801,4.168297,0.44562587,-1.3118321,-0.01802051,11.75625,50.79375,-8.625,-0.36474097,-0.48199826,0.37492934,999.2536, , , , 
2025-11-24 19:40:16.760,3.35713,-8.573483,4.409972,0.5238165,-1.1908809,-0.09926552,11.475,51.6375,-8.64375,-0.3565032,-0.4887446,0.38138446,999.2558, , , , 
2025-11-24 19:40:16.779,3.2542388,-8.042277,4.1874394,0.6374374,-1.0577123,-0.16768238,9.6,50.9625,-9.01875,-0.34998313,-0.49297357,0.38586107,999.2558, , , , 
2025-11-24 19:40:16.800,2.7613173,-7.097112,3.010171,0.76999503,-0.8713986,-0.2782489,8.700001,50.756252,-11.231251,-0.33812878,-0.4985771,0.39265996,999.25336, , , , 
2025-11-24 19:40:16.820,2.012364,-6.728617,2.2947168,0.78709924,-0.74372786,-0.34849834,9.806251,51.131252,-11.681251,-0.32833248,-0.5019553,0.39719698,999.25336, , , , 
2025-11-24 19:40:16.839,1.3160524,-6.4151573,1.5122639,0.77549285,-0.66065025,-0.35460702,8.6625,51.881252,-12.675,-0.31881142,-0.5046084,0.4010759,999.24774, , , , 
2025-11-24 19:40:16.860,1.1653047,-6.2213387,0.4953143,0.68997175,-0.6374374,-0.3527744,8.1,50.5875,-12.39375,-0.30990034,-0.5070135,0.4045478,999.24774, , , , 
2025-11-24 19:40:16.880,1.253839,-6.3864436,0.2943172,0.46456265,-0.5659662,-0.40042186,6.3,49.537502,-13.5375,-0.30025944,-0.51069087,0.40751684,999.24335, , , , 
2025-11-24 19:40:16.900,0.8279166,-6.8650084,0.66041905,0.30207264,-0.41996953,-0.42668906,7.36875,50.4,-14.00625,-0.2941422,-0.5137964,0.4082815,999.24335, , , , 
2025-11-24 19:40:16.920,0.6053841,-7.537391,1.1676974,0.21288638,-0.2593121,-0.41813695,6.8437505,49.7625,-17.775002,-0.28955433,-0.5161996,0.40798563,999.23724, , , , 
2025-11-24 19:40:16.941,0.46181476,-8.094919,0.85902333,0.109650224,-0.19761476,-0.39858928,6.9187503,50.98125,-15.225,-0.28597885,-0.5180888,0.40718165,999.23724, , , , 
2025-11-24 19:40:16.959,0.27756742,-8.60459,0.3684947,-0.1084285,-0.10231985,-0.33078328,7.9500003,51.600002,-17.681252,-0.28392377,-0.51992583,0.40572554,999.23114, , , , 
2025-11-24 19:40:16.979,-0.40677986,-9.722038,0.4881358,-0.35338527,-0.07299834,-0.22082762,6.7312503,50.100002,-15.468751,-0.28439224,-0.52201515,0.40341368,999.23114, , , , 
2025-11-24 19:40:16.999,-0.94277215,-11.320444,1.5984055,-0.5836813,-3.054324E-4,0.09010255,5.025,49.66875,-14.962501,-0.287939,-0.5241869,0.40112147,999.22284, , , , 
2025-11-24 19:40:17.020,-0.4354937,-11.772687,2.0147567,-0.65942854,0.082161315,0.37659815,6.2625003,50.662502,-15.13125,-0.2944357,-0.5252881,0.40003204,999.22284, , , , 
2025-11-24 19:40:17.039,1.1078769,-12.141182,2.3784657,-0.7675516,0.041844238,0.59162253,8.38125,52.500004,-14.231251,-0.30526024,-0.5256103,0.4002524,999.2194, , , , 
2025-11-24 19:40:17.059,1.1988041,-13.299308,1.8879371,-0.8597922,0.018631376,0.6411026,8.3625,49.500004,-14.531251,-0.31459066,-0.52645016,0.40087852,999.2194, , , , 
2025-11-24 19:40:17.080,0.55752766,-13.828122,2.416751,-0.9947933,0.14446951,0.833525,7.2562504,52.0125,-15.168751,-0.32269093,-0.52698636,0.4011876,999.20306, , , , 
2025-11-24 19:40:17.099,1.8544376,-13.684553,3.1154552,-1.0357212,0.13652828,1.095586,7.9125004,51.80625,-11.981251,-0.339083,-0.52606124,0.40257317,999.20306, , , , 
2025-11-24 19:40:17.120,2.4861426,-11.935399,3.8500516,-0.9789108,-0.0027488915,1.1389574,7.8375,50.79375,-10.9875,-0.3522063,-0.52526337,0.40477446,999.2006, , , , 
2025-11-24 19:40:17.139,3.1609187,-10.171889,4.5942197,-0.697913,0.04856375,1.1896591,11.38125,51.768753,-9.5625,-0.3637869,-0.52425814,0.4081121,999.2006, , , , 
2025-11-24 19:40:17.160,3.8380876,-9.401401,4.089334,-0.35888305,0.22266021,1.1823288,10.743751,50.943752,-8.212501,-0.3737764,-0.5212115,0.41256136,999.185, , , , 
2025-11-24 19:40:17.180,3.993621,-9.15494,2.1702902,-0.062002774,0.39370236,1.1352922,13.650001,52.125004,-10.44375,-0.38400313,-0.5143855,0.41894647,999.185, , , , 
2025-11-24 19:40:17.199,4.2999024,-9.135797,0.05742774,-0.0632245,0.37781987,1.1096358,12.95625,51.037502,-7.9875,-0.39133352,-0.5079935,0.4240963,999.1823, , , , 
2025-11-24 19:40:17.220,4.867001,-9.142975,-0.37567315,-0.26603162,0.22876886,1.0961969,13.668751,51.61875,-8.400001,-0.3970025,-0.5040491,0.4275027,999.1823, , , , 
2025-11-24 19:40:17.239,5.800202,-9.150154,0.22013968,-0.64171344,0.521984,0.9764674,16.237501,50.5125,-9.225,-0.4079264,-0.49937904,0.4310062,999.1882, , , , 
2025-11-24 19:40:17.260,6.498906,-8.592627,2.3856442,-0.76144296,0.93615025,0.83902276,17.5125,49.65,-8.55,-0.4190746,-0.4950475,0.43008298,999.1882, , , , 
2025-11-24 19:40:17.280,6.489335,-8.039884,3.871587,-0.6386591,1.4578288,0.5885682,20.025002,49.66875,-9.431251,-0.43119776,-0.48837286,0.42579287,999.2016, , , , 
2025-11-24 19:40:17.299,5.74756,-7.408179,3.4217365,-0.4572323,1.6423099,0.41752607,21.13125,50.250004,-7.2562504,-0.44250315,-0.4793916,0.41948554,999.2016, , , , 
2025-11-24 19:40:17.320,5.74756,-7.0779696,3.4049866,-0.3564396,1.5354086,0.28802276,19.06875,50.287502,-5.9625,-0.45258966,-0.4696986,0.41245505,999.1977, , , , 
2025-11-24 19:40:17.339,5.3144593,-6.8243303,4.3764725,-0.118202336,1.1377356,0.18051054,20.85,50.68125,-2.0062501,-0.46185273,-0.45926204,0.40462697,999.1977, , , , 
2025-11-24 19:40:17.359,5.517849,-6.4031935,3.4672,0.12064579,0.75838864,0.120034926,19.63125,49.687504,-2.5875,-0.46539313,-0.45270768,0.4009946,999.19745, , , , 
2025-11-24 19:40:17.380,5.6949177,-6.056234,2.3665016,0.19394957,0.6233875,0.04612029,20.212502,49.631252,-2.79375,-0.46656853,-0.44774804,0.3987746,999.19745, , , , 
2025-11-24 19:40:17.400,6.384051,-6.029913,2.210968,0.20922118,0.62644184,-0.019853106,21.150002,49.10625,-3.9562502,-0.4671086,-0.4433698,0.39645845,999.1999, , , , 
2025-11-24 19:40:17.419,6.8482585,-6.0921264,1.430908,0.19639303,0.52992517,-0.12858704,21.225,48.0,-4.2000003,-0.4670327,-0.4396386,0.39365065,999.1999, , , , 
2025-11-24 19:40:17.439,7.0301127,-6.515656,1.5720844,0.0736092,0.38698283,-0.27885976,20.25,49.125004,-2.30625,-0.4663489,-0.43774515,0.39017537,999.21576, , , , 
2025-11-24 19:40:17.459,7.24786,-7.109076,2.2851455,0.06994402,0.31734425,-0.36987862,20.19375,49.612503,-2.025,-0.4653167,-0.43714195,0.3861347,999.21576, , , , 
2025-11-24 19:40:17.480,6.8195443,-8.023134,2.8163524,0.1395826,0.1725693,-0.43340856,19.35,49.893753,-0.71250004,-0.4627725,-0.43751085,0.3810605,999.22943, , , , 
2025-11-24 19:40:17.499,6.4031935,-8.609376,2.4143581,0.15485422,-0.03695732,-0.42302385,19.575,49.312504,-3.3375,-0.45951203,-0.43880734,0.37796864,999.22943, , , , 
2025-11-24 19:40:17.522,6.7669024,-9.7196455,2.8546374,0.052839804,-0.4138609,-0.40042186,18.69375,50.831253,-2.4,-0.45583382,-0.44167227,0.37595406,999.2319, , , , 
2025-11-24 19:40:17.539,7.274181,-10.470992,3.8141594,0.04612029,-0.72295845,-0.43585202,18.45,49.687504,-1.8375001,-0.45137432,-0.44688138,0.37511936,999.2319, , , , 
2025-11-24 19:40:17.559,7.661818,-11.279766,4.362116,0.1499673,-0.88605934,-0.51159924,20.550001,49.687504,-5.30625,-0.44521224,-0.45414022,0.37546366,999.23773, , , , 
2025-11-24 19:40:17.580,7.611569,-11.980863,3.8093736,0.20005822,-0.80970126,-0.60017467,19.35,49.66875,-3.6375,-0.43773773,-0.4617823,0.37595046,999.23773, , , , 
2025-11-24 19:40:17.599,7.367501,-12.394821,3.8811584,0.14874557,-0.62766355,-0.7046325,17.23125,50.5875,-5.625,-0.42854607,-0.47070548,0.374987,999.2399, , , , 
2025-11-24 19:40:17.620,7.1880393,-12.593426,4.6779685,0.17562363,-0.51648617,-0.7846558,17.400002,51.468754,-5.3812504,-0.4232961,-0.4755346,0.3734987,999.2399,37.88756982,127.74026743,143.69891357421875,1.36
2025-11-24 19:40:17.639,6.317052,-12.303894,5.235496,0.35460702,-0.59712034,-0.8799507,14.64375,51.675003,-4.03125,-0.41348067,-0.48290366,0.3706295,999.24335, , , , 
2025-11-24 19:40:17.659,5.855237,-11.542976,4.709075,0.57818353,-0.8591813,-0.9471458,13.425,50.456253,-7.3875003,-0.4033133,-0.48927015,0.36956242,999.24335, , , , 
2025-11-24 19:40:17.679,5.797809,-11.059627,3.9314077,0.6856957,-0.9954042,-1.0247257,14.26875,51.9,-5.55,-0.39087683,-0.49665228,0.3696745,999.24335, , , , 
2025-11-24 19:40:17.699,5.2235317,-10.861022,2.804388,0.70707595,-1.1084142,-1.2000439,13.181251,50.7,-7.9875,-0.37682512,-0.5050771,0.36978766,999.236, , , , 
2025-11-24 19:40:17.719,4.354937,-11.047662,2.0195422,0.6185006,-1.1823288,-1.2977822,12.168751,52.0875,-9.356251,-0.36224672,-0.5145183,0.3690454,999.23016, , , , 
2025-11-24 19:40:17.739,3.5964124,-11.200803,1.8185452,0.44379327,-1.2452478,-1.3423754,9.5625,52.95,-9.13125,-0.34794602,-0.5250591,0.36741215,999.23016, , , , 
2025-11-24 19:40:17.759,3.0532417,-10.832308,2.510071,0.32833982,-1.1426226,-1.3454297,7.0125003,51.825,-10.5,-0.33126277,-0.53867215,0.36419716,999.2331, , , , 
2025-11-24 19:40:17.780,2.5579274,-10.279566,3.1082766,0.35033095,-1.0082324,-1.3533709,7.18125,51.975002,-10.837501,-0.32179174,-0.5461375,0.36174637,999.2331, , , , 
2025-11-24 19:40:17.799,1.5960127,-9.446864,3.2015967,0.47189304,-0.8151991,-1.3319906,2.86875,51.750004,-8.6625,-0.3061093,-0.5566411,0.35750067,999.23553, , , , 
2025-11-24 19:40:17.819,1.0743774,-8.913264,3.0149565,0.58062696,-0.75899947,-1.3130538,3.45,51.581253,-11.043751,-0.29340658,-0.5633346,0.35445696,999.23553, , , , 
2025-11-24 19:40:17.839,-0.07178468,-8.2049885,2.4358935,0.72601277,-0.6832523,-1.2415826,0.99375004,53.081253,-11.94375,-0.2801383,-0.56911045,0.35217097,999.2326, , , , 
2025-11-24 19:40:17.859,-0.6221339,-7.685746,1.7060826,0.78893185,-0.53053606,-1.1230749,1.4250001,53.11875,-10.9125,-0.2671772,-0.5733306,0.35078183,999.2326, , , , 
2025-11-24 19:40:17.879,-1.2059826,-7.2358956,0.70588267,0.7987057,-0.32467464,-0.9410372,-0.65625,50.568752,-14.718751,-0.25534832,-0.57581615,0.350092,999.2419, , , , 
2025-11-24 19:40:17.900,-1.5337993,-6.884151,-0.3589234,0.69363695,-0.20127994,-0.7510582,-1.9687501,52.050003,-13.89375,-0.24304189,-0.57703453,0.3498918,999.2419, , , , 
2025-11-24 19:40:17.919,-1.7371893,-6.896115,-0.87338024,0.5207622,-0.120034926,-0.59467685,-1.8375001,51.318752,-13.556251,-0.23731416,-0.577393,0.34987196,999.2453, , , , 
2025-11-24 19:40:17.939,-1.7204394,-7.2933235,-0.2321038,0.28069237,0.05894845,-0.3979784,-1.7625,50.60625,-17.38125,-0.23145743,-0.5773397,0.34949014,999.2453, , , , 
2025-11-24 19:40:17.959,-1.416551,-7.726424,0.63888365,0.14874557,0.36804602,-0.18661919,-2.4,52.0125,-14.925,-0.22987038,-0.5759611,0.3490465,999.2514, , , , 
2025-11-24 19:40:17.979,-0.7896315,-8.039884,0.8925229,-0.004581486,0.7999274,0.03329213,-3.4875002,51.15,-13.368751,-0.23154056,-0.57199764,0.34853426,999.2514, , , , 
2025-11-24 19:40:18.000,0.15314065,-9.016156,1.9549361,-0.088269964,1.1505638,0.2538143,-1.1812501,51.525,-15.337501,-0.23702945,-0.5647906,0.34769604,999.24945, , , , 
2025-11-24 19:40:18.019,0.46660042,-9.798609,1.9908284,-0.09987639,1.0870339,0.3857611,-0.99375004,51.675003,-15.525001,-0.24421954,-0.55605155,0.34743962,999.24945, , , , 
2025-11-24 19:40:18.040,0.7369894,-10.320244,1.3232309,-0.19761476,0.8872811,0.5195405,-3.0375001,50.9625,-15.731251,-0.25197917,-0.54808974,0.34821698,999.24945, , , , 
2025-11-24 19:40:18.059,0.88295156,-10.71506,1.3615161,-0.46028662,0.76999503,0.7712168,0.65625,51.843754,-15.69375,-0.26371977,-0.53993315,0.34998614,999.2504, , , , 
2025-11-24 19:40:18.079,1.6701902,-11.667403,1.9884356,-0.66126114,0.7186824,0.9947933,2.5687501,51.91875,-15.750001,-0.2756881,-0.5340325,0.35191205,999.2536, , , , 
2025-11-24 19:40:18.100,2.2157538,-12.607782,2.1511476,-0.7987057,0.6881392,1.1322379,0.52500004,50.568752,-15.000001,-0.2894585,-0.5283601,0.35425705,999.2536, , , , 
2025-11-24 19:40:18.120,2.9910283,-12.966706,2.5028925,-0.8927789,0.5042689,1.2904519,2.775,51.54375,-14.6625,-0.3044736,-0.5232319,0.35721397,999.2624, , , , 
2025-11-24 19:40:18.139,3.6753755,-12.863814,2.7876384,-1.0149518,0.32589635,1.4089596,2.6625001,52.74375,-11.025001,-0.31997222,-0.51926965,0.3608404,999.2624, , , , 
2025-11-24 19:40:18.159,4.4482574,-11.612369,4.261617,-0.92026776,0.23243405,1.4755439,5.5875,51.825,-12.825001,-0.33917895,-0.51514435,0.36625087,999.2653, , , , 
2025-11-24 19:40:18.181,5.237889,-10.279566,4.4075794,-0.65759593,0.31612253,1.4737113,7.4437504,51.862503,-9.918751,-0.35285074,-0.5110559,0.371595,999.2653, , , , 
2025-11-24 19:40:18.199,5.5968122,-9.549755,3.4360933,-0.42607817,0.5183188,1.3924663,8.981251,52.143753,-10.25625,-0.36483842,-0.50513214,0.37708828,999.2658, , , , 
2025-11-24 19:40:18.220,5.345566,-9.439685,2.053042,-0.34177884,0.5879573,1.3179407,13.593751,53.250004,-10.5,-0.37300214,-0.4998846,0.3808986,999.2658, , , , 
2025-11-24 19:40:18.239,5.3240304,-9.449257,0.8709874,-0.41996953,0.5390882,1.3008366,12.168751,51.35625,-9.76875,-0.3863895,-0.49099135,0.38653916,999.2614, , , , 
2025-11-24 19:40:18.259,6.087341,-9.221938,0.6364908,-0.56291187,0.40958482,1.2537999,12.093751,51.075,-8.0625,-0.3972925,-0.4850464,0.3905756,999.2614, , , , 
2025-11-24 19:40:18.279,6.800402,-8.71466,1.0839486,-0.71318465,0.4486802,1.1175771,14.475,51.318752,-7.3875003,-0.40823543,-0.48059553,0.3935232,999.2651, , , , 
2025-11-24 19:40:18.299,7.2023964,-8.209774,2.2779672,-0.8035926,0.7290671,0.9477567,14.906251,50.60625,-6.4687505,-0.41951197,-0.47643358,0.39423874,999.2651, , , , 
2025-11-24 19:40:18.319,7.3459654,-7.726424,3.778267,-0.74006265,1.0619885,0.75838864,18.13125,50.568752,-7.275,-0.43114397,-0.47092798,0.39226553,999.27094, , , , 
2025-11-24 19:40:18.339,7.393822,-7.223932,4.3094735,-0.5708531,1.2928953,0.616668,17.325,51.093754,-5.6625004,-0.44207266,-0.46347618,0.38835415,999.27094, , , , 
2025-11-24 19:40:18.359,7.21436,-6.407979,3.9840498,-0.30146176,1.1927135,0.36987862,16.743752,49.66875,-5.2125,-0.4530726,-0.45286217,0.38233617,999.2758, , , , 
2025-11-24 19:40:18.380,6.8865438,-5.905486,3.481557,-0.17562363,0.90927225,0.2073886,17.925001,49.893753,-3.35625,-0.45881096,-0.44595852,0.3778911,999.2758, , , , 
2025-11-24 19:40:18.399,6.5635123,-5.4795637,2.9383862,-0.09071342,0.6221658,0.09682207,20.081251,50.362503,-3.6000001,-0.4622586,-0.4410942,0.37428382,999.2824, , , , 
2025-11-24 19:40:18.419,6.4606214,-5.407779,2.6344976,-0.097432934,0.47677997,0.027183482,17.53125,50.850002,-2.7375002,-0.46431625,-0.43791595,0.37122816,999.2824, , , , 
2025-11-24 19:40:18.439,6.5635123,-5.6614184,2.6703901,-0.13652828,0.37659815,-0.040011644,17.94375,50.8875,-1.40625,-0.46573105,-0.43604574,0.3682355,999.29535, , , , 
2025-11-24 19:40:18.459,7.003792,-6.3074803,3.306881,-0.09926552,0.2538143,-0.12247839,18.525002,51.45,-2.71875,-0.466817,-0.434931,0.36434168,999.29535, , , , 
2025-11-24 19:40:18.480,7.240681,-6.8458657,3.4313076,-0.04612029,0.13469568,-0.20311254,17.4375,49.8375,-1.44375,-0.4665318,-0.4350436,0.36219305,999.29535, , , , 
2025-11-24 19:40:18.499,7.149754,-7.6067834,3.4504502,0.065667965,0.04856375,-0.3081813,18.018751,50.5125,-1.5375,-0.4643333,-0.4363619,0.35893595,999.31, , , , 
2025-11-24 19:40:18.520,7.1162543,-8.353344,3.4241292,0.10231985,0.054061532,-0.37659815,18.9375,49.237503,-1.40625,-0.46237168,-0.4373761,0.35693303,999.32367, , , , 
2025-11-24 19:40:18.540,6.853044,-9.482756,3.318845,0.16707152,-0.07055488,-0.46639526,17.19375,50.79375,-1.0125,-0.45828786,-0.43942937,0.35341766,999.32367, , , , 
2025-11-24 19:40:18.559,6.6855464,-10.291531,3.1680973,0.17562363,-0.26847506,-0.5378664,18.618752,51.206253,-2.8875,-0.45395014,-0.44225582,0.35101926,999.3315, , , , 
2025-11-24 19:40:18.579,6.613762,-10.911271,3.4193435,0.1621846,-0.4468476,-0.5885682,19.21875,50.5125,-2.5875,-0.44875288,-0.44665742,0.34909812,999.3315, , , , 
2025-11-24 19:40:18.599,6.759724,-11.944971,3.7447674,0.16768238,-0.6508764,-0.6869174,15.056251,52.4625,-2.11875,-0.44105256,-0.45421538,0.3472352,999.33075, , , , 
2025-11-24 19:40:18.620,6.5754766,-12.748959,4.0390844,0.21105379,-0.6966913,-0.7449496,12.843751,51.375004,-5.0625,-0.43387157,-0.46136424,0.34594744,999.33075,37.88758137,127.74025925,143.506103515625,1.51
2025-11-24 19:40:18.639,6.4031935,-12.543177,4.615755,0.27275112,-0.5745183,-0.7651081,14.137501,51.506252,-3.0375001,-0.42637554,-0.468076,0.34449816,999.33026, , , , 
2025-11-24 19:40:18.659,6.0921264,-11.590833,5.4723854,0.45295623,-0.4395172,-0.78771013,13.837501,52.8375,-3.24375,-0.41840562,-0.47346243,0.3429281,999.33026, , , , 
2025-11-24 19:40:18.680,5.7451673,-10.281959,5.3742795,0.7999274,-0.31184646,-0.82497287,12.4125,51.675003,-1.7812501,-0.40902862,-0.47704244,0.34179193,999.33344, , , , 
2025-11-24 19:40:18.700,5.235496,-9.317652,4.0271206,1.0797035,-0.33872452,-0.89094627,11.15625,51.825,-4.4437504,-0.39755678,-0.47921866,0.34144992,999.33344, , , , 
2025-11-24 19:40:18.720,4.5942197,-9.042477,2.1128623,1.2006547,-0.48716468,-0.9758565,10.087501,52.10625,-7.1250005,-0.3840566,-0.4814866,0.34183955,999.33466, , , , 
2025-11-24 19:40:18.739,3.9194436,-9.08794,0.66759753,1.1395682,-0.620944,-1.0118976,9.01875,52.725002,-5.3625,-0.37322474,-0.48397592,0.34230524,999.33466, , , , 
2025-11-24 19:40:18.760,2.87378,-9.284152,-0.5024927,0.6997456,-0.97280216,-0.96913695,8.025001,52.65,-8.325001,-0.35279402,-0.4927485,0.34282306,999.3254, , , , 
2025-11-24 19:40:18.780,2.725425,-9.293723,0.5096712,0.36926776,-1.0552689,-0.8836159,9.075001,52.781254,-9.225,-0.34442222,-0.49911717,0.3426093,999.3254, , , , 
2025-11-24 19:40:18.799,3.1274192,-8.997013,3.0867412,0.18600832,-1.082147,-0.84024453,5.45625,52.275,-8.6625,-0.33316937,-0.51066405,0.3413563,999.3105, , , , 
2025-11-24 19:40:18.820,2.8235307,-8.817552,3.9050865,0.25320345,-1.0076214,-0.84146625,3.7500002,53.100002,-10.5375,-0.32430086,-0.51968557,0.3403193,999.3105, , , , 
2025-11-24 19:40:18.840,2.012364,-8.618947,4.8287163,0.45784315,-0.6911935,-0.7638864,5.83125,54.693752,-10.837501,-0.3153195,-0.52667385,0.33950993,999.29974, , , , 
2025-11-24 19:40:18.859,1.402194,-8.372486,4.8502517,0.7803798,-0.64293516,-0.6722567,4.40625,51.187504,-11.587501,-0.3058449,-0.5308051,0.3399085,999.29974, , , , 
2025-11-24 19:40:18.879,0.9523434,-7.9298143,3.6873398,1.0290017,-0.6716458,-0.57757264,3.075,53.30625,-12.168751,-0.2947584,-0.5335191,0.34252435,999.3049, , , , 
2025-11-24 19:40:18.899,0.65084773,-7.2957163,1.7060826,1.0344995,-0.68019795,-0.45601055,0.76875,53.437504,-12.712501,-0.280146,-0.5360767,0.34781775,999.3049, , , , 
2025-11-24 19:40:18.921,0.6364908,-6.8243303,1.0360922,0.91904604,-0.7144064,-0.34666577,0.95625,50.60625,-13.650001,-0.27213058,-0.5377418,0.35128105,999.31854, , , , 
2025-11-24 19:40:18.939,1.18684,-6.498906,0.53359944,0.7803798,-0.7510582,-0.22693627,-0.4875,51.45,-13.387501,-0.26047194,-0.54102397,0.35723314,999.31854, , , , 
2025-11-24 19:40:18.960,1.7946169,-6.5515485,-0.17706887,0.521984,-0.6386591,-0.16829325,-0.50625,51.843754,-16.5,-0.2527202,-0.54416174,0.361535,999.33246, , , , 
2025-11-24 19:40:18.980,1.9621146,-6.778867,0.35174492,0.36254823,-0.47739083,-0.12370012,0.375,51.825,-16.743752,-0.24854068,-0.54635847,0.36385575,999.33246, , , , 
2025-11-24 19:40:18.999,2.507678,-6.9702926,0.7609176,0.19211698,-0.3197877,-0.05589413,-1.81875,51.3375,-14.94375,-0.24426723,-0.54892224,0.3665492,999.33905, , , , 
2025-11-24 19:40:19.019,2.8570302,-7.056434,0.5599205,0.05894845,-0.286801,-0.027794348,-2.3812501,50.756252,-13.6125,-0.24249785,-0.5506203,0.36796376,999.33905, , , , 
2025-11-24 19:40:19.039,2.926422,-8.221739,0.61016977,-0.22754712,-0.19944735,0.029016078,-0.75,52.068752,-16.800001,-0.24247222,-0.55337733,0.36851472,999.3437, , , , 
2025-11-24 19:40:19.059,2.751746,-9.449257,2.0291135,-0.37843072,-0.010079269,0.15729769,-2.79375,50.9625,-13.275001,-0.24526556,-0.5550501,0.3680076,999.3437, , , , 
2025-11-24 19:40:19.079,3.0699914,-9.827323,2.565106,-0.4083631,0.09010255,0.31245732,-1.06875,49.912502,-15.4125,-0.25004175,-0.5553391,0.3678153,999.352, , , , 
2025-11-24 19:40:19.099,3.6490545,-9.497113,2.3425734,-0.47067133,0.12125666,0.47739083,-0.16875,51.61875,-13.593751,-0.255965,-0.55493706,0.36831215,999.352, , , , 
2025-11-24 19:40:19.119,4.3238306,-9.363115,2.6895328,-0.5280926,0.18723005,0.59528774,0.375,50.68125,-13.743751,-0.2630707,-0.55425143,0.36915708,999.35785, , , , 
2025-11-24 19:40:19.140,4.7114677,-9.934999,2.4382863,-0.49938196,0.17134757,0.67958707,0.20625001,51.9,-14.418751,-0.27094448,-0.5529732,0.37037975,999.35785, , , , 
2025-11-24 19:40:19.160,5.005785,-10.526027,1.5864414,-0.5708531,0.019853106,0.75899947,1.5937501,52.29375,-13.81875,-0.28108236,-0.55191314,0.3727886,999.3625, , , , 
2025-11-24 19:40:19.180,5.76431,-10.853844,1.6342978,-0.72356933,-0.06750056,0.76022124,2.8875,52.18125,-14.250001,-0.2875721,-0.55227363,0.37407514,999.3625, , , , 
2025-11-24 19:40:19.199,6.343373,-11.253445,3.3499517,-0.69546956,0.029016078,0.7809906,7.5000005,51.675003,-15.937501,-0.29898262,-0.55312747,0.37585488,999.36566, , , , 
2025-11-24 19:40:19.220,6.754938,-10.628919,3.7830527,-0.54825115,0.17989968,0.70951945,4.5750003,51.112503,-13.9125,-0.30544153,-0.55271316,0.3769556,999.36566, , , , 
2025-11-24 19:40:19.240,6.355337,-9.638289,3.5174494,-0.3252855,0.47006044,0.56535536,5.1000004,52.500004,-11.418751,-0.31468737,-0.54982895,0.37813765,999.3691, , , , 
2025-11-24 19:40:19.259,5.922236,-8.60459,2.053042,-0.15546508,0.62888527,0.41752607,4.0125003,52.143753,-11.2875,-0.3208119,-0.5454309,0.37842777,999.3691, , , , 
2025-11-24 19:40:19.279,5.2259245,-8.946764,0.69152576,-0.15241076,0.5158753,0.29107708,3.825,51.24375,-10.59375,-0.32583886,-0.54099375,0.37813312,999.36346, , , , 
2025-11-24 19:40:19.299,3.6921253,-9.877572,-0.12203395,-0.28130323,0.4828886,0.21838416,6.39375,51.750004,-10.125,-0.33040336,-0.5378439,0.37720174,999.36346, , , , 
2025-11-24 19:40:19.320,2.8498518,-10.18146,0.45702913,-0.4743365,0.5610793,0.2037234,5.5875,52.800003,-10.087501,-0.33618724,-0.53527063,0.37529442,999.3515, , , , 
2025-11-24 19:40:19.339,0.40917268,-10.748559,1.9884356,-0.539699,0.69730216,0.24953826,7.9687505,53.775,-9.168751,-0.34515694,-0.53184944,0.37147096,999.3515, , , , 
2025-11-24 19:40:19.359,-0.20817557,-10.258031,2.2492533,-0.4395172,0.8158099,0.4816669,7.4812503,52.218754,-8.1,-0.35376164,-0.5268373,0.36937058,999.34174, , , , 
2025-11-24 19:40:19.380,-0.12203395,-9.186047,1.2299109,-0.3686569,0.7021891,0.6539307,7.2562504,53.30625,-7.2187505,-0.3627125,-0.5206833,0.3690157,999.34174, , , , 
2025-11-24 19:40:19.399,0.3493521,-7.865208,0.24885355,-0.3924806,0.5439751,0.8182534,8.85,51.6375,-9.450001,-0.37170556,-0.51490647,0.37009686,999.3261, , , , 
2025-11-24 19:40:19.420,1.0049855,-7.159325,-0.038285162,-0.46517354,0.4016436,0.9288199,10.03125,51.6375,-9.731251,-0.38103145,-0.5099141,0.37216282,999.3261, , , , 
2025-11-24 19:40:19.439,2.0602202,-6.9344,0.29910284,-0.5684097,0.24159703,1.0265583,10.59375,51.787502,-5.925,-0.3906803,-0.5059633,0.3749089,999.3051, , , , 
2025-11-24 19:40:19.459,3.2757742,-6.826723,1.4787644,-0.63316137,0.22082762,1.0803144,11.08125,51.225002,-7.0312505,-0.40313756,-0.501921,0.3786632,999.3051, , , , 
2025-11-24 19:40:19.480,4.476971,-6.8099732,2.4478576,-0.59712034,0.3252855,1.0876447,14.625001,51.45,-5.71875,-0.4131579,-0.4983032,0.38149753,999.29364, , , , 
2025-11-24 19:40:19.500,5.845666,-6.5682983,2.7613173,-0.4883864,0.4327977,0.9984585,14.962501,50.86875,-7.2562504,-0.42258903,-0.49378005,0.38383037,999.29364, , , , 
2025-11-24 19:40:19.520,6.920043,-6.7836523,2.5196424,-0.47372565,0.5384773,0.8481857,16.78125,51.300003,-6.0937505,-0.4310774,-0.48895186,0.3850735,999.2714, , , , 
2025-11-24 19:40:19.539,8.114061,-7.219146,2.9383862,-0.42729992,0.5904008,0.6820305,16.7625,51.281254,-4.6875,-0.4388934,-0.48424256,0.3848971,999.2714, , , , 
2025-11-24 19:40:19.559,9.111869,-7.3340015,3.0077782,-0.39370236,0.6191115,0.50304717,16.893751,50.550003,-4.2000003,-0.44559342,-0.4798664,0.38363802,999.2646, , , , 
2025-11-24 19:40:19.579,9.568898,-7.6426754,3.7663028,-0.41263917,0.6007855,0.35766134,16.48125,50.737503,-3.3937502,-0.4512908,-0.47618034,0.38112062,999.2646, , , , 
2025-11-24 19:40:19.599,10.169497,-8.432307,5.3336015,-0.29901832,0.47739083,0.19211698,16.425001,50.475002,-2.60625,-0.45578486,-0.47332382,0.37788463,999.26044, , , , 
2025-11-24 19:40:19.620,10.722239,-9.109476,5.6470613,-0.0650571,0.20861033,0.029016078,16.987501,49.66875,-2.30625,-0.45777875,-0.47147223,0.37519374,999.26044,37.8875933,127.74025239,143.718505859375,1.46
2025-11-24 19:40:19.640,10.997413,-9.812965,4.831109,0.1273653,-0.040011644,-0.16768238,17.081251,50.906254,-1.1625,-0.45581523,-0.47150403,0.37334913,999.2607, , , , 
2025-11-24 19:40:19.659,10.679168,-10.796415,4.520042,0.20189081,-0.1414152,-0.34483317,16.931252,50.79375,-3.45,-0.45189643,-0.4731896,0.37204865,999.2607, , , , 
2025-11-24 19:40:19.679,9.772287,-12.052648,4.290331,0.23243405,-0.20311254,-0.48044515,18.225,51.412502,-3.0,-0.44677812,-0.47578895,0.3704156,999.2641, , , , 
2025-11-24 19:40:19.699,9.131011,-12.873385,4.56072,0.26725334,-0.33139414,-0.6368265,15.993751,51.300003,-2.30625,-0.44082892,-0.4792001,0.36857036,999.2641, , , , 
2025-11-24 19:40:19.720,8.097312,-12.9643135,5.0536413,0.35338527,-0.46700612,-0.6893609,16.050001,50.812504,-2.11875,-0.4336059,-0.48361358,0.36691415,999.2734, , , , 
2025-11-24 19:40:19.739,6.678368,-12.031113,5.6279187,0.57879436,-0.61117023,-0.71074116,17.118752,51.45,-5.9812503,-0.42490143,-0.4883235,0.36635956,999.2734, , , , 
2025-11-24 19:40:19.759,6.0227346,-9.583255,4.9028935,0.8683443,-0.7950405,-0.70768684,14.94375,51.600002,-5.90625,-0.4112441,-0.49395293,0.3682403,999.26874, , , , 
2025-11-24 19:40:19.780,5.2929235,-8.236095,3.4456646,1.018617,-0.98624116,-0.7761037,16.143751,50.86875,-7.8562503,-0.3978003,-0.4991015,0.3713673,999.26874, , , , 
2025-11-24 19:40:19.799,4.7832522,-8.042277,2.1870399,1.046106,-1.0748166,-0.8384119,18.225,50.850002,-9.76875,-0.38307315,-0.5050918,0.37493724,999.26263, , , , 
2025-11-24 19:40:19.820,3.6873398,-8.446664,0.67477596,0.94164807,-1.1108576,-0.9043853,11.118751,51.975002,-8.775001,-0.36797267,-0.5118841,0.37816012,999.26263, , , , 
2025-11-24 19:40:19.839,2.6895328,-8.633304,0.2632105,0.6960804,-1.0363321,-0.8940006,13.575001,51.525,-12.8625,-0.35401356,-0.5191264,0.3803343,999.25507, , , , 
2025-11-24 19:40:19.859,2.0386848,-9.186047,1.3854443,0.42363474,-0.9605849,-0.85734874,10.125,51.16875,-12.168751,-0.34232685,-0.5265384,0.38110727,999.25507, , , , 
2025-11-24 19:40:19.879,1.3686945,-10.24846,3.2638102,0.33505934,-0.9789108,-0.82252944,8.325001,52.4625,-11.2875,-0.33006558,-0.5357622,0.38098183,999.25946, , , , 
2025-11-24 19:40:19.901,0.15553348,-10.243673,3.8093736,0.39614582,-0.9972367,-0.72295845,7.9875,51.45,-12.431251,-0.3204775,-0.5427975,0.3814628,999.25946, , , , 
2025-11-24 19:40:19.919,0.16749759,-9.741181,3.830909,0.4346303,-0.9355394,-0.57390743,8.175,51.600002,-13.06875,-0.3134978,-0.5475008,0.38259104,999.25726, , , , 
2025-11-24 19:40:19.940,0.849452,-8.7984085,3.414558,0.47372565,-0.84329885,-0.4486802,5.6625004,52.2,-12.843751,-0.30287665,-0.55371016,0.3856294,999.25726, , , , 
2025-11-24 19:40:19.959,2.036292,-8.087741,2.5435705,0.4138609,-0.8329141,-0.41996953,4.5750003,52.706253,-11.83125,-0.29493597,-0.5580611,0.38834664,999.27094, , , , 
2025-11-24 19:40:19.980,2.8833513,-8.126026,2.0386848,0.26603162,-0.7315106,-0.46028662,3.91875,52.275,-12.975,-0.28750396,-0.5627712,0.39025486,999.27094, , , , 
2025-11-24 19:40:19.999,3.7471602,-8.9108715,2.0338993,0.12186752,-0.4847212,-0.5561924,2.86875,51.43125,-13.275001,-0.2812115,-0.5672659,0.39036405,999.288, , , , 
2025-11-24 19:40:20.019,4.113262,-8.626125,1.5337993,0.058337588,-0.20922118,-0.47800168,2.3812501,51.99375,-12.187501,-0.27629593,-0.5706355,0.38877,999.288, , , , 
2025-11-24 19:40:20.039,6.3290157,-7.9130645,1.713261,-0.123089254,-0.1725693,-0.3808742,1.8375001,52.068752,-13.51875,-0.2729556,-0.57347834,0.3857682,999.30536, , , , 
2025-11-24 19:40:20.059,8.147561,-7.3028946,3.237489,-0.01802051,-0.43218684,-0.43890634,2.2125,51.112503,-12.88125,-0.27018788,-0.57673675,0.3832957,999.30536, , , , 
2025-11-24 19:40:20.079,9.272188,-6.8243303,2.9742785,0.20922118,-0.49938196,-0.79015356,1.5375,52.031254,-13.8,-0.26417106,-0.5810946,0.3811669,999.32367, , , , 
2025-11-24 19:40:20.099,7.243074,-7.8436728,3.3786657,0.46089748,-0.4572323,-1.0711514,-1.63125,51.693752,-12.356251,-0.255063,-0.585422,0.37763932,999.32367, , , , 
2025-11-24 19:40:20.119,5.7930236,-8.525627,2.0386848,0.7027999,-0.43829548,-1.145066,-0.73125005,52.425003,-13.575001,-0.24337968,-0.588841,0.37472358,999.34076, , , , 
2025-11-24 19:40:20.140,4.895715,-8.664411,0.65324056,0.7626647,-0.34177884,-1.1560616,-0.35625002,51.975002,-15.6,-0.23068321,-0.5913628,0.37254003,999.34076, , , , 
2025-11-24 19:40:20.159,3.6681972,-9.056833,0.5096712,0.66065025,-0.15485422,-1.1291835,-2.5125,49.893753,-16.5,-0.21607517,-0.5935293,0.36924756,999.34, , , , 
2025-11-24 19:40:20.180,2.8977082,-9.702896,1.1629118,0.64354604,0.0015271619,-1.1120794,-4.425,51.318752,-16.837502,-0.20603032,-0.59395033,0.36605546,999.34, , , , 
2025-11-24 19:40:20.199,1.713261,-10.188639,-0.28953153,0.64537865,0.4071414,-0.9776891,-6.0,50.906254,-15.262501,-0.19697668,-0.59267706,0.3630795,999.3427, , , , 
2025-11-24 19:40:20.220,1.39023,-10.001999,-1.4141582,0.4987711,1.0167844,-0.74372786,-7.5750003,49.500004,-16.087502,-0.1927291,-0.5892611,0.36075023,999.3427, , , , 
2025-11-24 19:40:20.239,0.97866446,-9.071191,-2.981457,0.044898562,1.045495,-0.6044507,-5.4187503,51.468754,-16.743752,-0.19118291,-0.5804475,0.35564846,999.34174, , , , 
2025-11-24 19:40:20.259,-0.48095736,-8.786445,-1.9669002,-0.39736754,0.788321,-0.29779658,-8.19375,50.062504,-16.837502,-0.19370607,-0.5756178,0.3501484,999.34174, , , , 
2025-11-24 19:40:20.279,0.76331043,-7.8987074,0.043070808,-0.53053606,0.5995638,0.17806709,-6.01875,51.300003,-17.90625,-0.19989428,-0.5726391,0.3459404,999.33856, , , , 
2025-11-24 19:40:20.300,2.6225336,-7.499106,0.9164511,-0.5378664,0.24220788,0.4242456,-4.8187504,51.54375,-16.800001,-0.20773052,-0.57040864,0.3443599,999.33856, , , , 
2025-11-24 19:40:20.320,4.8789654,-7.432107,1.0193424,-0.45906487,-0.10293072,0.5751292,-6.3562503,51.24375,-15.39375,-0.21497053,-0.5702155,0.34499922,999.3405, , , , 
2025-11-24 19:40:20.340,6.4055862,-7.881958,1.3734802,-0.5702423,-0.13897173,0.43890634,-4.70625,52.162502,-16.237501,-0.22263421,-0.57249415,0.34654224,999.3405, , , , 
2025-11-24 19:40:20.359,6.3050876,-8.429914,2.8761728,-0.5317578,0.11636974,0.35338527,-5.1937504,51.975002,-14.475,-0.22726186,-0.5736085,0.34638917,999.34125, , , , 
2025-11-24 19:40:20.380,6.2117677,-8.276773,3.07717,-0.41447175,0.44379327,0.19700389,-4.18125,51.093754,-15.76875,-0.23456834,-0.572651,0.34508198,999.34125, , , , 
2025-11-24 19:40:20.399,5.2019963,-8.329415,4.6492543,-0.25076,0.8451314,0.1065959,-0.71250004,51.468754,-18.31875,-0.23998225,-0.5691894,0.34292948,999.3415, , , , 
2025-11-24 19:40:20.419,4.278367,-8.413164,5.7786665,0.0772744,1.1640029,0.19761476,-3.54375,50.775,-14.118751,-0.24496068,-0.56222224,0.34126428,999.3415, , , , 
2025-11-24 19:40:20.439,5.4317074,-6.869794,4.816752,0.41752607,1.2812889,0.16646065,-3.24375,51.54375,-14.043751,-0.24899939,-0.55132145,0.34142247,999.3393, , , , 
2025-11-24 19:40:20.460,3.35713,-5.599205,1.2634103,0.31612253,0.73212147,-0.12553272,-1.2375001,51.15,-16.706251,-0.2491203,-0.5408825,0.34142527,999.3393, , , , 
2025-11-24 19:40:20.479,3.802195,-4.6636114,-0.8111669,-0.097432934,0.9984585,-0.062613636,-2.2875001,50.41875,-15.31875,-0.2500269,-0.53646827,0.34020627,999.3393, , , , 
2025-11-24 19:40:20.499,4.9770713,-5.6997037,2.8977082,-0.47677997,1.4291182,0.33994624,-0.91875005,51.187504,-17.04375,-0.25969797,-0.5260485,0.3357721,999.3173, , , , 
2025-11-24 19:40:20.520,5.95095,-5.8672013,4.304688,-0.2886336,1.046106,0.1707367,-1.3687501,52.125004,-14.7375,-0.26797232,-0.51749605,0.33233574,999.2817, , , , 
2025-11-24 19:40:20.540,6.5922265,-5.2546387,2.5196424,-0.21471897,1.0204496,-0.04612029,-1.06875,51.393753,-14.418751,-0.27290964,-0.5107602,0.32937753,999.2817, , , , 
2025-11-24 19:40:20.560,3.3930225,-5.5776696,-1.6797615,-1.5183045,1.7180572,-1.0406082,-0.54375005,51.825,-14.343751,-0.27825588,-0.50496286,0.32038033,999.2348, , , , 
2025-11-24 19:40:20.580,4.199404,-5.8217373,0.62452674,-2.14383,1.0668753,0.72662365,-0.35625002,52.2,-12.675,-0.29481497,-0.50257623,0.30612957,999.2348, , , , 
2025-11-24 19:40:20.599,7.7001033,-6.7501526,3.0436704,-1.6924008,1.764483,0.39858928,-0.975,50.756252,-10.06875,-0.32269782,-0.49229372,0.29321057,999.19305, , , , 
2025-11-24 19:40:20.620,6.099305,-7.678568,2.5339992,-1.1273509,1.2098176,0.10354158,-0.056250002,52.4625,-9.337501,-0.3349088,-0.48646995,0.28548765,999.19305,37.88760553,127.74024719,143.9725341796875,1.39
2025-11-24 19:40:20.639,4.007978,-8.348558,2.644069,-0.4083631,0.9025527,0.07116575,1.2375001,53.193752,-7.5000005,-0.3465269,-0.47955382,0.27668574,999.1628, , , , 
2025-11-24 19:40:20.659,3.345166,-9.683753,3.0843484,0.1310305,0.9758565,0.2715294,1.2,52.95,-8.25,-0.35122716,-0.47244853,0.27441892,999.1628, , , , 
2025-11-24 19:40:20.680,4.342973,-10.920842,5.072784,0.22327107,0.85795957,0.23243405,1.7625,52.031254,-9.4875,-0.3539634,-0.46343014,0.27429467,999.1418, , , , 
2025-11-24 19:40:20.699,5.938986,-9.32483,7.7240314,0.4987711,0.11759147,0.123089254,0.90000004,53.04375,-7.6125,-0.354277,-0.45698485,0.27510843,999.1418, , , , 
2025-11-24 19:40:20.721,6.4558353,-8.659625,5.235496,0.8640682,-0.29107708,0.10598504,4.2562504,52.256252,-7.2937503,-0.34932902,-0.4549673,0.27912045,999.1252, , , , 
2025-11-24 19:40:20.739,6.283552,-9.468399,1.8592232,0.6960804,-0.22999059,0.35033095,3.1875002,53.4,-8.493751,-0.34299868,-0.45400685,0.2851664,999.1252, , , , 
2025-11-24 19:40:20.760,5.9653068,-10.04507,1.4452649,0.06750056,-0.6411026,0.571464,5.3250003,52.162502,-11.26875,-0.34112963,-0.45460385,0.2926884,999.1176, , , , 
2025-11-24 19:40:20.780,5.5369916,-10.406385,1.0504491,-0.003970621,-1.2434152,0.69913477,6.1125,51.61875,-12.093751,-0.34154844,-0.45807284,0.29829472,999.1176, , , , 
2025-11-24 19:40:20.799,5.541777,-10.399207,0.25842485,-0.19089524,-1.3961314,0.8023709,5.4750004,51.54375,-10.1625,-0.3415776,-0.46859553,0.31024638,999.1247, , , , 
2025-11-24 19:40:20.820,6.113662,-9.619147,1.4237294,-0.7009673,-0.6013964,1.0302235,5.9812503,52.4625,-11.043751,-0.34546393,-0.47524762,0.3185686,999.1247, , , , 
2025-11-24 19:40:20.840,7.1473613,-8.721839,3.455236,-1.0705405,-0.17684536,1.0607667,5.7562504,52.312504,-9.0,-0.35509503,-0.47759685,0.3234213,999.12714, , , , 
2025-11-24 19:40:20.859,9.284152,-8.953942,5.312066,-1.1829396,-0.3442223,0.7644973,6.95625,52.537502,-6.9750004,-0.36639127,-0.4795476,0.325747,999.12714, , , , 
2025-11-24 19:40:20.879,11.729616,-9.446864,7.1282187,-1.1389574,-0.2715294,0.3509418,6.0937505,51.825,-7.7812505,-0.3773996,-0.4848379,0.3251645,999.14105, , , , 
2025-11-24 19:40:20.899,14.002798,-8.839087,9.2793665,-1.0742058,-0.0058032153,-0.041233372,7.2000003,52.312504,-6.99375,-0.38395593,-0.4888473,0.32121256,999.14105, , , , 
2025-11-24 19:40:20.920,14.347364,-8.331808,11.5932255,-0.89094627,0.21349724,-0.4480693,6.99375,52.162502,-5.4187503,-0.3872163,-0.49135444,0.31570554,999.14276, , , , 
2025-11-24 19:40:20.939,14.395221,-7.133004,12.57189,-0.16707152,0.1414152,-0.9343177,7.70625,52.218754,-3.6375,-0.3872217,-0.49458277,0.30428833,999.14276, , , , 
2025-11-24 19:40:20.959,14.493327,-6.0825553,11.143375,0.7547234,-0.20677772,-1.3234385,4.6125,54.2625,-3.5812502,-0.37895766,-0.49749154,0.296686,999.1408, , , , 
2025-11-24 19:40:20.979,14.610575,-5.2259245,9.188439,1.4963133,-0.61178106,-1.7449353,3.61875,53.025,-2.6437502,-0.36121708,-0.50230646,0.29183438,999.1408, , , , 
2025-11-24 19:40:20.999,13.194024,-5.345566,6.0729837,2.0069962,-0.9080505,-2.2531748,1.2375001,52.575,-6.99375,-0.33498335,-0.50966877,0.2880795,999.1591, , , , 
2025-11-24 19:40:21.020,11.954542,-6.3768725,4.871787,1.9837834,-0.84085536,-2.4804165,-1.8375001,52.500004,-7.2937503,-0.3050416,-0.51807916,0.28317705,999.1591, , , , 
2025-11-24 19:40:21.039,10.131211,-7.542177,4.7784667,1.8011348,-0.69180435,-2.5702136,-2.60625,51.225002,-12.075001,-0.27536058,-0.5261169,0.2762216,999.1689, , , , 
2025-11-24 19:40:21.059,9.394221,-8.563912,5.4556355,1.7809763,-0.5549707,-2.5983133,-5.3250003,52.312504,-11.85,-0.24690713,-0.5326799,0.26795322,999.1689, , , , 
2025-11-24 19:40:21.079,8.788837,-9.188439,5.74756,1.8713843,-0.6832523,-2.6606216,-6.0750003,50.5125,-14.45625,-0.21127157,-0.5393938,0.2571284,999.17694, , , , 
2025-11-24 19:40:21.100,7.771888,-9.942178,5.0656056,2.0381503,-0.7351758,-2.7559164,-8.625,50.662502,-18.993752,-0.18112853,-0.54494256,0.24881683,999.17694, , , , 
2025-11-24 19:40:21.119,6.364908,-9.568898,3.5198421,1.773035,-0.8310815,-2.7455318,-11.8125,48.600002,-18.84375,-0.15049148,-0.5499486,0.2401376,999.18085, , , , 
2025-11-24 19:40:21.140,4.910072,-8.796016,3.2925239,1.3942989,-0.95020014,-2.6111414,-16.44375,48.24375,-17.71875,-0.122515105,-0.55639946,0.23001713,999.18085, , , , 
2025-11-24 19:40:21.160,3.426522,-8.7673025,3.3810585,1.3466514,-0.9819651,-2.1963644,-18.69375,47.15625,-19.275002,-0.09180939,-0.5646049,0.21807244,999.19086, , , , 
2025-11-24 19:40:21.179,2.036292,-8.451449,4.362116,1.397964,-1.2287545,-1.8921536,-20.212502,46.125,-19.81875,-0.074782796,-0.5695577,0.21300359,999.19086, , , , 
2025-11-24 19:40:21.199,2.2181466,-8.181061,1.847259,1.3503166,-1.6820161,-1.4321724,-23.8125,42.768753,-20.493752,-0.047585215,-0.58021224,0.20897889,999.21674, , , , 
2025-11-24 19:40:21.219,2.1463618,-7.1784678,0.9068798,0.9605849,-1.7205007,-1.0766492,-26.343752,43.36875,-19.181252,-0.02895188,-0.59121317,0.20759979,999.21674, , , , 
2025-11-24 19:40:21.239,2.3976083,-6.91765,0.67477596,0.59162253,-1.4272856,-0.8170316,-26.868752,41.456253,-19.48125,-0.01491975,-0.6020638,0.20627555,999.2243, , , , 
2025-11-24 19:40:21.260,1.9118652,-6.8482585,0.36370903,0.2800815,-0.959974,-0.6948587,-27.562502,41.643753,-20.19375,-0.0053294944,-0.6109077,0.20434766,999.2243, , , , 
2025-11-24 19:40:21.280,0.3589234,-5.9964137,-0.31345975,-0.037568185,-0.3008509,-0.44257152,-27.562502,41.006252,-18.150002,7.349116E-5,-0.61615634,0.20166616,999.2233, , , , 
2025-11-24 19:40:21.300,-0.2440679,-5.144569,-0.6053841,-0.34300056,0.28435755,-0.066889696,-27.975,40.350002,-19.612501,1.3264998E-4,-0.6174606,0.19922885,999.2233, , , , 
2025-11-24 19:40:21.320,-0.5168497,-4.792824,-0.7752745,-0.52687085,0.7351758,0.25686863,-29.025002,41.625,-20.19375,-0.0050090714,-0.6150927,0.19775303,999.21234, , , , 
2025-11-24 19:40:21.339,-0.91166544,-5.072784,-0.99302137,-0.56902057,0.49999282,0.56535536,-28.500002,40.66875,-19.25625,-0.01571901,-0.6101125,0.19791555,999.21234, , , , 
2025-11-24 19:40:21.359,0.43070808,-6.166304,-0.997807,-0.54580766,-0.040622506,0.84452057,-27.187502,40.443752,-21.862501,-0.023008253,-0.60918236,0.19961777,999.2121, , , , 
2025-11-24 19:40:21.380,2.0291135,-7.9106717,-1.6127625,-0.6233875,-0.27763805,0.92393297,-26.550001,41.49375,-20.2875,-0.033221148,-0.61112183,0.20359303,999.2121, , , , 
2025-11-24 19:40:21.399,1.7898313,-8.999406,-1.8831514,-0.8940006,0.123089254,0.96791524,-24.468752,43.0875,-21.375,-0.048048317,-0.61471593,0.20815887,999.216, , , , 
2025-11-24 19:40:21.421,1.1988041,-8.743374,-1.8687944,-1.095586,0.56291187,1.2177589,-23.2875,45.43125,-19.612501,-0.06337391,-0.6145498,0.21105391,999.216, , , , 
2025-11-24 19:40:21.439,1.5050855,-8.573483,-1.3495519,-1.4266747,0.846964,1.4291182,-21.46875,45.112503,-17.775002,-0.08267146,-0.611698,0.21399492,999.21454, , , , 
2025-11-24 19:40:21.459,1.2969099,-8.707481,-0.3278167,-1.736994,1.1151336,1.628871,-21.35625,45.73125,-17.0625,-0.10609566,-0.6068553,0.21604279,999.21454, , , , 
2025-11-24 19:40:21.479,1.0456635,-8.91805,1.672583,-1.872606,1.0149518,1.9599596,-18.9375,48.3375,-16.21875,-0.14018898,-0.59866893,0.21853714,999.2187, , , , 
2025-11-24 19:40:21.499,2.1296122,-9.133404,3.1633115,-1.7528765,0.6850849,2.2989895,-19.518751,48.525,-14.94375,-0.16897924,-0.5925154,0.22322981,999.2187, , , , 
2025-11-24 19:40:21.519,4.3645086,-9.126225,3.897908,-1.5262456,0.33933538,2.5561638,-15.187501,49.706253,-14.38125,-0.19710378,-0.58730906,0.23147608,999.22894, , , , 
2025-11-24 19:40:21.539,7.372287,-9.035298,4.613362,-1.2977822,0.15546508,2.6019785,-13.218751,50.1375,-12.3,-0.22326304,-0.5830615,0.24232072,999.22894, , , , 
2025-11-24 19:40:21.560,9.815358,-7.867601,5.4723854,-1.1255183,0.32284203,2.4755294,-8.793751,51.7125,-12.543751,-0.2530189,-0.57672876,0.2562134,999.2619, , , , 
2025-11-24 19:40:21.579,10.844273,-7.578069,5.541777,-1.0302235,0.41325003,2.3386958,-6.3750005,51.468754,-12.168751,-0.26928386,-0.5720373,0.2638419,999.2619, , , , 
2025-11-24 19:40:21.599,11.837294,-7.001399,5.261817,-0.8994984,0.56352276,1.9532402,-5.25,53.550003,-9.918751,-0.29314473,-0.56324226,0.27419716,999.2807, , , , 
2025-11-24 19:40:21.620,12.074183,-6.1806607,5.4484572,-0.88422674,0.5201514,1.6704098,-4.4437504,53.1375,-10.762501,-0.30565107,-0.55798167,0.27856377,999.2807,37.88761714,127.74024038,143.66314697265625,1.44
2025-11-24 19:40:21.639,12.794423,-5.5465627,5.4676,-0.8994984,0.3197877,1.3338232,-2.1937501,54.225002,-8.887501,-0.32357058,-0.5515195,0.28338596,999.29706, , , , 
2025-11-24 19:40:21.659,13.179667,-6.431907,5.773881,-0.82252944,0.4150826,0.95447624,-1.0125,54.468754,-7.33125,-0.33526576,-0.547895,0.28489083,999.29706, , , , 
2025-11-24 19:40:21.680,12.354143,-7.353144,6.5108705,-0.64293516,0.5250383,0.6997456,-1.0875001,54.187504,-6.0750003,-0.34457076,-0.5441863,0.2842822,999.3051, , , , 
2025-11-24 19:40:21.699,11.954542,-7.759924,6.7812595,-0.38698283,0.5818487,0.5561924,2.8312502,53.11875,-7.3500004,-0.35173035,-0.53962356,0.28344122,999.3051, , , , 
2025-11-24 19:40:21.720,12.014362,-7.5637126,7.1784678,-0.18661919,0.37171122,0.51404274,0.58125,53.737503,-5.45625,-0.3568495,-0.5349152,0.28307414,999.3061, , , , 
2025-11-24 19:40:21.741,12.703495,-6.920043,7.704889,0.06139191,0.11026109,0.4761691,2.8875,54.3375,-5.26875,-0.35944846,-0.5313814,0.2844103,999.3061, , , , 
2025-11-24 19:40:21.759,13.950156,-6.4845495,7.688139,0.45784315,-0.23365578,0.31245732,4.4437504,52.406254,-8.1,-0.3576167,-0.52915883,0.2890923,999.30414, , , , 
2025-11-24 19:40:21.780,14.689538,-6.7094746,7.692925,0.69363695,-0.32100943,-0.08277218,2.60625,54.318752,-5.55,-0.351784,-0.5290279,0.29309294,999.30414, , , , 
2025-11-24 19:40:21.799,13.9166565,-6.431907,8.099705,1.0363321,-0.35888305,-0.503658,5.15625,54.468754,-8.2875,-0.34178653,-0.53053707,0.29597363,999.3217, , , , 
2025-11-24 19:40:21.820,11.956935,-6.1399827,9.353543,1.5274674,-0.6093376,-0.40408704,1.725,53.49375,-7.4062505,-0.32789817,-0.5316685,0.2991947,999.3217, , , , 
2025-11-24 19:40:21.839,10.549955,-5.218746,9.583255,1.9556836,-0.84146625,-0.12492185,1.1625,52.706253,-9.31875,-0.3109607,-0.53199136,0.3072074,999.36346, , , , 
2025-11-24 19:40:21.859,10.382458,-5.4341,8.985049,2.1920884,-1.045495,0.11514801,1.9312501,53.30625,-12.975,-0.29212084,-0.53158617,0.31986332,999.36346, , , , 
2025-11-24 19:40:21.879,10.083355,-5.285745,8.34138,2.2562292,-1.2183698,0.04612029,-0.24375,52.8375,-11.34375,-0.2721209,-0.5317332,0.3346695,999.3886, , , , 
2025-11-24 19:40:21.899,8.628518,-4.95075,7.0229344,2.4309363,-1.2910627,-0.19394957,0.41250002,50.175003,-12.806251,-0.24443732,-0.5325636,0.35279408,999.3886, , , , 
2025-11-24 19:40:21.920,7.7742805,-5.0392847,6.5108705,2.491412,-1.7773111,-0.27091852,-1.6500001,50.49375,-17.550001,-0.21991223,-0.53458184,0.36687517,999.38837, , , , 
2025-11-24 19:40:21.940,7.8053875,-5.2235317,6.233303,2.4309363,-2.2104142,-0.38148504,-0.6,51.24375,-18.9375,-0.19991511,-0.53818125,0.37788787,999.38837, , , , 
2025-11-24 19:40:21.959,9.296116,-7.891529,6.6448684,2.1639886,-2.6893322,-0.7498365,-1.4625001,48.825,-23.175001,-0.16417496,-0.5491759,0.39428174,999.38324, , , , 
2025-11-24 19:40:21.979,6.8171515,-6.920043,8.85823,2.0906847,-2.4443755,-1.1591159,-3.3000002,49.7625,-23.8125,-0.13417518,-0.55960387,0.4029289,999.38324, , , , 
2025-11-24 19:40:21.999,6.0083776,-7.331609,9.162118,2.2324054,-1.9062035,-1.1701115,-8.212501,47.268753,-23.775002,-0.10406513,-0.56690115,0.40999657,999.3764, , , , 
2025-11-24 19:40:22.019,5.020142,-6.9966135,8.525627,2.1988077,-1.1475095,-1.099862,-11.025001,46.0125,-27.581251,-0.076094635,-0.5692276,0.41652215,999.3764, , , , 
2025-11-24 19:40:22.039,4.113262,-6.876972,8.032705,2.2177446,-0.66065025,-0.937372,-9.375,43.21875,-29.60625,-0.051867075,-0.56642616,0.42269084,999.36664, , , , 
2025-11-24 19:40:22.060,4.0127635,-7.1210403,7.752745,2.3539674,-0.6881392,-0.7034108,-12.0,39.46875,-31.575,-0.024355566,-0.559294,0.4321274,999.36664, , , , 
2025-11-24 19:40:22.080,4.2951164,-7.0396843,7.62114,2.6086981,-1.0674862,-0.64476776,-10.575001,40.631252,-33.037502,-0.0014549374,-0.553584,0.44172138,999.3637, , , , 
2025-11-24 19:40:22.099,4.206582,-7.0348988,6.65444,2.7559164,-1.5036436,-0.8145882,-16.425001,38.643753,-31.218752,0.024795776,-0.54945,0.45178157,999.3637, , , , 
2025-11-24 19:40:22.120,3.7567315,-7.32443,5.608776,2.7070472,-1.7290528,-0.9434807,-15.525001,36.393753,-32.737503,0.054050438,-0.54719496,0.46063653,999.34564, , , , 
2025-11-24 19:40:22.139,1.861616,-7.408179,4.0941195,2.4443755,-1.7040073,-0.9929607,-18.393751,34.36875,-35.25,0.083535984,-0.5460494,0.46733528,999.34564, , , , 
2025-11-24 19:40:22.159,2.3904297,-7.4153576,2.8235307,1.9123122,-1.7021747,-0.6545416,-21.375,32.7,-34.3875,0.11592212,-0.5463423,0.4741589,999.3112, , , , 
2025-11-24 19:40:22.179,3.3690944,-7.704889,3.1800613,1.538463,-1.5818343,-0.5885682,-22.800001,31.312502,-36.16875,0.1317262,-0.5479851,0.47713065,999.3112, , , , 
2025-11-24 19:40:22.200,3.6777685,-8.365308,3.6370904,1.1499529,-1.4541636,-0.6789762,-22.987501,31.1625,-35.5125,0.1538496,-0.5515848,0.47942138,999.30096, , , , 
2025-11-24 19:40:22.219,3.103491,-8.860622,3.804588,1.0070106,-1.3234385,-0.6960804,-25.500002,28.181252,-35.7,0.16952997,-0.554562,0.47945082,999.30096, , , , 
2025-11-24 19:40:22.240,2.8235307,-9.23151,3.0005996,0.9184352,-1.1297944,-0.60872674,-25.275002,28.331251,-37.575,0.17999063,-0.5564199,0.47942466,999.30096, , , , 
2025-11-24 19:40:22.260,2.1774685,-9.353543,1.6366907,0.61422455,-0.7394518,-0.45417798,-27.73125,28.050001,-34.21875,0.19336043,-0.55851495,0.47960722,999.2961, , , , 
2025-11-24 19:40:22.279,1.2466606,-9.664611,1.1318051,0.3497201,-0.6649263,-0.17806709,-29.212502,25.9125,-32.86875,0.19989485,-0.56037205,0.4798469,999.29486, , , , 
2025-11-24 19:40:22.299,2.0745773,-10.066605,0.8135597,0.12797616,-0.7980948,0.21349724,-29.550001,26.268751,-35.15625,0.20315301,-0.5642122,0.48080373,999.29486, , , , 
2025-11-24 19:40:22.320,3.3284163,-11.030912,0.18664017,-0.011300999,-0.9966259,0.46273008,-28.218752,26.400002,-34.537502,0.20437837,-0.5703675,0.4824228,999.2885, , , , 
2025-11-24 19:40:22.339,3.4672,-11.174481,-0.43788654,-0.25076,-0.9257656,0.8035926,-28.25625,26.8875,-34.40625,0.20384286,-0.57888323,0.48444816,999.2885, , , , 
2025-11-24 19:40:22.360,3.871587,-10.667203,-0.2727818,-0.7504474,-0.53053606,1.2556325,-27.69375,29.04375,-33.35625,0.19627044,-0.59098613,0.48789257,999.27704, , , , 
2025-11-24 19:40:22.386,5.271388,-10.057034,1.3639089,-1.0919209,0.021685699,1.7302744,-27.712502,29.04375,-32.5875,0.17872263,-0.6029918,0.49236667,999.27704, , , , 
2025-11-24 19:40:22.399,7.3435726,-9.41815,1.119841,-1.0937533,0.21899502,1.8420627,-23.493752,28.518751,-37.162502,0.1649434,-0.609112,0.49595284,999.2736, , , , 
2025-11-24 19:40:22.420,6.135197,-10.353744,0.87338024,-1.0314451,0.014966187,1.7608178,-26.718752,31.0125,-32.643753,0.14663908,-0.61675984,0.50040483,999.2736, , , , 
2025-11-24 19:40:22.439,6.9583282,-9.74836,0.34456646,-0.98624116,-0.14935644,2.0680828,-25.800001,32.831253,-30.675001,0.12876005,-0.62491965,0.5054576,999.278, , , , 
2025-11-24 19:40:22.459,7.1976104,-9.075976,0.4426722,-0.9343177,-0.26908594,2.237903,-24.2625,36.73125,-31.837502,0.110624194,-0.63368756,0.5115314,999.278, , , , 
2025-11-24 19:40:22.479,7.7790666,-7.982456,0.6867401,-0.90743965,-0.19944735,2.3930628,-25.29375,36.112503,-30.300001,0.09212324,-0.64230156,0.5183457,999.27386, , , , 
2025-11-24 19:40:22.499,7.628319,-7.4105716,1.4787644,-0.90316355,0.03573559,2.5213444,-20.325,38.98125,-29.906252,0.0673819,-0.6512771,0.5275128,999.27386, , , , 
2025-11-24 19:40:22.520,7.795816,-6.355337,2.6656044,-0.8182534,0.38148504,2.609309,-20.1375,40.10625,-27.825,0.04564938,-0.65622544,0.5354884,999.2585, , , , 
2025-11-24 19:40:22.540,8.209774,-5.6279187,2.7326035,-0.6038398,0.25014913,2.740645,-19.275002,40.6875,-27.6375,0.028837195,-0.6582773,0.54228246,999.2585, , , , 
2025-11-24 19:40:22.559,9.30808,-4.8502517,2.751746,-0.3564396,-0.059559315,2.5854852,-16.893751,41.68125,-27.018751,0.0035624348,-0.66085017,0.55478126,999.2458, , , , 
2025-11-24 19:40:22.579,9.999606,-4.752146,2.2755744,-0.27275112,-0.3081813,2.39123,-12.993751,44.325,-27.581251,-0.0125403935,-0.6628926,0.56462795,999.2458, , , , 
2025-11-24 19:40:22.599,10.767702,-4.658826,2.0889342,-0.30207264,-0.56535536,2.0705261,-11.64375,45.206253,-27.31875,-0.02220191,-0.6649915,0.57118034,999.2458, , , , 
2025-11-24 19:40:22.619,11.203196,-4.3788652,2.7086751,-0.37048948,-0.82741636,1.6759075,-11.83125,44.30625,-26.475,-0.036065575,-0.6711093,0.58046174,999.24457,37.88762741,127.74023327,143.46795654296875,1.44
2025-11-24 19:40:22.639,12.023933,-4.249653,2.2875385,-0.4566214,-0.869566,1.3423754,-10.51875,45.9,-23.925001,-0.041613057,-0.676278,0.58441466,999.2375, , , , 
2025-11-24 19:40:22.660,12.689138,-4.199404,1.7371893,-0.66126114,-0.86529,1.0931425,-7.6125,45.73125,-25.7625,-0.04543172,-0.68235713,0.58611566,999.2375, , , , 
2025-11-24 19:40:22.679,13.749159,-4.1276193,1.8185452,-0.9410372,-0.6966913,0.79320794,-7.2375,47.5125,-26.681252,-0.04899016,-0.6894295,0.58481294,999.2336, , , , 
2025-11-24 19:40:22.700,15.175282,-3.9625144,4.115655,-1.1242967,-0.46517354,0.3252855,-7.1250005,46.65,-25.85625,-0.051976804,-0.69722414,0.5797863,999.2336, , , , 
2025-11-24 19:40:22.720,14.77568,-4.1108694,7.2215385,-0.80725783,-0.0772744,-0.19394957,-7.14375,47.381252,-24.675001,-0.053119726,-0.7035824,0.5727917,999.25214, , , , 
2025-11-24 19:40:22.740,14.108083,-4.3094735,7.568498,-0.2244928,0.2696968,-0.49632764,-8.83125,49.2,-23.8125,-0.051914744,-0.7058625,0.56729615,999.25214, , , , 
2025-11-24 19:40:22.759,13.85205,-4.610969,6.745367,0.28130323,0.42363474,-0.86712253,-10.9125,47.831253,-20.737501,-0.046880268,-0.70295745,0.56371164,999.29803, , , , 
2025-11-24 19:40:22.779,13.445271,-4.8598228,6.6305118,0.7144064,0.2904662,-1.2244785,-10.44375,46.40625,-22.40625,-0.038406197,-0.698156,0.5623077,999.29803, , , , 
2025-11-24 19:40:22.799,12.875778,-5.1852465,6.053841,1.2226459,0.004581486,-1.5635084,-11.85,46.518753,-24.581251,-0.024835821,-0.69177085,0.5624813,999.3344, , , , 
2025-11-24 19:40:22.823,12.306287,-5.285745,6.0514483,1.8383975,0.10293072,-1.958738,-12.993751,46.03125,-23.362501,-0.0013508518,-0.68087816,0.5648178,999.3344, , , , 
2025-11-24 19:40:22.839,12.373286,-6.9009004,4.6396832,2.0656393,-0.2525926,-2.1395538,-13.875001,45.84375,-26.343752,0.016055098,-0.6721982,0.56748414,999.34174, , , , 
2025-11-24 19:40:22.859,11.571691,-7.8723865,4.2448673,2.0332634,-0.54092073,-2.2275183,-16.1625,42.375,-27.91875,0.042386923,-0.6612398,0.5704473,999.34174, , , , 
2025-11-24 19:40:22.879,11.32523,-8.283952,4.5224347,1.9507967,-0.7363975,-2.0583088,-18.075,42.412502,-26.325,0.06944669,-0.6513752,0.5725779,999.33954, , , , 
2025-11-24 19:40:22.900,11.499906,-7.692925,4.979464,1.7351614,-0.8970549,-1.732107,-20.0625,39.61875,-28.743752,0.10153348,-0.64098835,0.5750475,999.33954, , , , 
2025-11-24 19:40:22.921,11.736795,-7.018149,5.733203,1.69179,-0.5439751,-1.6704098,-24.0,36.75,-30.018751,0.12462934,-0.6328651,0.57670766,999.3383, , , , 
2025-11-24 19:40:22.939,11.485549,-6.513263,5.584848,1.7363831,-0.15913028,-1.7229441,-23.400002,35.943752,-31.875002,0.14559205,-0.6224651,0.5785666,999.3383, , , , 
2025-11-24 19:40:22.959,10.325029,-6.7836523,4.4051867,1.7626504,0.4327977,-1.6948444,-24.337502,33.487503,-31.650002,0.16415612,-0.60909605,0.580871,999.3442, , , , 
