Time,Accel_X,Accel_Y,Accel_Z,Gyro_X,Gyro_Y,Gyro_Z,Mag_X,Mag_Y,Mag_Z,Orient_X,Orient_Y,Orient_Z,Pressure,Lat,Lng,Alt,Speed
2025-09-20 21:23:25.150,0.15074782,5.2642097,8.504091,0.10415245,-0.10109812,0.021456625,-13.668751,-41.737503,-18.431252,0.20443362,0.18500255,0.687962,998.66644,37.88835592,127.73985046,151.135009765625,0.81
2025-09-20 21:23:25.171,0.2943172,5.1732826,8.611769,-0.027794348,0.08032872,0.0012980876,-11.25,-43.2,-22.462502,0.2059596,0.18527223,0.68770254,998.664, , , , 
2025-09-20 21:23:25.190,0.27517462,5.194818,8.717052,0.038179047,0.045509428,0.00923933,-11.6625,-44.25,-19.743752,0.20515075,0.18549989,0.6879432,998.664, , , , 
2025-09-20 21:23:25.210,0.33020952,5.2977095,8.432307,0.07116575,0.0051923506,0.016569708,-12.8625,-42.15,-18.806252,0.20506093,0.18586431,0.68803024,998.6557, , , , 
2025-09-20 21:23:25.230,0.33260235,5.393422,8.370093,0.041233372,0.029626941,0.019013166,-11.6625,-41.5125,-21.13125,0.20558672,0.18647508,0.6880484,998.6557, , , , 
2025-09-20 21:23:25.250,0.2632105,5.383851,8.382058,0.01802051,0.051618073,0.026343543,-12.243751,-41.9625,-18.4125,0.20561719,0.18700607,0.6881856,998.6462, , , , 
2025-09-20 21:23:25.270,0.2416751,5.3407803,8.29113,0.027183482,0.041233372,0.038560838,-12.806251,-41.8875,-19.143751,0.20548525,0.18757638,0.6883957,998.6462, , , , 
2025-09-20 21:23:25.290,0.32542387,5.304888,8.238488,0.041844238,0.013744458,0.03733911,-12.4125,-42.09375,-19.1625,0.20559634,0.1880983,0.68860304,998.63055, , , , 
2025-09-20 21:23:25.310,0.2943172,5.2666025,8.365308,0.051007207,-0.012522728,0.030619597,-10.70625,-40.93125,-19.25625,0.20601591,0.18840203,0.68873405,998.63055, , , , 
2025-09-20 21:23:25.330,0.30149564,5.271388,8.238488,0.037568185,0.013744458,0.041615162,-12.075001,-41.831253,-17.831251,0.20637757,0.18861577,0.6888494,998.6213, , , , 
2025-09-20 21:23:25.350,0.45942193,5.343173,8.209774,-0.021685699,0.04612029,0.04344776,-13.218751,-41.79375,-19.40625,0.20651093,0.18888685,0.6892364,998.6213, , , , 
2025-09-20 21:23:25.370,0.5383851,5.3910294,8.243274,-0.06750056,0.05589413,0.015347977,-13.35,-40.95,-18.675001,0.20627616,0.18876635,0.6896522,998.61884, , , , 
2025-09-20 21:23:25.390,0.2727818,5.245067,8.355737,-0.08704823,0.076052666,0.014737112,-11.45625,-41.625,-18.056252,0.20561132,0.18855618,0.6900129,998.61884, , , , 
2025-09-20 21:23:25.410,0.2656033,5.2139606,8.453842,-0.07116575,0.068722285,0.041615162,-12.937501,-42.525,-18.768751,0.20450677,0.18846463,0.6904949,998.61005, , , , 
2025-09-20 21:23:25.430,0.11964113,5.123033,8.626125,-0.016798781,0.012522728,0.06788235,-13.368751,-42.3375,-17.19375,0.20363922,0.18823574,0.6910382,998.61005, , , , 
2025-09-20 21:23:25.450,0.06460621,5.1469617,8.149954,-0.0051923506,-0.04856375,0.08743002,-13.312501,-41.325,-17.41875,0.20337439,0.18799861,0.6915103,998.60004, , , , 
2025-09-20 21:23:25.470,0.0023928226,5.1493545,8.020741,-0.054061532,-0.062613636,0.10453424,-11.493751,-41.8875,-18.50625,0.20350462,0.18769483,0.6919486,998.60004, , , , 
2025-09-20 21:23:25.490,1.0887343,5.300102,8.860622,-0.032070402,-0.03451386,0.058719378,-13.89375,-42.881252,-18.35625,0.20353714,0.18683988,0.6926404,998.5959, , , , 
2025-09-20 21:23:25.511,0.3397808,5.204389,8.166703,0.00763581,-0.05589413,0.020234896,-12.4875,-42.46875,-19.143751,0.20431885,0.18591388,0.6928659,998.5959, , , , 
2025-09-20 21:23:25.532,0.67477596,5.3336015,8.504091,0.04734202,-0.051007207,7.63581E-5,-14.925,-42.75,-16.087502,0.20502332,0.18547049,0.69288516,998.61444, , , , 
2025-09-20 21:23:25.552,0.6771688,5.4867425,8.482556,0.025961753,-0.03940078,-0.01886045,-12.918751,-41.53125,-17.2875,0.20596579,0.1852052,0.69274604,998.61444, , , , 
2025-09-20 21:23:25.571,0.4953143,5.4173503,8.611769,0.010079269,0.018631376,-0.029856017,-13.875001,-41.25,-17.831251,0.20660734,0.18507275,0.692549,998.63495, , , , 
2025-09-20 21:23:25.590,0.5024927,5.393422,8.590233,0.02535089,0.04367683,-0.021914775,-13.968751,-43.143753,-17.550001,0.20657586,0.18529052,0.6924433,998.63495, , , , 
2025-09-20 21:23:25.611,0.57427746,5.4412785,8.379665,0.035124727,0.042455103,-0.035964664,-12.88125,-42.15,-18.0375,0.20664616,0.18585852,0.6923095,998.6506, , , , 
2025-09-20 21:23:25.631,0.4235296,5.3790655,8.193025,0.014355322,0.059559315,-0.0457385,-13.06875,-42.300003,-17.23125,0.20677966,0.18644944,0.69207114,998.6506, , , , 
2025-09-20 21:23:25.652,0.3397808,5.3096733,8.271988,-0.013133593,0.0858265,-0.04085158,-14.493751,-42.825,-17.04375,0.20642279,0.1871231,0.69188845,998.6672, , , , 
2025-09-20 21:23:25.671,0.29192436,5.2666025,8.353344,0.0015271619,0.06811142,-0.039629854,-13.012501,-42.787502,-17.681252,0.20575947,0.1877317,0.6918081,998.6672, , , , 
2025-09-20 21:23:25.690,0.19381863,5.2689953,8.262417,0.016187917,0.028405212,-0.019471316,-12.168751,-42.43125,-20.25,0.20534049,0.18829107,0.69165707,998.68036, , , , 
2025-09-20 21:23:25.711,0.3924229,5.3407803,8.269595,0.032681264,-0.010079269,-0.002367101,-12.225,-41.943752,-19.5,0.20536587,0.18866672,0.6915421,998.68036, , , , 
2025-09-20 21:23:25.731,0.38763726,5.4029937,8.042277,0.029016078,-0.0027488915,-0.024969097,-12.58125,-43.5,-16.743752,0.20588067,0.1888848,0.6913836,998.6906, , , , 
2025-09-20 21:23:25.751,0.33020952,5.3766723,7.9274216,-0.044898562,0.05222894,-0.042684175,-11.94375,-42.45,-16.10625,0.20616396,0.18944518,0.69105774,998.6906, , , , 
2025-09-20 21:23:25.770,0.35174492,5.285745,8.26481,-0.09376775,0.09926552,-0.057344932,-12.675,-43.36875,-19.06875,0.20538402,0.18973246,0.69096303,998.6938, , , , 
2025-09-20 21:23:25.792,0.18185452,5.218746,8.5423765,-0.09315688,0.120034926,-0.060399257,-11.418751,-42.99375,-18.75,0.2038835,0.1898684,0.69099116,998.6938, , , , 
2025-09-20 21:23:25.812,-0.040677983,5.1900325,8.7266245,-0.05222894,0.09987639,-0.022525638,-12.750001,-43.631252,-17.6625,0.20211948,0.19014509,0.6910539,998.70306, , , , 
2025-09-20 21:23:25.831,0.07178468,5.252246,8.681161,-0.0027488915,0.050396346,0.017791437,-13.5375,-43.21875,-17.1375,0.20071256,0.19049674,0.69123465,998.70306, , , , 
2025-09-20 21:23:25.851,0.26081768,5.276174,8.446664,0.019853106,-0.011911863,0.025121814,-12.6,-43.725002,-18.900002,0.20034294,0.19067009,0.69141966,998.7214, , , , 
2025-09-20 21:23:25.871,0.3062813,5.237889,8.465807,0.015577052,-0.041844238,0.025121814,-12.937501,-43.78125,-16.3875,0.20075056,0.19044857,0.691512,998.7214, , , , 
2025-09-20 21:23:25.890,0.2536392,5.3240304,8.322237,0.027183482,-0.011911863,0.025121814,-13.500001,-44.456253,-17.681252,0.20114928,0.190193,0.6916224,998.7277, , , , 
2025-09-20 21:23:25.911,0.26081768,5.4891353,8.097312,-0.0015271619,0.004581486,0.006185006,-11.925,-44.662502,-17.681252,0.201637,0.19049515,0.69165015,998.7277, , , , 
2025-09-20 21:23:25.931,0.23449662,5.4556355,8.080562,-0.04367683,0.012522728,-0.029856017,-12.675,-44.006252,-17.79375,0.2018744,0.19079873,0.6915146,998.7304, , , , 
2025-09-20 21:23:25.950,0.05503492,5.326423,8.188239,-0.074830934,0.038789913,-0.04329504,-13.368751,-44.568752,-17.53125,0.20149909,0.19101754,0.69129956,998.7304, , , , 
2025-09-20 21:23:25.971,0.09571291,5.2331033,8.310273,-0.098654665,0.043065965,-0.041462447,-11.08125,-42.7125,-18.50625,0.20050195,0.19117358,0.6911881,998.7321, , , , 
2025-09-20 21:23:25.990,0.15553348,5.1254263,8.590233,-0.091324285,0.03451386,-0.042684175,-10.33125,-43.36875,-18.69375,0.19934866,0.19093761,0.69115907,998.7321, , , , 
2025-09-20 21:23:26.010,0.12921242,5.056034,8.693125,-0.04856375,0.041233372,-0.04818196,-11.15625,-42.975002,-16.931252,0.1982473,0.1904913,0.6911435,998.72845, , , , 
2025-09-20 21:23:26.030,-0.11724831,5.099105,8.449057,-0.016798781,0.036346454,-0.023136504,-11.45625,-43.96875,-20.23125,0.19724219,0.19042058,0.6910591,998.72845, , , , 
2025-09-20 21:23:26.050,-0.11006984,5.1924253,8.283952,-0.032070402,0.008857539,0.019013166,-12.450001,-42.862503,-17.268751,0.19632079,0.19083384,0.69102234,998.7314, , , , 
2025-09-20 21:23:26.071,0.016749758,5.1996036,8.410771,-0.049174614,-0.009468404,0.03367392,-10.33125,-44.11875,-18.487501,0.19591756,0.19081514,0.691189,998.7314, , , , 
2025-09-20 21:23:26.091,0.12203395,5.1852465,8.573483,-0.057115857,-0.041233372,0.04344776,-11.925,-43.93125,-17.56875,0.19564515,0.19035473,0.6914705,998.7275, , , , 
2025-09-20 21:23:26.110,0.2416751,5.1326046,8.793623,-0.02046397,-0.031459536,0.031230463,-10.387501,-42.881252,-18.09375,0.19557157,0.18948847,0.69178784,998.7275, , , , 
2025-09-20 21:23:26.131,0.2009971,5.1254263,8.640483,-0.004581486,-0.0051923506,0.027565273,-11.7375,-43.03125,-17.94375,0.19551972,0.18891124,0.6920465,998.73627, , , , 
2025-09-20 21:23:26.151,0.2536392,5.1349974,8.62134,-0.0070249448,0.017409647,0.015958842,-11.64375,-43.275,-17.79375,0.19537932,0.18866615,0.6922813,998.73627,37.88835592,127.73985046,151.135009765625,0.81
2025-09-20 21:23:26.172,0.13399807,5.13739,8.547162,0.0051923506,0.027794348,0.0019089525,-11.231251,-44.325,-20.25,0.19516909,0.18853398,0.6924516,998.72943, , , , 
2025-09-20 21:23:26.193,0.05742774,5.1326046,8.29113,-0.0021380268,0.024129158,0.008628465,-12.618751,-43.0125,-16.931252,0.19482899,0.18884718,0.69252026,998.72943, , , , 
2025-09-20 21:23:26.210,0.062213387,5.1421757,8.377272,-0.021685699,0.03695732,0.00923933,-11.8125,-43.40625,-18.375,0.19453493,0.18913063,0.6926026,998.7192, , , , 
2025-09-20 21:23:26.230,0.016749758,5.103891,8.602198,-0.01802051,0.044898562,0.017180571,-11.025001,-43.2,-19.25625,0.19391005,0.1893439,0.69277704,998.7192, , , , 
2025-09-20 21:23:26.250,0.0741775,5.1014977,8.547162,0.0051923506,0.00641408,0.015958842,-11.4375,-42.99375,-18.45,0.19344516,0.1894121,0.6929704,998.71893, , , , 
2025-09-20 21:23:26.270,0.023928227,5.070391,8.475378,0.0027488915,-0.0033597562,0.026343543,-13.575001,-44.2125,-18.300001,0.19331257,0.18941642,0.69307256,998.71893, , , , 
2025-09-20 21:23:26.290,0.22013968,5.048856,8.5016985,9.162972E-4,0.03084867,0.0410043,-11.512501,-43.3875,-17.643751,0.19307281,0.1894155,0.6933231,998.72284, , , , 
2025-09-20 21:23:26.311,0.26081768,5.139783,8.487342,0.009468404,0.003970621,0.03611738,-11.700001,-43.0125,-20.118752,0.19297929,0.18931799,0.693677,998.72284, , , , 
2025-09-20 21:23:26.330,0.30388847,5.2259245,8.386844,-0.0021380268,-0.008246674,0.0184023,-12.58125,-43.725002,-19.368752,0.19325167,0.18915339,0.693894,998.7238, , , , 
2025-09-20 21:23:26.350,0.21296121,5.180461,8.484949,-0.021685699,0.00763581,0.008628465,-11.868751,-44.41875,-18.018751,0.1934979,0.18895635,0.6940338,998.7238, , , , 
2025-09-20 21:23:26.371,0.29671,5.1589255,8.712267,0.00641408,-0.024740024,0.017180571,-11.475,-43.987503,-18.84375,0.19343258,0.18875644,0.6941733,998.72235, , , , 
2025-09-20 21:23:26.393,0.40917268,5.2331033,8.554341,0.04978548,-0.031459536,0.010461059,-11.175,-42.581253,-19.725,0.19393359,0.18838365,0.69424784,998.72235, , , , 
2025-09-20 21:23:26.410,0.485743,5.259424,8.295917,0.014966187,3.054324E-4,-0.0066431547,-12.637501,-43.350002,-20.15625,0.19469047,0.1883007,0.69422567,998.71405, , , , 
2025-09-20 21:23:26.432,0.3804588,5.17089,8.432307,-0.028405212,0.036346454,-0.026190827,-13.481251,-43.706253,-17.8875,0.19496416,0.18824278,0.6941923,998.71405, , , , 
2025-09-20 21:23:26.451,0.35174492,5.127819,8.535198,-0.014966187,0.046731155,-0.028634287,-11.08125,-41.9625,-18.225,0.19467415,0.18815024,0.6942068,998.70795, , , , 
2025-09-20 21:23:26.471,0.2536392,5.1014977,8.403593,0.02535089,-0.0058032153,-0.019471316,-12.31875,-43.725002,-17.23125,0.19451982,0.18814571,0.6941729,998.70795, , , , 
2025-09-20 21:23:26.492,0.56470615,5.1182475,8.066205,0.03940078,-0.11942407,-0.008475749,-11.08125,-43.4625,-18.618752,0.19575277,0.18783484,0.693851,998.7033, , , , 
2025-09-20 21:23:26.511,1.1102697,5.1900325,7.9537425,0.0033597562,-0.15913028,-0.06895136,-12.337501,-43.95,-19.368752,0.1972662,0.18693422,0.69351846,998.7033, , , , 
2025-09-20 21:23:26.530,1.0743774,5.130212,7.6426754,-0.14446951,0.013744458,-0.15386157,-11.400001,-43.725002,-20.268751,0.1988168,0.18556665,0.6929023,998.70624, , , , 
2025-09-20 21:23:26.550,0.782453,4.941179,8.441878,-0.28069237,0.30512697,-0.1550833,-11.26875,-43.612503,-17.6625,0.19743301,0.18465199,0.6926161,998.70624, , , , 
2025-09-20 21:23:26.571,0.485743,4.9172506,9.138189,-0.20127994,0.37293294,-0.13736822,-10.556251,-43.78125,-18.487501,0.193083,0.18470635,0.69314665,998.71136, , , , 
2025-09-20 21:23:26.591,0.09092726,5.0081778,8.819944,0.05222894,-0.057115857,-0.12515092,-10.33125,-42.862503,-21.0375,0.19012082,0.18501627,0.6931733,998.71136, , , , 
2025-09-20 21:23:26.613,0.0023928226,5.0273204,7.530213,0.2593121,-0.6325505,-0.08422298,-10.125,-42.46875,-19.837502,0.19318964,0.1843215,0.6912406,998.72235, , , , 
2025-09-20 21:23:26.630,0.1698904,5.0009995,6.381658,0.21532984,-0.7956514,-0.065286174,-10.6125,-44.1375,-19.85625,0.19836722,0.18282479,0.68932426,998.72235, , , , 
2025-09-20 21:23:26.650,0.148355,4.871787,5.9964137,0.011300999,-0.6215549,-0.017027855,-10.931251,-42.80625,-20.0625,0.20658988,0.17968492,0.6864222,998.71576, , , , 
2025-09-20 21:23:26.670,0.4546363,4.706682,6.1878395,-0.16951497,-0.47067133,0.023900084,-11.306251,-43.21875,-20.306252,0.20956747,0.17761537,0.68546885,998.71576, , , , 
2025-09-20 21:23:26.690,0.5623133,4.4482574,6.2644095,-0.18723005,-0.6716458,-0.010308343,-10.5375,-43.7625,-19.575,0.21267354,0.17219603,0.6845415,998.7165, , , , 
2025-09-20 21:23:26.710,0.32542387,4.0558343,5.898308,-0.07788526,-1.2574651,0.039171703,-12.543751,-43.48125,-19.3875,0.21778713,0.16541307,0.6828926,998.7165, , , , 
2025-09-20 21:23:26.731,1.2059826,3.5676985,5.0368915,-0.062002774,-2.0387611,0.155236,-12.168751,-43.818752,-19.087502,0.23122536,0.15140194,0.679254,998.7082, , , , 
2025-09-20 21:23:26.750,1.8448663,3.2422748,5.2283173,-0.15974113,-2.2751658,0.2163225,-14.250001,-43.050003,-17.0625,0.2415685,0.14003219,0.67658293,998.7082, , , , 
2025-09-20 21:23:26.770,1.7682959,2.969493,5.3982077,-0.19761476,-2.590983,0.30734134,-14.00625,-41.90625,-17.15625,0.25620008,0.12256852,0.67277175,998.7099, , , , 
2025-09-20 21:23:26.790,1.2777673,2.5962126,4.587041,-0.18784092,-3.1181593,0.51686794,-16.837502,-43.443752,-15.543751,0.27315482,0.10211509,0.66839707,998.7099, , , , 
2025-09-20 21:23:26.812,1.8687944,2.2085752,3.3882368,-0.20005822,-3.6166248,0.8070287,-17.53125,-41.775,-15.562501,0.29920873,0.070732765,0.6622293,998.7087, , , , 
2025-09-20 21:23:26.831,2.5220351,1.9046868,2.7493532,-0.32467464,-3.7913322,0.968297,-19.143751,-43.2,-14.231251,0.32166767,0.042046368,0.65710384,998.7087, , , , 
2025-09-20 21:23:26.851,2.3688943,1.3471591,2.4191437,-0.35582873,-4.0118546,1.1240675,-20.175001,-42.318752,-12.7875,0.34428853,0.011048942,0.65150034,998.6879, , , , 
2025-09-20 21:23:26.870,2.3545375,0.57906306,1.5098711,-0.46517354,-4.5390306,1.5309035,-22.575,-41.193752,-13.51875,0.36827868,-0.023424027,0.6452669,998.6879, , , , 
2025-09-20 21:23:26.892,5.0679984,-0.17706887,2.012364,-0.86895514,-4.457175,2.092899,-26.062502,-39.225002,-8.00625,0.40369716,-0.08504955,0.63645154,998.6794, , , , 
2025-09-20 21:23:26.912,7.5517483,-0.45702913,3.1465619,-1.0344995,-3.8475318,2.1704788,-29.906252,-37.893753,-7.36875,0.4168517,-0.11625707,0.63359094,998.6794, , , , 
2025-09-20 21:23:26.933,6.580262,-1.1102697,1.4907285,-1.3246603,-3.0332491,2.2260675,-32.287502,-37.893753,-5.26875,0.43075296,-0.16338067,0.6309271,998.67255, , , , 
2025-09-20 21:23:26.950,6.532406,-1.7874385,1.6462619,-1.5659518,-2.893361,2.4245987,-33.73125,-36.318752,-4.125,0.43503088,-0.19126458,0.63020486,998.67255, , , , 
2025-09-20 21:23:26.970,7.1688967,-2.7038896,2.5938199,-1.6985096,-2.8903067,2.6866596,-34.74375,-34.912502,-5.64375,0.4374743,-0.22982983,0.6299356,998.66473, , , , 
2025-09-20 21:23:26.990,8.547162,-3.8165522,3.1345978,-1.601382,-3.1328201,2.9096253,-36.881252,-32.287502,-4.5,0.43907863,-0.26977044,0.6294094,998.66473, , , , 
2025-09-20 21:23:27.011,9.6071825,-4.6205406,3.7854455,-1.5543455,-2.9513931,3.1845145,-39.5625,-27.112501,-0.0375,0.44024354,-0.31045362,0.62867284,998.67084, , , , 
2025-09-20 21:23:27.030,10.822737,-5.15414,3.0125637,-1.5176935,-2.446208,3.3079093,-40.74375,-25.63125,1.2375001,0.43796745,-0.34938943,0.6296352,998.67084, , , , 
2025-09-20 21:23:27.051,11.306087,-5.936593,2.333002,-1.6539164,-2.4455972,3.3683848,-42.225002,-21.956251,3.2062502,0.43071875,-0.39538807,0.6314664,998.663, , , , 
2025-09-20 21:23:27.070,11.263016,-6.7573314,3.1082766,-1.6502512,-2.4981315,3.4050367,-44.53125,-16.706251,2.53125,0.42554253,-0.42320892,0.63133,998.663, , , , 
2025-09-20 21:23:27.090,10.51167,-7.9226356,2.833102,-1.506698,-2.4272711,3.6072328,-45.131252,-15.900001,4.2375,0.41565388,-0.46814686,0.63063914,998.67426, , , , 
2025-09-20 21:23:27.110,12.136396,-8.695518,2.2636101,-1.57878,-2.1413865,3.837529,-46.29375,-10.8,4.21875,0.4079067,-0.49428254,0.6307526,998.67426, , , , 
2025-09-20 21:23:27.131,13.141382,-9.29133,2.754139,-1.7272202,-1.3857467,3.855244,-48.300003,-8.26875,5.2125,0.3889239,-0.5354885,0.6316163,998.66864, , , , 
2025-09-20 21:23:27.150,13.392629,-9.844072,3.6466618,-1.7119485,-1.1835505,3.8857872,-48.768753,-6.95625,5.6625004,0.36888665,-0.5653465,0.6327606,998.66864,37.88835592,127.73985046,151.135009765625,0.81
2025-09-20 21:23:27.172,15.060426,-9.920643,4.2687955,-1.4804308,-1.3338232,3.6866453,-49.4625,-2.8312502,9.50625,0.34839335,-0.5928121,0.63354474,998.6774, , , , 
2025-09-20 21:23:27.192,15.060426,-9.442079,4.223332,-1.2024873,-1.2727368,3.3048549,-48.80625,0.3375,9.262501,0.32672969,-0.6224784,0.63323843,998.6774, , , , 
2025-09-20 21:23:27.212,13.119846,-9.233903,2.4765713,-1.1798853,-0.7363975,3.0977716,-50.2125,2.1750002,10.387501,0.31003672,-0.64189273,0.63305765,998.6862, , , , 
2025-09-20 21:23:27.232,12.940385,-9.32483,3.481557,-1.2684608,-0.26725334,2.9823182,-49.068752,5.025,11.34375,0.290454,-0.6592785,0.6327474,998.6862, , , , 
2025-09-20 21:23:27.252,13.430914,-8.927621,4.4004006,-0.9807434,-0.31551164,2.7697372,-49.050003,9.39375,10.63125,0.27023712,-0.67415994,0.6328179,998.69086, , , , 
2025-09-20 21:23:27.271,13.581661,-7.9657063,2.9479575,-0.6013964,-0.4413498,2.3042583,-47.15625,10.81875,11.118751,0.25382075,-0.68559706,0.6336959,998.69086, , , , 
2025-09-20 21:23:27.290,11.710474,-7.735996,1.160519,-0.64537865,-0.16279547,1.9737805,-48.112503,12.712501,11.71875,0.24072261,-0.6944296,0.6343611,998.68915, , , , 
2025-09-20 21:23:27.310,10.923235,-7.463214,1.430908,-0.765719,0.24831653,1.786245,-47.081253,14.175,12.0,0.22701287,-0.7024383,0.6341009,998.68915, , , , 
2025-09-20 21:23:27.330,10.877771,-7.152147,1.6797615,-0.7571669,0.47677997,1.5797727,-46.48125,17.118752,11.306251,0.21206985,-0.709438,0.6335421,998.6794, , , , 
2025-09-20 21:23:27.351,10.164711,-7.1018977,0.9762716,-0.7150172,0.5855139,1.3012184,-45.206253,16.987501,12.262501,0.19770598,-0.71510977,0.63288,998.6794, , , , 
2025-09-20 21:23:27.371,8.719446,-7.2646093,0.6221339,-0.74189526,0.60872674,1.1711042,-44.90625,17.75625,12.337501,0.1811683,-0.72122186,0.6314035,998.6723, , , , 
2025-09-20 21:23:27.391,8.673982,-7.003792,1.2083755,-0.6716458,0.46883872,1.0886374,-44.8875,18.393751,10.762501,0.16864116,-0.72597224,0.6298125,998.6723, , , , 
2025-09-20 21:23:27.411,8.633304,-7.02772,1.1102697,-0.5439751,0.3601048,0.98234695,-43.2,19.575,10.668751,0.15787782,-0.73000234,0.62849456,998.684, , , , 
2025-09-20 21:23:27.431,8.116454,-7.1856465,0.6364908,-0.45784315,0.34483317,0.8265764,-43.40625,19.931252,10.35,0.14882068,-0.7332007,0.62753767,998.684, , , , 
2025-09-20 21:23:27.450,7.7814593,-7.207182,0.76570326,-0.41202828,0.32895067,0.7575487,-43.443752,20.53125,10.78125,0.14062864,-0.7358746,0.6266632,998.68353, , , , 
2025-09-20 21:23:27.470,7.8029947,-6.963114,1.0073783,-0.22937973,0.1707367,0.6414844,-43.21875,21.45,8.231251,0.13356946,-0.73790264,0.6262147,998.68353, , , , 
2025-09-20 21:23:27.491,7.661818,-6.9224358,0.55752766,-0.08155045,0.014355322,0.53458303,-43.987503,22.331251,12.750001,0.12866728,-0.7390384,0.62651974,998.6872, , , , 
2025-09-20 21:23:27.510,8.49452,-6.7812595,0.44506502,0.01802051,-0.06017018,0.38675377,-44.4,21.45,8.83125,0.12515596,-0.73966163,0.627475,998.6872, , , , 
2025-09-20 21:23:27.531,8.769695,-6.7645097,0.059820566,0.05222894,0.15668681,0.118584126,-42.35625,22.143751,9.50625,0.12388685,-0.73932755,0.6283418,998.6816, , , , 
2025-09-20 21:23:27.550,7.5661054,-7.0803623,-0.55752766,0.0058032153,0.3808742,-0.07078396,-45.037502,22.743752,10.837501,0.12287675,-0.7382952,0.6288954,998.6816, , , , 
2025-09-20 21:23:27.571,7.2933235,-7.0779696,-0.2727818,0.0021380268,0.43829548,-0.15569416,-42.525,23.493752,9.900001,0.1215972,-0.7371668,0.62904996,998.6635, , , , 
2025-09-20 21:23:27.591,7.5230346,-7.133004,0.11006984,0.08032872,0.35766134,-0.27603453,-42.881252,23.962502,10.06875,0.12094945,-0.73568255,0.62928957,998.6635, , , , 
2025-09-20 21:23:27.611,6.7573314,-7.32443,-0.1698904,0.1951713,0.29718572,-0.45318532,-44.081253,22.987501,8.400001,0.12204509,-0.7335763,0.62982774,998.65985, , , , 
2025-09-20 21:23:27.630,5.2809596,-7.865208,-0.8542377,0.24404047,0.1725693,-0.43363765,-44.287502,22.06875,9.8625,0.12449748,-0.7309697,0.6306428,998.65985, , , , 
2025-09-20 21:23:27.651,5.505885,-7.8053875,-0.83030945,0.34361145,-0.045509428,-0.2937496,-44.5875,21.300001,9.46875,0.12805587,-0.72797495,0.6321786,998.6635, , , , 
2025-09-20 21:23:27.671,5.326423,-7.649854,-1.6797615,0.35033095,-0.047952887,-0.2607629,-44.325,21.075,9.150001,0.13147305,-0.72556746,0.6339225,998.6635, , , , 
2025-09-20 21:23:27.691,4.9698925,-7.6737823,-2.3521447,0.19211698,0.07971785,-0.17890702,-43.40625,21.300001,8.7375,0.13393061,-0.7235959,0.6352676,998.6525, , , , 
2025-09-20 21:23:27.711,5.5369916,-7.6139617,-1.4668003,3.054324E-4,0.10537417,-0.09888373,-43.893753,21.0,8.493751,0.13462798,-0.7227838,0.63552725,998.6525, , , , 
2025-09-20 21:23:27.731,5.9342003,-7.556534,-0.47856453,-0.004581486,0.03084867,-0.10438152,-44.737503,21.16875,8.26875,0.13495177,-0.722571,0.63520527,998.6601, , , , 
2025-09-20 21:23:27.750,5.8097734,-7.420143,-0.0023928226,0.0962112,-0.14935644,-0.13614649,-44.60625,20.325,7.8375,0.13632524,-0.7221922,0.6351074,998.6601, , , , 
2025-09-20 21:23:27.770,5.7930236,-7.34118,0.15553348,0.15363249,-0.17989968,-0.12637265,-44.550003,21.31875,7.6125,0.1387434,-0.721511,0.63545203,998.6838, , , , 
2025-09-20 21:23:27.790,5.7930236,-7.183254,0.44506502,0.19822562,-0.19272783,-0.083612114,-43.48125,20.8125,7.6875005,0.14177449,-0.720268,0.63643247,998.6838, , , , 
2025-09-20 21:23:27.811,6.2811594,-6.7669024,0.7393822,0.20189081,-0.30573782,-0.038408123,-44.7,21.4125,9.637501,0.14431387,-0.7192171,0.6375109,998.7089, , , , 
2025-09-20 21:23:27.831,7.331609,-6.096912,1.4285151,0.15302163,-0.31184646,-0.083612114,-44.4,21.45,9.6,0.1473689,-0.71841747,0.63835514,998.7089, , , , 
2025-09-20 21:23:27.850,8.075776,-5.5130634,2.4311078,0.19822562,-0.3356702,-0.18073961,-45.600002,19.837502,8.587501,0.15094717,-0.7174664,0.6389551,998.73065, , , , 
2025-09-20 21:23:27.870,8.930014,-5.15414,3.048456,0.39003715,-0.3753764,-0.36338818,-42.91875,22.21875,8.625,0.15614375,-0.71547264,0.6400675,998.73065, , , , 
2025-09-20 21:23:27.891,9.329616,-5.355137,2.4335005,0.6050616,-0.31367907,-0.5637518,-43.55625,21.16875,7.9875,0.1632357,-0.71180767,0.64217144,998.7609, , , , 
2025-09-20 21:23:27.911,10.047462,-6.202196,2.5028925,0.7761037,-0.41752607,-0.6590467,-43.85625,21.993752,9.356251,0.17366917,-0.7054639,0.64571637,998.7609, , , , 
2025-09-20 21:23:27.931,12.21536,-7.243074,2.5698915,1.1236857,-0.950811,-0.7286853,-44.081253,20.118752,8.868751,0.18505289,-0.6991793,0.6495486,998.78925, , , , 
2025-09-20 21:23:27.950,14.864214,-7.470392,1.2370893,1.3490949,-1.3338232,-0.9186643,-44.456253,18.84375,7.74375,0.19704956,-0.6936084,0.6529656,998.78925, , , , 
2025-09-20 21:23:27.971,16.654045,-6.9942207,-0.5072784,1.1084142,-1.1322379,-1.4385102,-42.91875,18.73125,9.900001,0.22187334,-0.6833985,0.65699655,998.7907, , , , 
2025-09-20 21:23:27.991,16.273586,-7.2670026,0.19381863,0.6740893,-0.3979784,-1.9571344,-45.768753,17.79375,11.962501,0.24163643,-0.67521465,0.6569518,998.7907, , , , 
2025-09-20 21:23:28.011,15.74238,-7.4512496,0.9834501,0.6026181,-0.03695732,-2.2711189,-45.24375,15.243751,11.2875,0.25926387,-0.6661942,0.6553763,998.789, , , , 
2025-09-20 21:23:28.030,15.64906,-6.943971,0.033499517,0.58001614,0.0980438,-2.5533385,-45.768753,14.83125,11.212501,0.27665183,-0.65560865,0.6533635,998.789, , , , 
2025-09-20 21:23:28.051,14.935999,-6.4438715,-0.19142582,0.40897396,0.17867795,-2.8905358,-47.193752,11.4375,11.85,0.29489526,-0.6442025,0.6497794,998.78094, , , , 
2025-09-20 21:23:28.071,13.110275,-6.7022963,0.567099,0.2886336,0.3252855,-3.1666467,-46.95,7.4812503,10.668751,0.3183825,-0.62906736,0.64247847,998.78094, , , , 
2025-09-20 21:23:28.090,11.925828,-6.910472,1.6127625,0.2800815,0.53053606,-3.2173483,-45.9375,6.6000004,9.375,0.33611932,-0.6157809,0.63575053,998.79535, , , , 
2025-09-20 21:23:28.111,11.586047,-7.281359,2.4885356,0.5207622,0.51648617,-3.241172,-46.818752,3.8812501,11.775001,0.3527992,-0.60071385,0.6295969,998.79535, , , , 
2025-09-20 21:23:28.131,11.227124,-7.6570325,1.8305093,0.7980948,0.19944735,-3.2649958,-47.662502,-0.43125,10.725,0.37098354,-0.58385557,0.62393606,998.8339, , , , 
2025-09-20 21:23:28.151,10.49492,-7.645068,0.85902333,0.8713986,-0.04367683,-3.2778242,-46.818752,-2.9250002,8.625,0.39132163,-0.5664773,0.61753505,998.8339,37.88835592,127.73985046,151.135009765625,0.81
2025-09-20 21:23:28.171,9.255438,-7.2502527,1.1485549,0.7987057,-0.107817635,-3.1861944,-46.36875,-6.3750005,9.543751,0.41196275,-0.54940194,0.60995615,998.86346, , , , 
2025-09-20 21:23:28.191,8.453842,-6.9655066,1.68694,0.85795957,-0.13897173,-3.0426412,-46.93125,-8.306251,11.400001,0.43156523,-0.53264844,0.60195917,998.86346, , , , 
2025-09-20 21:23:28.213,7.941778,-6.5659056,0.4426722,0.9007201,-0.19639303,-2.889925,-46.875,-14.418751,12.825001,0.45513144,-0.51158684,0.5923999,998.8818, , , , 
2025-09-20 21:23:28.231,6.8817577,-6.096912,0.0526421,0.78709924,-0.2696968,-2.8025713,-46.0875,-14.94375,11.85,0.4732767,-0.4953798,0.58417857,998.8818, , , , 
2025-09-20 21:23:28.252,5.3359947,-5.6279187,0.35174492,0.7015782,-0.36987862,-2.542343,-44.4375,-18.28125,13.725,0.4903684,-0.48057738,0.5751546,998.87665, , , , 
2025-09-20 21:23:28.270,4.362116,-5.2905307,-0.27038896,0.6270527,-0.3423897,-2.230191,-45.393753,-20.75625,14.887501,0.50600857,-0.46730766,0.56636804,998.87665, , , , 
2025-09-20 21:23:28.291,3.9888353,-4.7449675,-0.91405827,0.4572323,-0.20189081,-1.8337398,-43.518753,-21.0375,13.012501,0.51908916,-0.45577523,0.55865043,998.8559, , , , 
2025-09-20 21:23:28.310,4.618148,-4.4578285,-1.0504491,0.27336198,-0.05650499,-1.4916555,-44.4,-23.8875,14.19375,0.52878076,-0.4463855,0.55230695,998.8559, , , , 
2025-09-20 21:23:28.330,4.6803613,-4.345366,-1.1653047,0.14691298,0.028405212,-1.2583051,-42.15,-25.0125,14.025001,0.53559905,-0.43882912,0.547124,998.81024, , , , 
2025-09-20 21:23:28.350,4.082155,-4.173083,-1.5936198,0.043065965,0.021074835,-0.8917862,-39.956253,-24.91875,15.337501,0.5403221,-0.4330857,0.5429048,998.81024, , , , 
2025-09-20 21:23:28.373,3.6753755,-3.8237305,-2.6344976,-0.11636974,-0.011911863,-0.4654026,-41.925003,-25.25625,16.181252,0.5437983,-0.4293903,0.539007,998.7724, , , , 
2025-09-20 21:23:28.391,3.347559,-3.7160535,-3.333202,-0.44196066,-0.023518294,-0.09644028,-41.04375,-26.775002,14.475,0.5440368,-0.4300752,0.5365183,998.7724, , , , 
2025-09-20 21:23:28.410,2.7230322,-4.342973,-2.9120653,-0.82069683,0.049174614,0.31955865,-41.081253,-27.768751,14.062501,0.5408789,-0.43462524,0.53437066,998.74286, , , , 
2025-09-20 21:23:28.430,2.2085752,-5.3240304,-1.3615161,-1.1658354,0.1517999,0.81374824,-41.0625,-27.525002,15.450001,0.5333415,-0.4429717,0.5333981,998.74286, , , , 
2025-09-20 21:23:28.450,2.5316064,-6.2883377,2.0410776,-1.1395682,0.12064579,1.4185044,-41.60625,-25.218752,14.2875,0.52166647,-0.45466024,0.53454584,998.73724, , , , 
2025-09-20 21:23:28.471,3.3643086,-6.3960147,3.9744785,-0.5818487,-0.09315688,1.8772638,-43.18125,-25.10625,13.05,0.50538754,-0.47118017,0.5403264,998.73724, , , , 
2025-09-20 21:23:28.490,3.562913,-6.070591,3.1680973,-0.09071342,-0.3509418,2.1454334,-43.10625,-24.843752,12.262501,0.49688083,-0.4807848,0.5460968,998.76874, , , , 
2025-09-20 21:23:28.510,4.237689,-5.898308,1.5122639,0.3026835,-0.73884094,2.3616796,-42.9375,-21.206251,10.481251,0.48803183,-0.49362183,0.5574152,998.76874, , , , 
2025-09-20 21:23:28.530,4.938786,-6.5252275,-0.2943172,0.46150833,-1.0827578,2.4972916,-44.268753,-20.38125,13.668751,0.48039398,-0.51063496,0.5662009,998.7944, , , , 
2025-09-20 21:23:28.551,5.7355957,-7.850851,-1.0600204,0.38453937,-1.0888665,2.6353471,-43.8375,-17.362501,15.000001,0.47496992,-0.5253363,0.57418144,998.7944, , , , 
2025-09-20 21:23:28.571,5.7403817,-9.430114,-1.0313065,0.14813471,-0.7449496,2.806389,-45.112503,-14.26875,15.58125,0.46720514,-0.540538,0.5821569,998.7966, , , , 
2025-09-20 21:23:28.591,5.7762737,-11.157732,-0.019142581,-0.14630212,-0.28802276,3.1118217,-44.5875,-10.106251,16.368752,0.45452493,-0.5563607,0.5909429,998.7966, , , , 
2025-09-20 21:23:28.610,6.1974106,-12.660424,1.902294,-0.29962918,0.116980605,3.4422994,-46.0125,-7.65,17.1375,0.43575644,-0.5728185,0.6011522,998.8078, , , , 
2025-09-20 21:23:28.630,6.8985076,-13.184453,2.9838498,-0.14019346,0.20433427,3.7911031,-45.91875,-4.5,14.64375,0.41232532,-0.5890017,0.6164135,998.8078, , , , 
2025-09-20 21:23:28.651,8.226524,-12.593426,1.4404793,0.11453715,0.0876591,4.070268,-47.79375,-0.71250004,14.625001,0.3809501,-0.607699,0.62995785,998.8217, , , , 
2025-09-20 21:23:28.670,9.865608,-11.832508,-0.72023964,0.052839804,0.047952887,4.1014223,-47.325,4.55625,15.187501,0.35570532,-0.6216997,0.64274096,998.8217, , , , 
2025-09-20 21:23:28.691,10.851451,-11.684153,-1.7778672,-0.24770567,0.2764163,3.990245,-47.30625,5.30625,15.000001,0.32992148,-0.6354231,0.65314597,998.81195, , , , 
2025-09-20 21:23:28.713,11.076376,-11.459228,-1.6295122,-0.5891791,0.5433642,3.8925068,-46.85625,11.19375,14.775001,0.30225727,-0.6492634,0.66081315,998.81195, , , , 
2025-09-20 21:23:28.732,11.691332,-10.987842,-0.83748794,-0.86223567,0.75777775,3.7770534,-45.487503,13.575001,14.493751,0.27263844,-0.66322845,0.6659551,998.80414, , , , 
2025-09-20 21:23:28.750,12.430714,-10.298709,-0.09092726,-1.0662645,1.0571015,3.453295,-44.550003,18.806252,12.075001,0.23436849,-0.6797964,0.6693841,998.80414, , , , 
2025-09-20 21:23:28.770,11.79183,-9.834501,0.701097,-1.1908809,1.2507457,3.1894014,-46.143753,19.612501,13.125001,0.21135804,-0.6888502,0.6700238,998.811, , , , 
2025-09-20 21:23:28.791,11.688938,-9.221938,2.0171494,-1.1536181,1.3399318,2.991481,-44.193752,21.956251,11.55,0.18093316,-0.69980663,0.6696352,998.811, , , , 
2025-09-20 21:23:28.811,11.739188,-8.080562,0.97866446,-1.0296125,1.5891647,2.663447,-43.256252,24.4125,11.15625,0.14426023,-0.710327,0.66933364,998.8327, , , , 
2025-09-20 21:23:28.830,11.057234,-7.623533,0.4019942,-1.1707224,1.8396193,2.4380376,-41.5875,24.468752,8.981251,0.122440584,-0.71567476,0.6683988,998.8327, , , , 
2025-09-20 21:23:28.852,10.870593,-7.207182,1.8017955,-1.2287545,1.8188499,2.1979678,-40.612503,27.075,8.118751,0.08611309,-0.7242999,0.6646316,998.8405, , , , 
2025-09-20 21:23:28.872,11.559726,-6.9535427,2.7038896,-0.9770782,1.3093886,1.9572871,-41.49375,28.48125,7.3500004,0.059894845,-0.73002106,0.6610895,998.8405, , , , 
2025-09-20 21:23:28.890,11.542976,-6.8099732,2.565106,-0.62827444,0.6740893,1.7074435,-37.162502,30.281252,7.5750003,0.03975283,-0.733993,0.65868354,998.8576, , , , 
2025-09-20 21:23:28.911,11.404193,-6.6711893,2.3401806,-0.36926776,0.2367101,1.5412881,-37.7625,31.725,7.3875003,0.025431817,-0.7365213,0.65772355,998.8576, , , , 
2025-09-20 21:23:28.931,12.095718,-6.273981,2.0410776,-0.12125666,-0.060781047,1.3482549,-36.16875,33.75,6.95625,0.013001853,-0.73807496,0.6582545,998.8632, , , , 
2025-09-20 21:23:28.951,13.095919,-5.8265233,1.3519448,0.041844238,-0.20494513,1.1094068,-34.800003,33.9,5.71875,0.0067450185,-0.7382071,0.6597012,998.8632, , , , 
2025-09-20 21:23:28.971,14.220545,-5.601598,-0.61734825,0.032681264,-0.044287696,0.78320503,-34.0875,34.706253,7.9125004,0.0029364123,-0.7377802,0.66126335,998.863, , , , 
2025-09-20 21:23:28.990,14.811572,-5.6470613,-1.8687944,-0.30695954,0.28069237,0.3672061,-34.275,34.55625,8.1,8.2760285E-5,-0.738355,0.6607911,998.863, , , , 
2025-09-20 21:23:29.011,15.562919,-6.108876,-0.42592242,-0.5366447,0.5158753,-0.1514181,-34.03125,35.71875,7.70625,-0.0018099482,-0.7407523,0.6572493,998.8388, , , , 
2025-09-20 21:23:29.031,15.404992,-6.9966135,-0.7465607,-0.59712034,0.6307179,-0.5887973,-34.4625,33.675003,8.625,-0.0015611373,-0.7434273,0.65237814,998.8388, , , , 
2025-09-20 21:23:29.050,15.35235,-7.32443,0.25842485,-0.7046325,0.68875,-0.9204969,-34.893753,34.36875,8.025001,6.0889666E-4,-0.74639374,0.6462385,998.8217, , , , 
2025-09-20 21:23:29.071,16.017555,-7.353144,3.2183464,-0.5348121,0.43768463,-1.380478,-36.225002,34.987503,7.2000003,0.0054093217,-0.74919546,0.6394379,998.8217, , , , 
2025-09-20 21:23:29.091,15.330814,-7.420143,5.8839507,0.19639303,-0.13652828,-2.013334,-36.525,32.71875,7.2000003,0.020612055,-0.7494688,0.6337079,998.83124, , , , 
2025-09-20 21:23:29.110,13.9166565,-8.216953,2.7230322,0.8420771,-0.18600832,-2.4464371,-36.80625,30.581251,6.9,0.040870376,-0.74478954,0.6337778,998.83124, , , , 
2025-09-20 21:23:29.130,13.076776,-9.064013,-0.46660042,0.8145882,0.13164136,-2.7072763,-39.7125,28.650002,8.231251,0.057440422,-0.7395049,0.6345698,998.85004, , , , 
2025-09-20 21:23:29.150,12.476177,-10.327422,-0.24646074,0.6563742,0.10231985,-3.015763,-38.381252,27.806252,6.1312504,0.0848164,-0.7306608,0.6329452,998.85004,37.88835592,127.73985046,151.135009765625,0.81
2025-09-20 21:23:29.170,12.559926,-11.71526,0.7178468,0.7241802,-0.5836813,-3.2985935,-41.23125,25.29375,5.49375,0.11020849,-0.723609,0.6298005,998.85565, , , , 
2025-09-20 21:23:29.191,12.7393875,-12.8111725,1.7395821,0.7571669,-0.9892955,-3.5246134,-43.162502,22.96875,6.3,0.14061595,-0.7164936,0.6253733,998.85565, , , , 
2025-09-20 21:23:29.210,12.538391,-13.4022,4.0031924,0.8005383,-1.2122612,-3.7341402,-44.15625,21.0,6.675,0.17404485,-0.70873636,0.6195473,998.8725, , , , 
2025-09-20 21:23:29.232,12.545569,-13.512269,6.218946,1.1933243,-1.3564253,-3.9619925,-44.86875,18.1875,6.7500005,0.21912014,-0.69608545,0.6119005,998.8725, , , , 
2025-09-20 21:23:29.250,12.7082815,-13.641482,5.4029937,1.5176935,-1.2391392,-4.1910667,-45.7125,14.85,7.9500003,0.24772343,-0.6856096,0.6081347,998.9067, , , , 
2025-09-20 21:23:29.271,12.74178,-13.923835,3.3954153,1.619708,-1.0485494,-4.4806166,-47.4,10.087501,7.6312504,0.2963051,-0.6637883,0.6017757,998.9067, , , , 
2025-09-20 21:23:29.291,12.342179,-13.782659,1.8137596,1.5665628,-0.95203274,-4.69503,-48.675003,6.3,11.83125,0.33523047,-0.643571,0.5950479,998.9079, , , , 
2025-09-20 21:23:29.310,11.739188,-13.469198,0.4426722,1.3478731,-0.9111048,-4.908833,-47.268753,0.22500001,12.0375,0.37381062,-0.62197673,0.5857181,998.9079, , , , 
2025-09-20 21:23:29.330,9.700503,-13.2610235,-0.12203395,1.0106758,-0.61544627,-4.954037,-46.818752,-3.8437502,14.700001,0.4109911,-0.59976065,0.5731676,998.86786, , , , 
2025-09-20 21:23:29.351,7.984849,-12.337394,-0.567099,0.6197223,0.068722285,-4.7719994,-46.29375,-8.64375,13.51875,0.45050782,-0.5711989,0.5556509,998.86786, , , , 
2025-09-20 21:23:29.370,6.728617,-11.538191,-0.69152576,0.30390522,0.6227766,-4.555753,-45.206253,-13.387501,13.368751,0.46921432,-0.5534642,0.5454132,998.83856, , , , 
2025-09-20 21:23:29.390,4.792824,-10.6815605,0.050249275,0.21349724,0.8304707,-4.2833076,-42.16875,-17.175001,14.043751,0.49355608,-0.5234239,0.5292121,998.83856, , , , 
2025-09-20 21:23:29.410,3.2159536,-10.133604,0.2656033,0.3265072,0.6093376,-3.9448884,-40.0875,-20.7,13.70625,0.5100172,-0.49981487,0.5169759,998.8298, , , , 
2025-09-20 21:23:29.431,1.2179468,-9.669396,0.11964113,0.4816669,0.15974113,-3.4439793,-41.568752,-23.587502,14.19375,0.5262722,-0.47825474,0.5047285,998.8298, , , , 
2025-09-20 21:23:29.450,0.526421,-9.796216,-0.15553348,0.5910117,-0.15424335,-2.8813727,-39.73125,-26.868752,13.25625,0.5422044,-0.45986253,0.49291053,998.8266, , , , 
2025-09-20 21:23:29.471,0.5383851,-9.810573,-0.06460621,0.7510582,-0.6826414,-2.3120468,-39.46875,-30.6,14.531251,0.5573303,-0.44523156,0.48227262,998.8266, , , , 
2025-09-20 21:23:29.490,0.23449662,-9.480363,0.2105684,1.0571015,-1.7889175,-1.8331288,-35.943752,-30.375002,16.612501,0.5742489,-0.4358287,0.47100833,998.82416, , , , 
2025-09-20 21:23:29.510,-0.7537391,-9.068798,-1.1557333,1.1585051,-2.2965462,-1.2424226,-33.99375,-30.056252,17.925001,0.60027605,-0.4323771,0.45371675,998.82416, , , , 
2025-09-20 21:23:29.531,-2.213361,-9.468399,-3.0436704,0.6551525,-1.2770128,-0.32246023,-32.325,-32.4,20.98125,0.61697334,-0.4334545,0.4427845,998.78876, , , , 
2025-09-20 21:23:29.550,-2.548356,-10.064212,-2.993421,0.15302163,-0.30512697,0.58956087,-31.781252,-33.46875,20.212502,0.6226636,-0.43722618,0.44010276,998.78876, , , , 
2025-09-20 21:23:29.571,-1.8903298,-9.827323,-1.6654046,-0.21716243,0.22632541,1.7557018,-33.65625,-31.781252,20.15625,0.6177703,-0.44537413,0.44554517,998.7663, , , , 
2025-09-20 21:23:29.590,0.6580262,-8.776874,-0.009571291,-0.25625777,0.27030766,2.4972916,-34.425003,-30.393751,22.0125,0.60602736,-0.45863706,0.4561663,998.7663, , , , 
2025-09-20 21:23:29.610,2.9216363,-8.202596,1.079163,-0.013744458,0.092546016,2.8674757,-35.662502,-30.018751,21.65625,0.59138125,-0.47490346,0.46943188,998.75287, , , , 
2025-09-20 21:23:29.632,4.1922255,-8.568698,0.37088752,0.34361145,-0.13469568,3.0324092,-36.35625,-25.593752,20.25,0.57695496,-0.49176225,0.48397502,998.75287, , , , 
2025-09-20 21:23:29.652,4.5559344,-9.887143,-1.4668003,0.53053606,-0.3668243,3.232162,-39.112503,-23.90625,22.29375,0.56370765,-0.508707,0.49882656,998.74164, , , , 
2025-09-20 21:23:29.673,5.3407803,-11.454442,-2.87378,0.43707374,-0.3356702,3.5925722,-39.581253,-21.09375,22.181252,0.5461684,-0.5317138,0.51717764,998.74164, , , , 
2025-09-20 21:23:29.690,6.0658054,-12.787244,-3.4049866,0.1395826,0.097432934,3.9786386,-41.362503,-17.4375,24.468752,0.5273974,-0.5516833,0.5326748,998.7133, , , , 
2025-09-20 21:23:29.710,6.707082,-13.447663,-2.8570302,-0.18600832,0.45601055,4.3891397,-42.675003,-14.56875,23.5125,0.50215435,-0.57299477,0.5491498,998.7133, , , , 
2025-09-20 21:23:29.730,8.26481,-13.205988,-1.7228323,-0.399811,0.6148354,4.670748,-45.2625,-10.837501,21.73125,0.47145507,-0.59538865,0.5655267,998.67694, , , , 
2025-09-20 21:23:29.750,9.21476,-12.744173,-0.91166544,-0.5250383,0.7217367,4.6835766,-45.768753,-6.1687503,21.35625,0.43778846,-0.6172829,0.5807197,998.67694, , , , 
2025-09-20 21:23:29.770,9.059227,-12.916456,-0.22013968,-0.54947287,0.69180435,4.7202287,-46.40625,-3.4875002,20.8125,0.4027111,-0.6378102,0.5942663,998.65326, , , , 
2025-09-20 21:23:29.791,9.580862,-13.186846,0.10049855,-0.43829548,0.5433642,4.7794824,-46.66875,1.5937501,19.462502,0.35803825,-0.66146135,0.6093257,998.65326, , , , 
2025-09-20 21:23:29.811,10.549955,-13.148561,0.15553348,-0.27580544,0.3515527,4.7935324,-46.331253,6.1125,19.0125,0.32278803,-0.67823124,0.62015545,998.6462, , , , 
2025-09-20 21:23:29.831,11.942577,-12.937992,-0.30388847,-0.17134757,0.2953531,4.695794,-46.66875,10.200001,17.8875,0.28859496,-0.69269437,0.62987626,998.6462, , , , 
2025-09-20 21:23:29.851,13.177275,-12.504891,-0.49292147,-0.05650499,0.25137085,4.5357475,-44.550003,15.525001,17.362501,0.2556421,-0.7047218,0.6383541,998.63715, , , , 
2025-09-20 21:23:29.870,14.378471,-11.509477,-1.9597218,-0.017409647,0.341168,4.310338,-41.49375,18.31875,16.725,0.224209,-0.7141991,0.64589244,998.63715, , , , 
2025-09-20 21:23:29.891,14.706288,-10.073783,-2.2779672,-0.39736754,0.7687733,3.931602,-43.3125,20.98125,17.85,0.19322762,-0.7225758,0.6510935,998.6071, , , , 
2025-09-20 21:23:29.910,14.816358,-9.3104725,-0.5072784,-0.57818353,1.0571015,3.5907395,-40.443752,23.53125,17.400002,0.15403265,-0.7326673,0.6536605,998.6071, , , , 
2025-09-20 21:23:29.931,15.168102,-8.183454,0.77766734,-0.3649917,0.7950405,3.1289258,-38.49375,27.337502,16.368752,0.12504224,-0.73877203,0.6547982,998.6015, , , , 
2025-09-20 21:23:29.951,15.280565,-7.4392858,0.65324056,0.083993904,0.13164136,2.670777,-38.775,28.06875,15.431251,0.10268756,-0.7419736,0.6568057,998.6015, , , , 
2025-09-20 21:23:29.970,14.598611,-6.943971,-1.4237294,0.4572323,-0.5384773,2.3366342,-37.55625,30.431252,15.637501,0.08808477,-0.7421827,0.6604853,998.6015, , , , 
2025-09-20 21:23:29.991,15.371492,-6.5252275,-3.7950168,0.4896081,-1.0699297,2.0275366,-34.03125,32.662502,15.6,0.07978347,-0.7411339,0.6644128,998.6015, , , , 
2025-09-20 21:23:30.011,16.417156,-6.838687,-4.948357,0.0980438,-0.7852667,1.6811762,-33.16875,33.35625,16.237501,0.07523065,-0.7407757,0.6665193,998.5839, , , , 
2025-09-20 21:23:30.030,17.431713,-6.91765,-4.3094735,-0.4065305,-0.16584979,1.2566252,-32.362503,35.925003,16.63125,0.070587106,-0.74284524,0.6652499,998.5839, , , , 
2025-09-20 21:23:30.051,18.326628,-6.836294,-1.9118652,-0.69546956,0.34666577,0.73555756,-29.6625,36.3375,16.931252,0.06524217,-0.7471007,0.66113806,998.5715, , , , 
2025-09-20 21:23:30.071,19.046867,-6.984649,0.014356935,-0.4883864,0.38026333,0.027565273,-29.550001,35.98125,15.39375,0.061392583,-0.75220776,0.65552086,998.5715, , , , 
2025-09-20 21:23:30.091,19.111475,-6.24766,-1.0576276,-0.17989968,0.14813471,-0.6511055,-29.062502,36.393753,17.175001,0.06445277,-0.7536205,0.6532608,998.5881, , , , 
2025-09-20 21:23:30.111,18.623339,-6.111269,-1.7324036,-0.20677772,0.09193515,-1.4598905,-29.8875,35.925003,17.1375,0.07391015,-0.75376284,0.6514563,998.5881, , , , 
2025-09-20 21:23:30.131,16.400406,-7.728817,-0.7896315,-0.22021675,0.036346454,-2.2326343,-32.625,34.7625,18.5625,0.08918642,-0.75343823,0.64868116,998.5971, , , , 
2025-09-20 21:23:30.151,14.196617,-9.51147,-0.02871387,-0.054061532,-0.26542073,-2.7280457,-33.09375,33.112503,17.175001,0.109670654,-0.751605,0.645795,998.5971,37.88834168,127.73985234,146.2366943359375,1.97
2025-09-20 21:23:30.170,13.129417,-10.805987,0.03589234,0.09071342,-0.6026181,-3.0365324,-32.60625,32.025,18.88125,0.13468064,-0.74785817,0.6431621,998.6093, , , , 
2025-09-20 21:23:30.190,13.481163,-12.0430765,0.06460621,0.13347395,-0.8213077,-3.309589,-36.487503,29.400002,17.737501,0.163242,-0.74264574,0.6400499,998.6093, , , , 
2025-09-20 21:23:30.210,14.050654,-12.839887,0.0741775,0.08460477,-0.72723454,-3.57165,-37.575,27.562502,17.19375,0.18618849,-0.7379192,0.6370026,998.62616, , , , 
2025-09-20 21:23:30.232,13.904693,-13.237095,0.6987042,-0.10231985,0.044898562,-3.9308386,-38.30625,23.362501,18.431252,0.23101355,-0.7262857,0.62884027,998.62616, , , , 
2025-09-20 21:23:30.250,13.950156,-13.265809,1.7204394,-0.07238748,0.6227766,-4.227719,-40.0875,20.831251,15.825001,0.257541,-0.7160074,0.62282485,998.6352, , , , 
2025-09-20 21:23:30.270,13.787444,-13.629518,1.8376877,0.1310305,0.7553343,-4.569803,-40.96875,17.8875,15.000001,0.27685672,-0.7059804,0.6185779,998.6352, , , , 
2025-09-20 21:23:30.290,12.08854,-14.586647,1.1437693,0.40042186,0.51526445,-4.9289913,-42.525,13.743751,15.093751,0.31186604,-0.68472713,0.6110332,998.63983, , , , 
2025-09-20 21:23:30.311,10.468599,-14.813965,0.79920274,0.584903,0.11148282,-5.0511646,-44.68125,9.5625,14.475,0.34275183,-0.66502964,0.6035375,998.63983, , , , 
2025-09-20 21:23:30.330,8.848659,-14.691931,0.6628119,0.66309375,-0.032681264,-5.0426126,-44.643753,4.70625,14.437501,0.37507802,-0.64390683,0.5943965,998.6352, , , , 
2025-09-20 21:23:30.350,7.2957163,-14.184652,-0.15792629,0.65759593,0.029016078,-4.872181,-43.612503,-0.28125,14.925,0.406492,-0.6217031,0.58428925,998.6352, , , , 
2025-09-20 21:23:30.370,6.0634127,-13.217953,-1.0313065,0.5091558,0.23548837,-4.6357765,-45.24375,-4.8187504,14.587501,0.43495828,-0.5991898,0.5736834,998.6408, , , , 
2025-09-20 21:23:30.390,4.465007,-12.430714,-1.1294123,0.3045161,0.4138609,-4.3376746,-44.34375,-8.94375,15.187501,0.46499726,-0.5715694,0.5597651,998.6408, , , , 
2025-09-20 21:23:30.410,3.2973096,-11.971292,-0.9403793,0.22082762,0.33872452,-4.0359073,-42.15,-12.712501,14.718751,0.4852693,-0.5506829,0.54826033,998.6503, , , , 
2025-09-20 21:23:30.430,2.4646072,-11.49512,-0.3062813,0.21777329,0.02535089,-3.662669,-42.487503,-15.731251,15.075001,0.49934068,-0.5363751,0.5392362,998.6503, , , , 
2025-09-20 21:23:30.450,1.5840486,-11.272588,-0.48095736,0.25870124,-0.160352,-3.1978009,-41.662502,-18.993752,13.931251,0.5216017,-0.5153297,0.52399355,998.6547, , , , 
2025-09-20 21:23:30.470,0.47377887,-11.176874,-1.0671989,0.15057817,-0.0027488915,-2.7787476,-39.80625,-22.050001,15.618751,0.5366905,-0.5006055,0.51297563,998.6547, , , , 
2025-09-20 21:23:30.490,-0.5288138,-11.806187,-0.35413775,0.05650499,0.12614357,-2.1923172,-37.706253,-24.581251,16.462502,0.5478584,-0.48794964,0.5038862,998.65643, , , , 
2025-09-20 21:23:30.510,-1.2370893,-12.335001,-0.16749759,0.15057817,0.12064579,-1.6327652,-38.04375,-26.343752,15.525001,0.5557672,-0.47777775,0.49743143,998.65643, , , , 
2025-09-20 21:23:30.530,-2.3904297,-11.8588295,-0.65084773,0.21532984,0.0858265,-1.1263583,-37.55625,-28.931252,17.00625,0.56142265,-0.47021356,0.49377984,998.6667, , , , 
2025-09-20 21:23:30.550,-4.0438704,-12.5551405,-2.1798615,0.24159703,0.00763581,-0.31146467,-35.90625,-28.237501,14.00625,0.56556344,-0.46534982,0.49263108,998.6667, , , , 
2025-09-20 21:23:30.570,-5.2570314,-12.646068,-3.3499517,0.04734202,-0.05650499,0.64698213,-36.112503,-29.1375,14.85,0.5651473,-0.46701702,0.4948787,998.6696, , , , 
2025-09-20 21:23:30.590,-2.8905299,-12.100504,-2.239682,-0.18784092,-0.015577052,1.6219224,-36.787502,-27.975,17.175001,0.55924034,-0.47560275,0.50024205,998.6696, , , , 
2025-09-20 21:23:30.610,-0.54317075,-12.210574,-1.6031911,-0.25625777,0.18112141,2.3170865,-37.78125,-25.81875,15.150001,0.5477457,-0.48857322,0.50935775,998.6635, , , , 
2025-09-20 21:23:30.630,1.4380864,-12.935599,-1.4237294,-0.27885976,0.15974113,2.8674757,-38.850002,-24.562502,15.187501,0.5319998,-0.50426096,0.52142954,998.6635, , , , 
2025-09-20 21:23:30.650,3.3020952,-13.811373,-0.9403793,-0.21410811,-0.10109812,3.3604436,-40.275,-23.71875,14.83125,0.5138875,-0.52257085,0.53460723,998.6557, , , , 
2025-09-20 21:23:30.670,4.6779685,-14.6225395,-0.7537391,-0.10415245,-0.3252855,3.7532296,-40.74375,-20.90625,15.0375,0.4945284,-0.54285485,0.54811025,998.6557, , , , 
2025-09-20 21:23:30.690,5.7810597,-15.323636,-1.1006985,-0.062002774,-0.2886336,4.229093,-41.68125,-16.875,14.437501,0.46784222,-0.5697175,0.56572086,998.6457, , , , 
2025-09-20 21:23:30.710,7.025327,-15.067604,-1.2753744,-0.17867795,0.08704823,4.6573095,-43.818752,-12.262501,14.700001,0.44177377,-0.5915938,0.5809393,998.6457, , , , 
2025-09-20 21:23:30.730,8.602198,-14.423935,-0.96430755,-0.3741547,0.44257152,4.916316,-42.6375,-8.00625,12.168751,0.4101023,-0.6130402,0.596634,998.6357, , , , 
2025-09-20 21:23:30.750,10.217353,-13.519448,-0.3684947,-0.48227775,0.49327332,4.9383073,-43.912502,-1.81875,14.7375,0.37498194,-0.6334616,0.61117953,998.6357, , , , 
2025-09-20 21:23:30.770,10.913664,-13.095919,-0.13160525,-0.49754936,0.36987862,4.8246865,-46.237503,1.29375,16.35,0.33976585,-0.65231574,0.62339455,998.6308, , , , 
2025-09-20 21:23:30.790,10.758131,-13.213166,0.09810573,-0.48716468,0.35582873,4.7324457,-44.550003,4.9875,11.793751,0.3055387,-0.6693242,0.63336116,998.6308, , , , 
2025-09-20 21:23:30.810,11.140983,-13.2921295,0.47856453,-0.45295623,0.37476555,4.753826,-44.49375,10.462501,13.63125,0.270964,-0.6844889,0.6419759,998.63715, , , , 
2025-09-20 21:23:30.830,12.727424,-12.701102,0.6795616,-0.32956156,0.3045161,4.6634183,-44.71875,13.668751,13.312501,0.22778046,-0.7005489,0.65133744,998.63715, , , , 
2025-09-20 21:23:30.850,13.734802,-11.703296,0.60777694,-0.1951713,0.228158,4.373257,-43.10625,17.19375,12.01875,0.1953075,-0.7104837,0.6576685,998.6462, , , , 
2025-09-20 21:23:30.870,14.18226,-10.655239,0.4139583,-0.09193515,0.15363249,4.026897,-41.475002,22.462502,13.106251,0.16589081,-0.71787626,0.66295713,998.6462, , , , 
2025-09-20 21:23:30.890,14.572289,-9.521041,0.10767702,0.014355322,0.24342962,3.6628215,-38.006252,25.687502,11.475,0.13931008,-0.7230567,0.6674341,998.6535, , , , 
2025-09-20 21:23:30.910,14.383257,-8.530413,-1.2729816,0.021074835,0.45967576,3.27309,-35.568752,27.675001,11.71875,0.11442884,-0.72632277,0.6713956,998.6535, , , , 
2025-09-20 21:23:30.930,14.567504,-7.893922,-1.1892328,-0.066889696,0.43401942,2.9817073,-34.3125,30.91875,11.1,0.0909941,-0.7289725,0.6740309,998.63934, , , , 
2025-09-20 21:23:30.950,15.617953,-7.23111,-1.0624132,0.0033597562,0.29962918,2.6164103,-31.425001,31.462502,11.0625,0.070311725,-0.7310634,0.67566067,998.63934, , , , 
2025-09-20 21:23:30.970,16.094126,-5.9007006,-1.9716859,-0.060781047,0.32833982,2.1729224,-30.225,33.7125,10.5,0.053335115,-0.732248,0.67691797,998.6357, , , , 
2025-09-20 21:23:30.990,16.496119,-4.922036,-1.835295,-0.32895067,0.5439751,1.664072,-28.612501,35.23125,11.325001,0.039037537,-0.7339877,0.67655057,998.6357, , , , 
2025-09-20 21:23:31.010,16.8024,-4.941179,-0.61734825,-0.481056,0.70768684,0.9890664,-28.650002,36.375,9.88125,0.02464542,-0.7376143,0.6734036,998.62665, , , , 
2025-09-20 21:23:31.030,16.465014,-5.639883,-0.4019942,-0.41630435,0.6722567,0.51870054,-28.06875,36.43125,10.425,0.018818412,-0.7397157,0.6711403,998.62665, , , , 
2025-09-20 21:23:31.050,16.204195,-6.352944,-1.2610176,-0.40591964,0.720515,0.009850195,-26.8875,36.43125,10.1625,0.0136801,-0.7424851,0.66767174,998.63055, , , , 
2025-09-20 21:23:31.070,16.333406,-8.008778,-0.19621146,-0.4065305,0.59712034,-0.36216646,-26.812502,36.05625,9.243751,0.0124249365,-0.7449053,0.66420746,998.63055, , , , 
2025-09-20 21:23:31.090,18.003597,-7.676175,0.44745782,-0.055283263,0.0015271619,-0.73173964,-26.643751,35.568752,11.25,0.015462735,-0.74626714,0.6617156,998.64276, , , , 
2025-09-20 21:23:31.110,18.307486,-7.200003,-0.014356935,0.08460477,-0.46944958,-1.543579,-29.175001,35.325,10.14375,0.030018188,-0.74558944,0.6607927,998.64276, , , , 
2025-09-20 21:23:31.130,16.469799,-8.444271,0.5312066,0.11026109,-0.60200727,-2.188652,-29.081251,34.331253,10.35,0.04433105,-0.74473363,0.659917,998.6491, , , , 
2025-09-20 21:23:31.150,14.421542,-10.4566345,0.9834501,0.2525926,-0.7608321,-2.7048328,-30.112501,34.237503,9.69375,0.07417625,-0.74183726,0.6580887,998.6491,37.88832714,127.73985865,146.33038330078125,1.77
2025-09-20 21:23:31.170,14.110476,-11.97847,0.78723866,0.37904158,-0.8964441,-3.0212607,-31.0125,32.643753,9.4125,0.101832375,-0.7376697,0.65669346,998.6557, , , , 
2025-09-20 21:23:31.191,14.3689,-13.557734,0.43788654,0.39492407,-0.9471458,-3.3890014,-34.6875,29.1375,12.0,0.13201375,-0.73204887,0.65474063,998.6557, , , , 
2025-09-20 21:23:31.210,14.52204,-14.321044,0.86859465,0.3527744,-0.98868465,-3.74819,-36.61875,26.081251,11.306251,0.16440766,-0.7252998,0.65138835,998.6662, , , , 
2025-09-20 21:23:31.230,14.158332,-14.675181,1.4333007,0.33933538,-0.8591813,-4.1257043,-38.775,24.112501,12.093751,0.19877191,-0.7170735,0.64646125,998.6662, , , , 
2025-09-20 21:23:31.250,13.53859,-14.5818615,1.1940185,0.27091852,-0.42974338,-4.5178795,-41.100002,21.50625,13.875001,0.24221498,-0.7037156,0.6385003,998.6816, , , , 
2025-09-20 21:23:31.270,11.566905,-15.012569,0.9068798,0.14813471,0.377209,-4.8062077,-42.112503,18.018751,14.962501,0.27427468,-0.6902345,0.63084924,998.6816, , , , 
2025-09-20 21:23:31.290,10.939985,-15.139389,0.9236295,0.15057817,0.66248286,-4.894172,-44.5875,14.306251,12.95625,0.30268395,-0.6743508,0.62265563,998.69574, , , , 
2025-09-20 21:23:31.310,10.693524,-15.175282,1.18684,0.2837467,0.47739083,-5.0114584,-45.05625,10.51875,13.5375,0.33050263,-0.6563784,0.613516,998.69574, , , , 
2025-09-20 21:23:31.330,10.085748,-15.196816,1.0504491,0.4187478,0.2037234,-5.1018662,-45.16875,6.525,14.85,0.35249394,-0.64167625,0.6057113,998.6877, , , , 
2025-09-20 21:23:31.350,8.372486,-14.988641,0.6125626,0.4743365,0.14630212,-5.048721,-45.075,1.6875001,12.656251,0.39031848,-0.61543036,0.5907931,998.6877, , , , 
2025-09-20 21:23:31.370,7.460821,-14.383257,0.4354937,0.44257152,0.2849684,-4.851412,-45.787502,-3.2250001,13.012501,0.4184902,-0.5933758,0.57811356,998.68036, , , , 
2025-09-20 21:23:31.390,6.745367,-13.533805,0.21774685,0.4150826,0.3808742,-4.6302786,-42.43125,-5.49375,12.31875,0.44367757,-0.57080305,0.5653789,998.68036, , , , 
2025-09-20 21:23:31.410,6.32423,-13.07199,0.083748795,0.37110037,0.36193737,-4.3419504,-44.41875,-13.05,14.043751,0.4715253,-0.54268587,0.5493357,998.6701, , , , 
2025-09-20 21:23:31.430,5.733203,-12.227324,0.2727818,0.41080657,0.2941314,-4.186791,-42.693752,-16.96875,12.69375,0.48686296,-0.5262207,0.5395321,998.6701, , , , 
2025-09-20 21:23:31.450,3.6993039,-11.16491,-0.2727818,0.47006044,0.27336198,-4.022468,-42.206253,-20.175001,14.83125,0.5112507,-0.4985686,0.5230329,998.6508, , , , 
2025-09-20 21:23:31.470,0.7178468,-11.004591,-1.1318051,0.40225446,0.20616686,-3.6400669,-40.518753,-24.45,11.043751,0.5291264,-0.47707093,0.50991553,998.6508, , , , 
2025-09-20 21:23:31.491,-1.8424734,-10.411171,-0.76331043,0.37965247,-0.15790854,-2.798906,-37.5,-26.75625,12.543751,0.5445065,-0.4589775,0.49752238,998.6357, , , , 
2025-09-20 21:23:31.510,-1.6151553,-9.973285,-0.485743,0.48777553,-0.5061015,-1.9937863,-35.831253,-28.706251,12.4875,0.5579475,-0.44629717,0.48675293,998.6357, , , , 
2025-09-20 21:23:31.530,-1.2801601,-10.162318,-1.8664017,0.42729992,-0.44623673,-1.4714969,-37.18125,-30.6375,17.53125,0.5694714,-0.43810627,0.47844335,998.6335, , , , 
2025-09-20 21:23:31.550,-2.3688943,-11.023734,-2.8689942,-0.09987639,0.054672398,-0.72318757,-34.66875,-31.48125,15.000001,0.57731,-0.43242887,0.47218648,998.6335, , , , 
2025-09-20 21:23:31.570,-3.278167,-11.688938,-1.902294,-0.41996953,0.30634868,0.033063058,-34.331253,-32.79375,13.950001,0.5761401,-0.43224669,0.47124255,998.6115, , , , 
2025-09-20 21:23:31.590,-4.3836513,-10.449456,-0.81595254,-0.5348121,0.33933538,0.89865845,-36.525,-33.28125,15.750001,0.5696629,-0.4367109,0.47428757,998.6115, , , , 
2025-09-20 21:23:31.610,-3.6729827,-9.552148,0.33738798,-0.5042689,0.32589635,1.6927826,-36.375,-32.006252,13.968751,0.5591971,-0.4457865,0.48120323,998.61127, , , , 
2025-09-20 21:23:31.630,-2.012364,-9.822537,1.1318051,-0.27091852,0.15851942,2.464305,-37.18125,-30.975,13.218751,0.54585344,-0.45830774,0.4919139,998.61127, , , , 
2025-09-20 21:23:31.650,0.50488555,-11.301301,0.9499506,0.055283263,-0.28252497,3.0311873,-37.40625,-27.000002,13.012501,0.5315818,-0.47398978,0.50546265,998.6276, , , , 
2025-09-20 21:23:31.670,2.524428,-12.823136,0.0,0.3509418,-0.7211259,3.530264,-40.66875,-24.993752,14.025001,0.5180184,-0.49282408,0.52033824,998.6276, , , , 
2025-09-20 21:23:31.690,4.800002,-14.268401,-1.2514462,0.4169152,-0.82558376,4.05011,-40.912502,-22.518751,14.212501,0.50040436,-0.51972246,0.5401451,998.63763, , , , 
2025-09-20 21:23:31.710,6.206982,-15.151353,-2.0075781,0.23426664,-0.52931434,4.4147964,-42.131252,-16.931252,14.493751,0.4872206,-0.53687525,0.55273825,998.63763, , , , 
2025-09-20 21:23:31.730,7.8293157,-15.337994,-1.9501505,-0.19578215,0.03573559,4.838125,-43.350002,-13.462501,15.95625,0.4570724,-0.56625426,0.57466924,998.6215, , , , 
2025-09-20 21:23:31.750,9.403793,-15.294922,-1.0671989,-0.54764026,0.38698283,5.048263,-47.34375,-10.875,14.681251,0.42550623,-0.59000033,0.59177583,998.6215, , , , 
2025-09-20 21:23:31.770,10.947164,-15.251851,0.03589234,-0.716239,0.4896081,5.080028,-47.475002,-5.55,15.937501,0.38998637,-0.61314946,0.6070963,998.61444, , , , 
2025-09-20 21:23:31.790,11.552547,-15.067604,0.45224348,-0.74189526,0.45784315,5.0091677,-46.48125,-2.0812502,16.10625,0.3533077,-0.63458693,0.6202832,998.61444, , , , 
2025-09-20 21:23:31.810,12.057433,-14.97907,0.94277215,-0.7394518,0.16646065,5.0409327,-46.93125,4.125,12.243751,0.3170421,-0.6544733,0.63114786,998.613, , , , 
2025-09-20 21:23:31.830,13.691731,-14.847465,1.9190438,-0.6270527,0.08155045,4.9590764,-46.21875,8.306251,12.243751,0.28181052,-0.6728684,0.6399082,998.613, , , , 
2025-09-20 21:23:31.850,14.498113,-14.392828,2.012364,-0.47067133,0.2855793,4.7214503,-46.050003,13.5375,12.075001,0.24752396,-0.6880426,0.6477473,998.60785, , , , 
2025-09-20 21:23:31.870,14.46222,-13.584054,1.6342978,-0.40042186,0.5745183,4.487489,-44.025,16.987501,11.6625,0.21356504,-0.69970965,0.65502775,998.60785, , , , 
2025-09-20 21:23:31.890,15.850058,-12.313465,1.3734802,-0.35460702,0.9117157,4.1472373,-44.2125,21.1875,12.843751,0.17096291,-0.7104814,0.6629519,998.602, , , , 
2025-09-20 21:23:31.910,16.256838,-10.69831,0.7513463,-0.3252855,1.2525783,3.6011243,-41.2125,23.400002,8.231251,0.13828975,-0.71618515,0.6680587,998.602, , , , 
2025-09-20 21:23:31.930,14.215759,-9.372686,-0.5192425,-0.5568032,1.7339396,3.1490843,-40.331253,25.725,9.8625,0.1065801,-0.72019947,0.67154384,998.5915, , , , 
2025-09-20 21:23:31.950,12.799209,-8.5016985,0.38285163,-0.7980948,1.7699807,2.9847617,-38.68125,27.375002,9.900001,0.07434832,-0.72452605,0.6722643,998.5915, , , , 
2025-09-20 21:23:31.970,12.7082815,-7.881958,2.6632116,-0.5897899,1.1346813,2.9181774,-36.600002,30.956251,8.400001,0.043814197,-0.72879004,0.67141414,998.58026, , , , 
2025-09-20 21:23:31.990,13.966906,-7.1377897,3.4648073,0.06811142,0.15057817,2.7911174,-34.29375,33.581253,6.3,0.019414626,-0.7305718,0.6725479,998.58026, , , , 
2025-09-20 21:23:32.010,15.792629,-6.1639113,0.81834537,0.7840449,-0.5885682,2.4807982,-33.975002,33.09375,8.15625,4.8578923E-4,-0.72718483,0.67966413,998.5922, , , , 
2025-09-20 21:23:32.030,17.027327,-5.623133,-2.2229323,0.8836159,-0.86223567,2.1747549,-31.368752,35.737503,7.1062503,-0.0059642615,-0.7232729,0.68554175,998.5922, , , , 
2025-09-20 21:23:32.050,19.606789,-4.871787,-4.2281175,0.40775225,-0.72845626,1.6359723,-29.925001,38.625,7.2562504,-0.011771839,-0.7183279,0.6927603,998.57806, , , , 
2025-09-20 21:23:32.070,21.131018,-4.8119664,-3.845266,-0.3026835,-0.11636974,0.86200655,-27.581251,37.875,7.2000003,-0.014085043,-0.71850544,0.6932561,998.57806, , , , 
2025-09-20 21:23:32.090,21.229122,-6.0083776,-0.8781659,-0.7498365,0.38515025,0.11614066,-27.225,39.525,6.4687505,-0.015302316,-0.72258323,0.6888779,998.5607, , , , 
2025-09-20 21:23:32.110,21.942184,-5.9964137,2.1511476,-0.49632764,0.2629773,-0.7537308,-27.656252,38.98125,7.93125,-0.013267729,-0.7270552,0.6835193,998.5607, , , , 
2025-09-20 21:23:32.130,20.918056,-6.9391856,2.292324,-0.068722285,-0.06994402,-1.9516366,-27.712502,38.60625,6.8812504,7.4974634E-4,-0.72913605,0.6797609,998.57806, , , , 
2025-09-20 21:23:32.150,16.943577,-8.848659,1.9812572,0.16890411,-0.4639518,-2.8508296,-30.6,37.55625,8.625,0.022164386,-0.7282696,0.6780516,998.57806,37.88831291,127.73986649,146.59686279296875,1.7
2025-09-20 21:23:32.170,12.557533,-10.033105,2.3784657,0.4138609,-1.0619885,-3.255833,-30.056252,35.86875,8.3625,0.050989147,-0.72556883,0.6766744,998.6098, , , , 
2025-09-20 21:23:32.190,10.485349,-10.581061,2.565106,0.7308997,-1.5671736,-3.3376887,-32.737503,34.85625,7.4625,0.0846136,-0.7206268,0.67610717,998.6098, , , , 
2025-09-20 21:23:32.210,10.080962,-10.877771,1.0671989,0.9337068,-1.9599596,-3.3700647,-35.475002,30.937502,10.59375,0.121240176,-0.7133668,0.67622125,998.6457, , , , 
2025-09-20 21:23:32.230,11.174481,-11.540584,-0.72741807,0.7761037,-2.0424263,-3.4830747,-37.18125,29.775002,10.368751,0.15971482,-0.70523715,0.6750019,998.6457, , , , 
2025-09-20 21:23:32.250,12.519248,-12.47857,-1.7754744,0.17134757,-1.9110905,-3.712149,-37.59375,26.98125,10.725,0.19854116,-0.69813347,0.6699448,998.6645, , , , 
2025-09-20 21:23:32.270,13.524234,-13.342379,0.701097,-0.35582873,-1.7938044,-4.0407944,-38.79375,24.112501,12.4125,0.23683223,-0.6929758,0.65969855,998.6645, , , , 
2025-09-20 21:23:32.290,13.378271,-13.648661,3.9960139,-0.37781987,-1.6074907,-4.449463,-40.518753,19.3125,13.950001,0.275342,-0.6874819,0.64599097,998.67035, , , , 
2025-09-20 21:23:32.310,11.842079,-13.823337,4.254439,-0.14385866,-0.8940006,-4.773221,-40.93125,17.493752,17.79375,0.3225507,-0.6750294,0.6291807,998.67035, , , , 
2025-09-20 21:23:32.330,10.777273,-14.572289,3.048456,0.019853106,-0.09560034,-4.837362,-43.36875,11.15625,16.725,0.35589904,-0.66006386,0.6178186,998.71185, , , , 
2025-09-20 21:23:32.350,10.660025,-15.804593,1.0336994,0.08093958,0.28619015,-4.7805514,-43.987503,8.85,17.0625,0.38462788,-0.64191824,0.60813415,998.71185, , , , 
2025-09-20 21:23:32.370,10.66481,-16.29273,0.49052864,0.023518294,0.17623448,-4.7438993,-45.6375,3.6937501,18.46875,0.4110702,-0.62277216,0.59779745,998.726, , , , 
2025-09-20 21:23:32.390,9.745967,-15.6873455,1.1365907,0.013744458,-0.013744458,-4.7109127,-45.73125,-1.2750001,16.44375,0.43067482,-0.6084365,0.58865154,998.726, , , , 
2025-09-20 21:23:32.410,8.4347,-14.876179,1.2179468,0.09376775,-0.076052666,-4.594238,-44.41875,-6.24375,17.6625,0.4627859,-0.58385813,0.571919,998.72675, , , , 
2025-09-20 21:23:32.430,6.599405,-13.926228,1.0169497,0.13347395,0.03329213,-4.339507,-43.3875,-9.637501,19.9125,0.49262378,-0.5583715,0.5549188,998.72675, , , , 
2025-09-20 21:23:32.450,5.465207,-12.827922,0.6723832,0.118202336,0.2629773,-4.046292,-41.71875,-12.431251,17.8875,0.51309484,-0.5378053,0.5422922,998.72675, , , , 
2025-09-20 21:23:32.470,3.9960139,-12.023933,-0.031106694,0.04367683,0.42729992,-3.7726245,-40.85625,-18.31875,18.13125,0.5301545,-0.51729834,0.5307962,998.72675, , , , 
2025-09-20 21:23:32.490,2.7421749,-12.160325,0.13160525,-0.021685699,0.24281874,-3.4189339,-40.237503,-22.48125,18.150002,0.54470545,-0.49826834,0.51943505,998.74115, , , , 
2025-09-20 21:23:32.510,0.9619147,-12.074183,0.2440679,0.050396346,-0.15485422,-2.9876633,-37.987503,-23.737501,17.0625,0.5583913,-0.48195803,0.5076353,998.74115, , , , 
2025-09-20 21:23:32.530,-1.6654046,-11.52862,-0.040677983,0.023518294,-0.21349724,-2.4177265,-38.662502,-26.306252,18.206251,0.5712261,-0.4686365,0.49599773,998.7497, , , , 
2025-09-20 21:23:32.550,-3.6323047,-10.980663,-0.2321038,-0.044898562,0.08277218,-1.4543927,-35.175003,-28.687502,17.04375,0.58201396,-0.4568303,0.4854304,998.7497, , , , 
2025-09-20 21:23:32.570,-3.897908,-10.339387,-0.3469593,-0.021074835,0.26725334,-0.68653566,-37.10625,-30.13125,19.03125,0.58442545,-0.45253634,0.48296115,998.7651, , , , 
2025-09-20 21:23:32.590,-3.7998023,-10.827522,-2.0075781,0.0033597562,0.1933387,0.16317725,-35.4,-29.831251,17.60625,0.5837847,-0.4503363,0.48424497,998.7651, , , , 
2025-09-20 21:23:32.610,-3.8907297,-10.631311,-2.9048867,-0.228158,0.016187917,1.04099,-35.90625,-29.38125,17.325,0.5799319,-0.4549344,0.487883,998.77704, , , , 
2025-09-20 21:23:32.630,-1.4739788,-9.801002,-1.1916257,-0.5537489,0.28924447,1.9597306,-35.925003,-28.7625,17.90625,0.57086486,-0.4659924,0.49397108,998.77704, , , , 
2025-09-20 21:23:32.650,0.43788654,-9.5665045,0.5312066,-0.5421425,0.64354604,2.4917939,-37.800003,-28.06875,15.13125,0.5555777,-0.47994572,0.50420284,998.76556, , , , 
2025-09-20 21:23:32.670,1.5361922,-10.281959,0.74177504,-0.3338376,0.63927,2.8766387,-38.79375,-25.687502,16.331251,0.53659797,-0.4944386,0.5182793,998.76556, , , , 
2025-09-20 21:23:32.690,3.3930225,-11.46162,0.2105684,0.04734202,0.068722285,3.3549457,-42.412502,-23.19375,17.04375,0.5172168,-0.51031536,0.53413284,998.7746, , , , 
2025-09-20 21:23:32.710,5.3982077,-12.172289,-1.1509477,0.30146176,-0.47861254,3.7055821,-43.10625,-20.15625,16.1625,0.4953646,-0.5331237,0.553511,998.7746, , , , 
2025-09-20 21:23:32.730,6.5228343,-12.634104,-2.3928227,0.17928882,-0.4499019,3.967643,-43.0125,-16.1625,15.918751,0.47781873,-0.552899,0.56805307,998.7636, , , , 
2025-09-20 21:23:32.750,7.7671022,-12.473784,-2.1774685,-0.17501275,-0.12125666,4.2559714,-44.643753,-11.85,16.0125,0.4562961,-0.57372683,0.58195114,998.7636, , , , 
2025-09-20 21:23:32.770,9.406186,-12.265609,-0.7513463,-0.4071414,0.30573782,4.3451576,-43.95,-8.418751,15.731251,0.42935157,-0.5946613,0.59541905,998.7409, , , , 
2025-09-20 21:23:32.790,9.169296,-12.717853,0.18424734,-0.5213731,0.6081159,4.384864,-45.018753,-3.6562502,14.19375,0.39869282,-0.613909,0.60854137,998.7409, , , , 
2025-09-20 21:23:32.810,9.659825,-13.067204,0.9451649,-0.5018254,0.5568032,4.479548,-48.881252,-0.22500001,15.937501,0.36599365,-0.63191116,0.62096065,998.73553, , , , 
2025-09-20 21:23:32.831,10.497313,-13.170095,1.4189439,-0.34727663,0.29901832,4.514978,-45.61875,3.4875002,14.606251,0.333238,-0.64861476,0.63231504,998.73553, , , , 
2025-09-20 21:23:32.850,11.990435,-12.966706,0.72263247,-0.26603162,0.32406378,4.428235,-45.825,7.4625,13.33125,0.29400918,-0.6668322,0.64498407,998.7485, , , , 
2025-09-20 21:23:32.870,12.004791,-12.335001,0.5024927,-0.36315912,0.62644184,4.301786,-47.68125,11.25,12.843751,0.27020833,-0.67625636,0.65164083,998.7485, , , , 
2025-09-20 21:23:32.890,12.165111,-11.097912,1.3160524,-0.42119128,0.9337068,4.1502914,-43.96875,17.23125,11.962501,0.2285817,-0.68994176,0.66095906,998.7524, , , , 
2025-09-20 21:23:32.910,12.490534,-9.985249,0.47856453,-0.3423897,1.0430516,3.9810822,-43.36875,18.675001,10.725,0.19487286,-0.69841355,0.6675875,998.7524, , , , 
2025-09-20 21:23:32.930,13.820944,-9.162118,-0.6723832,-0.43768463,1.009454,3.769112,-43.6875,22.143751,9.4875,0.16230394,-0.70549715,0.6727716,998.75336, , , , 
2025-09-20 21:23:32.950,14.711074,-8.255239,-0.68195444,-0.6716458,1.0063998,3.3103526,-41.11875,24.018751,10.81875,0.13203551,-0.71231776,0.67527676,998.75336, , , , 
2025-09-20 21:23:32.970,14.112868,-7.9393854,0.37088752,-0.82375115,1.0009019,2.9010732,-37.78125,28.10625,8.681251,0.10436854,-0.71910155,0.67506635,998.7402, , , , 
2025-09-20 21:23:32.990,14.074583,-7.7623167,1.5888343,-0.7278454,0.8145882,2.639012,-35.79375,30.675001,8.94375,0.07949472,-0.7253282,0.67341614,998.7402, , , , 
2025-09-20 21:23:33.010,15.407385,-7.135397,0.5910272,-0.47800168,0.69180435,2.423377,-35.943752,31.518751,9.993751,0.05247792,-0.7306394,0.67212325,998.738, , , , 
2025-09-20 21:23:33.030,17.553747,-6.623333,-0.5024927,-0.44745845,0.5207622,2.0629668,-35.60625,33.28125,12.01875,0.03416334,-0.73360646,0.67122585,998.738, , , , 
2025-09-20 21:23:33.050,18.975084,-5.871987,-0.7393822,-0.43585202,0.15241076,1.5498403,-33.05625,34.800003,8.56875,0.021080155,-0.73649293,0.669498,998.74115, , , , 
2025-09-20 21:23:33.070,19.750359,-5.3216376,-0.8662018,-0.52564913,-0.010690134,0.8821651,-32.625,35.475002,8.493751,0.014388667,-0.73956287,0.66688293,998.74115, , , , 
2025-09-20 21:23:33.090,19.317257,-6.053841,0.782453,-0.62888527,0.036346454,0.18577924,-32.30625,35.737503,10.6125,0.012662983,-0.7433292,0.662729,998.738, , , , 
2025-09-20 21:23:33.110,20.037497,-6.407979,2.806781,-0.28252497,-0.4969385,-0.30841035,-32.006252,37.143753,9.1125,0.0154309245,-0.7464782,0.6587211,998.738, , , , 
2025-09-20 21:23:33.130,22.578674,-6.1734824,3.9864426,0.41447175,-1.9147557,-1.2326487,-30.54375,35.175003,11.38125,0.02788471,-0.7469647,0.65766,998.7546, , , , 
2025-09-20 21:23:33.150,21.75315,-7.448857,2.8570302,0.79015356,-2.229351,-2.415283,-30.206251,35.9625,9.6,0.06384527,-0.7426388,0.6601944,998.7546,37.88830236,127.73987266,146.0491943359375,1.43
2025-09-20 21:23:33.170,17.675781,-9.623933,1.3710874,0.7840449,-1.5616758,-3.2344527,-32.5875,31.593752,12.4125,0.100177504,-0.73605525,0.6620662,998.7758, , , , 
2025-09-20 21:23:33.190,14.761323,-11.492727,0.35174492,0.67470014,-0.9318742,-3.612578,-33.300003,31.0125,12.375001,0.135257,-0.72794306,0.6624565,998.7758, , , , 
2025-09-20 21:23:33.210,13.452449,-12.490534,-0.65324056,0.53297955,-0.571464,-3.8208828,-38.15625,29.2875,10.96875,0.16808024,-0.71887445,0.6612661,998.7922, , , , 
2025-09-20 21:23:33.230,12.971492,-12.870993,-1.2299109,0.28985533,-0.56291187,-4.0585093,-41.15625,25.593752,14.26875,0.19999611,-0.70945466,0.6578471,998.7922, , , , 
2025-09-20 21:23:33.250,12.471392,-12.983456,-0.148355,0.118202336,-0.7779363,-4.2930813,-40.0875,22.331251,16.2,0.23316167,-0.70010805,0.6513276,998.8066, , , , 
2025-09-20 21:23:33.270,11.442478,-13.081561,0.9499506,0.07788526,-0.8500183,-4.46168,-42.393753,20.25,14.55,0.26791108,-0.6900322,0.6423165,998.8066, , , , 
2025-09-20 21:23:33.290,10.794023,-13.2203455,1.6366907,0.1273653,-0.92026776,-4.5410924,-44.4,16.1625,16.237501,0.30283427,-0.6784413,0.6319299,998.81464, , , , 
2025-09-20 21:23:33.310,10.650454,-13.397414,2.0865414,0.28985533,-1.1670572,-4.5954595,-42.787502,13.35,16.3875,0.34725556,-0.6615072,0.61755407,998.81464, , , , 
2025-09-20 21:23:33.331,10.719846,-13.371093,1.9190438,0.35399613,-1.0876447,-4.6492157,-44.831253,8.512501,19.03125,0.37431246,-0.64994884,0.60831434,998.8332, , , , 
2025-09-20 21:23:33.350,9.966106,-13.284951,0.849452,0.26908594,-0.47189304,-4.7054152,-44.60625,3.05625,19.0125,0.41658536,-0.62789834,0.5927392,998.8332, , , , 
2025-09-20 21:23:33.370,8.685946,-13.304094,0.47856453,0.083383046,0.14630212,-4.619283,-42.956253,0.24375,18.075,0.44491008,-0.6081658,0.5807829,998.83563, , , , 
2025-09-20 21:23:33.390,8.078169,-13.289737,1.012164,0.0876591,0.40286532,-4.4641232,-43.125,-4.7625003,19.9125,0.46843958,-0.58733255,0.5695292,998.83563, , , , 
2025-09-20 21:23:33.410,7.537391,-13.148561,0.7680961,0.24648394,0.18539746,-4.3596654,-42.075,-9.0,19.59375,0.49016237,-0.56560284,0.5585168,998.8305, , , , 
2025-09-20 21:23:33.430,6.4965134,-12.545569,0.11485548,0.30329436,-0.03084867,-4.2472663,-42.65625,-12.656251,18.618752,0.51234484,-0.54380155,0.5464715,998.8305, , , , 
2025-09-20 21:23:33.450,4.2568316,-11.717652,-1.012164,0.1188132,0.19211698,-4.005364,-41.34375,-16.275002,20.081251,0.5383459,-0.51722956,0.53024495,998.83026, , , , 
2025-09-20 21:23:33.470,1.7850457,-11.564512,-1.1557333,-0.10476331,0.57390743,-3.625406,-38.53125,-20.56875,18.16875,0.5542519,-0.4966815,0.51818883,998.83026, , , , 
2025-09-20 21:23:33.490,-0.016749758,-11.751152,-0.5240282,-0.15241076,0.5250383,-3.0041566,-39.73125,-22.181252,17.925001,0.5654326,-0.47818565,0.50797445,998.8193, , , , 
2025-09-20 21:23:33.510,-0.2847459,-10.817951,-1.3256238,-0.027794348,0.2904662,-2.3083816,-38.04375,-26.118752,18.28125,0.57435125,-0.46355593,0.49932182,998.8193, , , , 
2025-09-20 21:23:33.530,-1.9812572,-10.554741,-3.1513474,-0.309403,0.7046325,-1.8441244,-36.75,-27.618752,19.3125,0.58055,-0.4517524,0.49278215,998.8239, , , , 
2025-09-20 21:23:33.550,-4.0414777,-10.576276,-1.012164,-0.7351758,1.1053598,-0.9369902,-36.80625,-30.225,17.306252,0.5797036,-0.44317716,0.48975372,998.8239, , , , 
2025-09-20 21:23:33.570,-2.8546374,-10.839486,2.103291,-0.25809038,0.5280926,-0.050625417,-37.78125,-30.69375,17.2875,0.57233685,-0.43898684,0.4913492,998.8129, , , , 
2025-09-20 21:23:33.590,-2.548356,-11.710474,0.30149564,0.32100943,-0.21166465,0.5651263,-35.90625,-30.35625,15.056251,0.56974626,-0.439802,0.49415046,998.8129, , , , 
2025-09-20 21:23:33.610,-2.4430718,-11.408978,-2.2755744,0.39370236,-0.6820305,1.5907682,-36.43125,-28.44375,17.175001,0.56836075,-0.44860953,0.50039124,998.8117, , , , 
2025-09-20 21:23:33.630,0.124426775,-11.152946,-2.3282163,0.05222894,-0.2941314,2.428264,-35.662502,-28.968752,16.81875,0.562665,-0.46253452,0.50846803,998.8117, , , , 
2025-09-20 21:23:33.650,2.928815,-11.334801,-0.9738788,-0.24098615,0.2593121,3.0165267,-38.11875,-25.875002,17.362501,0.54922646,-0.47938117,0.5207079,998.76337, , , , 
2025-09-20 21:23:33.670,5.508278,-11.49512,-0.35413775,-0.21838416,0.37232208,3.245601,-39.73125,-23.79375,16.331251,0.52574223,-0.50137687,0.5394249,998.76337, , , , 
2025-09-20 21:23:33.692,6.0490556,-11.550155,-0.9403793,-0.18600832,0.23609924,3.3836563,-42.35625,-20.081251,16.85625,0.50565505,-0.5189369,0.5546148,998.72577, , , , 
2025-09-20 21:23:33.710,6.300302,-11.416157,-1.6654046,-0.31734425,0.24220788,3.579133,-44.287502,-17.400002,15.056251,0.49010292,-0.5326366,0.56538606,998.72577, , , , 
2025-09-20 21:23:33.730,6.7525454,-11.085947,-1.8257236,-0.66003937,0.59712034,3.7837727,-44.0625,-14.775001,15.637501,0.46649462,-0.5518159,0.57916945,998.69525, , , , 
2025-09-20 21:23:33.750,6.6855464,-11.133803,-0.91884387,-1.0509928,0.9899064,4.0067387,-46.21875,-11.118751,13.35,0.42972812,-0.576547,0.59567845,998.69525, , , , 
2025-09-20 21:23:33.770,7.5326056,-11.363515,0.47138608,-1.1890483,0.77427113,4.175948,-44.7,-6.6000004,13.087501,0.39608622,-0.5970257,0.6075308,998.6816, , , , 
2025-09-20 21:23:33.790,8.769695,-11.631511,2.1128623,-0.9789108,0.0858265,4.3042297,-44.23125,-3.7875001,9.46875,0.36372238,-0.618025,0.61711425,998.6816, , , , 
2025-09-20 21:23:33.810,10.451849,-11.667403,1.9142581,-0.51282096,-0.34849834,4.4038005,-46.518753,0.3,11.962501,0.33487087,-0.6377942,0.6257939,998.6855, , , , 
2025-09-20 21:23:33.830,11.794223,-11.346765,0.39960137,-0.3265072,-0.30390522,4.487489,-46.65,4.78125,12.01875,0.307559,-0.6549154,0.6348182,998.6855, , , , 
2025-09-20 21:23:33.850,15.677774,-9.956535,-0.782453,-0.40958482,-0.038179047,4.2822385,-45.73125,8.475,11.56875,0.27958468,-0.6700113,0.6432269,998.69916, , , , 
2025-09-20 21:23:33.870,16.22573,-8.853444,-0.8470592,-0.67653275,0.27763805,3.597459,-44.71875,10.6875,11.94375,0.2524087,-0.6830015,0.6489678,998.69916, , , , 
2025-09-20 21:23:33.890,13.562519,-8.88455,0.63170516,-0.82619464,0.45784315,3.091052,-46.068752,14.793751,11.55,0.2209877,-0.69710654,0.6518333,998.6806, , , , 
2025-09-20 21:23:33.910,12.88535,-8.487342,1.1676974,-0.75899947,0.6044507,2.9768205,-41.86875,18.825,10.575001,0.196636,-0.70677537,0.65307695,998.6806, , , , 
2025-09-20 21:23:33.931,12.725031,-7.472785,1.2442678,-0.69058263,0.95508707,2.8454845,-40.725002,21.581251,9.525001,0.17162491,-0.7146279,0.6545631,998.675, , , , 
2025-09-20 21:23:33.950,13.63191,-7.0396843,0.930808,-0.6007855,1.0668753,2.6457317,-42.600002,23.23125,10.5375,0.145951,-0.72075754,0.65617293,998.675, , , , 
2025-09-20 21:23:33.970,14.397614,-6.1830535,0.96430755,-0.40591964,0.6319396,2.3060908,-40.78125,24.16875,10.14375,0.12275911,-0.7253827,0.6575613,998.68207, , , , 
2025-09-20 21:23:33.990,14.471791,-5.716453,0.8422736,-0.12553272,0.02535089,1.9670609,-40.96875,27.018751,11.08125,0.10590978,-0.72856694,0.65899044,998.68207, , , , 
2025-09-20 21:23:34.010,15.043676,-5.871987,-0.17228323,0.2073886,-0.32467464,1.7673081,-39.24375,28.931252,10.481251,0.09499591,-0.7302077,0.6612171,998.68304, , , , 
2025-09-20 21:23:34.030,16.108482,-5.4388857,-1.6486548,0.3045161,-0.4065305,1.6115377,-37.050003,30.4125,10.33125,0.08737394,-0.73032737,0.66451097,998.68304, , , , 
2025-09-20 21:23:34.050,17.613567,-4.4434714,-3.1106694,0.038789913,-0.094378605,1.1912627,-35.0625,31.48125,10.05,0.08044044,-0.73037356,0.66753906,998.6845, , , , 
2025-09-20 21:23:34.070,18.221344,-5.070391,-2.5028925,-0.4101957,0.3423897,0.60605425,-35.625,31.781252,12.4125,0.07554461,-0.7321118,0.666598,998.6845, , , , 
2025-09-20 21:23:34.092,17.606388,-6.8865438,0.22253251,-0.4431824,-0.037568185,-0.017027855,-35.643753,31.5375,10.575001,0.073412366,-0.73572195,0.66212904,998.6728, , , , 
2025-09-20 21:23:34.110,18.037098,-6.6448684,1.0911272,-0.1707367,-0.6148354,-0.37132943,-36.46875,32.568752,11.0625,0.07691156,-0.7371468,0.65983945,998.6728, , , , 
2025-09-20 21:23:34.131,19.11626,-6.778867,1.0624132,-0.05650499,-0.846964,-0.9180534,-34.893753,30.88125,10.06875,0.08788567,-0.7376456,0.65763694,998.68353, , , , 
2025-09-20 21:23:34.150,18.943977,-8.382058,1.7922242,-0.07238748,-0.69241524,-1.8429027,-37.3125,29.23125,12.58125,0.10457478,-0.737083,0.65476286,998.68353,37.88828575,127.73987919,146.2618408203125,1.5
2025-09-20 21:23:34.170,16.371693,-10.722239,2.981457,0.07299834,-0.6685915,-2.5704427,-36.037502,28.781252,9.225,0.13151775,-0.73413247,0.6501224,998.695, , , , 
2025-09-20 21:23:34.190,14.723038,-11.937792,3.641876,0.44257152,-1.0534363,-2.9241333,-36.45,26.962502,11.85,0.15765023,-0.7289989,0.6470195,998.695, , , , 
2025-09-20 21:23:34.210,13.55534,-12.660424,1.8544376,0.8151991,-1.371086,-3.236896,-39.35625,24.806252,10.725,0.18866856,-0.7207041,0.6452088,998.7265, , , , 
2025-09-20 21:23:34.230,12.375679,-12.614961,-0.526421,0.50976664,-1.0680971,-3.4293184,-41.550003,22.2,14.19375,0.2216972,-0.7109308,0.642521,998.7265, , , , 
2025-09-20 21:23:34.250,12.425928,-12.2991085,0.6412765,0.1847866,-0.56718796,-3.5911977,-43.55625,20.475,16.987501,0.25203294,-0.70183694,0.6369144,998.7358, , , , 
2025-09-20 21:23:34.270,12.05504,-11.921042,1.5864414,0.2244928,-0.33444846,-3.8459282,-42.9,16.95,14.175,0.28008953,-0.6916783,0.63005084,998.7358, , , , 
2025-09-20 21:23:34.290,11.212767,-11.648261,1.4715859,0.3735438,-0.32956156,-4.104935,-43.706253,14.512501,15.168751,0.3085371,-0.6790211,0.62292343,998.73846, , , , 
2025-09-20 21:23:34.310,10.250853,-11.49512,0.86141616,0.46150833,-0.30757043,-4.3474483,-43.8375,11.1,17.85,0.3457657,-0.659872,0.61306536,998.73846, , , , 
2025-09-20 21:23:34.330,9.399008,-11.547762,0.6197411,0.46150833,-0.14508039,-4.4800057,-45.506252,7.2000003,17.94375,0.36817968,-0.6468596,0.606432,998.74677, , , , 
2025-09-20 21:23:34.350,7.8436728,-11.810972,0.40438703,0.48533207,0.085215636,-4.4971104,-47.025,1.8375001,17.025002,0.40359524,-0.62278575,0.5947725,998.74677, , , , 
2025-09-20 21:23:34.370,6.7525454,-11.75833,0.23688944,0.5390882,0.02535089,-4.3792133,-45.881252,-1.9125,17.8875,0.42989606,-0.60211784,0.58521616,998.7299, , , , 
2025-09-20 21:23:34.390,5.986842,-11.4903345,-0.047856454,0.57696176,-0.2244928,-4.2552075,-43.275,-4.89375,18.393751,0.45566726,-0.58126193,0.5747661,998.7299, , , , 
2025-09-20 21:23:34.410,5.0536413,-11.509477,-0.6723832,0.4969385,-0.34055713,-4.0609527,-45.43125,-9.075001,17.475,0.4811463,-0.56096464,0.5629578,998.7216, , , , 
2025-09-20 21:23:34.430,3.6801612,-11.523834,-1.0025927,0.3442223,-0.27030766,-3.7023752,-43.18125,-13.837501,18.75,0.5044354,-0.54192847,0.55039847,998.7216, , , , 
2025-09-20 21:23:34.450,2.536392,-10.657632,-1.524228,0.17195843,-0.21349724,-3.1739771,-42.956253,-16.29375,18.712502,0.52398103,-0.5249789,0.5382857,998.70966, , , , 
2025-09-20 21:23:34.470,2.4502504,-9.219545,-2.3808584,-0.2403753,0.17134757,-2.641914,-42.28125,-19.48125,19.275002,0.5420142,-0.50792074,0.52441597,998.70966, , , , 
2025-09-20 21:23:34.490,1.6558332,-8.310273,-2.6919255,-0.66248286,0.8750638,-2.3822963,-40.237503,-21.0,18.375,0.5494563,-0.49612924,0.5152252,998.6945, , , , 
2025-09-20 21:23:34.510,-0.9906286,-9.212367,-1.847259,-1.0088432,1.2513565,-1.9467497,-39.91875,-22.44375,17.04375,0.5504639,-0.48486704,0.50832975,998.6945, , , , 
2025-09-20 21:23:34.530,-2.0745773,-9.772287,0.2632105,-0.85551614,0.70951945,-1.3242785,-39.84375,-27.281252,15.918751,0.5479146,-0.47670656,0.5028341,998.6596, , , , 
2025-09-20 21:23:34.550,-2.4502504,-10.064212,1.1796615,-0.44379327,-0.021074835,-0.63583386,-38.550003,-25.9125,15.69375,0.5462649,-0.4734311,0.49813992,998.6596, , , , 
2025-09-20 21:23:34.570,-2.5722845,-10.49492,0.37806597,-0.058337588,-0.3265072,0.17478369,-38.0625,-27.112501,16.800001,0.54612255,-0.4747896,0.4954824,998.6701, , , , 
2025-09-20 21:23:34.590,-2.105684,-10.671989,-1.969293,-0.009468404,-0.044898562,1.1613303,-38.41875,-27.618752,14.250001,0.542847,-0.48158255,0.49878973,998.6701, , , , 
2025-09-20 21:23:34.610,-0.35653058,-9.616755,-2.0147567,-0.23976442,0.16340633,1.975613,-38.25,-26.737501,14.94375,0.5339421,-0.4914316,0.50659645,998.6779, , , , 
2025-09-20 21:23:34.630,2.2372892,-9.073584,-0.80877405,-0.31734425,0.2782489,2.460029,-38.79375,-24.300001,15.168751,0.5199018,-0.5045823,0.5171802,998.6779, , , , 
2025-09-20 21:23:34.650,4.6803613,-9.60479,-0.7800602,-0.17501275,0.30757043,2.6109123,-40.256252,-22.95,13.556251,0.50363433,-0.5182971,0.5295331,998.67084, , , , 
2025-09-20 21:23:34.670,4.8765726,-11.191232,-1.9477576,-0.11759147,0.082161315,2.7404158,-41.15625,-20.8125,14.606251,0.48728,-0.5319834,0.54215276,998.67084, , , , 
2025-09-20 21:23:34.691,5.15414,-12.217752,-2.309074,-0.17684536,-0.21471897,3.0317984,-42.15,-17.90625,12.843751,0.47100824,-0.5476319,0.5537573,998.6713, , , , 
2025-09-20 21:23:34.710,6.142376,-12.856636,-2.1798615,-0.3460549,-0.22204934,3.411756,-43.631252,-13.481251,14.2875,0.4530597,-0.5656033,0.56471324,998.6713, , , , 
2025-09-20 21:23:34.731,6.855437,-12.502499,-1.4045869,-0.50304717,-0.015577052,3.7208538,-45.84375,-11.45625,13.950001,0.42586815,-0.58947766,0.57847047,998.6667, , , , 
2025-09-20 21:23:34.750,7.891529,-11.894721,-0.5838487,-0.5513055,0.08460477,3.8466918,-45.5625,-6.5625005,11.94375,0.40069306,-0.60839605,0.58945465,998.6667, , , , 
2025-09-20 21:23:34.771,8.496913,-11.770294,-0.2632105,-0.51526445,0.01924224,3.823479,-46.3125,-4.40625,12.656251,0.3745981,-0.6262228,0.5997468,998.663, , , , 
2025-09-20 21:23:34.791,8.666803,-11.722438,-0.09810573,-0.40469792,-0.23976442,3.8069856,-47.2125,-2.2687502,13.406251,0.34930125,-0.64289254,0.60887265,998.663, , , , 
2025-09-20 21:23:34.810,8.963513,-11.313266,0.13878371,-0.29352054,-0.4254673,3.805764,-46.162502,3.6937501,13.89375,0.32545516,-0.6585144,0.6169058,998.6611, , , , 
2025-09-20 21:23:34.830,9.30808,-10.671989,0.086141616,-0.15485422,-0.37293294,3.786827,-47.737503,6.1312504,15.3,0.30258,-0.67254347,0.6243966,998.6611, , , , 
2025-09-20 21:23:34.850,9.509077,-10.41835,-0.4426722,-0.15729769,-0.05222894,3.765447,-46.0125,9.431251,12.76875,0.27894402,-0.6845677,0.6318719,998.6674, , , , 
2025-09-20 21:23:34.870,9.963714,-10.746166,-0.55034924,-0.21044292,0.17012584,3.7489536,-45.112503,13.368751,15.543751,0.25334856,-0.695077,0.6389544,998.6674, , , , 
2025-09-20 21:23:34.890,10.315458,-9.74836,0.11246266,-0.1707367,0.10537417,3.6988626,-44.325,16.425001,14.812501,0.22030444,-0.7066429,0.6466323,998.66473, , , , 
2025-09-20 21:23:34.910,11.447264,-8.772088,0.39960137,0.094378605,-0.14752385,3.6255589,-43.4625,19.143751,12.712501,0.19561222,-0.71396226,0.65243244,998.66473, , , , 
2025-09-20 21:23:34.930,12.260823,-8.312666,-0.21296121,0.41630435,-0.341168,3.480784,-42.16875,22.125,15.356251,0.17378117,-0.71862674,0.6588415,998.66815, , , , 
2025-09-20 21:23:34.950,13.445271,-8.176275,-1.7371893,0.6081159,-0.4743365,3.3347871,-39.581253,25.3875,13.500001,0.15458632,-0.72084165,0.6657887,998.66815, , , , 
2025-09-20 21:23:34.970,15.328422,-7.8317084,-2.7948167,0.4566214,-0.20250167,3.1942883,-37.7625,28.556252,13.44375,0.13664189,-0.72195524,0.6720789,998.67255, , , , 
2025-09-20 21:23:34.990,16.905293,-7.0229344,-2.1535404,0.08460477,0.48227775,2.9548292,-35.081253,29.56875,14.343751,0.11727712,-0.7235101,0.67631334,998.67255, , , , 
2025-09-20 21:23:35.010,18.652052,-5.649454,1.0456635,-0.068722285,0.74189526,2.4239879,-34.3125,31.893751,14.437501,0.090792984,-0.7263976,0.67859566,998.6623, , , , 
2025-09-20 21:23:35.030,20.047068,-5.278567,2.333002,0.4621192,-0.040011644,1.6775111,-32.25,34.74375,12.20625,0.07598155,-0.7262459,0.681191,998.6623, , , , 
2025-09-20 21:23:35.050,19.87957,-5.501099,-0.62452674,0.88605934,-0.7571669,0.8400154,-30.843752,35.1375,12.0375,0.073067546,-0.72205436,0.68653613,998.6796, , , , 
2025-09-20 21:23:35.070,18.970299,-5.73081,-3.5892339,0.5763509,-0.6869174,0.16623157,-31.0125,35.737503,11.700001,0.07810473,-0.7172988,0.6913201,998.6796, , , , 
2025-09-20 21:23:35.090,18.977476,-7.946564,-2.7900312,0.02046397,-0.32895067,-0.5466476,-31.48125,34.93125,12.731251,0.085574254,-0.7154002,0.69239455,998.706, , , , 
2025-09-20 21:23:35.110,17.69253,-8.79123,-1.4620147,-0.10537417,-0.36315912,-1.0909282,-32.081253,35.625,13.218751,0.095708705,-0.71512246,0.69100785,998.706, , , , 
2025-09-20 21:23:35.130,16.8359,-8.281559,-1.2299109,-0.160352,-0.39675668,-1.5380812,-31.612501,35.79375,13.462501,0.10947198,-0.7146383,0.68886226,998.72626, , , , 
2025-09-20 21:23:35.150,15.656239,-9.2793665,-0.73459655,-0.3649917,-0.25686863,-2.293721,-33.05625,33.65625,12.975,0.13122658,-0.71383756,0.68444353,998.72626,37.88827265,127.73988984,145.9932861328125,1.49
2025-09-20 21:23:35.170,14.079369,-11.016556,0.06460621,-0.43401942,-0.25809038,-2.812345,-32.11875,31.7625,12.975,0.15181208,-0.7127874,0.6792435,998.75214, , , , 
2025-09-20 21:23:35.190,12.792029,-12.693924,0.7178468,-0.318566,-0.6044507,-3.187416,-34.706253,30.618752,12.993751,0.17596847,-0.71048814,0.6731047,998.75214, , , , 
2025-09-20 21:23:35.210,10.999805,-13.485949,0.047856454,-0.25198174,-0.7504474,-3.3627343,-37.537502,29.062502,14.925,0.20360984,-0.70643044,0.6664983,998.778, , , , 
2025-09-20 21:23:35.230,11.066805,-13.564912,0.29192436,-0.4138609,-0.36621344,-3.4158795,-37.350002,25.725,16.03125,0.23078674,-0.7016981,0.6589281,998.778, , , , 
2025-09-20 21:23:35.250,11.332408,-13.416556,1.672583,-0.47555822,0.11636974,-3.6113563,-42.581253,23.8125,16.6875,0.25509068,-0.6962327,0.6505839,998.7983, , , , 
2025-09-20 21:23:35.270,10.865808,-13.091133,2.9599216,-0.19944735,0.29718572,-3.811109,-42.412502,20.98125,16.06875,0.2776465,-0.6883309,0.64270645,998.7983, , , , 
2025-09-20 21:23:35.290,11.042876,-12.744173,2.6249263,0.21288638,0.026572619,-4.0499573,-42.975002,18.056252,14.887501,0.30125862,-0.6767616,0.6361491,998.81195, , , , 
2025-09-20 21:23:35.310,10.770095,-12.6987095,1.2562319,0.56902057,-0.4535671,-4.429304,-43.6875,13.14375,15.243751,0.33688754,-0.6576777,0.62766725,998.81195, , , , 
2025-09-20 21:23:35.330,9.530613,-12.77528,-0.63170516,0.5549707,-0.5201514,-4.583242,-44.5125,8.325001,15.000001,0.36103013,-0.6444621,0.62139577,998.8317, , , , 
2025-09-20 21:23:35.350,8.628518,-12.631711,-1.2921243,0.18661919,-0.20311254,-4.5997353,-44.23125,5.3625,15.750001,0.39975834,-0.62205046,0.6080354,998.8317, , , , 
2025-09-20 21:23:35.370,7.735996,-12.492927,-0.09332009,-0.01924224,0.1499673,-4.542314,-44.0625,2.0062501,17.15625,0.4263613,-0.60400474,0.5956295,998.81146, , , , 
2025-09-20 21:23:35.390,7.1377897,-12.303894,0.4019942,0.033902995,0.29657486,-4.434802,-43.78125,-3.825,18.075,0.4496812,-0.58491856,0.5832511,998.81146, , , , 
2025-09-20 21:23:35.410,6.206982,-11.755938,0.0526421,0.1188132,0.21655156,-4.3272896,-44.662502,-7.5000005,16.987501,0.4715167,-0.5647755,0.570949,998.80585, , , , 
2025-09-20 21:23:35.430,4.725825,-11.248659,-0.2656033,0.13775001,0.08704823,-4.1470847,-43.10625,-11.34375,17.8125,0.49270076,-0.54445326,0.5580291,998.80585, , , , 
2025-09-20 21:23:35.450,2.629712,-10.322637,0.0047856453,0.16096286,-0.011300999,-3.792783,-42.131252,-14.475,17.737501,0.51748836,-0.5201366,0.5412216,998.7924, , , , 
2025-09-20 21:23:35.470,1.3040884,-9.923036,-0.11485548,0.205556,0.016798781,-3.323028,-42.05625,-19.3125,16.931252,0.53484946,-0.50204444,0.52870935,998.7924, , , , 
2025-09-20 21:23:35.490,0.47138608,-9.363115,-0.70588267,0.24159703,0.037568185,-2.8117342,-40.29375,-21.2625,19.48125,0.5493898,-0.48573366,0.51807773,998.78217, , , , 
2025-09-20 21:23:35.510,-0.8925229,-8.525627,-1.8137596,0.17195843,0.02535089,-2.3096035,-38.100002,-23.625,16.612501,0.56134075,-0.4717822,0.50909775,998.78217, , , , 
2025-09-20 21:23:35.530,-1.5002998,-8.410771,-2.184647,0.024129158,-0.00641408,-1.7274492,-37.48125,-26.306252,17.15625,0.57043666,-0.46124524,0.5013598,998.7812, , , , 
2025-09-20 21:23:35.550,-1.5672989,-8.7577305,-1.9238294,-0.109039366,-0.06627883,-1.0041853,-37.95,-28.593752,18.4125,0.576254,-0.45486912,0.49529052,998.7812, , , , 
2025-09-20 21:23:35.570,-1.3639089,-9.195618,-1.7874385,-0.15851942,-0.11759147,-0.33162323,-36.318752,-28.556252,17.775002,0.57893676,-0.4527579,0.49153382,998.769, , , , 
2025-09-20 21:23:35.590,-1.6199409,-9.961321,-2.1822543,-0.19211698,-0.2782489,0.50587237,-37.331253,-29.156252,18.075,0.5787512,-0.45503774,0.490403,998.769, , , , 
2025-09-20 21:23:35.610,-1.7682959,-9.753145,-2.1367905,-0.32956156,-0.3649917,1.4148391,-36.05625,-27.900002,17.868752,0.5755547,-0.46276006,0.491691,998.7465, , , , 
2025-09-20 21:23:35.630,0.3469593,-9.238688,-1.2083755,-0.458454,-0.12247839,2.1387138,-38.15625,-28.125002,18.112501,0.5675932,-0.4761399,0.49617395,998.7465, , , , 
2025-09-20 21:23:35.650,2.656033,-9.272188,-0.66759753,-0.5024363,0.38698283,2.7898958,-38.756252,-26.175001,16.66875,0.5491281,-0.4964934,0.50823617,998.7358, , , , 
2025-09-20 21:23:35.670,5.0656056,-9.990034,-0.8111669,-0.42852163,0.40347618,3.1429756,-39.46875,-23.04375,18.73125,0.52936685,-0.5136103,0.52177036,998.7358, , , , 
2025-09-20 21:23:35.690,5.910272,-10.497313,-0.8279166,-0.2855793,-0.00763581,3.2791984,-41.90625,-19.931252,18.0375,0.50909626,-0.5315785,0.5353532,998.7255, , , , 
2025-09-20 21:23:35.710,6.0897336,-11.114661,-0.83988076,-0.12980877,-0.32895067,3.4673448,-42.16875,-17.587502,18.225,0.4902802,-0.5505206,0.54760647,998.7255, , , , 
2025-09-20 21:23:35.730,6.513263,-11.564512,-0.9403793,-0.10293072,-0.18661919,3.8082075,-43.125,-14.55,15.375001,0.4658348,-0.5747107,0.5630022,998.70917, , , , 
2025-09-20 21:23:35.750,7.396215,-11.4903345,-0.21535404,-0.10476331,0.050396346,4.0611053,-45.112503,-10.5375,16.44375,0.44248796,-0.59370476,0.5765091,998.70917, , , , 
2025-09-20 21:23:35.770,8.671589,-11.294123,0.009571291,-0.05650499,0.228158,4.1417394,-44.68125,-7.74375,15.31875,0.41642132,-0.6114305,0.59065956,998.6984, , , , 
2025-09-20 21:23:35.790,9.327223,-11.241481,-0.43788654,-0.021685699,0.21410811,4.0519423,-45.956253,-3.9,15.225,0.3894321,-0.6272931,0.60438967,998.6984, , , , 
2025-09-20 21:23:35.810,9.176475,-11.466406,-0.74416786,-0.051618073,0.14019346,4.0152907,-45.43125,-0.4875,16.518751,0.36282757,-0.641842,0.61658627,998.7045, , , , 
2025-09-20 21:23:35.830,9.501899,-11.514262,-0.75613195,-0.09193515,0.13347395,4.0195665,-46.068752,4.2937503,16.3125,0.33615032,-0.6556359,0.62721515,998.7045, , , , 
2025-09-20 21:23:35.850,10.329815,-11.454442,-1.0360922,-0.1621846,0.2678642,3.949928,-47.362503,7.3875003,16.893751,0.30897167,-0.6684651,0.6365125,998.6967, , , , 
2025-09-20 21:23:35.870,10.537991,-11.224731,-1.3734802,-0.35460702,0.42119128,3.8668504,-45.9,12.3,14.45625,0.2809631,-0.6802861,0.6443149,998.6967, , , , 
2025-09-20 21:23:35.890,11.30848,-10.655239,-0.009571291,-0.5525272,0.47922343,3.7483428,-44.79375,14.887501,15.431251,0.24491103,-0.6947197,0.65098166,998.6872, , , , 
2025-09-20 21:23:35.910,11.574083,-9.82493,1.4476577,-0.42180213,0.47189304,3.5534768,-42.5625,17.98125,15.7875,0.21678315,-0.7048749,0.6548146,998.6872, , , , 
2025-09-20 21:23:35.931,11.684153,-9.097511,0.7752745,-0.008246674,0.3497201,3.439245,-42.9375,21.056252,14.1,0.19035116,-0.71207595,0.6594262,998.70233, , , , 
2025-09-20 21:23:35.950,12.866207,-8.568698,-0.91884387,0.21044292,0.1432478,3.3274567,-41.006252,22.743752,14.7375,0.16625206,-0.716503,0.6650457,998.70233, , , , 
2025-09-20 21:23:35.970,14.31865,-7.8484583,-2.8163524,0.1915061,-0.015577052,3.005531,-40.125,26.212502,12.431251,0.1454454,-0.71954083,0.6700358,998.67645, , , , 
2025-09-20 21:23:35.990,14.732609,-7.3052874,-3.5246277,-0.04367683,0.027183482,2.6891031,-36.506252,26.718752,12.337501,0.12731944,-0.72254145,0.67308354,998.67645, , , , 
2025-09-20 21:23:36.010,15.196816,-6.5682983,-2.184647,-0.32100943,0.123089254,2.2993715,-35.8125,30.88125,12.7875,0.10700949,-0.72751856,0.67339754,998.66986, , , , 
2025-09-20 21:23:36.030,15.885949,-6.5204415,-0.89730847,-0.2886336,0.09682207,1.9560654,-35.8875,30.618752,13.593751,0.096426986,-0.7305622,0.6725479,998.66986, , , , 
2025-09-20 21:23:36.050,16.431513,-6.7932234,-1.4213367,-0.16829325,0.008857539,1.4704279,-32.475002,32.850002,11.868751,0.08315102,-0.73394346,0.67159444,998.6799, , , , 
2025-09-20 21:23:36.070,17.178074,-7.6426754,-1.5864414,-0.2800815,-0.08460477,0.9847904,-31.2,34.8375,12.093751,0.07658887,-0.73607427,0.6704966,998.6799, , , , 
2025-09-20 21:23:36.090,17.888742,-8.1020975,-0.8446664,-0.3442223,-0.22876886,0.5584068,-32.081253,32.756252,13.837501,0.07397053,-0.7385228,0.6683306,998.6716, , , , 
2025-09-20 21:23:36.110,18.867407,-7.2693954,-0.11964113,-0.3149008,-0.3839285,-0.1220966,-31.462502,35.175003,14.1,0.07639759,-0.7406702,0.6657452,998.6716, , , , 
2025-09-20 21:23:36.130,19.24308,-7.0301127,-0.2416751,-0.4480693,-3.054324E-4,-0.9614248,-30.6375,36.2625,13.481251,0.083650485,-0.7422326,0.6628338,998.6735, , , , 
2025-09-20 21:23:36.150,17.477177,-8.111669,0.68195444,-0.6007855,0.65881765,-1.9571344,-29.643751,36.112503,13.70625,0.09391099,-0.743755,0.6585746,998.6735,37.88826117,127.73989593,146.0462646484375,1.53
2025-09-20 21:23:36.170,14.52204,-9.736395,1.5553347,-0.46273008,0.8781181,-2.4836998,-32.193752,33.61875,13.35,0.10615554,-0.7441678,0.6537149,998.6862, , , , 
2025-09-20 21:23:36.190,12.428321,-10.492527,1.6845472,-0.027183482,0.684474,-2.8428884,-34.3125,31.143751,14.00625,0.124973714,-0.7408722,0.6492434,998.6862, , , , 
2025-09-20 21:23:36.210,11.559726,-10.73181,0.27756742,0.3008509,0.44929105,-3.079293,-33.9,29.587502,13.593751,0.14360535,-0.7347543,0.64753693,998.7006, , , , 
2025-09-20 21:23:36.230,11.004591,-11.014163,-1.174876,0.37904158,0.16707152,-3.3572364,-37.631252,26.325,14.175,0.16529877,-0.7268442,0.6458417,998.7006, , , , 
2025-09-20 21:23:36.250,10.370493,-10.9017,-1.0169497,0.37904158,-0.22266021,-3.5435503,-39.80625,24.018751,11.137501,0.19023624,-0.71835494,0.64254487,998.7016, , , , 
2025-09-20 21:23:36.270,9.305687,-10.817951,-1.4644074,0.5665771,-0.7449496,-3.7133706,-42.1875,21.13125,13.70625,0.21919234,-0.7090656,0.63785,998.7016, , , , 
2025-09-20 21:23:36.290,7.554141,-10.289138,-3.5198421,0.3649917,-0.90499616,-3.7188685,-45.1875,17.23125,13.781251,0.25079164,-0.6990223,0.63186395,998.68524, , , , 
2025-09-20 21:23:36.310,6.869794,-10.0881405,-2.1248264,-0.18661919,-0.7034108,-3.5911977,-44.25,15.337501,13.8,0.28830197,-0.6888493,0.6196483,998.68524, , , , 
2025-09-20 21:23:36.331,7.879565,-10.523634,0.38285163,-0.2782489,-0.4071414,-3.4244316,-45.225002,13.481251,15.075001,0.31393448,-0.6816715,0.6079758,998.69574, , , , 
2025-09-20 21:23:36.350,9.899107,-10.839486,1.8735801,-0.01924224,-0.43524116,-3.399997,-44.643753,8.4375,15.937501,0.33736905,-0.67287374,0.59740794,998.69574, , , , 
2025-09-20 21:23:36.370,11.344372,-11.301301,1.4141582,0.3149008,-0.49938196,-3.639456,-45.037502,4.9125004,14.475,0.36226982,-0.6613705,0.58789784,998.7055, , , , 
2025-09-20 21:23:36.390,10.844273,-11.655439,0.53599226,0.38637197,-0.35888305,-3.8276024,-45.05625,2.90625,17.0625,0.3885654,-0.64706844,0.5785292,998.7055, , , , 
2025-09-20 21:23:36.410,9.772287,-11.763116,-0.37806597,0.40225446,-0.06383537,-3.964436,-45.09375,-1.81875,15.31875,0.4143022,-0.63063914,0.56894267,998.7033, , , , 
2025-09-20 21:23:36.430,8.391629,-11.478371,-1.5577276,0.31367907,0.22021675,-3.9888706,-44.0625,-5.2125,17.71875,0.43833655,-0.61248887,0.5592724,998.7033, , , , 
2025-09-20 21:23:36.450,7.0612197,-11.184053,-2.132005,0.12492185,0.3924806,-3.9247298,-43.55625,-10.743751,16.7625,0.45980066,-0.5936834,0.54909927,998.7072, , , , 
2025-09-20 21:23:36.470,5.541777,-11.059627,-1.5146568,-0.07910699,0.3564396,-3.712149,-42.75,-11.793751,17.04375,0.48296577,-0.5710911,0.5349655,998.7072, , , , 
2025-09-20 21:23:36.490,4.223332,-10.9375925,-0.79441714,-0.03451386,0.20677772,-3.4696355,-42.0,-16.06875,17.6625,0.49966726,-0.55423963,0.52298105,998.7021, , , , 
2025-09-20 21:23:36.510,2.3114667,-10.370493,-1.3782659,0.044898562,0.044287696,-3.0902886,-40.96875,-19.6875,16.6875,0.51541376,-0.538548,0.5113836,998.7021, , , , 
2025-09-20 21:23:36.530,1.2179468,-9.879965,-2.0003998,-0.044287696,0.0051923506,-2.6077054,-40.256252,-21.243752,17.306252,0.52924937,-0.52517194,0.50047773,998.6989, , , , 
2025-09-20 21:23:36.550,0.15074782,-10.27478,-2.0434706,-0.21777329,0.14935644,-2.004782,-40.068752,-23.962502,16.987501,0.53958184,-0.5145296,0.49094987,998.6989, , , , 
2025-09-20 21:23:36.570,-0.9451649,-10.207782,-1.7228323,-0.31367907,0.2611447,-1.3755912,-36.206253,-26.025002,15.000001,0.5456338,-0.50681835,0.4837899,998.7048, , , , 
2025-09-20 21:23:36.590,-1.6319051,-10.691132,-1.5361922,-0.35399613,0.3008509,-0.69020087,-38.71875,-26.79375,15.3,0.5476321,-0.50238997,0.47953826,998.7048, , , , 
2025-09-20 21:23:36.610,-2.8019953,-11.207981,-1.7515461,-0.37476555,0.23304491,0.22426373,-38.456253,-27.6375,16.40625,0.54483896,-0.5024854,0.47875747,998.6999, , , , 
2025-09-20 21:23:36.630,-3.306881,-10.195817,-1.2586247,-0.4431824,0.1395826,1.0990222,-37.068752,-27.2625,16.706251,0.5401077,-0.5064769,0.48077205,998.6999, , , , 
2025-09-20 21:23:36.650,-0.8925229,-8.683554,0.61734825,-0.36315912,0.19761476,2.039754,-38.362503,-25.7625,15.825001,0.52626866,-0.5194029,0.4889331,998.71234, , , , 
2025-09-20 21:23:36.670,2.1918256,-8.068598,1.2466606,-0.017409647,0.2855793,2.513785,-39.018753,-25.44375,14.64375,0.51135147,-0.5317394,0.5002185,998.71234, , , , 
2025-09-20 21:23:36.690,3.7328033,-8.508878,-0.3182454,0.24404047,0.1847866,2.604193,-41.79375,-21.75,15.337501,0.49597484,-0.5433619,0.5141716,998.7143, , , , 
2025-09-20 21:23:36.711,3.749553,-9.688539,-2.1367905,0.23304491,-0.16157374,2.735529,-43.068752,-20.1375,14.775001,0.47817752,-0.55814785,0.5311864,998.7143, , , , 
2025-09-20 21:23:36.730,4.278367,-10.719846,-2.2899313,0.09682207,-0.43035424,3.0036986,-42.73125,-19.125,15.6,0.46386382,-0.5725516,0.5429441,998.69916, , , , 
2025-09-20 21:23:36.750,5.56092,-11.186446,-1.8544376,-0.04367683,-0.44929105,3.3482263,-43.93125,-14.887501,15.4875,0.44771993,-0.5892077,0.5538295,998.69916, , , , 
2025-09-20 21:23:36.770,7.1569324,-10.971092,-1.2921243,-0.25320345,-0.013744458,3.6243372,-44.68125,-12.093751,15.712501,0.42758515,-0.606617,0.56511354,998.6877, , , , 
2025-09-20 21:23:36.790,8.508878,-10.581061,-0.8446664,-0.50304717,0.44929105,3.7294059,-45.2625,-8.53125,14.175,0.40238678,-0.6233462,0.5769389,998.6877, , , , 
2025-09-20 21:23:36.810,8.762517,-10.339387,0.22971097,-0.63927,0.57757264,3.7312384,-45.65625,-5.3625,15.431251,0.37394357,-0.63921726,0.58803934,998.6857, , , , 
2025-09-20 21:23:36.830,8.559127,-10.293923,1.68694,-0.5317578,0.40591964,3.782551,-46.5,-2.325,14.26875,0.3448112,-0.6542175,0.5981203,998.6857, , , , 
2025-09-20 21:23:36.850,8.669196,-10.487741,2.1655045,-0.14813471,0.11270455,3.882122,-47.287502,1.81875,14.887501,0.31668702,-0.6676743,0.60826933,998.6972, , , , 
2025-09-20 21:23:36.870,9.293723,-11.10509,0.5623133,0.2837467,-0.07422007,4.023843,-46.893753,6.6000004,13.950001,0.28395498,-0.68116593,0.6225878,998.6972, , , , 
2025-09-20 21:23:36.892,9.932607,-11.351551,-1.105484,0.3527744,-0.0033597562,4.1142507,-45.3375,9.13125,13.33125,0.26448965,-0.68770933,0.6317214,998.6921, , , , 
2025-09-20 21:23:36.910,11.688938,-11.076376,-2.5387847,0.058337588,0.28985533,4.1417394,-46.875,12.450001,13.462501,0.22977693,-0.6978696,0.6452302,998.6921, , , , 
2025-09-20 21:23:36.931,13.239488,-10.037891,-1.0336994,-0.17501275,0.3924806,3.9462628,-44.9625,16.7625,12.712501,0.20052409,-0.7060561,0.6528835,998.6818, , , , 
2025-09-20 21:23:36.950,13.789837,-9.458828,0.30149564,-3.054324E-4,0.4156935,3.6444957,-41.737503,21.712502,11.15625,0.17274435,-0.7126362,0.65903354,998.6818, , , , 
2025-09-20 21:23:36.970,14.433506,-8.793623,-1.1676974,0.22021675,0.46334094,3.3934302,-42.15,21.900002,11.6625,0.14713295,-0.71620476,0.66571856,998.6867, , , , 
2025-09-20 21:23:36.990,15.3691,-7.4584284,-2.9192436,0.0962112,0.7333432,3.0208027,-40.162502,25.968752,11.83125,0.123116665,-0.71823496,0.67170966,998.6867, , , , 
2025-09-20 21:23:37.010,15.85245,-6.7645097,-3.0388846,-0.17867795,1.0173953,2.5913649,-39.15,28.687502,10.650001,0.09970563,-0.72034484,0.67538124,998.6674, , , , 
2025-09-20 21:23:37.030,15.938592,-6.893722,-1.8065811,-0.2403753,0.8176425,2.1112251,-37.068752,28.893751,11.19375,0.07336521,-0.7234467,0.6768158,998.6674, , , , 
2025-09-20 21:23:37.052,16.38605,-6.7645097,-1.3351951,-0.07849612,0.42729992,1.777082,-37.143753,30.525002,9.4125,0.06121085,-0.7247666,0.67732024,998.6652, , , , 
2025-09-20 21:23:37.070,17.469997,-6.587441,-2.1176481,0.018631376,0.26542073,1.2908336,-35.8125,32.775,8.6625,0.047770243,-0.7255364,0.6786505,998.6652, , , , 
2025-09-20 21:23:37.090,18.977476,-6.8339014,-2.536392,-0.08949169,0.47861254,0.7783181,-33.46875,32.775,9.0375,0.040694337,-0.72592187,0.6789483,998.6691, , , , 
2025-09-20 21:23:37.110,19.889141,-6.250053,-2.5794628,-0.18539746,0.5995638,7.63581E-5,-33.525,35.268753,7.36875,0.036579143,-0.7266094,0.67786413,998.6691, , , , 
2025-09-20 21:23:37.131,19.197617,-5.3144593,-3.0604203,-0.35766134,0.6423243,-0.7653372,-34.10625,33.956253,9.20625,0.03661523,-0.7272766,0.6761033,998.6723, , , , 
2025-09-20 21:23:37.150,15.85245,-6.800402,-2.2779672,-0.6814197,0.72662365,-1.6877431,-33.881252,33.487503,7.0312505,0.04330234,-0.72983086,0.6696389,998.6723,37.88824842,127.73990519,145.65606689453125,1.71
2025-09-20 21:23:37.170,13.062419,-9.458828,-0.9403793,-0.7528908,0.7034108,-2.189874,-36.73125,31.81875,8.043751,0.05292722,-0.7326758,0.66164494,998.6855, , , , 
2025-09-20 21:23:37.190,12.428321,-11.23191,0.0047856453,-0.64415693,0.51343185,-2.3816855,-37.3875,30.750002,8.325001,0.06828407,-0.7352494,0.6508322,998.6855, , , , 
2025-09-20 21:23:37.210,13.110275,-12.040684,0.8350951,-0.42119128,0.3423897,-2.5979316,-37.237503,28.5375,8.137501,0.083343334,-0.7357346,0.6426715,998.7177, , , , 
2025-09-20 21:23:37.230,13.658232,-12.157932,0.19860429,-0.18661919,0.5061015,-2.952844,-39.75,27.0375,8.64375,0.10091224,-0.7339678,0.6353292,998.7177, , , , 
2025-09-20 21:23:37.250,13.521841,-12.071791,-0.715454,-0.17989968,0.96913695,-3.3254714,-41.625,24.975,8.025001,0.11932906,-0.7298998,0.627879,998.74457, , , , 
2025-09-20 21:23:37.270,12.760923,-11.971292,-0.75613195,-0.22082762,1.4773765,-3.6950448,-43.10625,21.112501,6.24375,0.13690992,-0.7237428,0.6191304,998.74457, , , , 
2025-09-20 21:23:37.290,12.059826,-12.165111,-0.63170516,-0.076052666,1.7479895,-4.0621743,-46.03125,18.1875,6.0937505,0.15396564,-0.7148734,0.60926867,998.74994, , , , 
2025-09-20 21:23:37.310,11.416157,-12.404392,-1.2083755,0.09682207,1.705229,-4.3908195,-47.081253,14.137501,1.6500001,0.17233798,-0.7028505,0.59878916,998.74994, , , , 
2025-09-20 21:23:37.331,10.284351,-12.935599,-1.402194,0.22937973,1.4541636,-4.6767044,-46.893753,11.418751,1.63125,0.19342117,-0.6886047,0.586937,998.74164, , , , 
2025-09-20 21:23:37.350,8.348558,-13.416556,-1.3950156,0.41996953,1.014341,-4.759782,-45.768753,6.7125,-0.375,0.22381495,-0.6689169,0.5700505,998.74164, , , , 
2025-09-20 21:23:37.370,7.726424,-13.196417,-1.713261,0.5818487,0.6337722,-4.6363873,-47.23125,1.5937501,-1.1625,0.25032622,-0.65261537,0.55581766,998.747, , , , 
2025-09-20 21:23:37.390,7.099505,-12.631711,-2.5268207,0.6203332,0.33261588,-4.5264316,-48.45,-2.2687502,-1.125,0.27784464,-0.63636726,0.5409968,998.747, , , , 
2025-09-20 21:23:37.410,6.161518,-11.777473,-2.6081767,0.5054906,-0.013133593,-4.371272,-47.9625,-7.0687504,-0.6,0.30548558,-0.62101877,0.52475303,998.7392, , , , 
2025-09-20 21:23:37.430,5.3766723,-10.947164,-2.416751,0.37232208,-0.20494513,-4.2057276,-44.737503,-10.725,-1.03125,0.33262047,-0.6070111,0.5069055,998.7392, , , , 
2025-09-20 21:23:37.451,4.5272202,-10.662417,-2.3521447,0.20433427,-0.17379104,-3.987649,-44.9625,-14.625001,1.06875,0.36411524,-0.59064794,0.48322305,998.7431, , , , 
2025-09-20 21:23:37.470,3.2135608,-10.461421,-2.4909284,0.06627883,-0.053450666,-3.6498406,-42.99375,-19.3875,0.65625,0.38597095,-0.57800806,0.46441433,998.7431, , , , 
2025-09-20 21:23:37.490,2.0697916,-10.004392,-2.8378878,-0.116980605,0.14508039,-3.1825292,-41.34375,-22.95,-0.39375,0.40372115,-0.56612986,0.44696745,998.7504, , , , 
2025-09-20 21:23:37.510,1.0241281,-9.712467,-3.0125637,-0.3460549,0.36376998,-2.622977,-41.71875,-26.1,1.21875,0.41637078,-0.55552423,0.43160585,998.7504, , , , 
2025-09-20 21:23:37.531,-0.18903299,-9.284152,-2.6775684,-0.54825115,0.5543598,-1.999895,-38.98125,-27.937502,-0.35625002,0.42352265,-0.5467052,0.41886884,998.747, , , , 
2025-09-20 21:23:37.550,-1.5936198,-8.592627,-2.2348964,-0.6502656,0.6679806,-1.2894592,-38.550003,-29.268751,0.75,0.42553142,-0.5399722,0.40952528,998.747, , , , 
2025-09-20 21:23:37.570,-2.57707,-8.054241,-2.1008983,-0.71318465,0.69241524,-0.3768272,-38.2125,-29.962502,-0.93750006,0.42281112,-0.5359279,0.40435496,998.75726, , , , 
2025-09-20 21:23:37.590,-1.7874385,-8.968299,-2.4646072,-0.7290671,0.4205804,0.4954877,-35.79375,-29.7,-2.90625,0.4135184,-0.53626364,0.4038318,998.75726, , , , 
2025-09-20 21:23:37.610,-1.5409778,-9.923036,-3.2135608,-0.83780104,0.066889696,1.1155155,-38.25,-30.937502,-2.7375002,0.40568927,-0.5403299,0.40577707,998.7587, , , , 
2025-09-20 21:23:37.630,-0.95712906,-9.736395,-2.6991038,-1.203709,-0.19394957,1.9976041,-38.4,-28.95,-4.6875,0.3919734,-0.5510308,0.4099302,998.7587, , , , 
2025-09-20 21:23:37.650,2.0027926,-9.355937,-0.21535404,-1.3723078,-0.066889696,2.5620432,-40.275,-28.031252,-3.7687502,0.36695793,-0.5702534,0.41820693,998.7629, , , , 
2025-09-20 21:23:37.670,4.06062,-9.573684,0.75613195,-1.2941171,0.08032872,2.8106651,-41.60625,-24.431252,-3.825,0.34254935,-0.5858335,0.42764446,998.7629, , , , 
2025-09-20 21:23:37.690,5.1349974,-10.358529,0.2847459,-1.1621703,-0.07116575,2.9310055,-42.99375,-23.56875,-6.5062504,0.31734613,-0.6006713,0.43849295,998.77313, , , , 
2025-09-20 21:23:37.710,5.8360944,-11.212767,-0.25842485,-1.113301,-0.49449503,3.0586762,-44.1375,-19.06875,-6.6562505,0.29290208,-0.616487,0.44920287,998.77313, , , , 
2025-09-20 21:23:37.731,6.1208405,-11.887543,-0.32303107,-1.1383466,-0.67958707,3.2596507,-44.8875,-15.543751,-6.9187503,0.26891673,-0.633885,0.45927072,998.76654, , , , 
2025-09-20 21:23:37.750,6.4677997,-12.227324,-0.19621146,-1.2873975,-0.4798343,3.610898,-45.09375,-12.95625,-6.7500005,0.24316263,-0.65166175,0.4695052,998.76654, , , , 
2025-09-20 21:23:37.770,7.9011,-11.887543,1.1270195,-1.3900228,-0.12370012,3.887009,-45.73125,-9.65625,-7.18125,0.20526727,-0.67239946,0.48313794,998.76776, , , , 
2025-09-20 21:23:37.790,9.382257,-11.066805,2.0817556,-1.348484,0.17012584,3.9511497,-45.54375,-5.6625004,-6.0375004,0.17130756,-0.68608046,0.49459973,998.76776, , , , 
2025-09-20 21:23:37.810,9.925428,-10.516456,1.875973,-1.2360849,0.2629773,3.8387506,-46.537502,-1.5,-9.8625,0.13699315,-0.69699764,0.5058184,998.7734, , , , 
2025-09-20 21:23:37.830,9.793823,-10.4159565,1.5672989,-1.1780528,0.2037234,3.7318492,-47.456253,2.86875,-7.55625,0.10389545,-0.70595986,0.51612484,998.7734, , , , 
2025-09-20 21:23:37.850,9.894321,-10.526027,1.7682959,-1.1126902,0.07971785,3.6664867,-45.45,6.9375005,-8.45625,0.0722516,-0.7139306,0.52540207,998.76166, , , , 
2025-09-20 21:23:37.870,10.554741,-10.667203,2.184647,-1.0155627,0.04978548,3.6707628,-45.15,11.94375,-9.39375,0.041740082,-0.7208154,0.53418374,998.76166, , , , 
2025-09-20 21:23:37.890,11.8588295,-10.561919,2.8713872,-0.86040306,0.2159407,3.5999024,-44.86875,15.69375,-7.4812503,0.0044364077,-0.7268757,0.5450856,998.7636, , , , 
2025-09-20 21:23:37.910,12.777673,-9.887143,3.4337006,-0.67592186,0.29352054,3.444743,-43.93125,20.15625,-9.525001,-0.024375293,-0.72893417,0.5536292,998.7636, , , , 
2025-09-20 21:23:37.931,14.076976,-8.927621,4.0869412,-0.28802276,0.008246674,3.2303293,-43.0125,21.112501,-8.587501,-0.050004005,-0.7290678,0.562681,998.77435, , , , 
2025-09-20 21:23:37.950,15.914663,-7.570891,3.347559,0.25870124,-0.2696968,2.7813437,-42.2625,23.4375,-8.493751,-0.0695632,-0.72738546,0.5733853,998.77435, , , , 
2025-09-20 21:23:37.970,15.381064,-6.6352973,1.3112668,0.5061015,-0.24770567,2.318919,-40.7625,25.81875,-7.70625,-0.08327981,-0.7239122,0.58482546,998.76483, , , , 
2025-09-20 21:23:37.990,14.081761,-5.3407803,-0.11246266,0.4566214,-0.098654665,2.038532,-39.956253,26.8875,-7.3875003,-0.09389429,-0.7197884,0.5952354,998.76483, , , , 
2025-09-20 21:23:38.010,14.122439,-4.5391846,-0.39960137,0.32467464,0.23854269,1.8345033,-39.99375,28.031252,-9.76875,-0.10425278,-0.7157751,0.60358703,998.74384, , , , 
2025-09-20 21:23:38.030,14.727823,-4.063013,-1.2203395,0.24098615,0.63132876,1.619479,-38.193752,30.562502,-8.1,-0.11564665,-0.7112729,0.6111157,998.74384, , , , 
2025-09-20 21:23:38.051,15.811772,-4.4171505,-2.5292134,0.03451386,0.82436204,1.3109921,-36.61875,31.087502,-7.36875,-0.12755427,-0.70670706,0.613841,998.72015, , , , 
2025-09-20 21:23:38.070,17.194824,-4.981857,-2.778067,-0.28924447,0.76022124,0.8369611,-34.518753,31.837502,-11.025001,-0.1406927,-0.7034651,0.6142202,998.72015, , , , 
2025-09-20 21:23:38.090,17.757137,-6.4343,-2.2755744,-0.50976664,0.6185006,0.31406087,-33.825,33.15,-10.2375,-0.14770658,-0.7036554,0.61079794,998.7011, , , , 
2025-09-20 21:23:38.110,17.630318,-7.456035,-1.0600204,-0.5415316,0.34727663,-0.19906557,-34.612503,32.193752,-9.806251,-0.1506586,-0.7058719,0.605096,998.7011, , , , 
2025-09-20 21:23:38.130,18.017954,-7.1784678,-0.6987042,-0.4395172,0.22510368,-0.6278926,-32.456253,34.03125,-10.743751,-0.14911257,-0.7089716,0.598711,998.69403, , , , 
2025-09-20 21:23:38.150,17.704494,-6.778867,-1.3423735,-0.4621192,0.5024363,-1.4220169,-35.30625,30.993752,-9.356251,-0.14335495,-0.7122927,0.59093064,998.69403,37.88823667,127.73991255,145.68975830078125,1.39
2025-09-20 21:23:38.170,14.744574,-8.154739,-1.160519,-0.607505,0.93309593,-2.184987,-35.68125,31.10625,-11.325001,-0.13262323,-0.71661204,0.5759235,998.7016, , , , 
2025-09-20 21:23:38.190,12.717853,-9.367901,-0.48095736,-0.5213731,0.9447024,-2.4928627,-35.34375,30.525002,-12.562501,-0.12495774,-0.71885556,0.5648154,998.7016, , , , 
2025-09-20 21:23:38.210,11.842079,-10.27478,-1.0911272,-0.2122755,0.6820305,-2.6975026,-38.41875,26.962502,-11.26875,-0.10862954,-0.7212625,0.5469487,998.71014, , , , 
2025-09-20 21:23:38.231,11.729616,-10.99502,-2.1678972,-0.18051054,0.51404274,-2.84411,-39.35625,27.468752,-10.106251,-0.09236326,-0.7226667,0.5332755,998.71014, , , , 
2025-09-20 21:23:38.250,12.4833555,-11.5621195,-1.7754744,-0.2538143,0.4187478,-3.0444736,-39.80625,23.7,-11.231251,-0.07463745,-0.72440207,0.51837,998.7065, , , , 
2025-09-20 21:23:38.270,13.416556,-11.916257,-1.1581261,-0.15790854,0.39736754,-3.4256532,-42.15,21.487501,-12.4125,-0.054732703,-0.7259573,0.5020098,998.7065, , , , 
2025-09-20 21:23:38.290,12.507284,-12.026326,-1.8664017,-0.12980877,0.66614807,-3.7762897,-42.1875,19.0125,-14.26875,-0.03235372,-0.7260116,0.48421985,998.70013, , , , 
2025-09-20 21:23:38.310,11.217552,-12.165111,-2.0889342,-0.20250167,1.0082324,-4.005975,-43.125,15.7875,-13.5375,-0.009646379,-0.7239106,0.46428707,998.70013, , , , 
2025-09-20 21:23:38.330,10.84188,-12.260823,-1.4955142,-0.18539746,1.1065816,-4.1531935,-43.518753,13.031251,-15.0375,0.012554237,-0.7196509,0.44249108,998.69574, , , , 
2025-09-20 21:23:38.350,10.600204,-12.313465,-1.294517,-0.013133593,1.010065,-4.316905,-44.100002,7.9875,-14.531251,0.035799805,-0.7137027,0.41994917,998.69574, , , , 
2025-09-20 21:23:38.370,9.482756,-12.071791,-2.0147567,0.0650571,0.9892955,-4.4940557,-47.1375,4.5750003,-14.625001,0.06773622,-0.7044042,0.39115846,998.6955, , , , 
2025-09-20 21:23:38.390,8.092526,-11.8899355,-1.9262222,0.0027488915,1.1560616,-4.5038295,-44.850002,0.46875003,-16.800001,0.09338676,-0.69513464,0.36689588,998.6955, , , , 
2025-09-20 21:23:38.410,7.125826,-11.818151,-1.308874,0.03940078,1.2202024,-4.423806,-44.04375,-2.7,-15.76875,0.11772118,-0.6839503,0.342197,998.69867, , , , 
2025-09-20 21:23:38.430,5.3383875,-11.432906,-1.3399807,0.16584979,1.1059707,-4.178239,-43.55625,-7.7250004,-18.46875,0.14131792,-0.67137235,0.31833026,998.69867, , , , 
2025-09-20 21:23:38.450,4.2185464,-10.636097,-1.6414764,0.26053384,0.7315106,-3.7903397,-39.6375,-11.6625,-19.743752,0.16400237,-0.6591475,0.2964329,998.69794, , , , 
2025-09-20 21:23:38.470,3.6083765,-9.734002,-1.9214365,0.29962918,0.3149008,-3.40916,-39.825,-14.6625,-19.40625,0.19102724,-0.64688504,0.27170235,998.69794, , , , 
2025-09-20 21:23:38.491,2.548356,-9.298509,-2.510071,0.2244928,0.054061532,-3.0536368,-37.725002,-16.6875,-19.81875,0.21123247,-0.63938266,0.25328562,998.70233, , , , 
2025-09-20 21:23:38.510,1.4715859,-9.104691,-2.926422,0.07238748,-0.10231985,-2.672457,-37.29375,-19.518751,-18.91875,0.2289603,-0.6338527,0.23590676,998.70233, , , , 
2025-09-20 21:23:38.530,0.5383851,-8.800801,-2.6679974,-0.15118903,-0.2367101,-2.0927463,-38.568752,-23.00625,-19.518751,0.24258815,-0.6306024,0.22013934,998.69257, , , , 
2025-09-20 21:23:38.555,0.19142582,-8.597412,-2.225325,-0.31184646,-0.3912589,-1.4550035,-37.143753,-25.968752,-18.112501,0.25139078,-0.6297871,0.2069542,998.69257, , , , 
2025-09-20 21:23:38.570,0.526421,-8.530413,-1.9812572,-0.46334094,-0.4150826,-0.7549525,-37.987503,-26.550001,-18.300001,0.25555283,-0.6314656,0.19693865,998.6838, , , , 
2025-09-20 21:23:38.590,0.4977071,-9.078369,-2.5172493,-0.61361367,-0.2403753,-0.2173915,-35.04375,-25.7625,-18.65625,0.2550347,-0.6344009,0.19029155,998.6838, , , , 
2025-09-20 21:23:38.610,-0.76570326,-9.518648,-3.2063823,-0.901331,-0.13469568,0.439899,-36.131252,-28.237501,-18.243752,0.24942082,-0.63797975,0.1867965,998.6745, , , , 
2025-09-20 21:23:38.630,-1.2203395,-8.95155,-2.0721843,-1.2287545,-0.2556469,1.2902228,-36.131252,-26.85,-19.087502,0.23706631,-0.64366823,0.18633714,998.6745, , , , 
2025-09-20 21:23:38.650,0.6197411,-8.73141,-0.27996024,-1.3038908,-0.2525926,2.146655,-37.518753,-24.2625,-18.9375,0.21219234,-0.65437084,0.19127978,998.6811, , , , 
2025-09-20 21:23:38.670,2.603391,-8.860622,0.47856453,-1.1963787,-0.08032872,2.6811619,-38.8125,-20.6625,-20.081251,0.18708915,-0.66305923,0.20058516,998.6811, , , , 
2025-09-20 21:23:38.690,4.371687,-9.267402,0.22971097,-1.0338887,-0.09071342,2.9768205,-38.8125,-17.15625,-21.825,0.15983532,-0.67081916,0.21376118,998.6967, , , , 
2025-09-20 21:23:38.710,5.103891,-9.580862,-0.23688944,-0.88850284,-0.3649917,3.2010078,-39.675003,-12.656251,-20.925001,0.13220668,-0.67880285,0.22904715,998.6967, , , , 
2025-09-20 21:23:38.730,5.709275,-10.12164,-0.39960137,-0.7980948,-0.5910117,3.48506,-41.4,-11.08125,-21.900002,0.104316555,-0.6878121,0.24593729,998.69574, , , , 
2025-09-20 21:23:38.750,6.9990063,-10.581061,-0.10767702,-0.7156281,-0.7987057,3.791714,-42.881252,-9.618751,-20.60625,0.07538494,-0.6973013,0.26477587,998.69574, , , , 
2025-09-20 21:23:38.770,8.930014,-10.310673,0.85184485,-0.49388418,-0.9935716,4.0244536,-43.2,-3.9375002,-20.118752,0.04585691,-0.70698494,0.2855518,998.7065, , , , 
2025-09-20 21:23:38.790,10.413564,-9.851251,0.74416786,-0.33689192,-0.75899947,3.981693,-42.506252,0.975,-19.85625,0.009984298,-0.7168883,0.31358948,998.7065, , , , 
2025-09-20 21:23:38.810,9.583255,-10.1288185,1.1557333,-0.29290965,-0.24953826,3.9077783,-44.643753,2.11875,-18.618752,-0.018168304,-0.7207102,0.33548024,998.7155, , , , 
2025-09-20 21:23:38.830,9.030513,-10.861022,1.7946169,-0.21105379,0.41813695,4.1967173,-43.875,5.925,-18.13125,-0.048370432,-0.71973306,0.35770798,998.7155, , , , 
2025-09-20 21:23:38.850,10.875379,-10.487741,0.34217364,-0.3197877,1.0571015,4.3585963,-44.325,9.731251,-16.29375,-0.08241986,-0.71338856,0.38073754,998.7375, , , , 
2025-09-20 21:23:38.870,12.416357,-9.497113,-0.6436693,-0.9740239,1.556178,4.081264,-40.5,14.26875,-22.987501,-0.11967385,-0.7040514,0.3996292,998.7375, , , , 
2025-09-20 21:23:38.890,12.622139,-9.564112,1.3806586,-1.4169009,1.4199551,3.6921432,-38.30625,19.237501,-24.2625,-0.15835789,-0.6947767,0.41125464,998.73505, , , , 
2025-09-20 21:23:38.910,12.58864,-9.446864,3.7878382,-1.344208,0.9434807,3.2840855,-38.100002,21.112501,-22.85625,-0.20262273,-0.6855626,0.42035857,998.73505, , , , 
2025-09-20 21:23:38.931,11.887543,-9.21476,4.23051,-1.0992512,0.88422674,3.059287,-32.71875,26.025002,-22.931252,-0.22544445,-0.68048877,0.42541537,998.7631, , , , 
2025-09-20 21:23:38.950,11.236695,-8.439486,3.8333018,-0.9117157,1.082147,2.9242861,-33.09375,26.362501,-22.44375,-0.26031905,-0.67002547,0.43378964,998.7631, , , , 
2025-09-20 21:23:38.970,11.58844,-7.4273214,4.0031924,-0.70585424,0.9941824,2.7654612,-32.90625,27.243752,-23.1375,-0.28635573,-0.6600506,0.44011796,998.7839, , , , 
2025-09-20 21:23:38.991,12.77528,-7.166504,3.495914,-0.30573782,0.50976664,2.4484224,-31.031252,31.425001,-23.25,-0.3080767,-0.65041846,0.44737816,998.7839, , , , 
2025-09-20 21:23:39.010,12.942778,-7.472785,1.7156538,-0.07910699,0.27214026,2.1112251,-28.63125,32.41875,-23.41875,-0.32387188,-0.64223295,0.45584166,998.78534, , , , 
2025-09-20 21:23:39.030,12.64846,-7.6546397,0.62931234,-0.14569125,0.38148504,1.9346851,-25.1625,34.912502,-25.931252,-0.33661333,-0.6350979,0.46362472,998.78534, , , , 
2025-09-20 21:23:39.050,13.46202,-7.692925,1.012164,-0.18845178,0.5018254,1.7978514,-24.525002,34.59375,-23.962502,-0.3526668,-0.6262954,0.47058803,998.77216, , , , 
2025-09-20 21:23:39.070,14.809179,-7.281359,0.7537391,-0.015577052,0.40408704,1.6066507,-23.681252,35.175003,-23.775002,-0.36387706,-0.619323,0.47547254,998.77216, , , , 
2025-09-20 21:23:39.090,16.101303,-6.680761,-0.5407779,-0.011300999,0.43768463,1.2914445,-20.775002,37.10625,-25.425001,-0.37052187,-0.61456215,0.4787738,998.7631, , , , 
2025-09-20 21:23:39.110,17.015362,-6.8913293,-1.2418749,-0.17134757,0.59162253,0.72028595,-20.4375,36.525,-26.5125,-0.37919995,-0.60882425,0.48005775,998.7631, , , , 
2025-09-20 21:23:39.130,17.20918,-6.5443697,-1.1174482,-0.23548837,0.4987711,0.25663957,-19.95,35.550003,-23.737501,-0.38379258,-0.60659033,0.47717902,998.75116, , , , 
2025-09-20 21:23:39.150,18.276379,-6.099305,-0.27517462,-0.23609924,0.14019346,-0.4550179,-18.73125,36.318752,-25.7625,-0.3844845,-0.6074214,0.47230065,998.75116,37.88823667,127.73991255,145.68975830078125,1.39
2025-09-20 21:23:39.170,17.781065,-6.3696938,0.79441714,-0.13713914,-0.1517999,-1.2711333,-18.862501,37.800003,-26.2875,-0.37914178,-0.6122246,0.46528584,998.74286, , , , 
2025-09-20 21:23:39.192,15.565311,-7.501499,1.5720844,0.05222894,-0.3509418,-2.0848053,-19.35,36.975002,-24.018751,-0.36334243,-0.62272316,0.4535674,998.74286, , , , 
2025-09-20 21:23:39.211,14.038691,-9.042477,1.8233309,0.32895067,-0.3979784,-2.5386777,-22.21875,36.675003,-23.1,-0.3449692,-0.63247234,0.44279683,998.75555, , , , 
2025-09-20 21:23:39.230,13.325629,-10.547563,0.68195444,0.5904008,-0.42302385,-2.8013494,-27.35625,34.425003,-23.5125,-0.3228894,-0.64166385,0.43204802,998.75555, , , , 
2025-09-20 21:23:39.250,13.904693,-11.157732,-0.94277215,0.61361367,-0.4413498,-3.0536368,-27.54375,32.775,-23.23125,-0.2984392,-0.6506064,0.4208837,998.7607, , , , 
2025-09-20 21:23:39.270,14.46222,-11.25823,-1.8281165,0.39553493,-0.2629773,-3.4427576,-29.7,31.556252,-22.331251,-0.27268916,-0.66003305,0.40678927,998.7607, , , , 
2025-09-20 21:23:39.291,13.641482,-11.538191,-1.6438692,0.083993904,0.113926284,-3.9296167,-31.125002,29.437502,-24.206251,-0.24652302,-0.6693946,0.38197216,998.73334, , , , 
2025-09-20 21:23:39.312,12.770494,-11.935399,-0.18664017,-0.044287696,0.38515025,-4.2692575,-33.1875,27.225,-24.187502,-0.21382114,-0.67934763,0.3572204,998.73334, , , , 
2025-09-20 21:23:39.332,12.059826,-12.320643,0.44027936,0.041844238,0.5232057,-4.606455,-33.693752,26.175001,-23.60625,-0.1862027,-0.68522984,0.33001053,998.72406, , , , 
2025-09-20 21:23:39.352,10.939985,-12.825529,0.28713873,0.20066908,0.53236866,-4.808651,-37.40625,20.94375,-23.23125,-0.1638472,-0.68840647,0.30865747,998.72406, , , , 
2025-09-20 21:23:39.372,9.454042,-12.9643135,-0.7369894,0.3478875,0.38759372,-4.863018,-39.375,16.893751,-24.018751,-0.12401063,-0.6919156,0.27305856,998.72235, , , , 
2025-09-20 21:23:39.392,8.496913,-12.650853,-1.160519,0.3149008,0.10720677,-4.7671123,-40.2,12.075001,-24.6,-0.09140285,-0.6943733,0.24510191,998.72235, , , , 
2025-09-20 21:23:39.410,7.884351,-12.004791,-0.6149554,0.26175556,-0.21655156,-4.651048,-38.831253,9.993751,-26.156252,-0.059157517,-0.69738376,0.2174233,998.7231, , , , 
2025-09-20 21:23:39.432,7.125826,-11.303694,-0.3397808,0.26847506,-0.35033095,-4.520323,-42.581253,3.8812501,-24.6375,-0.027249442,-0.70070213,0.19015576,998.7231, , , , 
2025-09-20 21:23:39.452,6.113662,-10.392029,-1.0600204,0.2122755,-0.17318016,-4.2955246,-42.112503,-1.6875001,-23.456251,0.011138406,-0.7031377,0.15720987,998.7148, , , , 
2025-09-20 21:23:39.472,5.400601,-9.994821,-1.7371893,0.057726722,-0.027183482,-4.1067677,-41.006252,-3.43125,-23.00625,0.03243187,-0.7030898,0.13782631,998.7148, , , , 
