Time,Accel_X,Accel_Y,Accel_Z,Gyro_X,Gyro_Y,Gyro_Z,Mag_X,Mag_Y,Mag_Z,Orient_X,Orient_Y,Orient_Z,Pressure,Latitude,Longitude,Altitude,Speed
2025-04-06 16:40:15.392,-0.3900301,4.034299,8.7984085,-0.0012217296,-0.029779658,0.015653409,28.500002,-8.868751,-29.718752,0.14574905,0.16178827,0.68666553,997.4792,37.88836561,127.73982818,137.48443603515625,0.0
2025-04-06 16:40:15.412,-0.2656033,4.199404,8.977871,-0.032375835,-0.043218683,0.031535894,28.406252,-8.493751,-29.737501,0.14582494,0.16148512,0.68675774,997.4792,37.88836561,127.73982818,137.48443603515625,0.0
2025-04-06 16:40:15.432,-0.069391854,4.2017965,9.142975,-0.035430156,0.03375028,0.043753188,28.0125,-8.681251,-29.587502,0.14577182,0.16102706,0.68706423,997.4682,37.88836561,127.73982818,137.48443603515625,0.0
2025-04-06 16:40:15.452,0.15792629,4.2687955,9.174082,-0.06536253,0.13026692,0.039477136,28.06875,-8.887501,-29.962502,0.14519472,0.16088662,0.6876355,997.4682,37.88836561,127.73982818,137.48443603515625,0.0
2025-04-06 16:40:15.472,0.16510476,4.3118663,9.509077,-0.032986697,0.10644319,-0.0014508038,28.35,-8.625,-30.056252,0.14447525,0.1607774,0.68820035,997.4682,37.88836561,127.73982818,137.48443603515625,0.0
2025-04-06 16:40:15.492,-0.02871387,4.3238306,9.41815,0.013439025,0.066736974,-0.019165883,28.35,-8.75625,-29.775002,0.14428523,0.1607675,0.68831176,997.467,37.88836561,127.73982818,137.48443603515625,0.0
2025-04-06 16:40:15.512,-0.26799613,4.3788652,8.640483,0.058032155,-0.0707076,-0.010613776,28.706251,-9.056251,-29.681252,0.14524135,0.1612645,0.68797356,997.4731,37.88836561,127.73982818,137.48443603515625,0.0
2025-04-06 16:40:15.532,-0.17706887,4.2927237,8.60459,-0.021380268,-0.002290743,-0.006948587,28.500002,-9.0,-29.19375,0.14628595,0.16163407,0.68763363,997.4731,37.88836561,127.73982818,137.48443603515625,0.0
2025-04-06 16:40:15.556,-0.11964113,4.115655,9.004191,-0.04703659,0.014813471,-0.016111558,28.500002,-9.13125,-29.1375,0.14607148,0.1615732,0.6876383,997.47406,37.88836561,127.73982818,137.48443603515625,0.0
2025-04-06 16:40:15.572,-0.023928227,4.046263,9.446864,-0.005497783,-0.026725333,-0.032604907,28.44375,-9.1125,-29.081251,0.14582276,0.16101588,0.68762076,997.47406,37.88836561,127.73982818,137.48443603515625,0.0
2025-04-06 16:40:15.592,-0.25124636,3.9194436,9.123833,0.05986475,-0.007177661,-0.025885396,28.48125,-8.8125,-28.987501,0.14581856,0.16052212,0.6874672,997.47406,37.88836561,127.73982818,137.48443603515625,0.0
2025-04-06 16:40:15.612,-0.18664017,4.0701914,8.839087,0.047647454,-0.020616686,0.016264275,28.500002,-8.625,-29.437502,0.14589484,0.16067062,0.6873643,997.4599,37.88836561,127.73982818,137.48443603515625,0.0
2025-04-06 16:40:15.632,-0.04546363,4.240082,8.702696,0.021380268,-0.007177661,-0.003894263,28.575,-8.56875,-29.79375,0.14635916,0.16071412,0.687381,997.4462,37.88836561,127.73982818,137.48443603515625,0.0
2025-04-06 16:40:15.652,-0.20817557,4.316652,8.657232,-0.039095346,-0.02611447,-0.022831071,28.125002,-8.868751,-29.362501,0.14682348,0.1607234,0.6872651,997.4462,37.88836561,127.73982818,137.48443603515625,0.0
2025-04-06 16:40:15.672,-0.076570325,4.24726,9.085547,-0.06963859,-0.051159926,-0.017333288,28.218752,-8.962501,-29.175001,0.14682359,0.1602675,0.68710643,997.4438,37.88836561,127.73982818,137.48443603515625,0.0
2025-04-06 16:40:15.692,-0.11006984,4.2041893,9.485149,-0.014660755,-0.048716467,-0.027107125,28.63125,-8.7375,-28.85625,0.14684755,0.1595968,0.6870362,997.4438,37.88836561,127.73982818,137.48443603515625,0.0
2025-04-06 16:40:15.713,-0.2632105,4.2664027,9.145369,0.05864302,-0.012064579,-0.025885396,28.48125,-8.7375,-28.687502,0.14712147,0.1591659,0.68679714,997.446,37.88836561,127.73982818,137.48443603515625,0.0
2025-04-06 16:40:15.732,-0.27517462,4.2951164,8.776874,0.033597562,-0.046273008,-0.017333288,28.406252,-8.53125,-29.23125,0.14757432,0.15961176,0.68649566,997.446,37.88836561,127.73982818,137.48443603515625,0.0
2025-04-06 16:40:15.752,-0.13160525,4.208975,8.848659,0.009162972,-0.057268575,-0.03199404,28.406252,-8.38125,-29.41875,0.14814027,0.159627,0.6861719,997.4416,37.88836561,127.73982818,137.48443603515625,0.0
2025-04-06 16:40:15.772,-0.2656033,4.2329035,8.920443,-0.019547673,-0.0016798781,-0.04421134,27.937502,-8.56875,-29.85,0.1483998,0.15946436,0.6858547,997.4416,37.88836561,127.73982818,137.48443603515625,0.0
2025-04-06 16:40:15.792,-0.5096712,4.213761,8.9826565,-0.035430156,0.017867794,-0.022220206,28.087502,-8.493751,-30.075,0.1479279,0.15964222,0.6855972,997.4416,37.88836561,127.73982818,137.48443603515625,0.0
2025-04-06 16:40:15.814,-0.2727818,4.168297,9.104691,-0.0030543238,-0.024281874,0.0022143847,27.900002,-8.56875,-29.718752,0.14729786,0.15976077,0.68555087,997.4384,37.88836561,127.73982818,137.48443603515625,0.0
2025-04-06 16:40:15.833,-0.2847459,4.2041893,9.090333,0.035430156,-0.06826414,-0.0014508038,27.806252,-8.493751,-29.925001,0.14754854,0.15955766,0.68545336,997.43134,37.88836561,127.73982818,137.48443603515625,0.0
2025-04-06 16:40:15.852,-0.30149564,4.1754756,8.970692,0.06169734,-0.06887501,0.007101303,27.69375,-8.606251,-29.681252,0.147994,0.15947531,0.6853192,997.43134,37.88836561,127.73982818,137.48443603515625,0.0
2025-04-06 16:40:15.872,-0.2847459,4.1587257,8.786445,0.018325943,0.012370012,0.024205517,27.31875,-8.83125,-29.38125,0.14867175,0.15966183,0.6851923,997.4274,37.88836561,127.73982818,137.48443603515625,0.0
2025-04-06 16:40:15.893,-0.22013968,4.1443686,8.786445,-0.007941242,0.08811724,0.025427246,27.50625,-9.0,-29.85,0.1484199,0.1600716,0.68537456,997.4274,37.88836561,127.73982818,137.48443603515625,0.0
2025-04-06 16:40:15.912,-0.25603202,4.2831526,8.700303,-0.020769402,0.10155627,0.011988222,27.806252,-8.94375,-29.6625,0.14777443,0.1606614,0.6856604,997.4201,37.88836561,127.73982818,137.48443603515625,0.0
2025-04-06 16:40:15.932,-0.32542387,4.302295,8.812766,-0.034208428,0.0386372,-0.0014508038,27.768751,-9.1875,-29.94375,0.14718488,0.16130865,0.6858065,997.4201,37.88836561,127.73982818,137.48443603515625,0.0
2025-04-06 16:40:15.953,-0.4331009,4.1347976,8.810373,-0.031154104,-0.021838415,0.01687514,27.88125,-9.1875,-29.98125,0.14667834,0.16154675,0.6858146,997.4211,37.88836561,127.73982818,137.48443603515625,0.0
2025-04-06 16:40:15.972,-0.32063824,4.141976,8.939586,-0.043371398,-0.06398808,0.024205517,27.88125,-9.0375,-29.456251,0.1465551,0.16129544,0.6858776,997.4211,37.88836561,127.73982818,137.48443603515625,0.0
2025-04-06 16:40:15.994,-0.2416751,4.1874394,8.9826565,-0.056199558,0.017867794,0.026648976,27.581251,-9.056251,-29.587502,0.14639471,0.1605334,0.6861141,997.4184,37.88836561,127.73982818,137.48443603515625,0.0
2025-04-06 16:40:16.014,-0.33020952,4.2041893,9.116654,-0.10873393,0.123547405,0.052305296,27.900002,-8.868751,-29.550001,0.14535645,0.16056898,0.6865404,997.4184,37.88836561,127.73982818,137.48443603515625,0.0
2025-04-06 16:40:16.033,-0.23449662,4.2017965,9.4636135,-0.031154104,0.06551525,0.049861837,28.275002,-8.512501,-29.23125,0.14368185,0.16057442,0.6873753,997.4174,37.88836561,127.73982818,137.48443603515625,0.0
2025-04-06 16:40:16.052,-0.23928227,4.2520456,9.190832,0.056810424,-0.03649917,0.04130973,27.956251,-8.55,-29.19375,0.14350328,0.16058517,0.6876807,997.4174,37.88836561,127.73982818,137.48443603515625,0.0
2025-04-06 16:40:16.072,-0.2632105,4.2568316,8.913264,0.049480047,-0.03527744,0.040698867,28.2,-8.71875,-29.025002,0.14428474,0.16062775,0.68777245,997.42255,37.88836561,127.73982818,137.48443603515625,0.0
2025-04-06 16:40:16.092,-0.05503492,4.220939,8.7673025,-0.0140498895,0.023365578,0.03642281,27.993752,-8.8125,-28.837502,0.1447749,0.16077743,0.68795973,997.42255,37.88836561,127.73982818,137.48443603515625,0.0
2025-04-06 16:40:16.113,-0.0071784677,4.2041893,9.016156,-0.0537561,0.009315688,0.013820816,27.73125,-8.83125,-29.1,0.14485016,0.1604687,0.6883039,997.4233,37.88836561,127.73982818,137.48443603515625,0.0
2025-04-06 16:40:16.132,-0.07178468,4.1898327,9.238688,-0.023823727,0.009315688,0.019929463,27.768751,-9.0375,-29.41875,0.14473577,0.16007937,0.6884823,997.4233,37.88836561,127.73982818,137.48443603515625,0.0
2025-04-06 16:40:16.152,-0.0741775,4.211368,9.169296,0.029932374,-0.04138609,0.043753188,27.6375,-8.887501,-29.625002,0.14494067,0.15966484,0.6887732,997.4289,37.88836561,127.73982818,137.48443603515625,0.0
2025-04-06 16:40:16.172,0.4331009,4.321438,8.932407,0.056810424,-0.07131846,0.0297033,27.6375,-9.075001,-29.775002,0.14602908,0.15919335,0.688992,997.4289,37.88836561,127.73982818,137.48443603515625,0.0
2025-04-06 16:40:16.192,0.46181476,4.398008,8.712267,0.02687805,-0.06093376,-0.03565923,27.562502,-9.056251,-29.493752,0.14778435,0.15853895,0.68898374,997.4289,37.88836561,127.73982818,137.48443603515625,0.0
2025-04-06 16:40:16.212,0.24885355,4.3812585,8.896515,-0.0073303776,-0.14401138,-0.09552398,27.69375,-8.981251,-29.79375,0.14925799,0.15790881,0.68848455,997.425,37.88836561,127.73982818,137.48443603515625,0.0
2025-04-06 16:40:16.232,0.2656033,4.2855453,8.997013,0.06475167,-0.24358234,-0.12362376,27.6375,-8.925,-29.400002,0.15145424,0.15633608,0.6872534,997.41815,37.88836561,127.73982818,137.48443603515625,0.0
2025-04-06 16:40:16.252,0.21296121,4.2017965,8.039884,0.04214967,-0.14462224,-0.098578304,27.562502,-8.85,-29.306252,0.15353361,0.15540884,0.6861296,997.41815,37.88836561,127.73982818,137.48443603515625,0.0
2025-04-06 16:40:16.272,0.47856453,4.436293,7.52782,-0.18631376,-0.13301581,-0.060704686,27.6,-8.6625,-29.550001,0.15471855,0.15491179,0.6855046,997.4091,37.88836561,127.73982818,137.48443603515625,0.0
2025-04-06 16:40:16.292,0.5694918,4.2424746,8.872586,-0.24923283,-0.3657553,-0.131565,27.54375,-8.512501,-29.493752,0.15565592,0.15221274,0.684886,997.4091,37.88836561,127.73982818,137.48443603515625,0.0
2025-04-06 16:40:16.313,0.09810573,4.206582,9.3511505,-0.11728604,-0.7994693,-0.019776747,27.50625,-8.1,-30.187502,0.15905343,0.1454876,0.68333817,997.39594,37.88836561,127.73982818,137.48443603515625,0.0
2025-04-06 16:40:16.332,0.37328035,4.213761,9.365508,-0.029932374,-0.5923861,-0.015500694,27.431252,-8.00625,-30.4125,0.16239372,0.14109495,0.6824858,997.39594,37.88836561,127.73982818,137.48443603515625,0.0
2025-04-06 16:40:16.352,0.16510476,4.0271206,9.549755,0.02687805,-0.3291034,-0.05337431,27.093752,-8.137501,-30.31875,0.16560107,0.13707747,0.6813817,997.40106,37.88836561,127.73982818,137.48443603515625,0.0
2025-04-06 16:40:16.373,0.02871387,4.1850467,9.243474,-0.009162972,-0.27962336,-0.014889829,26.6625,-8.175,-30.375002,0.16696845,0.1355539,0.6806191,997.40106,37.88836561,127.73982818,137.48443603515625,0.0
2025-04-06 16:40:16.392,-0.0526421,4.0366917,9.466006,-0.026267186,-0.2790125,0.056581352,26.643751,-8.4375,-30.91875,0.16813383,0.13353646,0.6803301,997.4067,37.88836561,127.73982818,137.48443603515625,0.0
2025-04-06 16:40:16.413,0.19381863,3.9026937,9.741181,0.09590577,-0.3291034,0.15554145,26.456251,-8.475,-31.85625,0.16922574,0.1315017,0.68056726,997.4067,37.88836561,127.73982818,137.48443603515625,0.0
2025-04-06 16:40:16.432,0.44745782,3.9625144,9.547362,0.19303326,-0.25396705,0.030314164,26.268751,-8.400001,-32.04375,0.17099878,0.13011618,0.6808087,997.4152,37.88836561,127.73982818,137.48443603515625,0.0
2025-04-06 16:40:16.452,0.3900301,4.1635113,8.874979,0.2761109,-0.7732021,-0.016111558,26.062502,-8.625,-32.23125,0.17510714,0.12847933,0.67982197,997.4152,37.88836561,127.73982818,137.48443603515625,0.0
2025-04-06 16:40:16.472,0.54317075,3.9744785,7.8723865,0.28527385,-1.1250602,0.049861837,25.7625,-8.38125,-31.968752,0.18344665,0.12391194,0.677717,997.4091,37.88836561,127.73982818,137.48443603515625,0.0
2025-04-06 16:40:16.492,1.0169497,3.7830527,7.7814593,0.13927718,-0.7475458,0.055970486,25.500002,-8.3625,-31.650002,0.19193403,0.1187847,0.67581236,997.4091,37.88836561,127.73982818,137.48443603515625,0.0
2025-04-06 16:40:16.512,1.3375878,3.778267,7.9968133,0.050090913,-0.6827941,0.12072215,24.956251,-8.53125,-31.837502,0.19742036,0.114441045,0.67495644,997.38446,37.88836561,127.73982818,137.48443603515625,0.0
2025-04-06 16:40:16.532,1.7108682,3.9194436,7.479964,0.13561198,-1.3944516,0.31497714,24.50625,-8.38125,-31.687502,0.20648795,0.10603792,0.6742666,997.38446,37.88836561,127.73982818,137.48443603515625,0.0
2025-04-06 16:40:16.552,2.5268207,4.0366917,6.2644095,0.22357652,-1.7243185,0.44142616,23.456251,-8.587501,-32.04375,0.21883322,0.095592275,0.6734667,997.36566,37.88836561,127.73982818,137.48443603515625,0.0
2025-04-06 16:40:16.573,2.9048867,3.7064822,4.6229334,0.18631376,-1.7597487,0.38583747,22.78125,-8.475,-32.625,0.23299599,0.08405154,0.67232275,997.36566,37.88836561,127.73982818,137.48443603515625,0.0
2025-04-06 16:40:16.592,2.1176481,2.940779,3.6346977,0.01527162,-1.8458806,0.4493674,21.862501,-8.53125,-33.037502,0.24669324,0.0717518,0.67049706,997.36566,37.88836561,127.73982818,137.48443603515625,0.0
2025-04-06 16:40:16.612,3.792624,2.536392,3.0987053,-0.47769627,-1.3425281,0.73097605,20.2875,-8.7375,-33.825,0.25800788,0.057374753,0.6703082,997.3266,37.88836561,127.73982818,137.48443603515625,0.0
2025-04-06 16:40:16.632,4.723432,2.1511476,4.4147577,-0.93889916,-0.71333736,0.39988735,18.900002,-8.90625,-34.575,0.26243687,0.04032227,0.6724568,997.2695,37.88836561,127.73982818,137.48443603515625,0.0
2025-04-06 16:40:16.654,2.495714,1.119841,6.178268,-1.0286963,-1.0089959,0.44386962,17.212502,-9.375,-35.11875,0.2616126,0.029843852,0.67319274,997.2695,37.88836561,127.73982818,137.48443603515625,0.0
2025-04-06 16:40:16.674,1.4787644,0.78723866,6.439086,-0.68966633,-2.0810635,0.87025326,15.150001,-9.356251,-36.112503,0.26390633,0.008831433,0.67426306,997.2497,37.88836561,127.73982818,137.48443603515625,0.0
2025-04-06 16:40:16.694,2.8594232,0.5982057,5.2666025,-0.54916745,-2.662607,1.0663408,14.7375,-9.01875,-36.375,0.27102703,-0.007523225,0.67468065,997.2497,37.88836561,127.73982818,137.48443603515625,0.0
2025-04-06 16:40:16.714,4.816752,1.3447664,3.0867412,-0.83993906,-2.7951646,1.2221113,12.225,-8.212501,-37.40625,0.29267386,-0.048383903,0.67458516,997.24774,37.88836561,127.73982818,137.48443603515625,0.0
2025-04-06 16:40:16.734,4.8646083,0.27996024,2.158326,-1.2791508,-2.1140504,1.1518619,11.118751,-7.8187504,-38.025,0.29996133,-0.06882828,0.674529,997.24774,37.88836561,127.73982818,137.48443603515625,0.0
2025-04-06 16:40:16.755,3.4504502,-0.5694918,3.8668015,-1.8606942,-2.1916301,1.3766601,7.4437504,-6.6000004,-39.525,0.3029513,-0.10434404,0.67533576,997.24945,37.88836561,127.73982818,137.48443603515625,0.0
2025-04-06 16:40:16.774,4.57747,-1.4548361,4.7449675,-2.0018039,-2.2667665,1.6338342,6.2250004,-6.2250004,-40.0875,0.30303177,-0.1281937,0.67619693,997.24945,37.88836561,127.73982818,137.48443603515625,0.0
2025-04-06 16:40:16.794,5.9318075,-2.105684,6.245267,-1.9553782,-2.626566,1.7865504,2.11875,-4.4812503,-41.4,0.30278262,-0.17111208,0.6778112,997.26996,37.88836561,127.73982818,137.48443603515625,0.0
2025-04-06 16:40:16.814,6.836294,-2.9336007,7.664211,-1.7250822,-2.8183775,1.77922,-0.73125005,-3.05625,-42.131252,0.30449003,-0.20672052,0.67801744,997.26996,37.88836561,127.73982818,137.48443603515625,0.0
2025-04-06 16:40:16.834,6.826723,-2.6679974,7.24786,-1.2754856,-3.6204429,1.8445826,-3.6000001,-1.0875001,-42.75,0.3104611,-0.2423134,0.67690384,997.3122,37.88836561,127.73982818,137.48443603515625,0.0
2025-04-06 16:40:16.852,6.407979,-3.1250265,5.5944195,-1.1032218,-3.823861,1.9667555,-5.3250003,-0.09375,-42.675003,0.32193205,-0.2789336,0.6741191,997.3122,37.88836561,127.73982818,137.48443603515625,0.0
2025-04-06 16:40:16.872,4.962714,-3.481557,2.239682,-1.3182462,-3.1922266,2.3296092,-8.64375,2.1937501,-42.881252,0.3316944,-0.3145064,0.6720206,997.3378,37.88836561,127.73982818,137.48443603515625,0.0
2025-04-06 16:40:16.892,7.109076,-4.807181,2.0961127,-1.9511021,-2.716363,2.7394996,-12.168751,3.91875,-42.393753,0.33332136,-0.35071737,0.67163473,997.3378,37.88836561,127.73982818,137.48443603515625,0.0
2025-04-06 16:40:16.912,9.4636135,-5.73081,5.6327047,-2.163072,-2.8183775,2.7798166,-15.825001,5.90625,-41.775,0.32895538,-0.38914904,0.6705195,997.3049,37.88836561,127.73982818,137.48443603515625,0.0
2025-04-06 16:40:16.932,10.315458,-6.0514483,6.623333,-1.7818925,-3.059669,2.6753588,-19.275002,8.08125,-41.175003,0.3253053,-0.42674786,0.6678579,997.3049,37.88836561,127.73982818,137.48443603515625,0.0
2025-04-06 16:40:16.952,9.564112,-6.3601227,3.5389848,-1.5125012,-2.5050037,2.614883,-23.775002,11.793751,-39.300003,0.32309818,-0.4679791,0.66454786,997.31976,37.88836561,127.73982818,137.48443603515625,0.0
2025-04-06 16:40:16.972,8.484949,-7.109076,1.39023,-1.825264,-2.0602942,2.7333908,-25.050001,13.33125,-38.662502,0.31905338,-0.49043927,0.6628872,997.31976,37.88836561,127.73982818,137.48443603515625,0.0
2025-04-06 16:40:16.992,9.183653,-8.693125,1.4045869,-2.3280058,-1.8819216,3.035769,-27.150002,16.25625,-36.881252,0.30525273,-0.52964187,0.65867984,997.30145,37.88836561,127.73982818,137.48443603515625,0.0
2025-04-06 16:40:17.012,12.409178,-9.51147,4.0845485,-2.5259259,-2.1348197,3.1744351,-28.931252,19.275002,-34.95,0.2904649,-0.56316894,0.65317506,997.30145,37.88836561,127.73982818,137.48443603515625,0.0
2025-04-06 16:40:17.032,14.557933,-9.430114,6.498906,-2.1148138,-1.808007,2.9019895,-29.75625,24.2625,-32.49375,0.2761586,-0.59430915,0.64680195,997.2841,37.88836561,127.73982818,137.48443603515625,0.0
2025-04-06 16:40:17.054,13.529019,-9.257831,5.761917,-1.6462805,-1.1586578,2.565403,-29.6625,25.931252,-31.687502,0.26227906,-0.61817694,0.6423584,997.2841,37.88836561,127.73982818,137.48443603515625,0.0
2025-04-06 16:40:17.074,11.475977,-9.037691,3.3643086,-1.3335178,-0.7854194,2.3949716,-28.85625,30.88125,-30.6375,0.24416079,-0.6402442,0.63963884,997.31586,37.88836561,127.73982818,137.48443603515625,0.0
2025-04-06 16:40:17.092,11.365908,-8.877372,2.4502504,-1.2559379,-0.81229746,2.3613741,-28.81875,33.9,-29.98125,0.22981776,-0.6555078,0.6380474,997.31586,37.88836561,127.73982818,137.48443603515625,0.0
2025-04-06 16:40:17.112,11.861222,-8.4705925,2.2827528,-1.205847,-0.86055577,2.230649,-28.9125,36.581253,-29.062502,0.21674912,-0.67000365,0.635809,997.3105,37.88836561,127.73982818,137.48443603515625,0.0
2025-04-06 16:40:17.132,11.538191,-8.271988,1.9142581,-1.1478149,-0.6149881,2.0559418,-28.95,37.95,-28.5375,0.20445839,-0.68299234,0.63320464,997.3105,37.88836561,127.73982818,137.48443603515625,0.0
2025-04-06 16:40:17.152,10.856236,-8.30788,1.282553,-1.1899645,-0.28451028,1.9313253,-29.1,40.3125,-27.2625,0.19141613,-0.6944291,0.6304272,997.29755,37.88836561,127.73982818,137.48443603515625,0.0
2025-04-06 16:40:17.172,10.286744,-8.106883,1.753939,-1.2223405,0.0074830935,1.8311435,-28.650002,42.46875,-25.95,0.17687608,-0.704828,0.62727356,997.29755,37.88836561,127.73982818,137.48443603515625,0.0
2025-04-06 16:40:17.192,10.018748,-7.7814593,2.1798615,-1.0781764,0.16081016,1.7376813,-27.806252,44.25,-24.88125,0.16159083,-0.71376383,0.6244503,997.29,37.88836561,127.73982818,137.48443603515625,0.0
2025-04-06 16:40:17.212,9.956535,-7.578069,1.9764715,-0.9138537,0.25060728,1.5672499,-26.85,46.3125,-24.54375,0.14682166,-0.7209506,0.6224058,997.29,37.88836561,127.73982818,137.48443603515625,0.0
2025-04-06 16:40:17.232,9.150154,-7.2502527,1.8017955,-0.7684679,0.27870706,1.4163663,-25.7625,47.737503,-24.225,0.13324533,-0.72656566,0.6208943,997.2807,37.88836561,127.73982818,137.48443603515625,0.0
2025-04-06 16:40:17.252,8.408379,-7.0875406,1.698904,-0.62491465,0.21456626,1.3497821,-24.50625,49.331253,-23.962502,0.12086752,-0.73107475,0.61991954,997.2807,37.88836561,127.73982818,137.48443603515625,0.0
2025-04-06 16:40:17.273,8.32463,-6.8195443,1.6821543,-0.49480048,0.14737113,1.3119085,-23.7,50.8875,-23.6625,0.10952668,-0.7347487,0.6196436,997.2807,37.88836561,127.73982818,137.48443603515625,0.0
2025-04-06 16:40:17.292,8.6141615,-6.6711893,1.7443677,-0.365908,0.25243986,1.1940116,-22.800001,51.600002,-23.0625,0.09664567,-0.7380868,0.6201139,997.2746,37.88836561,127.73982818,137.48443603515625,0.0
2025-04-06 16:40:17.312,8.4705925,-6.5371914,1.9190438,-0.25778493,0.3318523,1.0718386,-21.206251,53.006252,-22.462502,0.08683533,-0.7394716,0.62106717,997.27435,37.88836561,127.73982818,137.48443603515625,0.0
2025-04-06 16:40:17.333,9.030513,-6.5754766,2.036292,-0.1508836,0.21700971,0.93072885,-20.775002,53.381252,-22.462502,0.07806522,-0.7400646,0.6224259,997.27435,37.88836561,127.73982818,137.48443603515625,0.0
2025-04-06 16:40:17.354,8.618947,-6.3720865,2.5555346,0.05070178,-0.027947064,0.75235635,-19.44375,54.35625,-22.5,0.07061274,-0.73991024,0.6246703,997.28143,37.88836561,127.73982818,137.48443603515625,0.0
2025-04-06 16:40:17.372,8.915657,-6.314659,2.861816,0.29199335,-0.25518876,0.68760467,-18.993752,54.54375,-22.556252,0.0681954,-0.7391166,0.6269023,997.28143,37.88836561,127.73982818,137.48443603515625,0.0
2025-04-06 16:40:17.392,9.793823,-6.1471615,3.050849,0.63896453,-0.58139056,0.47685632,-18.31875,55.331253,-22.743752,0.068354264,-0.73610073,0.6326882,997.2819,37.88836561,127.73982818,137.48443603515625,0.0
2025-04-06 16:40:17.414,10.449456,-6.273981,2.9503503,0.90407985,-0.75609785,0.26305366,-18.0,55.406254,-22.650002,0.07147525,-0.7331898,0.6372109,997.2819,37.88836561,127.73982818,137.48443603515625,0.0
2025-04-06 16:40:17.434,10.908878,-6.4199433,2.120041,1.2327251,-0.68218327,-0.11140647,-17.4375,55.36875,-22.800001,0.08285676,-0.7242218,0.64835894,997.28485,37.88836561,127.73982818,137.48443603515625,0.0
2025-04-06 16:40:17.452,10.975878,-6.5204415,1.1916257,1.3151919,-0.58322316,-0.35330892,-17.681252,55.18125,-23.15625,0.09008955,-0.7184256,0.65436834,997.28485,37.88836561,127.73982818,137.48443603515625,0.0
2025-04-06 16:40:17.472,10.514063,-6.5682983,0.63170516,1.2290599,-0.54351693,-0.60742867,-17.79375,55.068752,-23.362501,0.10098307,-0.7103953,0.6616421,997.3044,37.88836561,127.73982818,137.48443603515625,0.0
2025-04-06 16:40:17.492,10.482956,-6.826723,0.89491564,1.1172717,-0.59849477,-0.7937424,-18.09375,54.487503,-23.775002,0.11308396,-0.7028016,0.6674716,997.3044,37.88836561,127.73982818,137.48443603515625,0.0
2025-04-06 16:40:17.512,11.150554,-7.2358956,1.2394822,1.0824524,-0.6583595,-0.99960387,-18.993752,53.8875,-24.6375,0.12656917,-0.6954921,0.6721306,997.3151,37.88836561,127.73982818,137.48443603515625,0.0
2025-04-06 16:40:17.532,11.492727,-8.068598,1.052842,1.0519092,-0.68707013,-1.2567779,-19.931252,53.4,-25.06875,0.1418357,-0.687936,0.6759263,997.3151,37.88836561,127.73982818,137.48443603515625,0.0
2025-04-06 16:40:17.552,11.241481,-8.12124,0.9834501,0.93889916,-0.7707586,-1.5072324,-20.456251,51.99375,-25.743752,0.1631657,-0.6784779,0.67895013,997.3298,37.88836561,127.73982818,137.48443603515625,0.0
2025-04-06 16:40:17.572,11.626725,-8.063812,1.2705889,0.7788526,-0.8336777,-1.7173699,-21.1875,50.943752,-26.00625,0.18187638,-0.67146564,0.67947143,997.3298,37.88836561,127.73982818,137.48443603515625,0.0
2025-04-06 16:40:17.592,11.722438,-8.178668,2.1678972,0.6988293,-0.8000801,-1.9934808,-22.06875,49.725002,-26.2875,0.20184843,-0.6646049,0.67829084,997.34125,37.88836561,127.73982818,137.48443603515625,0.0
2025-04-06 16:40:17.612,11.129018,-8.078169,2.5387847,0.7495311,-0.48609564,-2.2378268,-23.15625,48.018753,-26.8875,0.22222671,-0.6565135,0.67656255,997.34125,37.88836561,127.73982818,137.48443603515625,0.0
2025-04-06 16:40:17.632,10.210175,-8.075776,1.8065811,0.81122845,-0.06887501,-2.4730096,-24.54375,46.93125,-27.13125,0.2412997,-0.64624166,0.6752096,997.3647,37.88836561,127.73982818,137.48443603515625,0.0
2025-04-06 16:40:17.652,9.848858,-7.7072816,1.3806586,0.7959568,-0.09269873,-2.6373324,-26.1,45.61875,-27.7875,0.25962192,-0.63461775,0.67358357,997.3647,37.88836561,127.73982818,137.48443603515625,0.0
2025-04-06 16:40:17.672,9.600004,-8.097312,1.0935199,0.835663,-0.38957903,-2.8187592,-28.275002,43.125,-27.093752,0.28473282,-0.6195861,0.66973233,997.3879,37.88836561,127.73982818,137.48443603515625,0.0
2025-04-06 16:40:17.692,8.784052,-8.353344,0.9834501,0.8741475,-0.74143714,-2.9024477,-28.9125,42.1875,-26.681252,0.30775952,-0.6075105,0.664904,997.3879,37.88836561,127.73982818,137.48443603515625,0.0
2025-04-06 16:40:17.713,7.8173513,-8.157132,1.0695918,0.93217963,-0.881936,-2.870072,-30.393751,40.143753,-25.781252,0.33207807,-0.5953814,0.65908235,997.3996,37.88836561,127.73982818,137.48443603515625,0.0
2025-04-06 16:40:17.733,7.283752,-7.8053875,0.5599205,0.903469,-0.9088141,-2.7369032,-32.30625,37.5,-24.843752,0.3564174,-0.58323085,0.6528351,997.3996,37.88836561,127.73982818,137.48443603515625,0.0
2025-04-06 16:40:17.753,6.879365,-7.664211,-0.09092726,0.6988293,-0.56367546,-2.5255442,-34.725002,33.9375,-24.2625,0.38352993,-0.5685374,0.644853,997.4074,37.88836561,127.73982818,137.48443603515625,0.0
2025-04-06 16:40:17.772,6.4414787,-7.4440713,-0.2105684,0.4978548,-0.31749696,-2.3569453,-35.775,32.550003,-24.243752,0.39687604,-0.56023055,0.64022666,997.4074,37.88836561,127.73982818,137.48443603515625,0.0
2025-04-06 16:40:17.792,6.003592,-7.4416785,-0.02871387,0.32925612,-0.15195261,-2.0869431,-37.48125,29.5125,-24.075,0.41159555,-0.5501632,0.63417274,997.41766,37.88836561,127.73982818,137.48443603515625,0.0
2025-04-06 16:40:17.812,6.2691956,-7.2358956,0.0741775,0.19181155,0.20540328,-1.812054,-39.018753,26.94375,-23.681252,0.42291233,-0.54126346,0.6288754,997.41766,37.88836561,127.73982818,137.48443603515625,0.0
2025-04-06 16:40:17.833,5.237889,-6.9009004,0.9882358,0.22968516,0.51816607,-1.5854232,-40.612503,23.15625,-23.587502,0.43107298,-0.53001523,0.6248607,997.4213,37.88836561,127.73982818,137.48443603515625,0.0
2025-04-06 16:40:17.852,4.5655055,-6.719046,0.3493521,0.38912088,0.49189886,-1.2311217,-40.818752,22.2,-23.60625,0.43453425,-0.5230293,0.6240071,997.4213,37.88836561,127.73982818,137.48443603515625,0.0
2025-04-06 16:40:17.872,4.5822554,-7.025327,-0.7178468,0.3188714,0.33857182,-0.91347194,-40.875,20.587502,-23.962502,0.43904617,-0.5131688,0.62401426,997.4289,37.88836561,127.73982818,137.48443603515625,0.0
2025-04-06 16:40:17.892,4.28076,-7.2622166,-1.0983056,0.1753182,0.2243401,-0.5811615,-40.537502,19.237501,-24.45,0.4414668,-0.5082527,0.6239203,997.4289,37.88836561,127.73982818,137.48443603515625,0.0
2025-04-06 16:40:17.912,3.912265,-7.223932,-1.4213367,-0.027488915,0.099723674,-0.14011711,-40.55625,18.206251,-24.6,0.44204503,-0.5062821,0.6240244,997.4294,37.88836561,127.73982818,137.48443603515625,0.0
2025-04-06 16:40:17.932,4.2927237,-7.2215385,-1.5816557,-0.22174391,-0.091477,0.23922992,-39.9375,17.268751,-24.750002,0.4409334,-0.5077667,0.62400365,997.4294,37.88836561,127.73982818,137.48443603515625,0.0
2025-04-06 16:40:17.952,4.723432,-7.4033933,-1.7826529,-0.53206325,0.04963276,0.57520556,-39.956253,16.800001,-24.73125,0.43794823,-0.5125763,0.62371576,997.4284,37.88836561,127.73982818,137.48443603515625,0.0
2025-04-06 16:40:17.972,4.56072,-7.1545396,-1.026521,-0.79045904,0.46074477,0.9417244,-39.91875,16.743752,-24.73125,0.4304408,-0.51969665,0.6242383,997.4284,37.88836561,127.73982818,137.48443603515625,0.0
2025-04-06 16:40:17.992,4.321438,-6.410372,-0.30149564,-0.90591246,0.8003856,1.3571124,-39.61875,17.19375,-24.956251,0.41407093,-0.52992994,0.62766385,997.4382,37.88836561,127.73982818,137.48443603515625,0.0
2025-04-06 16:40:18.012,4.4578285,-6.2955165,0.30867413,-0.93217963,0.87307847,1.6863686,-39.45,18.09375,-25.48125,0.39690197,-0.5389504,0.63230795,997.4382,37.88836561,127.73982818,137.48443603515625,0.0
2025-04-06 16:40:18.032,4.658826,-6.0394845,0.66759753,-0.89064085,0.67393655,1.942321,-39.05625,19.40625,-25.968752,0.37837538,-0.5488498,0.63766193,997.4382,37.88836561,127.73982818,137.48443603515625,0.0
2025-04-06 16:40:18.052,4.922036,-5.9676995,0.8853444,-0.7513637,0.28237224,2.1530693,-38.23125,21.54375,-26.681252,0.36054078,-0.5597592,0.6428792,997.4587,37.88836561,127.73982818,137.48443603515625,0.0
2025-04-06 16:40:18.072,5.2953167,-6.0490556,0.5072784,-0.6524036,-0.11713332,2.2685227,-37.575,23.212502,-27.0375,0.34445515,-0.5714105,0.6477332,997.4692,37.88836561,127.73982818,137.48443603515625,0.0
2025-04-06 16:40:18.092,5.814559,-6.975078,0.1794617,-0.6511819,-0.5148063,2.3552656,-36.75,25.1625,-27.093752,0.3304825,-0.5841575,0.65153724,997.4692,37.88836561,127.73982818,137.48443603515625,0.0
2025-04-06 16:40:18.112,6.7118673,-7.8580294,0.009571291,-0.66217744,-0.8037453,2.4175737,-35.475002,28.237501,-26.79375,0.31522694,-0.6017618,0.6544198,997.48065,37.88836561,127.73982818,137.48443603515625,0.0
2025-04-06 16:40:18.132,7.4033933,-8.889337,-0.35653058,-0.72387475,-0.8636101,2.3906956,-34.987503,28.95,-26.681252,0.30391818,-0.61630636,0.6554467,997.48065,37.88836561,127.73982818,137.48443603515625,0.0
2025-04-06 16:40:18.152,7.515856,-9.394221,-0.7513463,-0.85826504,-0.7958041,2.3448808,-33.54375,31.331251,-26.98125,0.29238972,-0.63087577,0.65533394,997.48065,37.88836561,127.73982818,137.48443603515625,0.0
2025-04-06 16:40:18.172,7.82453,-9.489935,-0.76331043,-1.0195333,-0.6656899,2.325944,-32.550003,33.6375,-27.337502,0.28309783,-0.641959,0.65439445,997.48065,37.88836561,127.73982818,137.48443603515625,0.0
2025-04-06 16:40:18.192,7.771888,-8.848659,-0.44027936,-1.2712096,-0.31322092,2.2837944,-32.15625,35.25,-27.6,0.26547706,-0.6604616,0.65138525,997.4841,37.88836561,127.73982818,137.48443603515625,0.0
2025-04-06 16:40:18.212,7.8173513,-8.202596,-0.1363909,-1.4764602,0.11133011,2.2080472,-31.612501,37.29375,-27.150002,0.2487351,-0.6749663,0.6478957,997.4841,37.88836561,127.73982818,137.48443603515625,0.0
2025-04-06 16:40:18.233,7.8029947,-7.874779,0.31585258,-1.6792673,0.52793986,2.0907612,-31.63125,39.09375,-26.268751,0.22929545,-0.6888806,0.64350384,997.4941,37.88836561,127.73982818,137.48443603515625,0.0
2025-04-06 16:40:18.252,7.8460655,-7.884351,1.2179468,-1.7678427,0.7875574,1.973475,-31.5375,41.15625,-24.768751,0.20780009,-0.7021476,0.6381477,997.4941,37.88836561,127.73982818,137.48443603515625,0.0
2025-04-06 16:40:18.272,7.6833534,-8.066205,2.132005,-1.6432263,0.8486439,1.8378631,-30.31875,43.65,-23.8875,0.18033387,-0.7169422,0.63107765,997.49945,37.88836561,127.73982818,137.48443603515625,0.0
2025-04-06 16:40:18.292,7.3172517,-8.047063,2.4358935,-1.3658936,0.7698423,1.7865504,-29.400002,45.75,-23.212502,0.15943903,-0.72665834,0.6263548,997.49945,37.88836561,127.73982818,137.48443603515625,0.0
2025-04-06 16:40:18.314,7.123433,-8.063812,2.1248264,-1.0305289,0.67638004,1.815261,-27.075,48.825,-22.25625,0.13984042,-0.73437005,0.623244,997.508,37.88836561,127.73982818,137.48443603515625,0.0
2025-04-06 16:40:18.334,7.0612197,-7.743174,2.0171494,-0.80573064,0.61223924,1.8629085,-26.175001,49.575,-22.181252,0.12106209,-0.7403036,0.6218006,997.508,37.88836561,127.73982818,137.48443603515625,0.0
2025-04-06 16:40:18.354,7.3100734,-7.5613194,1.5672989,-0.55894125,0.662941,1.9117777,-24.750002,51.075,-21.28125,0.10255725,-0.74455816,0.62193054,997.50165,37.88836561,127.73982818,137.48443603515625,0.0
2025-04-06 16:40:18.373,8.1020975,-7.300502,0.88295156,-0.42699447,0.6226239,1.8592433,-22.5375,53.11875,-20.2875,0.079713956,-0.74804586,0.6234303,997.50165,37.88836561,127.73982818,137.48443603515625,0.0
2025-04-06 16:40:18.392,8.508878,-6.9894347,0.90448695,-0.3573559,0.57741994,1.7468442,-21.431252,53.756252,-20.1,0.06690612,-0.74960583,0.6244195,997.4799,37.88836561,127.73982818,137.48443603515625,0.0
2025-04-06 16:40:18.415,8.157132,-6.422336,1.0001999,-0.2290743,0.70692325,1.5202134,-18.7875,55.050003,-19.931252,0.04745679,-0.7510193,0.6262525,997.4799,37.88836561,127.73982818,137.48443603515625,0.0
2025-04-06 16:40:18.432,7.9106717,-6.800402,0.80877405,-0.091629714,0.7673989,1.4102577,-17.94375,55.631252,-20.19375,0.032736786,-0.7508323,0.6281738,997.4692,37.88836561,127.73982818,137.48443603515625,0.0
2025-04-06 16:40:18.452,7.8173513,-7.283752,0.4881358,0.06291907,0.4809033,1.3900992,-16.368752,56.343754,-20.118752,0.019281622,-0.7496846,0.6308652,997.4692,37.88836561,127.73982818,137.48443603515625,0.0
2025-04-06 16:40:18.472,9.568898,-9.071191,-0.02632105,0.28405213,-0.19532402,1.4017056,-15.3,56.8875,-20.15625,0.0089424895,-0.7482279,0.6346262,997.4555,37.88836561,127.73982818,137.48443603515625,0.0
2025-04-06 16:40:18.492,10.908878,-9.4636135,-0.3684947,0.39461866,-0.61132294,1.3198497,-13.968751,57.787502,-20.23125,0.002856775,-0.74668306,0.6393469,997.4555,37.88836561,127.73982818,137.48443603515625,0.0
2025-04-06 16:40:18.512,13.213166,-9.729217,-1.2179468,0.36835146,-0.8758274,0.9594395,-12.675,58.4625,-20.268751,8.744366E-4,-0.7453271,0.64404446,997.4428,37.88836561,127.73982818,137.48443603515625,0.0
2025-04-06 16:40:18.532,13.751552,-10.219746,-1.4811572,0.12156209,-0.8000801,0.4078286,-11.55,58.781254,-20.625,0.0027844354,-0.7448437,0.6469673,997.4428,37.88836561,127.73982818,137.48443603515625,0.0
2025-04-06 16:40:18.552,12.636497,-9.793823,-0.6364908,-0.15332706,-0.5337431,-0.07170025,-10.368751,58.687504,-20.5125,0.0085840635,-0.7461227,0.6467859,997.4367,37.88836561,127.73982818,137.48443603515625,0.0
2025-04-06 16:40:18.572,12.232109,-9.080762,0.28953153,-0.25045455,-0.34070984,-0.35636324,-10.21875,58.818752,-20.362501,0.012615542,-0.74741745,0.6452808,997.4367,37.88836561,127.73982818,137.48443603515625,0.0
2025-04-06 16:40:18.592,12.004791,-8.410771,1.3351951,-0.23823726,-0.20448698,-0.8200096,-10.200001,58.912502,-20.1375,0.020841775,-0.74935424,0.64180595,997.4472,37.88836561,127.73982818,137.48443603515625,0.0
2025-04-06 16:40:18.612,11.428121,-8.365308,2.2181466,-0.05131264,-0.17577635,-1.3258057,-10.44375,59.025,-19.837502,0.030723423,-0.7498939,0.63898563,997.4472,37.88836561,127.73982818,137.48443603515625,0.0
2025-04-06 16:40:18.632,10.145568,-8.963513,2.4885356,0.26572618,-0.18371758,-1.8108323,-10.837501,59.325,-19.9125,0.04410746,-0.74851745,0.63712627,997.4506,37.88836561,127.73982818,137.48443603515625,0.0
2025-04-06 16:40:18.652,9.312865,-9.963714,2.251646,0.5729912,-0.38347036,-2.082667,-11.8125,59.2125,-19.81875,0.060905784,-0.74501705,0.63660693,997.4506,37.88836561,127.73982818,137.48443603515625,0.0
2025-04-06 16:40:18.673,8.827123,-10.559526,1.7730815,0.84054995,-0.6534726,-2.227442,-14.1,58.2,-19.987501,0.08637832,-0.73821187,0.63766986,997.4594,37.88836561,127.73982818,137.48443603515625,0.0
2025-04-06 16:40:18.693,8.657232,-10.540383,1.0815558,0.9162972,-0.7127265,-2.3373978,-14.700001,57.843754,-19.987501,0.10329357,-0.7331777,0.63875985,997.4594,37.88836561,127.73982818,137.48443603515625,0.0
2025-04-06 16:40:18.714,8.853444,-10.243673,0.82313097,0.8839213,-0.67363113,-2.513327,-16.85625,56.550003,-20.15625,0.13264559,-0.72403556,0.63977087,997.45624,37.88836561,127.73982818,137.48443603515625,0.0
2025-04-06 16:40:18.732,9.245867,-10.47817,0.7298109,0.81061757,-0.6015491,-2.7717226,-18.91875,55.331253,-20.8125,0.15705355,-0.7161267,0.63922817,997.45624,37.88836561,127.73982818,137.48443603515625,0.0
2025-04-06 16:40:18.752,9.257831,-10.260424,0.9379865,0.7825178,-0.457385,-3.081431,-20.868752,53.86875,-21.300001,0.18239883,-0.7073692,0.6372765,997.45624,37.88836561,127.73982818,137.48443603515625,0.0
2025-04-06 16:40:18.773,8.573483,-10.124033,0.9619147,0.8136719,-0.3016145,-3.4009132,-22.9125,51.975002,-21.862501,0.20869029,-0.6970166,0.6342604,997.4538,37.88836561,127.73982818,137.48443603515625,0.0
2025-04-06 16:40:18.794,7.056434,-10.13839,0.55034924,0.86803883,-0.093309596,-3.6562548,-25.875002,49.4625,-22.29375,0.24234588,-0.68141043,0.6294286,997.4538,37.88836561,127.73982818,137.48443603515625,0.0
2025-04-06 16:40:18.812,6.1471615,-10.485349,0.1698904,0.85643244,0.038026333,-3.6593091,-26.643751,48.412502,-22.425001,0.26206803,-0.67088836,0.62610954,997.4538,37.88836561,127.73982818,137.48443603515625,0.0
2025-04-06 16:40:18.832,4.8693943,-10.205389,0.07178468,0.80756325,0.20418155,-3.4815474,-30.093752,44.831253,-22.21875,0.29238117,-0.652317,0.6201776,997.4516,37.88836561,127.73982818,137.48443603515625,0.0
2025-04-06 16:40:18.852,4.354937,-9.834501,-0.02632105,0.79045904,0.27137667,-3.212767,-31.050001,43.575,-22.425001,0.3136891,-0.6372986,0.61554766,997.4516,37.88836561,127.73982818,137.48443603515625,0.0
2025-04-06 16:40:18.872,4.1587257,-9.140582,-0.11246266,0.7654136,0.2603811,-2.9665885,-33.112503,40.575,-22.143751,0.3327231,-0.6225038,0.6111995,997.44183,37.88836561,127.73982818,137.48443603515625,0.0
2025-04-06 16:40:18.892,3.9242291,-8.685946,-0.3278167,0.72815084,0.24572036,-2.7680573,-35.79375,36.206253,-22.10625,0.35023892,-0.6082113,0.60571873,997.44183,37.88836561,127.73982818,137.48443603515625,0.0
2025-04-06 16:40:18.912,3.5605202,-8.446664,-0.61734825,0.58032155,0.29397866,-2.5273767,-36.393753,34.818752,-22.237501,0.3694969,-0.59144044,0.601189,997.4401,37.88836561,127.73982818,137.48443603515625,0.0
2025-04-06 16:40:18.933,3.414558,-8.738588,-0.5288138,0.44715303,0.42775807,-2.3294566,-37.443752,32.11875,-22.44375,0.37924615,-0.5821174,0.59772366,997.4401,37.88836561,127.73982818,137.48443603515625,0.0
2025-04-06 16:40:18.954,2.9120653,-9.506684,-0.57427746,0.36346453,0.54565495,-2.0350196,-38.756252,28.63125,-22.837502,0.3921247,-0.5673458,0.59260815,997.4504,37.88836561,127.73982818,137.48443603515625,0.0
2025-04-06 16:40:18.972,2.5531418,-10.116854,-0.6771688,0.3500255,0.37094763,-1.7301981,-38.643753,26.531252,-23.456251,0.40019998,-0.55685115,0.589296,997.4504,37.88836561,127.73982818,137.48443603515625,0.0
2025-04-06 16:40:18.993,2.0889342,-10.126426,-0.85184485,0.3451386,0.11866048,-1.2396737,-38.60625,25.612501,-23.53125,0.40723515,-0.548939,0.58660895,997.4565,37.88836561,127.73982818,137.48443603515625,0.0
2025-04-06 16:40:19.013,2.4047868,-10.061819,-1.5002998,0.2773326,-0.0151189035,-0.66973686,-38.98125,24.16875,-23.94375,0.41241875,-0.5441202,0.5851751,997.4565,37.88836561,127.73982818,137.48443603515625,0.0
2025-04-06 16:40:19.033,2.9671001,-10.693524,-2.416751,0.018936807,-0.027336199,-0.09430225,-38.756252,22.0125,-24.768751,0.41465342,-0.5427656,0.58481765,997.4489,37.88836561,127.73982818,137.48443603515625,0.0
2025-04-06 16:40:19.052,3.0125637,-10.956735,-2.4885356,-0.35307986,0.013591741,0.383394,-38.925003,21.243752,-24.937502,0.41282693,-0.5451449,0.5850246,997.4489,37.88836561,127.73982818,137.48443603515625,0.0
2025-04-06 16:40:19.072,2.3234308,-10.485349,-2.309074,-0.64262974,-0.07009673,0.9020182,-39.206253,20.60625,-25.331251,0.4070824,-0.5512411,0.58557874,997.4504,37.88836561,127.73982818,137.48443603515625,0.0
2025-04-06 16:40:19.092,2.1822543,-9.334401,-1.3016955,-0.9150754,-0.2600757,1.4927244,-39.24375,20.325,-25.425001,0.39790264,-0.56146985,0.586279,997.4504,37.88836561,127.73982818,137.48443603515625,0.0
2025-04-06 16:40:19.112,3.4576287,-8.874979,-0.062213387,-1.0060943,-0.23503022,2.000964,-39.24375,21.6,-25.331251,0.38188475,-0.57892656,0.5878973,997.46356,37.88836561,127.73982818,137.48443603515625,0.0
2025-04-06 16:40:19.134,4.8885365,-9.195618,0.24646074,-0.9810488,-0.04016436,2.2123232,-39.05625,23.306252,-25.331251,0.36582637,-0.59351707,0.5907899,997.46356,37.88836561,127.73982818,137.48443603515625,0.0
2025-04-06 16:40:19.154,5.6949177,-9.614362,0.6412765,-0.8607085,0.083230324,2.2196536,-38.943752,25.087502,-25.331251,0.3481741,-0.60707504,0.59464103,997.46844,37.88836561,127.73982818,137.48443603515625,0.0
2025-04-06 16:40:19.172,5.5369916,-9.91825,0.55513483,-0.6725621,0.024587307,2.2727988,-38.643753,26.04375,-25.2,0.33056712,-0.6191173,0.59927636,997.46844,37.88836561,127.73982818,137.48443603515625,0.0
2025-04-06 16:40:19.192,5.723632,-10.360922,-0.41156548,-0.43615746,-0.20265439,2.4236825,-37.65,29.250002,-24.843752,0.31386924,-0.6303369,0.6047774,997.4672,37.88836561,127.73982818,137.48443603515625,0.0
2025-04-06 16:40:19.212,5.8360944,-10.291531,-1.4093726,-0.44409868,-0.34193155,2.5507421,-37.237503,30.2625,-24.88125,0.29795247,-0.6415205,0.61051464,997.4672,37.88836561,127.73982818,137.48443603515625,0.0
2025-04-06 16:40:19.232,5.697311,-9.430114,-1.4380864,-0.6090322,-0.31383178,2.6674175,-35.79375,32.662502,-25.29375,0.28152743,-0.65338534,0.6153923,997.4665,37.88836561,127.73982818,137.48443603515625,0.0
2025-04-06 16:40:19.252,5.5633125,-8.819944,-1.2179468,-0.8173371,-0.069485866,2.7859251,-34.7625,34.55625,-25.7625,0.26318148,-0.6657494,0.6192168,997.4665,37.88836561,127.73982818,137.48443603515625,0.0
2025-04-06 16:40:19.273,5.8504515,-8.480164,-0.39960137,-1.0146464,0.364839,2.8848853,-34.2,35.850002,-25.743752,0.23555103,-0.68103343,0.6229959,997.4638,37.88836561,127.73982818,137.48443603515625,0.0
2025-04-06 16:40:19.292,6.1160545,-8.114061,0.14596218,-1.0555743,0.662941,2.8745005,-33.3375,38.0625,-25.35,0.21657293,-0.6894424,0.6250257,997.4638,37.88836561,127.73982818,137.48443603515625,0.0
2025-04-06 16:40:19.312,6.2261243,-8.269595,0.3493521,-1.0091486,0.8138246,2.7792056,-31.95,40.0875,-24.69375,0.18332045,-0.7015156,0.62814915,997.4621,37.88836561,127.73982818,137.48443603515625,0.0
2025-04-06 16:40:19.332,5.7954164,-8.645268,0.2632105,-0.9266819,0.6995929,2.7834818,-30.375002,42.80625,-24.281252,0.15701716,-0.7097552,0.6303781,997.4621,37.88836561,127.73982818,137.48443603515625,0.0
2025-04-06 16:40:19.353,6.166304,-8.927621,0.11485548,-0.8625411,0.468686,2.8879397,-28.031252,45.9,-24.468752,0.13146195,-0.71742797,0.6324829,997.45526,37.88836561,127.73982818,137.48443603515625,0.0
2025-04-06 16:40:19.373,7.2646093,-8.748159,-0.19621146,-0.89430606,0.3990474,2.8787766,-25.743752,48.16875,-24.4125,0.10661774,-0.72481096,0.6341401,997.45526,37.88836561,127.73982818,137.48443603515625,0.0
2025-04-06 16:40:19.393,7.391429,-8.226524,0.18664017,-0.9908227,0.40393433,2.7608798,-23.775002,50.437504,-23.831251,0.08236578,-0.7319615,0.63454854,997.4411,37.88836561,127.73982818,137.48443603515625,0.0
2025-04-06 16:40:19.412,6.9415784,-7.618747,1.8640088,-0.90102553,0.15042545,2.8396814,-21.45,52.4625,-23.475,0.05888355,-0.7388306,0.63389605,997.4411,37.88835617,127.73980552,136.330810546875,2.2
2025-04-06 16:40:19.432,9.454042,-8.023134,3.522235,-0.2809978,-0.3572032,3.1988697,-19.331251,54.075,-22.7625,0.03157659,-0.7451324,0.6356743,997.4538,37.88835617,127.73980552,136.330810546875,2.2
2025-04-06 16:40:19.452,13.423735,-7.920243,2.9431717,0.5186242,-0.6241511,3.1915393,-16.931252,55.55625,-22.181252,0.012507905,-0.7454179,0.6423997,997.4538,37.88835617,127.73980552,136.330810546875,2.2
2025-04-06 16:40:19.473,16.302301,-7.9346,0.69152576,1.0934479,-0.7493784,2.7223952,-14.512501,56.906254,-21.91875,-0.0016768931,-0.7410064,0.6530736,997.4577,37.88835617,127.73980552,136.330810546875,2.2
2025-04-06 16:40:19.492,17.295322,-7.733603,-2.0697916,1.1459824,-0.9472986,2.00524,-12.356251,57.750004,-21.487501,-0.009955928,-0.73442197,0.6644909,997.4577,37.88835617,127.73980552,136.330810546875,2.2
2025-04-06 16:40:19.513,17.661425,-8.525627,-3.0675986,0.75563973,-1.1275036,1.3510038,-10.35,58.162502,-21.393751,-0.012229361,-0.72905976,0.6733716,997.4301,37.88835617,127.73980552,136.330810546875,2.2
2025-04-06 16:40:19.533,17.398214,-8.760123,-2.6919255,0.18692462,-1.0810779,0.6643918,-8.887501,58.218754,-21.75,-0.00952645,-0.72681546,0.6779441,997.4301,37.88835617,127.73980552,136.330810546875,2.2
2025-04-06 16:40:19.552,16.393229,-9.894321,-1.1940185,-0.3414734,-0.79091716,0.041920595,-7.93125,58.2,-22.1625,-0.003505134,-0.72807187,0.6777667,997.4301,37.88835617,127.73980552,136.330810546875,2.2
2025-04-06 16:40:19.573,15.026926,-9.489935,1.4715859,-0.569326,-0.22464553,-0.42783442,-7.74375,58.162502,-22.237501,0.004922535,-0.7324931,0.6730458,997.4284,37.88835617,127.73980552,136.330810546875,2.2
2025-04-06 16:40:19.592,14.91207,-7.9537425,3.2590244,-0.3848448,0.09544762,-0.9501238,-7.5750003,58.162502,-22.087502,0.011364624,-0.7352587,0.668935,997.4555,37.88835617,127.73980552,136.330810546875,2.2
2025-04-06 16:40:19.612,14.687145,-8.19781,3.940979,0.0073303776,-0.00962112,-1.7790673,-7.70625,58.4625,-22.06875,0.022000412,-0.7356291,0.66628236,997.4555,37.88835617,127.73980552,136.330810546875,2.2
2025-04-06 16:40:19.632,12.660424,-10.468599,3.2207394,0.4575377,-0.502589,-2.7759986,-9.1125,58.068752,-21.5625,0.046247642,-0.73198426,0.6653073,997.4714,37.88835617,127.73980552,136.330810546875,2.2
2025-04-06 16:40:19.652,10.171889,-12.725031,2.0793629,0.6853903,-0.9472986,-3.1327436,-9.76875,57.843754,-21.88125,0.06656157,-0.72810316,0.6653172,997.4714,37.88835617,127.73980552,136.330810546875,2.2
2025-04-06 16:40:19.672,8.219346,-13.411771,1.0576276,0.64262974,-1.1140647,-3.2042148,-11.6625,57.412502,-22.2,0.09719256,-0.72215897,0.6647904,997.4753,37.88835617,127.73980552,136.330810546875,2.2
2025-04-06 16:40:19.692,7.3698936,-12.906885,0.8111669,0.4147772,-0.8251256,-3.108309,-14.231251,56.5875,-22.3875,0.1272203,-0.71635723,0.66267115,997.4753,37.88835617,127.73980552,136.330810546875,2.2
2025-04-06 16:40:19.711,7.4847493,-12.074183,1.3016955,0.21441354,-0.3339903,-3.0771549,-16.81875,55.55625,-22.800001,0.15348686,-0.7108627,0.6588677,997.4753,37.88835617,127.73980552,136.330810546875,2.2
2025-04-06 16:40:19.731,7.1473613,-10.966306,2.225325,0.25656322,0.022754714,-3.1034222,-19.368752,53.86875,-22.706251,0.18162113,-0.70285374,0.6532101,997.4787,37.88835617,127.73980552,136.330810546875,2.2
2025-04-06 16:40:19.752,7.4416785,-10.468599,2.115255,0.49113527,0.09789108,-3.198717,-21.431252,52.631252,-23.4375,0.20296657,-0.6941627,0.6494369,997.477,37.88835617,127.73980552,136.330810546875,2.2
2025-04-06 16:40:19.771,8.059027,-10.12164,1.4261223,0.69333154,0.0013744457,-3.3807547,-23.5125,50.9625,-23.71875,0.22549349,-0.68320954,0.6461717,997.477,37.88835617,127.73980552,136.330810546875,2.2
2025-04-06 16:40:19.792,8.042277,-10.466207,0.8997013,0.7733548,-0.10430516,-3.6880198,-24.862501,48.937504,-24.150002,0.25040597,-0.67050284,0.64223665,997.4577,37.88835617,127.73980552,136.330810546875,2.2
2025-04-06 16:40:19.811,6.9702926,-10.887343,0.29192436,0.77640915,-0.07315106,-3.859062,-26.56875,46.8375,-25.050001,0.27681804,-0.65634364,0.63702875,997.4577,37.88835617,127.73980552,136.330810546875,2.2
2025-04-06 16:40:19.832,5.706882,-11.023734,0.021535404,0.6878337,-0.057879437,-3.872501,-28.331251,43.93125,-25.237501,0.30305094,-0.64131474,0.6305073,997.4462,37.88835617,127.73980552,136.330810546875,2.2
2025-04-06 16:40:19.852,4.855037,-11.222338,-0.30388847,0.61514086,-0.14156792,-3.750939,-29.94375,40.85625,-25.556252,0.32829118,-0.62623584,0.6227725,997.4462,37.88835617,127.73980552,136.330810546875,2.2
2025-04-06 16:40:19.872,4.2711883,-11.107483,-0.66041905,0.50152,-0.30894485,-3.5322492,-31.593752,37.912502,-26.081251,0.3583326,-0.6083837,0.6115949,997.43646,37.88835617,127.73980552,136.330810546875,2.2
2025-04-06 16:40:19.892,4.106084,-10.813166,-0.6029913,0.375071,-0.37064222,-3.32089,-33.24375,35.006252,-25.725,0.3809584,-0.59553826,0.6014489,997.43646,37.88835617,127.73980552,136.330810546875,2.2
2025-04-06 16:40:19.911,3.7615173,-10.258031,-0.6795616,0.21135922,-0.13423753,-3.1193047,-34.93125,32.04375,-25.85625,0.40104306,-0.58341444,0.5910233,997.4401,37.88835617,127.73980552,136.330810546875,2.2
2025-04-06 16:40:19.933,3.2327034,-10.375279,-0.31585258,0.10140356,0.21273366,-2.9116106,-36.206253,29.437502,-25.743752,0.4174705,-0.5713721,0.58111006,997.4401,37.88835617,127.73980552,136.330810546875,2.2
2025-04-06 16:40:19.952,2.4502504,-11.5621195,-0.6029913,0.13805544,0.28970262,-2.6379433,-37.893753,27.093752,-24.7875,0.43077493,-0.55908155,0.5724974,997.4401,37.88835617,127.73980552,136.330810546875,2.2
2025-04-06 16:40:19.972,1.227518,-12.41875,-1.0671989,0.21197008,0.12171481,-2.1889577,-39.09375,24.937502,-24.69375,0.44214413,-0.547782,0.5652394,997.4401,37.88835617,127.73980552,136.330810546875,2.2
2025-04-06 16:40:19.993,0.51445687,-13.237095,-2.306681,0.13805544,-0.14156792,-1.5347214,-40.2,22.706251,-24.075,0.45409665,-0.5377681,0.5578957,997.43353,37.88835617,127.73980552,136.330810546875,2.2
2025-04-06 16:40:20.012,-0.7848458,-12.30868,-2.4717858,-0.12950334,-0.06459895,-0.86093754,-41.175003,20.456251,-23.79375,0.46007234,-0.53446114,0.5532244,997.43353,37.88835617,127.73980552,136.330810546875,2.2
2025-04-06 16:40:20.032,-2.1894326,-11.789437,-2.1008983,-0.3506364,0.28420484,-0.04421134,-41.475002,18.618752,-23.85,0.46002337,-0.5347218,0.55122066,997.4284,37.88835617,127.73980552,136.330810546875,2.2
2025-04-06 16:40:20.052,-2.8713872,-11.62194,-2.3186452,-0.48136145,0.5920807,0.93072885,-41.456253,17.19375,-23.643751,0.45272154,-0.5383232,0.55373734,997.4284,37.88835617,127.73980552,136.330810546875,2.2
2025-04-06 16:40:20.072,-2.2372892,-10.430314,-1.9860427,-0.7128792,0.61162835,2.023566,-41.30625,16.5375,-23.53125,0.43839198,-0.5461899,0.5603925,997.4294,37.88835617,127.73980552,136.330810546875,2.2
2025-04-06 16:40:20.093,-0.078963146,-10.2723875,-1.430908,-0.85398895,0.41737336,2.7254496,-41.175003,16.706251,-23.681252,0.4188474,-0.5587106,0.5691533,997.4294,37.88835617,127.73980552,136.330810546875,2.2
2025-04-06 16:40:20.112,2.199004,-10.8251295,-0.8207382,-0.92240584,0.24755295,3.202535,-41.025,17.681252,-24.075,0.39611602,-0.57471156,0.5786004,997.43036,37.88835617,127.73980552,136.330810546875,2.2
2025-04-06 16:40:20.132,4.0941195,-11.612369,-0.2632105,-0.8515455,-0.059101168,3.4609308,-40.18125,21.150002,-24.88125,0.36556017,-0.59688765,0.5904785,997.43036,37.88835617,127.73980552,136.330810546875,2.2
2025-04-06 16:40:20.152,4.898108,-12.112468,0.09571291,-0.650571,-0.3914116,3.6234207,-39.206253,24.375002,-24.975,0.34184143,-0.61490107,0.59947604,997.4379,37.88835617,127.73980552,136.330810546875,2.2
2025-04-06 16:40:20.172,5.15414,-12.203396,-0.5072784,-0.41844237,-0.5905535,3.7889652,-38.625,26.1,-25.087502,0.31930444,-0.63211405,0.60865086,997.4379,37.88835617,127.73980552,136.330810546875,2.2
2025-04-06 16:40:20.192,5.881558,-12.184253,-1.861616,-0.45998117,-0.5044216,4.018039,-37.275,29.2875,-25.087502,0.29628068,-0.64866394,0.6178992,997.4367,37.88835617,127.73980552,136.330810546875,2.2
2025-04-06 16:40:20.212,6.8889365,-11.521441,-1.5002998,-0.77396566,-0.26618433,4.1713667,-35.081253,33.581253,-25.35,0.2702886,-0.6652474,0.6258312,997.4367,37.88835617,127.73980552,136.330810546875,2.2
2025-04-06 16:40:20.232,7.8436728,-11.277373,-0.30149564,-0.9248493,-0.1226311,4.179919,-34.65,34.875,-25.0125,0.24160832,-0.68159056,0.63177395,997.4411,37.88835617,127.73980552,136.330810546875,2.2
2025-04-06 16:40:20.252,8.659625,-11.574083,0.3804588,-0.9456187,0.008093959,4.1634254,-33.393753,37.7625,-24.618752,0.21172255,-0.6966692,0.63632196,997.4411,37.88835617,127.73980552,136.330810546875,2.2
2025-04-06 16:40:20.272,10.174282,-10.411171,1.9908284,-0.7629701,0.29092434,4.0168176,-31.462502,42.393753,-24.16875,0.17308761,-0.7125619,0.641148,997.4599,37.88835617,127.73980552,136.330810546875,2.2
2025-04-06 16:40:20.293,11.035698,-9.597611,2.2348964,-0.47403106,0.56398094,3.7730827,-30.337502,43.912502,-23.60625,0.1424975,-0.7211848,0.64572656,997.4599,37.88835617,127.73980552,136.330810546875,2.2
2025-04-06 16:40:20.312,11.777473,-8.941978,1.4620147,-0.20158538,0.70936674,3.3778532,-27.750002,47.100002,-23.306252,0.11340469,-0.7258983,0.6512185,997.4748,37.88835617,127.73980552,136.330810546875,2.2
2025-04-06 16:40:20.333,11.909079,-8.717052,0.11246266,-0.103236146,0.64156073,2.9368088,-24.91875,49.93125,-23.081251,0.08757407,-0.7281194,0.6565284,997.4748,37.88835617,127.73980552,136.330810546875,2.2
2025-04-06 16:40:20.353,11.428121,-8.13799,-0.2656033,-0.18875721,0.5383246,2.610607,-22.1625,51.99375,-22.650002,0.06524876,-0.72979194,0.6603603,997.4699,37.88835617,127.73980552,136.330810546875,2.2
2025-04-06 16:40:20.373,12.057433,-7.2693954,0.2009971,-0.18448116,0.5548179,2.321668,-18.46875,54.187504,-22.40625,0.04024911,-0.73168653,0.66339767,997.4699,37.88835617,127.73980552,136.330810546875,2.2
2025-04-06 16:40:20.392,12.098111,-6.649654,0.34217364,-0.1301142,0.68798643,2.000964,-17.1375,54.80625,-22.425001,0.026668603,-0.73220605,0.66484934,997.4699,37.88834989,127.739789,135.77166748046875,1.68
2025-04-06 16:40:20.412,12.021541,-5.623133,0.45702913,-0.06963859,0.8920153,1.5751911,-14.925,55.66875,-22.7625,0.010080594,-0.7319937,0.66655636,997.4638,37.88834989,127.739789,135.77166748046875,1.68
2025-04-06 16:40:20.432,11.4496565,-5.7427745,0.78723866,0.012217295,0.8333723,1.1078796,-12.712501,56.5875,-22.875,-0.007097488,-0.73060226,0.6682442,997.4638,37.88834989,127.739789,135.77166748046875,1.68
2025-04-06 16:40:20.453,10.609776,-6.8243303,0.46181476,0.23823726,0.3764454,0.7725149,-10.6875,57.206253,-22.837502,-0.015851734,-0.728631,0.6701652,997.4648,37.88834989,127.739789,135.77166748046875,1.68
2025-04-06 16:40:20.472,10.516456,-8.432307,-0.6723832,0.2602284,-0.19654575,0.60513794,-9.84375,57.6375,-23.362501,-0.019638749,-0.72652143,0.67271817,997.45795,37.88834989,127.739789,135.77166748046875,1.68
2025-04-06 16:40:20.491,11.078769,-9.269794,-1.1940185,0.054366965,-0.56123203,0.5446623,-8.681251,57.656254,-23.56875,-0.019703534,-0.7258418,0.67413396,997.45795,37.88834989,127.739789,135.77166748046875,1.68
2025-04-06 16:40:20.513,12.959527,-10.054641,0.13399807,-0.35674503,-0.7029526,0.2758818,-8.25,57.6375,-23.79375,-0.016879808,-0.72765124,0.6736499,997.4467,37.88834989,127.739789,135.77166748046875,1.68
2025-04-06 16:40:20.533,13.713266,-10.63849,2.428715,-0.41355544,-0.7799216,-0.101632625,-7.9125004,57.862503,-24.0,-0.011885209,-0.73092306,0.6709629,997.4467,37.88834989,127.739789,135.77166748046875,1.68
2025-04-06 16:40:20.552,14.502898,-10.372886,3.6897326,-0.10262528,-0.8660535,-0.62086767,-7.3500004,58.068752,-22.893751,-7.610997E-4,-0.7337796,0.66829467,997.4655,37.88834989,127.739789,135.77166748046875,1.68
2025-04-06 16:40:20.573,14.811572,-10.846665,3.6131623,0.15149446,-0.93813556,-1.2653301,-7.7250004,57.937504,-22.95,0.013426157,-0.7338808,0.66770554,997.4655,37.88834989,127.739789,135.77166748046875,1.68
2025-04-06 16:40:20.593,14.187045,-11.909079,3.2350962,0.34025168,-0.90392715,-1.99287,-7.8750005,58.050003,-22.612501,0.032850213,-0.7322483,0.6676805,997.48236,37.88834989,127.739789,135.77166748046875,1.68
2025-04-06 16:40:20.613,11.736795,-13.153346,2.8259234,0.48685923,-0.8629992,-2.7143013,-9.543751,57.750004,-22.1625,0.06323262,-0.7279789,0.66741157,997.48236,37.88834989,127.739789,135.77166748046875,1.68
2025-04-06 16:40:20.632,10.224531,-13.667803,2.6081767,0.57787806,-0.8837686,-2.9873579,-10.425,57.581253,-22.2,0.083581395,-0.7243287,0.6669523,997.4848,37.88834989,127.739789,135.77166748046875,1.68
2025-04-06 16:40:20.652,8.949157,-13.60559,2.3521447,0.67561644,-0.86971873,-3.1303003,-12.656251,56.906254,-21.91875,0.11207165,-0.7181587,0.6661298,997.4848,37.88834989,127.739789,135.77166748046875,1.68
2025-04-06 16:40:20.672,8.006385,-12.354143,1.7228323,0.7208204,-0.69745487,-3.2176538,-15.187501,56.1375,-22.25625,0.14063704,-0.71057093,0.6650715,997.4887,37.88834989,127.739789,135.77166748046875,1.68
2025-04-06 16:40:20.692,7.91785,-11.408978,1.6486548,0.7055488,-0.51358455,-3.326388,-17.71875,55.143753,-22.575,0.16826603,-0.7018545,0.66342264,997.4887,37.88834989,127.739789,135.77166748046875,1.68
2025-04-06 16:40:20.712,8.149954,-10.523634,1.8999012,0.75930494,-0.35414886,-3.6110508,-21.768751,52.912502,-23.04375,0.20244823,-0.68906903,0.6602605,997.4819,37.88834989,127.739789,135.77166748046875,1.68
2025-04-06 16:40:20.732,7.8987074,-10.5284195,1.2514462,0.8014546,-0.2838994,-3.9794023,-23.212502,52.18125,-22.85625,0.23102257,-0.67653084,0.6567384,997.4819,37.88834989,127.739789,135.77166748046875,1.68
2025-04-06 16:40:20.752,6.5276203,-11.102697,0.62452674,0.7806852,-0.24113888,-4.22497,-25.331251,50.287502,-23.268751,0.2609044,-0.66225463,0.65158546,997.4716,37.88834989,127.739789,135.77166748046875,1.68
2025-04-06 16:40:20.772,5.288138,-11.454442,0.3589234,0.7476985,-0.23686282,-4.206644,-27.862501,47.550003,-24.431252,0.2905115,-0.6469312,0.6450088,997.4716,37.88834989,127.739789,135.77166748046875,1.68
2025-04-06 16:40:20.792,4.9674997,-11.662618,0.3278167,0.7367029,-0.34620762,-4.042932,-29.906252,44.98125,-25.2,0.31903952,-0.63124466,0.6374569,997.46967,37.88834989,127.739789,135.77166748046875,1.68
2025-04-06 16:40:20.813,5.2426744,-11.655439,0.1794617,0.74220073,-0.45249808,-3.8804421,-32.925003,40.7625,-25.462502,0.35356396,-0.61154485,0.62688977,997.46967,37.88834989,127.739789,135.77166748046875,1.68
2025-04-06 16:40:20.833,5.0536413,-11.203196,0.047856454,0.72265303,-0.45188722,-3.8004189,-33.75,39.3375,-25.10625,0.37357032,-0.5995963,0.6200489,997.4616,37.88834989,127.739789,135.77166748046875,1.68
2025-04-06 16:40:20.852,4.520042,-10.7844515,-0.17467605,0.6695078,-0.42928523,-3.6635852,-35.456253,36.393753,-23.8125,0.3990648,-0.583527,0.61044145,997.4616,37.88834989,127.739789,135.77166748046875,1.68
2025-04-06 16:40:20.872,3.4432719,-10.370493,-0.22731815,0.5674934,-0.3999637,-3.3893068,-37.2,32.68125,-22.81875,0.42819744,-0.56395143,0.5979339,997.4626,37.88834989,127.739789,135.77166748046875,1.68
2025-04-06 16:40:20.892,2.7852457,-10.183853,-0.5096712,0.46547896,-0.37675086,-3.0569963,-39.15,28.875002,-21.91875,0.44880626,-0.54954976,0.58792233,997.4626,37.88834989,127.739789,135.77166748046875,1.68
2025-04-06 16:40:20.912,2.7086751,-10.320244,-0.90448695,0.3090976,-0.22281294,-2.6849797,-40.5,25.25625,-21.675001,0.46624717,-0.53675514,0.57845473,997.4626,37.88834989,127.739789,135.77166748046875,1.68
2025-04-06 16:40:20.933,2.2827528,-10.688739,-0.9595219,0.16493349,0.01847866,-2.2476006,-41.7,19.95,-21.225,0.47974378,-0.5255273,0.5701803,997.46625,37.88834989,127.739789,135.77166748046875,1.68
2025-04-06 16:40:20.952,1.5314065,-10.767702,-0.9499506,0.1178969,0.09300416,-1.7473023,-41.98125,18.487501,-21.056252,0.48944625,-0.5159071,0.56376916,997.4643,37.88834989,127.739789,135.77166748046875,1.68
2025-04-06 16:40:20.972,1.026521,-10.8969145,-1.2562319,0.118507765,-0.04444041,-1.1535418,-41.943752,15.825001,-21.243752,0.49627545,-0.5089148,0.55924743,997.4643,37.88834989,127.739789,135.77166748046875,1.68
2025-04-06 16:40:20.992,0.6628119,-10.492527,-1.6438692,0.010995566,-0.11102467,-0.4143954,-42.112503,13.5375,-21.075,0.5012171,-0.5053353,0.5560439,997.4567,37.88834989,127.739789,135.77166748046875,1.68
2025-04-06 16:40:21.012,0.45942193,-9.88475,-1.4715859,-0.13500112,-0.020005822,0.25572327,-42.075,12.13125,-20.831251,0.50098807,-0.5067711,0.5558218,997.4567,37.88834989,127.739789,135.77166748046875,1.68
2025-04-06 16:40:21.032,0.17228323,-9.690931,-1.5553347,-0.2535089,0.09911281,0.920955,-42.15,11.38125,-20.831251,0.49638233,-0.5115963,0.5582178,997.4572,37.88834989,127.739789,135.77166748046875,1.68
2025-04-06 16:40:21.053,-0.0071784677,-8.693125,-1.3663018,-0.42394015,0.19196425,1.6381103,-42.24375,11.38125,-20.775002,0.48715892,-0.5199311,0.5631505,997.4572,37.88834989,127.739789,135.77166748046875,1.68
2025-04-06 16:40:21.073,1.3998013,-8.633304,-0.4211368,-0.5656608,0.20418155,2.3204463,-42.35625,12.431251,-21.018751,0.46955898,-0.53513145,0.57192576,997.45184,37.88834989,127.739789,135.77166748046875,1.68
2025-04-06 16:40:21.093,2.0721843,-8.956335,0.3062813,-0.5393936,0.17363831,2.6942954,-42.2625,13.06875,-20.962502,0.4566665,-0.54586124,0.57820016,997.45184,37.88834989,127.739789,135.77166748046875,1.68
2025-04-06 16:40:21.112,2.9359934,-9.645468,0.5886344,-0.3414734,0.09300416,3.0565383,-42.0,15.168751,-21.018751,0.43778786,-0.5609722,0.5878527,997.44867,37.88834989,127.739789,135.77166748046875,1.68
2025-04-06 16:40:21.133,3.7663028,-10.226924,0.08135597,-0.116675176,-0.09269873,3.3540294,-42.018753,17.212502,-20.94375,0.4180638,-0.57613385,0.5989443,997.44867,37.88834989,127.739789,135.77166748046875,1.68
2025-04-06 16:40:21.152,4.3094735,-10.506885,-0.8207382,0.010995566,-0.22647811,3.694281,-41.86875,20.0625,-20.868752,0.39295822,-0.5951796,0.61359984,997.446,37.88834989,127.739789,135.77166748046875,1.68
2025-04-06 16:40:21.172,5.0249276,-10.461421,-1.4979069,-0.048258316,-0.240528,3.9319074,-41.1375,23.00625,-21.018751,0.37686482,-0.6068793,0.6223408,997.446,37.88834989,127.739789,135.77166748046875,1.68
2025-04-06 16:40:21.192,5.8911295,-10.4566345,-1.8257236,-0.3243692,0.009926553,4.1701446,-39.9375,26.175001,-21.768751,0.34657648,-0.6270656,0.6356612,997.4274,37.88834989,127.739789,135.77166748046875,1.68
2025-04-06 16:40:21.212,7.207182,-10.210175,-1.1078769,-0.6359102,0.28603745,4.255666,-38.30625,29.456251,-24.056252,0.3182005,-0.6436544,0.6445596,997.4274,37.88834989,127.739789,135.77166748046875,1.68
2025-04-06 16:40:21.233,8.556734,-9.810573,0.0526421,-0.7825178,0.38621926,4.124941,-37.256252,31.875002,-25.931252,0.2875468,-0.6598127,0.65146583,997.41473,37.88834989,127.739789,135.77166748046875,1.68
2025-04-06 16:40:21.252,9.205189,-9.628718,1.012164,-0.7391464,0.48029244,3.8677666,-36.037502,34.818752,-26.56875,0.2571153,-0.6743631,0.6565956,997.41473,37.88834989,127.739789,135.77166748046875,1.68
2025-04-06 16:40:21.273,9.611969,-9.650253,1.105484,-0.56321734,0.72647095,3.62281,-34.65,37.65,-26.8875,0.22015807,-0.6886756,0.6623841,997.40594,37.88834989,127.739789,135.77166748046875,1.68
2025-04-06 16:40:21.293,10.047462,-9.987641,0.55034924,-0.50213087,1.0691661,3.4352744,-32.362503,42.018753,-24.50625,0.19034079,-0.69705224,0.66716325,997.40594,37.88834989,127.739789,135.77166748046875,1.68
2025-04-06 16:40:21.312,10.080962,-9.18126,0.46181476,-0.56627166,1.2811362,3.2740061,-30.900002,43.6875,-24.393751,0.15967365,-0.70381325,0.67124915,997.4047,37.88834989,127.739789,135.77166748046875,1.68
2025-04-06 16:40:21.332,11.447264,-8.5423765,1.0480564,-0.5326741,1.2066107,3.1133487,-28.706251,46.29375,-24.150002,0.12946948,-0.70960003,0.6741763,997.4047,37.88834989,127.739789,135.77166748046875,1.68
2025-04-06 16:40:21.353,13.3352,-8.331808,1.375873,-0.23701553,0.7411317,2.6747477,-26.60625,48.2625,-23.7,0.102902524,-0.7137065,0.67670506,997.40546,37.88834989,127.739789,135.77166748046875,1.68
2025-04-06 16:40:21.373,13.789837,-7.9944205,0.8063812,0.08491021,0.32268932,2.2410338,-23.7,50.23125,-23.75625,0.08290563,-0.7154828,0.6797749,997.40546,37.88834989,127.739789,135.77166748046875,1.68
2025-04-06 16:40:21.392,13.883157,-7.537391,-0.74177504,0.19058982,0.17669263,1.8610759,-21.075,51.937504,-23.831251,0.06853804,-0.71542215,0.68342644,997.40765,37.88834321,127.73977234,135.85882568359375,1.83
2025-04-06 16:40:21.412,13.761123,-6.9583282,-1.5337993,-0.017715078,0.251829,1.4646246,-18.7875,53.381252,-24.150002,0.05737192,-0.7152706,0.68608797,997.40765,37.88834321,127.73977234,135.85882568359375,1.83
2025-04-06 16:40:21.432,13.567305,-6.843473,-1.3232309,-0.3536907,0.5413789,1.0150282,-16.9125,54.300003,-24.281252,0.04787545,-0.7164312,0.68634534,997.40765,37.88834321,127.73977234,135.85882568359375,1.83
2025-04-06 16:40:21.454,12.80878,-7.5254273,-0.18903299,-0.73609203,0.87185675,0.45425433,-14.437501,55.443752,-24.69375,0.036964778,-0.72011113,0.6827956,997.3942,37.88834321,127.73977234,135.85882568359375,1.83
2025-04-06 16:40:21.472,12.260823,-8.484949,0.96909314,-0.8100067,0.83703744,0.16226095,-13.875001,55.48125,-24.35625,0.029704407,-0.7241222,0.67781216,997.4025,37.88834321,127.73977234,135.85882568359375,1.83
2025-04-06 16:40:21.492,12.023933,-9.219545,2.2372892,-0.65973395,0.59574586,-0.16210824,-12.337501,56.2125,-23.962502,0.025239289,-0.7278132,0.67266506,997.4025,37.88834321,127.73977234,135.85882568359375,1.83
2025-04-06 16:40:21.513,11.921042,-10.636097,2.1942184,-0.4960222,0.33124143,-0.4718167,-11.925,56.5875,-23.962502,0.024499191,-0.7304083,0.66838056,997.4196,37.88834321,127.73977234,135.85882568359375,1.83
2025-04-06 16:40:21.533,11.143375,-10.849058,2.5914268,-0.3262018,0.110108376,-0.6459131,-11.6625,56.86875,-23.362501,0.027511291,-0.7322137,0.66475487,997.4196,37.88834321,127.73977234,135.85882568359375,1.83
2025-04-06 16:40:21.554,11.806187,-10.030712,3.2925239,0.027488915,-0.016340632,-0.82611823,-11.45625,57.600002,-23.15625,0.034315526,-0.73265034,0.66209215,997.45013,37.88834321,127.73977234,135.85882568359375,1.83
2025-04-06 16:40:21.575,13.052848,-10.480563,3.0747771,0.33108872,-0.2441932,-1.2885429,-11.8125,57.750004,-22.6875,0.04312311,-0.7308162,0.6618597,997.45013,37.88834321,127.73977234,135.85882568359375,1.83
2025-04-06 16:40:21.592,12.854243,-11.650654,2.2037897,0.51801336,-0.47632182,-1.7729586,-12.0375,57.750004,-22.59375,0.057630386,-0.7272487,0.6625049,997.4694,37.88834321,127.73977234,135.85882568359375,1.83
2025-04-06 16:40:21.613,11.765509,-12.533605,1.4596218,0.5357284,-0.70845044,-2.2091162,-12.618751,57.525,-22.59375,0.0773327,-0.7228852,0.6626869,997.4694,37.88834321,127.73977234,135.85882568359375,1.83
2025-04-06 16:40:21.632,11.272588,-13.234702,1.5146568,0.46181378,-0.8129083,-2.567083,-14.400001,56.812504,-22.425001,0.10040152,-0.7185001,0.6614532,997.47064,37.88834321,127.73977234,135.85882568359375,1.83
2025-04-06 16:40:21.652,10.325029,-12.672389,1.9334008,0.4404335,-0.7310524,-2.827922,-15.975,56.1375,-22.6875,0.12528113,-0.7136851,0.6588952,997.47064,37.88834321,127.73977234,135.85882568359375,1.83
2025-04-06 16:40:21.673,9.920643,-11.46162,2.0745773,0.46975502,-0.61132294,-3.1193047,-17.19375,55.406254,-22.725,0.150984,-0.707798,0.6554643,997.47284,37.88834321,127.73977234,135.85882568359375,1.83
2025-04-06 16:40:21.693,9.473185,-10.827522,2.024328,0.55955213,-0.53068876,-3.4943757,-19.706251,54.131252,-23.23125,0.1779685,-0.7002381,0.651243,997.47284,37.88834321,127.73977234,135.85882568359375,1.83
2025-04-06 16:40:21.713,8.523234,-10.667203,2.1918256,0.75563973,-0.5722276,-3.8749444,-23.625,51.131252,-23.775002,0.21471447,-0.68770677,0.64490634,997.4775,37.88834321,127.73977234,135.85882568359375,1.83
2025-04-06 16:40:21.732,7.470392,-10.772488,1.3686945,0.95844686,-0.46838057,-4.075308,-24.843752,49.800003,-24.075,0.24614878,-0.6745845,0.63963497,997.4775,37.88834321,127.73977234,135.85882568359375,1.83
2025-04-06 16:40:21.752,6.070591,-10.552348,0.39481574,1.0458004,-0.30405796,-4.1162357,-27.393751,47.15625,-24.35625,0.27732724,-0.6590308,0.6342773,997.4841,37.88834321,127.73977234,135.85882568359375,1.83
2025-04-06 16:40:21.772,5.1613183,-10.3441725,-0.61734825,0.980438,-0.18310672,-4.0356016,-29.7,44.15625,-23.831251,0.30689767,-0.6421998,0.6284381,997.4841,37.88834321,127.73977234,135.85882568359375,1.83
2025-04-06 16:40:21.793,4.4554358,-10.291531,-0.8853444,0.77640915,-0.12935062,-3.8309622,-32.943752,39.787502,-23.587502,0.34064275,-0.62132037,0.6195442,997.46576,37.88834321,127.73977234,135.85882568359375,1.83
2025-04-06 16:40:21.812,3.8285162,-10.001999,-0.46181476,0.7128792,-0.2283107,-3.6586983,-33.881252,38.30625,-23.4375,0.35935503,-0.6093611,0.61340463,997.46576,37.88834321,127.73977234,135.85882568359375,1.83
2025-04-06 16:40:21.832,3.6466618,-9.671789,-0.33499518,0.6658426,-0.3755291,-3.348379,-35.8125,35.287502,-23.118752,0.38317043,-0.59428793,0.6047011,997.45575,37.88834321,127.73977234,135.85882568359375,1.83
2025-04-06 16:40:21.852,3.330809,-9.262616,-0.12921242,0.6236929,-0.37858346,-3.082042,-37.425003,32.325,-23.19375,0.4052983,-0.58017147,0.5958186,997.45575,37.88834321,127.73977234,135.85882568359375,1.83
2025-04-06 16:40:21.873,3.2279177,-9.059227,-0.2009971,0.6035344,-0.3291034,-2.7735553,-39.09375,29.04375,-23.0625,0.42998412,-0.5634795,0.5853437,997.45917,37.88834321,127.73977234,135.85882568359375,1.83
2025-04-06 16:40:21.892,2.928815,-9.305687,-0.4546363,0.53328496,-0.1311832,-2.4937792,-40.78125,25.85625,-22.78125,0.44695902,-0.5507929,0.5779298,997.45917,37.88834321,127.73977234,135.85882568359375,1.83
2025-04-06 16:40:21.913,1.8089739,-9.265009,-0.57188463,0.41233373,0.20479241,-2.0344088,-41.79375,21.6375,-22.575,0.46299747,-0.5359098,0.5708862,997.4565,37.88834321,127.73977234,135.85882568359375,1.83
2025-04-06 16:40:21.933,1.6127625,-10.202995,-0.9619147,0.31826055,0.32330018,-1.6367358,-41.90625,19.35,-22.368752,0.46959272,-0.5279512,0.56814915,997.4565,37.88834321,127.73977234,135.85882568359375,1.83
2025-04-06 16:40:21.952,0.86141616,-10.394422,-1.2658032,0.20036365,0.25793764,-1.170646,-42.131252,18.13125,-22.2,0.47539827,-0.5196539,0.56584907,997.457,37.88834321,127.73977234,135.85882568359375,1.83
2025-04-06 16:40:21.973,0.8327023,-10.250853,-1.1988041,0.05253437,0.019089524,-0.5029708,-41.7,16.181252,-22.5375,0.47853047,-0.5153655,0.5644764,997.457,37.88834321,127.73977234,135.85882568359375,1.83
2025-04-06 16:40:21.992,0.80877405,-9.437292,-0.9523434,-0.08857539,-0.035888307,0.12805253,-41.5125,14.062501,-22.85625,0.47886184,-0.515602,0.56420684,997.4599,37.88834321,127.73977234,135.85882568359375,1.83
2025-04-06 16:40:22.012,1.2873386,-9.399008,-0.9834501,-0.16615522,-0.007177661,0.5745947,-41.456253,13.593751,-22.987501,0.476727,-0.51807487,0.5652631,997.4599,37.88834321,127.73977234,135.85882568359375,1.83
2025-04-06 16:40:22.032,0.95473623,-9.138189,-1.5337993,-0.3506364,0.034361143,1.1341468,-40.987503,13.200001,-23.2875,0.46924967,-0.52557623,0.56902677,997.46136,37.88834321,127.73977234,135.85882568359375,1.83
2025-04-06 16:40:22.053,1.550549,-8.374879,-0.9810573,-0.5516109,0.023365578,1.6808708,-41.2125,13.275001,-22.66875,0.45927066,-0.5352433,0.5732344,997.46136,37.88834321,127.73977234,135.85882568359375,1.83
2025-04-06 16:40:22.072,2.7062824,-8.776874,-0.33020952,-0.64201885,0.11804962,2.1432955,-41.49375,14.493751,-22.237501,0.44589126,-0.5475362,0.57850313,997.45575,37.88834321,127.73977234,135.85882568359375,1.83
2025-04-06 16:40:22.092,4.06062,-9.370294,-0.5479564,-0.7061597,0.22678354,2.4420083,-41.643753,15.000001,-22.06875,0.4293865,-0.56101084,0.58516407,997.45575,37.88834321,127.73977234,135.85882568359375,1.83
2025-04-06 16:40:22.113,4.4339004,-9.755538,-0.47856453,-0.7788526,0.21700971,2.637485,-41.925003,16.6875,-21.806252,0.41056743,-0.57529366,0.5922901,997.4577,37.88834321,127.73977234,135.85882568359375,1.83
2025-04-06 16:40:22.134,4.2352962,-9.915857,-0.069391854,-0.7819069,0.108886644,2.9783475,-41.2125,20.325,-22.237501,0.38496816,-0.59439236,0.6010505,997.4577,37.88834321,127.73977234,135.85882568359375,1.83
2025-04-06 16:40:22.152,4.575077,-10.322637,-0.15314065,-0.7513637,0.12049308,3.3540294,-40.29375,23.306252,-22.237501,0.36231288,-0.6104552,0.6086991,997.4604,37.88834321,127.73977234,135.85882568359375,1.83
2025-04-06 16:40:22.172,5.352744,-10.303494,-0.32542387,-0.7855721,0.17180572,3.6160905,-39.675003,24.91875,-22.29375,0.34365228,-0.6227574,0.61479926,997.4604,37.88834321,127.73977234,135.85882568359375,1.83
2025-04-06 16:40:22.193,6.5252275,-9.868001,-0.14356937,-0.9144646,0.3178024,3.772472,-38.381252,27.91875,-22.5,0.30946365,-0.64322335,0.6244968,997.4516,37.88834321,127.73977234,135.85882568359375,1.83
2025-04-06 16:40:22.214,7.183254,-9.492328,0.88295156,-0.9572251,0.45952302,3.8231735,-36.43125,32.2125,-24.225,0.27991524,-0.6588057,0.6312617,997.4516,37.88834321,127.73977234,135.85882568359375,1.83
2025-04-06 16:40:22.232,7.972885,-9.265009,1.6965113,-0.82466745,0.4754055,3.772472,-35.90625,33.46875,-24.768751,0.2495584,-0.67279685,0.63753676,997.4577,37.88834321,127.73977234,135.85882568359375,1.83
2025-04-06 16:40:22.253,8.776874,-9.097511,1.727618,-0.6316342,0.5432115,3.5879905,-34.537502,36.28125,-25.44375,0.21999465,-0.68433285,0.64376765,997.4577,37.88834321,127.73977234,135.85882568359375,1.83
2025-04-06 16:40:22.273,8.367701,-8.958728,1.0719845,-0.5070178,0.730747,3.365025,-32.49375,40.575,-25.706251,0.1845834,-0.6949802,0.6514107,997.45624,37.88834321,127.73977234,135.85882568359375,1.83
2025-04-06 16:40:22.292,8.319844,-9.075976,0.2847459,-0.59925836,0.96715164,3.3094363,-31.612501,42.018753,-25.556252,0.16316171,-0.7000597,0.65558213,997.45624,37.88834321,127.73977234,135.85882568359375,1.83
2025-04-06 16:40:22.312,9.887143,-9.217153,0.42592242,-0.85704327,1.1430807,3.1249552,-28.687502,46.03125,-25.1625,0.12565419,-0.70817405,0.6601886,997.4421,37.88834321,127.73977234,135.85882568359375,1.83
2025-04-06 16:40:22.333,10.281959,-8.750552,1.7324036,-0.90102553,0.85597426,2.8085272,-27.4125,46.95,-25.218752,0.097420014,-0.714673,0.6611371,997.4421,37.88834321,127.73977234,135.85882568359375,1.83
2025-04-06 16:40:22.352,10.54517,-8.76491,2.347359,-0.6713404,0.4308124,2.4902666,-25.10625,48.768753,-24.843752,0.07404277,-0.72021675,0.6613289,997.4382,37.88834321,127.73977234,135.85882568359375,1.83
2025-04-06 16:40:22.373,10.602597,-8.970692,1.902294,-0.36285368,0.19685118,2.308229,-22.237501,50.9625,-24.862501,0.05541668,-0.7239533,0.6623736,997.4382,37.88834321,127.73977234,135.85882568359375,1.83
2025-04-06 16:40:22.392,10.839486,-8.839087,0.83748794,-0.15638138,0.107054055,2.1976624,-19.78125,52.66875,-24.16875,0.039344594,-0.72593564,0.6645364,997.43915,37.88833846,127.73975673,135.570068359375,1.72
2025-04-06 16:40:22.412,11.937792,-8.405986,0.53599226,-0.086742796,0.020922119,2.0938153,-17.41875,54.375004,-23.775002,0.024665724,-0.72702825,0.66700256,997.43915,37.88833846,127.73975673,135.570068359375,1.72
2025-04-06 16:40:22.433,13.919049,-8.547162,0.35413775,-0.0036651888,-0.14584397,1.7608941,-15.3,55.425003,-23.56875,0.009482279,-0.72762525,0.6699231,997.4362,37.88833846,127.73975673,135.570068359375,1.72
2025-04-06 16:40:22.453,15.156138,-8.965906,0.069391854,0.07391464,-0.3517054,1.2697588,-13.687501,55.968754,-23.175001,0.0022119924,-0.727636,0.67198676,997.4362,37.88833846,127.73975673,135.570068359375,1.72
2025-04-06 16:40:22.473,15.503098,-9.590433,-0.4211368,0.007941242,-0.32971427,0.7260891,-11.868751,56.662502,-23.19375,-3.3309648E-4,-0.7276295,0.67334056,997.4233,37.88833846,127.73975673,135.570068359375,1.72
2025-04-06 16:40:22.492,15.378671,-10.090533,-0.27517462,-0.1802051,-0.057268575,0.22273657,-10.481251,57.206253,-23.15625,-2.8463564E-4,-0.7282985,0.67306995,997.4233,37.88833846,127.73975673,135.570068359375,1.72
2025-04-06 16:40:22.514,14.486148,-10.609776,0.997807,-0.34941465,0.2640463,-0.36796966,-8.868751,57.99375,-23.38125,0.0015543277,-0.73020816,0.6701203,997.4233,37.88833846,127.73975673,135.570068359375,1.72
2025-04-06 16:40:22.532,13.227524,-9.643075,2.254039,-0.2535089,0.34712392,-0.6941715,-8.681251,58.18125,-23.38125,0.0038061242,-0.7312289,0.66783845,997.4233,37.88833846,127.73975673,135.570068359375,1.72
2025-04-06 16:40:22.552,12.557533,-9.123833,3.2805598,0.041538805,0.23716825,-1.0649664,-8.606251,58.443752,-23.19375,0.008868168,-0.73126596,0.66566336,997.4379,37.88833846,127.73975673,135.570068359375,1.72
2025-04-06 16:40:22.573,12.112468,-9.796216,3.318845,0.54916745,-0.27595815,-1.577482,-9.01875,58.256252,-23.1375,0.021928001,-0.7280921,0.6657743,997.4379,37.88833846,127.73975673,135.570068359375,1.72
2025-04-06 16:40:22.592,11.370693,-10.669596,2.4622145,0.87536925,-0.8061888,-1.9433899,-9.39375,58.18125,-23.081251,0.035050318,-0.7244698,0.6674155,997.4379,37.88833846,127.73975673,135.570068359375,1.72
2025-04-06 16:40:22.612,10.63849,-11.19841,1.5840486,1.05252,-1.3351977,-2.3154066,-10.462501,57.73125,-23.2875,0.065052845,-0.7169038,0.67095196,997.4589,37.88833846,127.73975673,135.570068359375,1.72
2025-04-06 16:40:22.632,10.365707,-11.772687,0.9762716,0.9993748,-1.4317143,-2.6324453,-12.150001,56.925003,-23.79375,0.093886174,-0.71027046,0.6728285,997.4543,37.88833846,127.73975673,135.570068359375,1.72
2025-04-06 16:40:22.653,9.717253,-11.937792,0.863809,0.77091134,-1.2246312,-2.954982,-15.675,55.36875,-24.225,0.1314996,-0.70183927,0.6722939,997.4543,37.88833846,127.73975673,135.570068359375,1.72
2025-04-06 16:40:22.672,9.62154,-11.416157,1.2753744,0.6780599,-1.0480913,-3.1785586,-16.931252,54.525,-24.69375,0.15383862,-0.6965865,0.6704669,997.45355,37.88833846,127.73975673,135.570068359375,1.72
2025-04-06 16:40:22.692,9.401401,-11.059627,1.6175481,0.6658426,-0.9326378,-3.5139232,-19.6875,53.11875,-24.88125,0.18405534,-0.6885956,0.66675293,997.45355,37.88833846,127.73975673,135.570068359375,1.72
2025-04-06 16:40:22.712,7.645068,-10.837093,1.8711873,0.71410096,-0.52946705,-3.6758025,-23.15625,50.11875,-25.1625,0.22208367,-0.67602724,0.6608429,997.4567,37.88833846,127.73975673,135.570068359375,1.72
2025-04-06 16:40:22.732,7.647461,-10.315458,1.1820544,0.7373138,-0.111635536,-3.6929066,-25.462502,47.79375,-25.556252,0.24946281,-0.6635615,0.6564054,997.4567,37.88833846,127.73975673,135.570068359375,1.72
2025-04-06 16:40:22.752,7.322037,-10.310673,0.86141616,0.72753996,0.025198173,-3.862116,-26.6625,46.612503,-25.612501,0.27502745,-0.64940995,0.65147936,997.4677,37.88833846,127.73975673,135.570068359375,1.72
2025-04-06 16:40:22.772,6.7836523,-10.24846,0.39481574,0.72692907,-0.14462224,-3.993452,-28.500002,44.25,-25.95,0.301085,-0.63411814,0.64522976,997.4677,37.88833846,127.73975673,135.570068359375,1.72
2025-04-06 16:40:22.792,6.0418773,-10.226924,-0.61734825,0.5729912,-0.33093598,-4.0869145,-30.50625,41.737503,-25.650002,0.32843247,-0.61861557,0.63682175,997.466,37.88833846,127.73975673,135.570068359375,1.72
2025-04-06 16:40:22.813,4.615755,-10.451849,-0.7968099,0.30665413,-0.26068655,-4.0001717,-32.90625,38.625,-25.143751,0.3553186,-0.6037699,0.6259194,997.466,37.88833846,127.73975673,135.570068359375,1.72
2025-04-06 16:40:22.833,3.562913,-10.171889,0.033499517,0.1197295,-0.20265439,-3.7246716,-34.74375,35.71875,-23.90625,0.37922308,-0.58998716,0.613596,997.4628,37.88833846,127.73975673,135.570068359375,1.72
2025-04-06 16:40:22.852,3.196811,-9.868001,0.552742,0.100181825,-0.21792601,-3.4308457,-36.9,32.4375,-22.9125,0.40020013,-0.5771489,0.6011031,997.4628,37.88833846,127.73975673,135.570068359375,1.72
2025-04-06 16:40:22.872,2.5914268,-9.80818,0.014356935,0.103236146,-0.14217877,-3.0967026,-39.018753,28.06875,-22.3875,0.42344546,-0.5618072,0.5863375,997.46967,37.88833846,127.73975673,135.570068359375,1.72
2025-04-06 16:40:22.893,1.820938,-9.973285,-0.8207382,-0.022601997,0.07040217,-2.7081926,-39.3375,26.587502,-22.462502,0.43864843,-0.55041385,0.5757036,997.46967,37.88833846,127.73975673,135.570068359375,1.72
2025-04-06 16:40:22.912,1.3663018,-10.566705,-1.2729816,-0.21013749,0.23594652,-2.2286637,-40.10625,23.775002,-22.518751,0.449471,-0.5407544,0.5664521,997.46967,37.88833846,127.73975673,135.570068359375,1.72
2025-04-06 16:40:22.933,1.0959128,-11.815758,-1.2323036,-0.39095345,0.24449863,-1.6013056,-40.85625,20.15625,-22.800001,0.4560539,-0.53384155,0.55867547,997.46967,37.88833846,127.73975673,135.570068359375,1.72
2025-04-06 16:40:22.953,1.2394822,-11.564512,-0.782453,-0.49235702,0.11438443,-1.0374775,-40.85625,18.956251,-22.96875,0.45905012,-0.5303719,0.55245537,997.4628,37.88833846,127.73975673,135.570068359375,1.72
2025-04-06 16:40:22.972,1.268196,-11.0811615,-0.31345975,-0.52778715,0.123547405,-0.5585595,-41.456253,17.212502,-22.725,0.45949376,-0.53006715,0.5476418,997.4628,37.88833846,127.73975673,135.570068359375,1.72
2025-04-06 16:40:22.992,0.39720857,-11.004591,-0.076570325,-0.49846566,0.364839,-0.09430225,-41.475002,16.06875,-23.0625,0.45690498,-0.53135747,0.545218,997.4628,37.88833846,127.73975673,135.570068359375,1.72
2025-04-06 16:40:23.012,-0.98584294,-11.054841,-0.67477596,-0.44348782,0.5016727,0.51778424,-41.11875,15.337501,-23.175001,0.45070845,-0.5335784,0.54628456,997.4665,37.88833846,127.73975673,135.570068359375,1.72
2025-04-06 16:40:23.033,-1.8496519,-10.13839,-0.94277215,-0.5045743,0.26526803,1.5831324,-40.66875,15.01875,-23.400002,0.43783322,-0.5404861,0.55204046,997.46893,37.88833846,127.73975673,135.570068359375,1.72
2025-04-06 16:40:23.052,-0.3062813,-9.564112,-0.28953153,-0.53206325,0.074067354,2.334496,-40.575,15.168751,-23.587502,0.4233966,-0.551427,0.55938053,997.46893,37.88833846,127.73975673,135.570068359375,1.72
2025-04-06 16:40:23.073,2.9096723,-9.444471,0.57906306,-0.3970621,0.025198173,2.94475,-40.631252,16.0125,-23.60625,0.4056677,-0.5654214,0.5691321,997.4653,37.88833846,127.73975673,135.570068359375,1.72
2025-04-06 16:40:23.092,4.9603214,-9.590433,0.5814559,-0.1753182,0.080176,3.0565383,-40.5,17.362501,-23.681252,0.38628608,-0.5792203,0.5809473,997.4653,37.88833846,127.73975673,135.570068359375,1.72
2025-04-06 16:40:23.112,4.924429,-9.8727865,-0.72023964,0.048258316,0.10949751,3.07181,-40.4625,19.29375,-23.212502,0.3670952,-0.5909568,0.59387815,997.4609,37.88833846,127.73975673,135.570068359375,1.72
2025-04-06 16:40:23.132,4.15394,-10.403993,-1.9645073,0.045814857,0.045967575,3.3033276,-39.862503,21.825,-23.23125,0.3478357,-0.60189867,0.6069927,997.4609,37.88833846,127.73975673,135.570068359375,1.72
2025-04-06 16:40:23.152,4.354937,-10.710274,-2.6201408,-0.13439025,-0.12202024,3.7229917,-38.943752,24.2625,-23.362501,0.32124782,-0.6173386,0.62274987,997.4543,37.88833846,127.73975673,135.570068359375,1.72
2025-04-06 16:40:23.172,6.1854467,-10.487741,-2.7445676,-0.36468628,-0.33154687,3.9361835,-37.612503,27.075,-23.75625,0.29791722,-0.6319111,0.6335766,997.4543,37.88833846,127.73975673,135.570068359375,1.72
2025-04-06 16:40:23.193,8.10449,-9.772287,-2.8283165,-0.637132,-0.5245801,3.7920194,-35.756252,30.13125,-25.48125,0.27453032,-0.64766425,0.64132917,997.4394,37.88833846,127.73975673,135.570068359375,1.72
2025-04-06 16:40:23.212,8.073383,-9.521041,-2.132005,-0.8784236,-0.5532908,3.5965428,-34.818752,32.86875,-26.75625,0.25246087,-0.6638715,0.6452902,997.4394,37.88833846,127.73975673,135.570068359375,1.72
2025-04-06 16:40:23.233,7.9106717,-9.729217,-0.9499506,-1.0128138,-0.4970912,3.6417468,-33.300003,35.8875,-27.281252,0.23002978,-0.6798512,0.6470058,997.4394,37.88833846,127.73975673,135.570068359375,1.72
2025-04-06 16:40:23.252,10.313066,-9.643075,0.26799613,-1.0067052,-0.046273008,3.7553675,-32.193752,38.831253,-27.187502,0.20510232,-0.6947944,0.6483224,997.4311,37.88833846,127.73975673,135.570068359375,1.72
2025-04-06 16:40:23.272,12.093326,-9.568898,0.6652047,-0.9175189,0.2243401,3.5146868,-31.593752,41.625,-25.5375,0.17813914,-0.7073198,0.6497534,997.4362,37.88833846,127.73975673,135.570068359375,1.72
2025-04-06 16:40:23.292,12.705888,-9.619147,0.2943172,-0.8949169,0.36728245,3.2043676,-29.550001,44.68125,-24.225,0.15195696,-0.71741563,0.6507046,997.4362,37.88833846,127.73975673,135.570068359375,1.72
2025-04-06 16:40:23.312,12.780066,-9.126225,0.65324056,-0.89430606,0.3575086,2.9307,-27.6375,47.53125,-23.0625,0.12739152,-0.7261336,0.6505275,997.4362,37.88833846,127.73975673,135.570068359375,1.72
2025-04-06 16:40:23.332,12.837494,-8.097312,1.0552348,-0.8820887,0.5896372,2.641761,-25.500002,50.100002,-22.368752,0.10448775,-0.73367995,0.64948595,997.4306,37.88833846,127.73975673,135.570068359375,1.72
2025-04-06 16:40:23.353,12.64846,-7.1808605,2.4837499,-0.74220073,0.7362448,2.2477534,-22.85625,52.162502,-22.087502,0.07701879,-0.7409574,0.64763075,997.42865,37.88833846,127.73975673,135.570068359375,1.72
2025-04-06 16:40:23.372,12.655639,-6.6975107,3.347559,-0.21991132,0.33857182,1.9252167,-20.94375,53.850002,-21.712502,0.058876835,-0.7439696,0.6476414,997.42865,37.88833846,127.73975673,135.570068359375,1.72
2025-04-06 16:40:23.392,13.048062,-6.6185474,1.8041883,0.36835146,-0.1348484,1.6436081,-18.712502,55.275,-21.5625,0.04694886,-0.74356,0.65100205,997.42865,37.88833283,127.7397411,135.3160400390625,1.65
2025-04-06 16:40:23.412,13.799408,-6.216553,-0.33260235,0.67195123,-0.36331183,1.3674972,-16.6875,56.2125,-21.91875,0.039890714,-0.7407728,0.6566687,997.4465,37.88833283,127.7397411,135.3160400390625,1.65
2025-04-06 16:40:23.432,15.122639,-7.094719,-2.0315065,0.6328559,-0.47510007,0.9850958,-15.01875,56.9625,-21.9375,0.036299083,-0.7372829,0.66253537,997.4411,37.88833283,127.7397411,135.3160400390625,1.65
2025-04-06 16:40:23.453,15.675381,-7.932207,-2.7445676,0.3084867,-0.4647154,0.4878519,-13.368751,57.562504,-22.0125,0.0367642,-0.73434854,0.6672068,997.4411,37.88833283,127.7397411,135.3160400390625,1.65
2025-04-06 16:40:23.472,16.321444,-8.62134,-2.251646,-0.042760536,-0.22708899,0.060857404,-12.656251,57.675003,-22.21875,0.03867103,-0.73401463,0.6678,997.4411,37.88833283,127.7397411,135.3160400390625,1.65
2025-04-06 16:40:23.492,16.431513,-9.803394,-0.32542387,-0.40500334,0.13454297,-0.5512291,-12.337501,57.750004,-21.91875,0.043522745,-0.73570096,0.6649139,997.4311,37.88833283,127.7397411,135.3160400390625,1.65
2025-04-06 16:40:23.513,15.570097,-10.025927,1.2658032,-0.41233373,0.36178467,-1.1767546,-12.4875,57.61875,-22.050001,0.04917855,-0.7373879,0.66080296,997.4318,37.88833283,127.7397411,135.3160400390625,1.65
2025-04-06 16:40:23.533,14.275579,-10.609776,2.1487548,-0.26633704,0.27137667,-1.7075962,-12.806251,57.45,-21.75,0.057954725,-0.7379899,0.65654963,997.4318,37.88833283,127.7397411,135.3160400390625,1.65
2025-04-06 16:40:23.552,12.77528,-11.4496565,3.0699914,0.03054324,-0.09025527,-2.1156538,-13.556251,57.15,-21.393751,0.071278825,-0.7369963,0.65285194,997.4631,37.88833283,127.7397411,135.3160400390625,1.65
2025-04-06 16:40:23.572,11.787045,-12.311072,3.2231321,0.46608981,-0.5685624,-2.4027603,-14.700001,57.018753,-21.1875,0.08996271,-0.73372394,0.6507373,997.4631,37.88833283,127.7397411,135.3160400390625,1.65
2025-04-06 16:40:23.593,10.5690975,-12.375679,2.2444677,0.79045904,-0.7988584,-2.6086216,-16.5375,56.100002,-20.8125,0.119590975,-0.7262117,0.65043914,997.50116,37.88833283,127.7397411,135.3160400390625,1.65
2025-04-06 16:40:23.612,9.946963,-12.172289,1.579263,0.8778127,-0.72005683,-2.7301838,-17.493752,55.912502,-20.868752,0.14508785,-0.7183465,0.6506934,997.50116,37.88833283,127.7397411,135.3160400390625,1.65
2025-04-06 16:40:23.633,9.442079,-11.3683,1.564906,0.93523395,-0.6540835,-2.8670175,-19.575,54.825,-21.1875,0.17713042,-0.7068043,0.6505953,997.4992,37.88833283,127.7397411,135.3160400390625,1.65
2025-04-06 16:40:23.652,8.906086,-10.588241,1.0432707,0.971275,-0.69378966,-3.099757,-21.50625,53.287502,-21.75,0.19711326,-0.6989166,0.65008754,997.4992,37.88833283,127.7397411,135.3160400390625,1.65
2025-04-06 16:40:23.673,7.925029,-10.19821,0.7896315,0.9401209,-0.7713695,-3.2824056,-24.91875,50.812504,-22.425001,0.22526345,-0.68771476,0.6481803,997.4936,37.88833283,127.7397411,135.3160400390625,1.65
2025-04-06 16:40:23.693,7.9369926,-9.882358,0.24646074,0.8527672,-0.5887209,-3.3783114,-26.98125,48.43125,-23.19375,0.26058915,-0.67274517,0.6440928,997.4936,37.88833283,127.7397411,135.3160400390625,1.65
2025-04-06 16:40:23.712,7.9346,-9.822537,0.019142581,0.7171553,-0.33154687,-3.5127015,-28.10625,47.325,-23.025002,0.2808284,-0.6631899,0.6407139,997.4848,37.88833283,127.7397411,135.3160400390625,1.65
2025-04-06 16:40:23.732,7.367501,-10.028319,0.040677983,0.57482374,-0.12507457,-3.681911,-30.431252,43.818752,-22.78125,0.31272578,-0.646156,0.6333639,997.4848,37.88833283,127.7397411,135.3160400390625,1.65
2025-04-06 16:40:23.752,6.7166533,-10.284351,0.09332009,0.5235111,-0.1434005,-3.755215,-31.5375,42.5625,-22.6875,0.33744317,-0.6317034,0.62598336,997.47186,37.88833283,127.7397411,135.3160400390625,1.65
2025-04-06 16:40:23.772,6.128019,-10.423136,-0.2632105,0.47280934,-0.24113888,-3.7717083,-33.3375,39.787502,-22.3125,0.35591355,-0.6205805,0.61960804,997.47186,37.88833283,127.7397411,135.3160400390625,1.65
2025-04-06 16:40:23.793,5.2259245,-10.229317,-0.41874397,0.3744601,-0.4317287,-3.7252824,-34.987503,37.331253,-21.84375,0.3866792,-0.6024103,0.6069242,997.46063,37.88833283,127.7397411,135.3160400390625,1.65
2025-04-06 16:40:23.812,4.402794,-9.920643,-0.38524446,0.23823726,-0.57589275,-3.6128833,-38.1375,32.737503,-20.831251,0.41696224,-0.58541524,0.591641,997.46063,37.88833283,127.7397411,135.3160400390625,1.65
2025-04-06 16:40:23.832,3.8548372,-9.698111,-0.09332009,0.11300998,-0.58200145,-3.4406195,-39.09375,31.050001,-20.53125,0.43406692,-0.57585776,0.5816617,997.45917,37.88833283,127.7397411,135.3160400390625,1.65
2025-04-06 16:40:23.852,3.330809,-9.887143,0.18185452,0.054366965,-0.5575668,-3.2543058,-40.537502,28.031252,-20.456251,0.4551717,-0.56373465,0.5680116,997.45917,37.88833283,127.7397411,135.3160400390625,1.65
2025-04-06 16:40:23.872,2.0865414,-10.437492,-0.09092726,0.026267186,-0.5044216,-2.9757514,-41.550003,24.487501,-20.212502,0.4742816,-0.55213726,0.5546878,997.45917,37.88833283,127.7397411,135.3160400390625,1.65
2025-04-06 16:40:23.892,0.5479564,-10.585847,-0.46660042,-0.0012217296,-0.41951138,-2.3954298,-42.45,21.150002,-19.987501,0.49424765,-0.5394891,0.5397586,997.45624,37.88833283,127.7397411,135.3160400390625,1.65
2025-04-06 16:40:23.912,-0.22731815,-10.34178,-0.701097,-0.064140804,-0.28206682,-1.6794964,-42.768753,18.6,-19.612501,0.5057302,-0.53218323,0.53051263,997.45306,37.88833283,127.7397411,135.3160400390625,1.65
2025-04-06 16:40:23.932,-0.023928227,-10.1288185,-0.61016977,-0.14966187,0.008704823,-0.8963677,-43.10625,16.1625,-19.10625,0.51185113,-0.5280259,0.52485067,997.45306,37.88833283,127.7397411,135.3160400390625,1.65
2025-04-06 16:40:23.952,0.69152576,-9.707682,-0.08853444,-0.1753182,0.36422813,-0.060704686,-43.10625,13.668751,-18.337502,0.51157403,-0.5265095,0.5237475,997.44916,37.88833283,127.7397411,135.3160400390625,1.65
2025-04-06 16:40:23.972,1.2203395,-9.590433,0.043070808,-0.10873393,0.4668534,0.38767007,-42.862503,13.181251,-18.46875,0.5082597,-0.5270205,0.5259009,997.44916,37.88833283,127.7397411,135.3160400390625,1.65
2025-04-06 16:40:23.993,0.9954142,-9.920643,-0.8207382,-0.019547673,0.47479466,0.8390991,-43.0125,12.187501,-18.6375,0.50172544,-0.52904683,0.5312078,997.446,37.88833283,127.7397411,135.3160400390625,1.65
2025-04-06 16:40:24.013,0.4139583,-9.561719,-1.3280165,-0.10445788,0.40882125,1.4707333,-42.84375,12.01875,-18.975,0.4928464,-0.5334901,0.53850806,997.446,37.88833283,127.7397411,135.3160400390625,1.65
2025-04-06 16:40:24.033,1.8496519,-9.779466,-1.0217353,-0.1960876,0.2780962,2.1164174,-42.80625,12.675,-19.59375,0.4772136,-0.54433846,0.54964983,997.4311,37.88833283,127.7397411,135.3160400390625,1.65
2025-04-06 16:40:24.052,2.7421749,-10.152746,-0.87338024,-0.2376264,0.36056295,2.5806746,-42.881252,13.181251,-19.5375,0.4612981,-0.5559339,0.56006676,997.4311,37.88833283,127.7397411,135.3160400390625,1.65
2025-04-06 16:40:24.073,3.9314077,-10.255638,-0.6795616,-0.23823726,0.48884454,2.9368088,-42.581253,14.775001,-19.7625,0.4420219,-0.56868327,0.5720764,997.4301,37.88833283,127.7397411,135.3160400390625,1.65
2025-04-06 16:40:24.093,4.7282176,-10.234102,-0.72502524,-0.2254091,0.5761982,3.2263587,-42.075,18.075,-20.1,0.4200764,-0.5815855,0.58519626,997.4301,37.88833283,127.7397411,135.3160400390625,1.65
2025-04-06 16:40:24.112,5.3886366,-10.267602,-1.227518,-0.20708317,0.42470375,3.3662467,-41.9625,19.10625,-20.38125,0.39667875,-0.5945264,0.59845465,997.4157,37.88833283,127.7397411,135.3160400390625,1.65
2025-04-06 16:40:24.132,5.4843497,-10.224531,-1.6773686,-0.30054548,0.21762058,3.5238497,-41.25,21.862501,-20.71875,0.37312317,-0.6081255,0.610556,997.4157,37.88833283,127.7397411,135.3160400390625,1.65
2025-04-06 16:40:24.152,5.881558,-10.109675,-1.4931214,-0.44409868,0.10338886,3.7010007,-40.10625,24.825,-21.525002,0.34896973,-0.62283075,0.620959,997.4074,37.88833283,127.7397411,135.3160400390625,1.65
2025-04-06 16:40:24.172,6.4295144,-9.891929,-0.8255238,-0.61452997,0.117438756,3.8512733,-38.925003,28.143751,-21.9375,0.3233892,-0.63829696,0.6298008,997.4074,37.88833283,127.7397411,135.3160400390625,1.65
2025-04-06 16:40:24.192,7.649854,-9.35833,0.04546363,-0.70493793,0.1565341,3.870821,-37.8375,31.687502,-23.831251,0.28919914,-0.65754825,0.6388864,997.40204,37.88833283,127.7397411,135.3160400390625,1.65
2025-04-06 16:40:24.213,8.544769,-9.394221,-0.07178468,-0.7110466,0.2035707,3.736431,-36.3375,36.05625,-25.650002,0.26154497,-0.67161995,0.64477724,997.40204,37.88833283,127.7397411,135.3160400390625,1.65
2025-04-06 16:40:24.232,8.784052,-9.329616,-0.35174492,-0.7696896,0.2921461,3.6057057,-34.66875,38.86875,-25.9125,0.2343663,-0.68439054,0.64935637,997.3996,37.88833283,127.7397411,135.3160400390625,1.65
2025-04-06 16:40:24.253,9.064013,-8.997013,-0.5623133,-0.9767728,0.57925254,3.4988043,-33.768753,40.162502,-26.1375,0.20675918,-0.69629204,0.652389,997.3996,37.88833283,127.7397411,135.3160400390625,1.65
2025-04-06 16:40:24.272,9.018549,-9.056833,0.18903299,-1.1979058,0.9732603,3.3845727,-31.7625,42.412502,-24.206251,0.16938831,-0.71052647,0.6534134,997.3984,37.88833283,127.7397411,135.3160400390625,1.65
2025-04-06 16:40:24.292,9.298509,-9.468399,1.3160524,-1.241888,1.1565198,3.3112688,-29.23125,45.05625,-23.94375,0.14554128,-0.71843714,0.6529687,997.3984,37.88833283,127.7397411,135.3160400390625,1.65
2025-04-06 16:40:24.312,10.3848505,-9.391829,1.9549361,-0.98532486,1.0422881,3.2269695,-27.112501,47.737503,-23.737501,0.10636776,-0.7293484,0.65213877,997.4179,37.88833283,127.7397411,135.3160400390625,1.65
2025-04-06 16:40:24.332,11.856436,-9.037691,1.6199409,-0.7403681,0.8669698,3.0461535,-24.6375,50.2125,-23.34375,0.07733391,-0.7354156,0.6522585,997.4179,37.88833283,127.7397411,135.3160400390625,1.65
2025-04-06 16:40:24.352,12.897314,-8.606983,1.5625132,-0.5009091,0.5377137,2.7517169,-21.993752,52.36875,-23.04375,0.058201708,-0.7386251,0.65267366,997.4179,37.88833283,127.7397411,135.3160400390625,1.65
2025-04-06 16:40:24.372,13.47877,-8.219346,0.6987042,-0.24190246,0.13698642,2.2508075,-19.237501,54.24375,-22.5375,0.033768304,-0.74175483,0.65412056,997.4289,37.88833283,127.7397411,135.3160400390625,1.65
2025-04-06 16:40:24.392,13.526627,-8.73141,-0.28713873,-0.22968516,0.14187334,1.8073198,-16.81875,55.725002,-22.368752,0.019804232,-0.74318635,0.65520436,997.4362,37.88832664,127.73972485,135.736083984375,1.67
2025-04-06 16:40:24.412,13.584054,-9.162118,-0.16749759,-0.284663,0.36361727,1.5122721,-14.64375,56.568752,-22.3125,0.007730876,-0.744545,0.6553311,997.4362,37.88832664,127.73972485,135.736083984375,1.67
2025-04-06 16:40:24.433,13.854444,-9.434899,0.21535404,-0.28954992,0.5572614,1.2227222,-12.50625,57.43125,-22.3875,-0.0036981632,-0.7456863,0.65475875,997.4443,37.88832664,127.73972485,135.736083984375,1.67
2025-04-06 16:40:24.452,14.531611,-9.712467,0.26081768,-0.28160867,0.69226253,0.84215343,-10.6875,58.10625,-22.650002,-0.01393761,-0.74643594,0.6538177,997.4443,37.88832664,127.73972485,135.736083984375,1.67
2025-04-06 16:40:24.472,14.895321,-9.722038,0.29910284,-0.32375833,0.6336195,0.22945608,-9.225,58.518753,-21.84375,-0.022681896,-0.74732167,0.6516936,997.4516,37.88832664,127.73972485,135.736083984375,1.67
2025-04-06 16:40:24.494,14.129618,-9.008977,1.2514462,-0.26328272,0.45097092,-0.27084216,-8.025001,59.156254,-21.6375,-0.024518404,-0.74831194,0.6491826,997.4516,37.88832664,127.73972485,135.736083984375,1.67
2025-04-06 16:40:24.513,13.560126,-8.673982,1.9788643,-0.06597339,0.20540328,-0.74792755,-7.0687504,59.362503,-21.056252,-0.021592783,-0.7486813,0.64716613,997.48505,37.88832664,127.73972485,135.736083984375,1.67
2025-04-06 16:40:24.532,13.026526,-9.501899,2.2564318,0.2864956,-0.32482734,-1.3716205,-6.6375003,59.68125,-21.16875,-0.012651183,-0.7478874,0.64636374,997.48505,37.88832664,127.73972485,135.736083984375,1.67
2025-04-06 16:40:24.553,11.913864,-10.9375925,1.4356936,0.5167916,-0.90209454,-1.9177337,-7.0875,59.68125,-21.13125,0.009014631,-0.74518234,0.64716977,997.5107,37.88832664,127.73972485,135.736083984375,1.67
2025-04-06 16:40:24.572,11.076376,-11.985648,1.3950156,0.57482374,-1.4378229,-2.2078943,-7.3875003,59.68125,-21.13125,0.02700163,-0.7433122,0.6476899,997.5107,37.88832664,127.73972485,135.736083984375,1.67
2025-04-06 16:40:24.593,10.861022,-13.040883,1.7491534,0.62674725,-1.5887066,-2.5041637,-9.712501,59.250004,-21.243752,0.06227193,-0.73977125,0.6477682,997.50604,37.88832664,127.73972485,135.736083984375,1.67
2025-04-06 16:40:24.613,10.595419,-13.19881,2.009971,0.70921403,-1.4475968,-2.7442336,-10.575001,58.8375,-21.28125,0.09240121,-0.73561037,0.64729863,997.50604,37.88832664,127.73972485,135.736083984375,1.67
2025-04-06 16:40:24.632,10.140782,-12.327823,2.065006,0.822224,-1.2197442,-2.99591,-13.218751,57.80625,-21.4125,0.12294298,-0.72956425,0.64669734,997.51385,37.88832664,127.73972485,135.736083984375,1.67
2025-04-06 16:40:24.653,9.554541,-11.444871,1.2035898,0.83871734,-0.5771145,-3.2720208,-16.087502,56.5875,-21.300001,0.15290783,-0.7212664,0.6459933,997.51385,37.88832664,127.73972485,135.736083984375,1.67
2025-04-06 16:40:24.672,8.209774,-10.858629,0.9068798,0.7629701,0.3159698,-3.5756207,-20.34375,54.468754,-21.525002,0.18584585,-0.7078362,0.6442946,997.50775,37.88832664,127.73972485,135.736083984375,1.67
2025-04-06 16:40:24.693,6.721439,-10.535598,0.7920243,0.7843504,0.64461505,-3.6299875,-21.46875,53.7,-21.712502,0.2033403,-0.6982168,0.6430052,997.50775,37.88832664,127.73972485,135.736083984375,1.67
2025-04-06 16:40:24.713,6.350551,-10.157532,0.30149564,0.8655954,0.7722858,-3.6299875,-23.7,51.862503,-22.275002,0.22486761,-0.6838142,0.64133275,997.4985,37.88832664,127.73972485,135.736083984375,1.67
2025-04-06 16:40:24.732,6.541977,-10.253245,-0.38524446,0.8985821,0.62689996,-3.6794677,-25.462502,49.4625,-23.53125,0.24606964,-0.6681559,0.6392133,997.4985,37.88832664,127.73972485,135.736083984375,1.67
2025-04-06 16:40:24.752,6.202196,-10.207782,-0.701097,0.8533781,0.3019199,-3.7686539,-27.281252,45.61875,-24.900002,0.27438003,-0.6481403,0.6343567,997.4738,37.88832664,127.73972485,135.736083984375,1.67
2025-04-06 16:40:24.772,5.5633125,-10.109675,-0.7680961,0.79534596,-0.012675445,-3.8138578,-27.975,44.4,-24.937502,0.29893863,-0.6325044,0.62804246,997.4738,37.88832664,127.73972485,135.736083984375,1.67
2025-04-06 16:40:24.792,4.644469,-10.143175,-0.8350951,0.6695078,-0.23625195,-3.7332237,-30.075,41.081253,-25.087502,0.3243251,-0.61752874,0.6173704,997.4543,37.88832664,127.73972485,135.736083984375,1.67
2025-04-06 16:40:24.812,4.328616,-10.250853,-0.8470592,0.5558869,-0.31505352,-3.5933356,-32.41875,37.800003,-24.375002,0.34899318,-0.60348547,0.60988945,997.4543,37.88832664,127.73972485,135.736083984375,1.67
2025-04-06 16:40:24.833,3.9194436,-10.392029,-1.134198,0.40439248,-0.31077746,-3.3880851,-34.875,34.275,-23.60625,0.37211832,-0.5903272,0.59911114,997.4372,37.88832664,127.73972485,135.736083984375,1.67
2025-04-06 16:40:24.852,3.5174494,-10.557134,-1.3567305,0.22479823,-0.21364996,-3.1290784,-37.2,30.675001,-23.775002,0.39275175,-0.57815135,0.58786243,997.4372,37.88832664,127.73972485,135.736083984375,1.67
2025-04-06 16:40:24.872,3.347559,-11.162518,-1.4117653,0.06902772,-0.17883067,-2.83342,-38.625,27.6375,-23.493752,0.41025373,-0.5672549,0.5766404,997.4279,37.88832664,127.73972485,135.736083984375,1.67
2025-04-06 16:40:24.892,2.7326035,-11.32523,-1.1246266,-0.026267186,-0.3028362,-2.4534621,-39.375,24.88125,-23.643751,0.42865574,-0.55609536,0.5628944,997.4279,37.88832664,127.73972485,135.736083984375,1.67
2025-04-06 16:40:24.912,1.9621146,-11.140983,-0.8781659,-0.08002329,-0.35659233,-2.123595,-40.03125,22.518751,-23.737501,0.43829244,-0.55092686,0.5549756,997.4279,37.88832664,127.73972485,135.736083984375,1.67
2025-04-06 16:40:24.932,0.78723866,-11.227124,-1.2705889,-0.1924224,-0.19226968,-1.5866449,-40.5,20.550001,-23.625,0.4508366,-0.5446184,0.5435313,997.4216,37.88832664,127.73972485,135.736083984375,1.67
2025-04-06 16:40:24.952,-0.75613195,-11.3683,-1.3878372,-0.3262018,0.052687086,-0.8597158,-40.518753,18.975,-23.4375,0.45588434,-0.54189193,0.5371566,997.4262,37.88832664,127.73972485,135.736083984375,1.67
2025-04-06 16:40:24.973,-1.8687944,-10.461421,-1.4620147,-0.4734202,0.14676027,-0.018555017,-40.800003,17.550001,-23.2875,0.45565096,-0.5421519,0.53411424,997.4262,37.88832664,127.73972485,135.736083984375,1.67
2025-04-06 16:40:24.993,-1.3926228,-9.556933,-0.81595254,-0.6542362,0.251829,0.8604794,-40.518753,16.6875,-23.23125,0.4497864,-0.546605,0.53433037,997.41473,37.88832664,127.73972485,135.736083984375,1.67
2025-04-06 16:40:25.013,0.38285163,-9.21476,0.39720857,-0.66339916,0.40698865,1.5348741,-40.518753,16.143751,-22.875,0.43822902,-0.55452496,0.537964,997.41473,37.88832664,127.73972485,135.736083984375,1.67
2025-04-06 16:40:25.032,2.1702902,-9.743574,1.2059826,-0.39522952,0.4980075,2.022344,-40.65,16.331251,-22.9125,0.41865364,-0.56588244,0.5474528,997.4228,37.88832664,127.73972485,135.736083984375,1.67
2025-04-06 16:40:25.052,3.1537402,-10.30828,0.37088752,-0.016493348,0.39599308,2.325333,-40.425003,17.306252,-23.175001,0.40195167,-0.5744098,0.558602,997.4228,37.88832664,127.73972485,135.736083984375,1.67
2025-04-06 16:40:25.073,3.4337006,-10.602597,-1.4213367,0.13622284,0.27137667,2.6209917,-40.575,18.618752,-23.268751,0.38540396,-0.5827953,0.57166696,997.415,37.88832664,127.73972485,135.736083984375,1.67
2025-04-06 16:40:25.093,3.8668015,-10.633704,-2.9383862,-0.018936807,0.08628465,2.9606326,-39.5625,21.525002,-23.962502,0.36799186,-0.59257483,0.5848628,997.415,37.88832664,127.73972485,135.736083984375,1.67
2025-04-06 16:40:25.113,4.4602213,-10.116854,-3.359523,-0.40500334,-0.060322896,3.2367435,-38.8125,23.90625,-23.94375,0.34362757,-0.6083442,0.5991898,997.39496,37.88832664,127.73972485,135.736083984375,1.67
2025-04-06 16:40:25.132,5.0273204,-9.549755,-2.5507488,-0.69821846,-0.14584397,3.3460882,-38.287502,25.031252,-23.8875,0.32751396,-0.6196919,0.6058585,997.39496,37.88832664,127.73972485,135.736083984375,1.67
2025-04-06 16:40:25.152,4.9292145,-9.499506,-1.3950156,-0.9016364,-0.056046844,3.4536004,-37.03125,27.806252,-24.281252,0.30439743,-0.6358029,0.61289865,997.3752,37.88832664,127.73972485,135.736083984375,1.67
2025-04-06 16:40:25.172,4.436293,-9.468399,-0.40917268,-0.9401209,0.11682789,3.671679,-35.7,31.1625,-25.63125,0.27882683,-0.6517713,0.6191805,997.3752,37.88832664,127.73972485,135.736083984375,1.67
2025-04-06 16:40:25.193,5.111069,-9.647861,0.0741775,-0.92118406,0.38499752,4.009487,-34.6875,34.425003,-27.35625,0.2421547,-0.6702683,0.62780523,997.37933,37.88832664,127.73972485,135.736083984375,1.67
2025-04-06 16:40:25.212,6.8075805,-9.8632145,0.25124636,-0.85948676,0.35506517,4.2129054,-33.65625,37.125,-27.750002,0.20976742,-0.68364614,0.6350804,997.37933,37.88832664,127.73972485,135.736083984375,1.67
2025-04-06 16:40:25.232,8.5016985,-10.329815,0.021535404,-0.7733548,0.28725916,4.3082004,-32.1375,39.91875,-28.35,0.1689768,-0.6985139,0.64351076,997.38446,37.88832664,127.73972485,135.736083984375,1.67
2025-04-06 16:40:25.253,10.997413,-10.399207,-0.09810573,-0.76419187,0.423482,4.22329,-30.750002,42.05625,-27.750002,0.14425603,-0.70620877,0.6479261,997.38446,37.88832664,127.73972485,135.736083984375,1.67
2025-04-06 16:40:25.273,11.904293,-10.054641,0.38763726,-0.72815084,0.3336849,3.906862,-28.706251,44.4,-26.531252,0.11231328,-0.7148986,0.65243334,997.39056,37.88832664,127.73972485,135.736083984375,1.67
2025-04-06 16:40:25.293,12.643675,-9.190832,0.7178468,-0.64568406,0.15897755,3.518352,-25.800001,47.23125,-26.325,0.083884165,-0.72200245,0.6555268,997.39056,37.88832664,127.73972485,135.736083984375,1.67
2025-04-06 16:40:25.312,12.552748,-8.609376,0.9284152,-0.6517927,0.1632536,2.999728,-23.175001,49.4625,-25.518751,0.059565518,-0.727705,0.6572976,997.3869,37.88832664,127.73972485,135.736083984375,1.67
2025-04-06 16:40:25.332,11.854043,-8.4012,1.6271194,-0.66523176,0.39538223,2.5366924,-20.493752,51.843754,-24.618752,0.038456175,-0.73243415,0.6575734,997.3869,37.88832664,127.73972485,135.736083984375,1.67
2025-04-06 16:40:25.353,11.49512,-8.56152,2.4765713,-0.537561,0.7466295,2.2098796,-17.8125,53.531254,-24.056252,0.01343033,-0.73651195,0.6569734,997.4045,37.88832664,127.73972485,135.736083984375,1.67
2025-04-06 16:40:25.372,12.602997,-8.745767,1.7491534,-0.29016078,0.9812015,1.9899684,-15.637501,55.7625,-23.831251,-0.0061991187,-0.73738503,0.6573939,997.4045,37.88832664,127.73972485,135.736083984375,1.67
2025-04-06 16:40:25.392,14.380864,-9.370294,-0.30149564,-0.25778493,1.1003202,1.5464805,-13.462501,56.250004,-23.53125,-0.02446443,-0.73674256,0.6581687,997.43134,37.8883195,127.73970774,135.424560546875,1.72
2025-04-06 16:40:25.412,14.861821,-9.875179,-0.9236295,-0.47830713,0.9561561,1.1616358,-11.1,57.15,-23.75625,-0.039627433,-0.7368474,0.6571046,997.43134,37.8883195,127.73970774,135.424560546875,1.72
2025-04-06 16:40:25.432,16.000805,-10.822737,-0.6556334,-0.80695236,0.60857403,0.5434406,-9.1125,57.750004,-23.493752,-0.050321814,-0.73910683,0.65331256,997.4406,37.8883195,127.73970774,135.424560546875,1.72
2025-04-06 16:40:25.452,15.029319,-11.856436,1.1294123,-0.993877,0.2603811,-0.017944153,-7.1062503,58.4625,-23.175001,-0.05510348,-0.74370724,0.64679974,997.4406,37.8883195,127.73970774,135.424560546875,1.72
2025-04-06 16:40:25.472,13.770695,-10.71506,3.6873398,-0.8161153,-0.11713332,-0.36002842,-5.7375,59.362503,-22.368752,-0.054489333,-0.7491323,0.63958764,997.4406,37.8883195,127.73970774,135.424560546875,1.72
2025-04-06 16:40:25.492,13.560126,-9.346365,5.5202417,-0.28710645,-0.5270236,-0.8566615,-5.34375,59.718754,-21.675001,-0.046410438,-0.75375795,0.63363427,997.45526,37.8883195,127.73970774,135.424560546875,1.72
2025-04-06 16:40:25.512,12.973885,-10.076176,5.7451673,0.38728827,-0.9980003,-1.4675263,-4.8,60.3375,-21.206251,-0.031989582,-0.7542482,0.63284457,997.51215,37.8883195,127.73970774,135.424560546875,1.72
2025-04-06 16:40:25.533,11.246266,-11.954542,3.65384,1.0787872,-1.776853,-2.0710607,-5.925,60.3375,-20.643751,-0.0021642735,-0.750406,0.6370737,997.51215,37.8883195,127.73970774,135.424560546875,1.72
2025-04-06 16:40:25.552,9.875179,-12.203396,2.2372892,1.2302817,-2.1103852,-2.2989132,-6.4125004,60.131252,-20.925001,0.020797873,-0.74672073,0.6408589,997.5546,37.8883195,127.73970774,135.424560546875,1.72
2025-04-06 16:40:25.572,9.104691,-11.966506,1.524228,1.1569779,-2.2075126,-2.4620142,-8.118751,59.60625,-20.831251,0.054004814,-0.74131936,0.6452134,997.5546,37.8883195,127.73970774,135.424560546875,1.72
2025-04-06 16:40:25.593,8.834301,-11.535798,1.4380864,1.0024291,-1.93018,-2.6190064,-10.668751,58.612503,-20.962502,0.08784879,-0.7357502,0.64771813,997.55634,37.8883195,127.73970774,135.424560546875,1.72
2025-04-06 16:40:25.613,8.606983,-10.782059,1.8233309,0.8454369,-1.293048,-2.8541894,-14.925,56.737503,-21.1875,0.1276607,-0.7278874,0.6483654,997.55634,37.8883195,127.73970774,135.424560546875,1.72
2025-04-06 16:40:25.633,8.590233,-10.313066,2.510071,0.8289435,-1.08963,-3.072268,-18.16875,55.218754,-21.35625,0.15743883,-0.720234,0.6476173,997.54877,37.8883195,127.73970774,135.424560546875,1.72
2025-04-06 16:40:25.653,8.12124,-10.183853,3.1800613,0.97555107,-1.3504694,-3.4033568,-19.743752,54.35625,-21.431252,0.18887706,-0.7108792,0.6461428,997.54877,37.8883195,127.73970774,135.424560546875,1.72
2025-04-06 16:40:25.674,7.2263246,-10.284351,2.8713872,1.1887429,-1.6045891,-3.6696937,-23.737501,51.6375,-21.88125,0.23334494,-0.69631076,0.6434744,997.54315,37.8883195,127.73970774,135.424560546875,1.72
2025-04-06 16:40:25.692,6.195018,-10.487741,1.4093726,1.0891719,-1.0810779,-3.6929066,-25.35,50.381252,-22.368752,0.26024896,-0.68615234,0.6414024,997.54315,37.8883195,127.73970774,135.424560546875,1.72
2025-04-06 16:40:25.712,6.206982,-10.454242,1.2059826,0.8814779,-0.38408124,-3.619603,-27.712502,48.206253,-23.00625,0.29109836,-0.6717372,0.6382559,997.54315,37.8883195,127.73970774,135.424560546875,1.72
2025-04-06 16:40:25.733,6.4175506,-10.6408825,1.7802601,0.8100067,-0.020616686,-3.6031096,-29.681252,45.787502,-22.987501,0.31673184,-0.6563799,0.63501126,997.5273,37.8883195,127.73970774,135.424560546875,1.72
2025-04-06 16:40:25.752,6.580262,-10.485349,1.5409778,0.9071342,-0.1452331,-3.7155087,-33.131252,41.8875,-21.900002,0.34730917,-0.6353672,0.6305257,997.5048,37.8883195,127.73970774,135.424560546875,1.72
2025-04-06 16:40:25.773,5.649454,-10.212567,0.7465607,0.8863648,-0.36270097,-3.776595,-33.881252,40.706253,-21.393751,0.37319633,-0.61758786,0.625412,997.5048,37.8883195,127.73970774,135.424560546875,1.72
2025-04-06 16:40:25.792,4.9770713,-10.518848,0.10767702,0.69272065,-0.38224864,-3.7112327,-35.8875,37.631252,-20.1375,0.3991719,-0.6002399,0.6182805,997.48846,37.8883195,127.73970774,135.424560546875,1.72
2025-04-06 16:40:25.812,4.4315076,-10.870593,0.22731815,0.48441577,-0.18066326,-3.541412,-38.006252,34.2,-19.331251,0.42264852,-0.5837845,0.6098762,997.48846,37.8883195,127.73970774,135.424560546875,1.72
2025-04-06 16:40:25.833,3.7758741,-11.023734,0.4139583,0.3414734,0.09483676,-3.2500298,-40.0125,30.431252,-18.975,0.44234654,-0.5678976,0.60162055,997.47064,37.8883195,127.73970774,135.424560546875,1.72
2025-04-06 16:40:25.853,3.2829528,-11.184053,0.5024927,0.3035998,0.16386448,-2.991023,-41.193752,27.0375,-18.54375,0.45867905,-0.5526116,0.5940533,997.47064,37.8883195,127.73970774,135.424560546875,1.72
2025-04-06 16:40:25.872,1.9860427,-11.136196,0.45224348,0.33169958,0.12293654,-2.6086216,-42.05625,23.737501,-18.54375,0.47281128,-0.53826445,0.58716124,997.457,37.8883195,127.73970774,135.424560546875,1.72
2025-04-06 16:40:25.892,1.0313065,-10.616954,0.15314065,0.3915643,0.055130545,-2.060065,-42.80625,20.5125,-18.675001,0.4848076,-0.52568156,0.58151877,997.457,37.8883195,127.73970774,135.424560546875,1.72
2025-04-06 16:40:25.913,0.60777694,-10.229317,-0.8207382,0.33353218,0.04535671,-1.3752857,-43.050003,16.5,-19.21875,0.49622455,-0.513482,0.57693124,997.4428,37.8883195,127.73970774,135.424560546875,1.72
2025-04-06 16:40:25.932,-0.22492532,-10.112068,-1.3232309,0.18631376,0.2206749,-0.8908699,-43.068752,15.69375,-19.44375,0.5016324,-0.5069527,0.5751083,997.4428,37.8883195,127.73970774,135.424560546875,1.72
2025-04-06 16:40:25.952,-1.7252251,-9.958928,-1.672583,-0.0024434591,0.38316494,-0.17066035,-42.975002,13.931251,-19.78125,0.50220543,-0.5036552,0.5756837,997.42523,37.8883195,127.73970774,135.424560546875,1.72
2025-04-06 16:40:25.972,-2.388037,-9.341579,-1.6151553,-0.15271619,0.3507891,0.63751376,-42.768753,12.8625,-19.893751,0.4993057,-0.50423443,0.5777967,997.42523,37.8883195,127.73970774,135.424560546875,1.72
2025-04-06 16:40:25.993,-0.6125626,-9.08794,-0.61016977,-0.25595233,0.14553854,1.7590615,-42.5625,12.13125,-20.025002,0.4885963,-0.51226103,0.58431727,997.4057,37.8883195,127.73970774,135.424560546875,1.72
2025-04-06 16:40:26.014,1.6295122,-9.097511,-0.15314065,-0.21441354,0.0697913,2.39375,-42.46875,12.0,-20.0625,0.476075,-0.52359104,0.5919337,997.4057,37.8883195,127.73970774,135.424560546875,1.72
2025-04-06 16:40:26.033,4.1467614,-9.303294,0.019142581,-0.07574723,0.18890993,2.7168975,-42.2625,13.6125,-20.0625,0.45686653,-0.5398028,0.6040735,997.3957,37.8883195,127.73970774,135.424560546875,1.72
2025-04-06 16:40:26.052,4.7377887,-9.5353985,-0.2440679,0.056810424,0.2102902,2.8060837,-42.2625,14.606251,-20.00625,0.44426802,-0.548964,0.6123881,997.3957,37.8883195,127.73970774,135.424560546875,1.72
2025-04-06 16:40:26.072,4.759324,-10.0881405,-1.038485,0.18692462,0.07589995,2.9868996,-42.206253,16.893751,-19.96875,0.42310944,-0.56345356,0.6266658,997.38324,37.8883195,127.73970774,135.424560546875,1.72
2025-04-06 16:40:26.092,4.938786,-10.542776,-1.9669002,0.16554436,-0.07864884,3.2184174,-42.05625,19.10625,-19.893751,0.40587223,-0.5755458,0.63772625,997.38324,37.8883195,127.73970774,135.424560546875,1.72
2025-04-06 16:40:26.113,5.1469617,-10.530812,-1.9908284,0.03848448,-0.23258677,3.4609308,-41.71875,21.65625,-19.95,0.3876283,-0.588994,0.6476353,997.38324,37.8883195,127.73970774,135.424560546875,1.72
2025-04-06 16:40:26.132,5.759524,-10.3848505,-1.8113668,-0.07574723,-0.3755291,3.6564076,-40.350002,24.6,-20.325,0.36842427,-0.60367906,0.6560248,997.3654,37.8883195,127.73970774,135.424560546875,1.72
2025-04-06 16:40:26.152,6.884151,-10.164711,-1.3040884,-0.23212862,-0.39629853,3.730933,-38.79375,28.331251,-22.275002,0.34825453,-0.6189531,0.6627973,997.3449,37.8883195,127.73970774,135.424560546875,1.72
2025-04-06 16:40:26.172,7.3340015,-10.255638,-0.6987042,-0.28832817,-0.398742,3.6930594,-38.23125,31.687502,-24.6,0.32742146,-0.63396496,0.66800374,997.3449,37.8883195,127.73970774,135.424560546875,1.72
2025-04-06 16:40:26.193,7.8436728,-10.47817,-0.41635114,-0.3090976,-0.35964665,3.7107744,-36.9375,35.456253,-25.237501,0.30106273,-0.651519,0.6729385,997.33344,37.8883195,127.73970774,135.424560546875,1.72
2025-04-06 16:40:26.212,8.729017,-10.564312,-1.0504491,-0.4508182,0.014813471,3.753535,-36.6375,36.54375,-25.3875,0.27841014,-0.6646479,0.6760076,997.33344,37.8883195,127.73970774,135.424560546875,1.72
2025-04-06 16:40:26.232,10.078569,-10.171889,-1.1270195,-0.8155045,0.4479166,3.631362,-36.35625,38.25,-24.281252,0.2522468,-0.677793,0.67766744,997.321,37.8883195,127.73970774,135.424560546875,1.72
2025-04-06 16:40:26.252,10.612168,-9.272188,0.31585258,-1.0879502,0.49556404,3.3137124,-34.518753,40.631252,-22.48125,0.22533685,-0.69130296,0.6765599,997.321,37.8883195,127.73970774,135.424560546875,1.72
2025-04-06 16:40:26.274,10.470992,-8.1738825,1.9860427,-0.96822065,0.13698642,2.9392521,-32.8875,43.275,-22.6875,0.20104471,-0.7038665,0.6736076,997.3271,37.8883195,127.73970774,135.424560546875,1.72
2025-04-06 16:40:26.292,10.559526,-7.8699937,2.7445676,-0.5552761,-0.5441278,2.6228242,-31.1625,46.143753,-21.50625,0.18211038,-0.71392834,0.6706181,997.3271,37.8883195,127.73970774,135.424560546875,1.72
2025-04-06 16:40:26.312,10.3848505,-7.9704924,2.1128623,-0.0042760535,-1.0615302,2.4316237,-29.025002,48.487503,-20.587502,0.16992666,-0.7203418,0.6691806,997.35004,37.8883195,127.73970774,135.424560546875,1.72
2025-04-06 16:40:26.333,11.282159,-7.908279,-0.19621146,0.24862197,-1.0370957,2.2789073,-27.093752,50.550003,-19.875,0.1594005,-0.72382367,0.67015254,997.35004,37.8883195,127.73970774,135.424560546875,1.72
2025-04-06 16:40:26.353,12.265609,-7.556534,-0.9906286,0.1508836,-0.78786284,2.0266201,-25.368752,52.425003,-18.65625,0.15171544,-0.72555363,0.67092305,997.3625,37.8883195,127.73970774,135.424560546875,1.72
2025-04-06 16:40:26.372,12.966706,-7.0803623,-0.3493521,0.011606431,-0.68707013,1.6387211,-23.8125,53.7,-18.431252,0.14503393,-0.72742915,0.6706602,997.3625,37.8883195,127.73970774,135.424560546875,1.72
2025-04-06 16:40:26.392,13.603197,-7.322037,0.43070808,0.047647454,-0.7371611,1.137812,-22.2,54.881252,-17.98125,-0.14130792,0.728781,-0.66997373,997.35785,37.88831223,127.73969252,135.4761962890625,1.66
2025-04-06 16:40:26.412,13.8353,-8.616554,0.30388847,0.13988803,-0.85750145,0.59108806,-20.868752,55.687504,-17.868752,-0.14198887,0.72870564,-0.6697588,997.35785,37.88831223,127.73969252,135.4761962890625,1.66
2025-04-06 16:40:26.432,13.801801,-9.652647,-0.23928227,0.124616414,-0.9674571,0.087124586,-20.118752,56.362503,-17.681252,-0.14712608,0.7274799,-0.6697936,997.35785,37.88831223,127.73969252,135.4761962890625,1.66
2025-04-06 16:40:26.453,13.313665,-10.980663,-0.11724831,-0.10506874,-1.0028872,-0.46143198,-19.612501,56.8875,-17.1,-0.15624446,0.7261856,-0.6689966,997.3642,37.88831223,127.73969252,135.4761962890625,1.66
2025-04-06 16:40:26.473,12.593426,-11.32523,2.28036,-0.2254091,-1.1067343,-0.8560506,-20.0625,57.2625,-15.76875,-0.1721186,0.7251476,-0.66617924,997.3752,37.88831223,127.73969252,135.4761962890625,1.66
2025-04-06 16:40:26.493,12.165111,-10.782059,4.4410787,0.043371398,-1.2551744,-1.2213478,-20.362501,57.2625,-15.450001,-0.18807973,0.7227658,-0.6644698,997.3752,37.88831223,127.73969252,135.4761962890625,1.66
2025-04-06 16:40:26.513,11.387443,-10.619347,5.491528,0.44837475,-1.5184572,-1.6929353,-21.525002,56.8875,-14.7375,-0.20765918,0.7169282,-0.66499627,997.394,37.88831223,127.73969252,135.4761962890625,1.66
2025-04-06 16:40:26.532,10.320244,-11.274981,5.2809596,0.83810645,-1.8978041,-2.0215807,-22.3125,56.49375,-14.418751,-0.23162521,0.7071222,-0.6675887,997.394,37.88831223,127.73969252,135.4761962890625,1.66
2025-04-06 16:40:26.553,9.487542,-12.150753,4.979464,1.1020001,-2.6461134,-2.3111305,-23.681252,55.818752,-14.400001,-0.26040545,0.6939123,-0.670762,997.43256,37.88831223,127.73969252,135.4761962890625,1.66
2025-04-06 16:40:26.572,9.334401,-12.354143,4.9674997,1.1575887,-3.3156214,-2.5224898,-25.556252,54.825,-14.043751,-0.29486385,0.67803645,-0.6724683,997.43256,37.88831223,127.73969252,135.4761962890625,1.66
2025-04-06 16:40:26.593,9.363115,-11.992827,6.2261243,1.0787872,-3.7701046,-2.7161338,-27.806252,53.5125,-13.25625,-0.33373487,0.6603201,-0.6714639,997.4638,37.88831223,127.73969252,135.4761962890625,1.66
2025-04-06 16:40:26.613,9.84168,-10.861022,8.260024,1.1300999,-4.269792,-3.095481,-30.393751,51.825,-12.637501,-0.37628946,0.6403629,-0.6676124,997.4638,37.88831223,127.73969252,135.4761962890625,1.66
2025-04-06 16:40:26.632,8.673982,-10.296316,10.317851,1.3768892,-4.527577,-3.741165,-33.15,49.968754,-11.137501,-0.43537956,0.6089388,-0.6600583,997.4992,37.88831223,127.73969252,135.4761962890625,1.66
2025-04-06 16:40:26.653,6.7764735,-10.535598,9.159725,1.6181808,-4.026668,-3.8828857,-35.98125,47.71875,-9.0,-0.48337686,0.5777574,-0.65386915,997.4992,37.88831223,127.73969252,135.4761962890625,1.66
2025-04-06 16:40:26.673,6.0897336,-11.07159,6.6185474,1.5381575,-2.585027,-3.7203956,-39.487503,43.3875,-5.25,-0.53329676,0.53699756,-0.6493955,997.5361,37.88831223,127.73969252,135.4761962890625,1.66
2025-04-06 16:40:26.692,5.871987,-10.908878,5.3240304,1.3206897,-1.5917609,-3.4937646,-40.6875,41.60625,-3.9,-0.55564725,0.51414114,-0.6494372,997.5361,37.88831223,127.73969252,135.4761962890625,1.66
2025-04-06 16:40:26.712,7.314859,-10.805987,5.204389,1.1227695,-0.75976306,-3.294623,-42.54375,38.550003,-1.9875001,-0.5775662,0.48666456,-0.6523201,997.5363,37.88831223,127.73969252,135.4761962890625,1.66
2025-04-06 16:40:26.732,8.535198,-11.093125,5.359923,1.2027928,-0.7402154,-3.434511,-43.6875,35.362503,-0.31875002,-0.59564453,0.4597738,-0.65650344,997.5363,37.88831223,127.73969252,135.4761962890625,1.66
2025-04-06 16:40:26.752,8.441878,-11.796616,4.220939,1.3891065,-0.9619593,-3.6538112,-44.5125,32.287502,1.06875,-0.61416906,0.43045425,-0.6600759,997.5214,37.88831223,127.73969252,135.4761962890625,1.66
2025-04-06 16:40:26.774,7.0133634,-11.937792,2.0673988,1.3017528,-0.9808961,-3.7466629,-45.375,27.73125,3.45,-0.6386435,0.39095387,-0.6621235,997.5214,37.88831223,127.73969252,135.4761962890625,1.66
2025-04-06 16:40:26.792,6.0323057,-11.734403,1.2514462,1.0690134,-0.73960453,-3.6202137,-45.9,25.9125,4.425,-0.6566197,0.36026955,-0.66236275,997.4936,37.88831223,127.73969252,135.4761962890625,1.66
2025-04-06 16:40:26.813,5.6997037,-11.753545,1.1030912,0.8509346,-0.41523534,-3.4613888,-46.59375,22.143751,6.2812505,-0.6713087,0.33210424,-0.6625892,997.4936,37.88831223,127.73969252,135.4761962890625,1.66
2025-04-06 16:40:26.833,4.465007,-12.413964,0.3278167,0.64201885,-0.08231403,-3.2915685,-47.325,16.725,8.118751,0.6827085,-0.30589655,0.66351813,997.45526,37.88831223,127.73969252,135.4761962890625,1.66
2025-04-06 16:40:26.852,2.440679,-12.569497,0.32542387,0.49296787,0.035582874,-2.9794166,-47.41875,15.13125,8.512501,0.69130903,-0.28219962,0.66475374,997.45526,37.88831223,127.73969252,135.4761962890625,1.66
2025-04-06 16:40:26.872,0.33738798,-12.033505,0.6053841,0.5345067,-0.06520981,-2.449797,-47.7,11.4375,9.225,0.6979812,-0.26165006,0.66560894,997.4289,37.88831223,127.73969252,135.4761962890625,1.66
2025-04-06 16:40:26.892,-0.95473623,-11.19841,-0.047856454,0.686612,-0.24846925,-1.7418046,-47.775,8.137501,9.243751,0.70370054,-0.24448118,0.66563386,997.4289,37.88831223,127.73969252,135.4761962890625,1.66
2025-04-06 16:40:26.912,-0.930808,-10.660025,-1.68694,0.66339916,-0.2771799,-1.1272746,-47.49375,5.30625,9.356251,0.70880777,-0.23129469,0.6647665,997.4289,37.88831223,127.73969252,135.4761962890625,1.66
2025-04-06 16:40:26.932,-1.6917256,-10.590633,-2.78046,0.36163196,-0.007177661,-0.57260936,-47.11875,3.05625,9.75,0.7122699,-0.22282322,0.6639811,997.4028,37.88831223,127.73969252,135.4761962890625,1.66
2025-04-06 16:40:26.952,-3.2183464,-10.408778,-2.2061825,-0.0048869182,0.33307403,0.30703592,-46.65,1.725,10.087501,0.7117753,-0.22122622,0.6651772,997.37445,37.88831223,127.73969252,135.4761962890625,1.66
2025-04-06 16:40:26.973,-2.6943183,-9.58804,-0.79920274,-0.051923506,0.30558512,1.3522255,-46.331253,0.65625,10.650001,0.7077368,-0.22814342,0.6674956,997.37445,37.88831223,127.73969252,135.4761962890625,1.66
2025-04-06 16:40:26.992,-0.5838487,-8.733803,0.15792629,0.08002329,0.2414443,2.086485,-46.29375,0.7875,10.575001,0.7018517,-0.24058506,0.66990405,997.35223,37.88831223,127.73969252,135.4761962890625,1.66
2025-04-06 16:40:27.012,1.8711873,-8.585447,0.6867401,0.32009315,0.21456626,2.5024838,-46.48125,1.3875,10.575001,0.6944228,-0.25599992,0.6724011,997.35223,37.88831223,127.73969252,135.4761962890625,1.66
