Time,Accel_X,Accel_Y,Accel_Z,Gyro_X,Gyro_Y,Gyro_Z,Mag_X,Mag_Y,Mag_Z,Orient_X,Orient_Y,Orient_Z,Pressure,Lat,Lng,Alt,Speed
2025-08-22 20:12:00.026,-0.60777694,4.5631127,9.889536,0.16951497,-0.117362395,-0.06696605,29.156252,-31.85625,-31.837502,0.15860459,0.18526068,0.6972293,994.43524,37.88835264,127.73981994,146.06396484375,0.0
2025-08-22 20:12:00.051,-0.6412765,4.505685,9.793823,0.19211698,-0.10942116,-0.06269,29.156252,-31.85625,-31.837502,0.15902334,0.1853868,0.6970055,994.43524, , , , 
2025-08-22 20:12:00.065,-0.7752745,4.5224347,8.992228,0.2525926,-0.07887791,-0.03825541,32.2125,-32.79375,-32.568752,0.15997379,0.18586908,0.69655395,994.4172, , , , 
2025-08-22 20:12:00.086,-0.35653058,4.9435716,8.047063,0.12492185,-0.13568833,0.07903063,31.9125,-32.081253,-32.11875,0.16234508,0.18687469,0.6960534,994.4172, , , , 
2025-08-22 20:12:00.105,0.08853444,4.4674,8.508878,0.01802051,-0.11919499,0.030772313,29.437502,-31.725,-29.56875,0.16378547,0.1862531,0.6961471,994.41205, , , , 
2025-08-22 20:12:00.125,-0.40917268,4.091727,8.774481,0.03695732,-0.036728244,0.019776747,28.5375,-31.931252,-30.69375,0.16440271,0.18589021,0.69610834,994.41205, , , , 
2025-08-22 20:12:00.145,0.11724831,4.6085763,7.984849,-0.052839804,-0.083764836,0.058872093,29.56875,-31.837502,-29.718752,0.16477276,0.18555255,0.69631904,994.39935, , , , 
2025-08-22 20:12:00.166,0.28953153,5.1661043,8.240881,-0.20861033,-0.15218168,-0.021151192,29.118752,-32.11875,-32.1375,0.16495793,0.18378463,0.6965546,994.39935, , , , 
2025-08-22 20:12:00.185,-0.25124636,4.476971,9.226724,-0.1707367,-0.10881029,-0.08773545,27.69375,-33.2625,-30.675001,0.1645022,0.18166633,0.6962823,994.4045, , , , 
2025-08-22 20:12:00.207,-0.0741775,4.465007,9.073584,-0.07299834,-0.14118612,-0.015042545,27.768751,-32.775,-29.94375,0.16432405,0.17962006,0.69593275,994.4045, , , , 
2025-08-22 20:12:00.225,0.10289137,4.6755753,8.580662,-0.013744458,-0.09109521,-0.05291616,30.13125,-30.656252,-31.556252,0.16476005,0.178582,0.69564056,994.4008, , , , 
2025-08-22 20:12:00.245,0.31585258,4.615755,8.389236,0.010690134,-0.10025818,-0.09506583,28.743752,-31.050001,-31.3875,0.16524227,0.17818674,0.6950011,994.4008, , , , 
2025-08-22 20:12:00.265,0.4977071,4.3669014,8.475378,0.011300999,-0.1259145,-0.17386739,27.0375,-31.35,-29.94375,0.16601324,0.17755432,0.6939408,994.39105, , , , 
2025-08-22 20:12:00.287,-0.31106696,4.0271206,8.135597,0.045509428,-0.067271486,-0.24167338,29.343752,-30.225,-31.800001,0.16659246,0.17730442,0.6923201,994.39105, , , , 
2025-08-22 20:12:00.306,-0.64845496,3.5940197,7.1712894,-0.06933315,0.02008218,-0.22640176,28.725,-31.050001,-30.768751,0.16627736,0.17769311,0.6906652,994.39154, , , , 
2025-08-22 20:12:00.326,-0.09332009,4.0007997,6.7501526,-0.50976664,-0.16134466,-0.16470441,28.66875,-31.312502,-30.281252,0.16396224,0.17555909,0.6895966,994.39154, , , , 
2025-08-22 20:12:00.345,-0.44985065,5.8432727,10.188639,-0.16646065,-0.15218168,0.15050182,28.85625,-31.1625,-31.237501,0.16242982,0.17317119,0.6898407,994.3847, , , , 
2025-08-22 20:12:00.366,0.4833502,5.5226345,10.054641,0.14630212,-0.08193224,-0.05780308,28.743752,-30.281252,-32.04375,0.16340278,0.17204955,0.6899997,994.3847, , , , 
2025-08-22 20:12:00.387,0.14356937,5.24746,8.606983,0.19272783,-0.19066617,-0.108504854,28.9125,-30.150002,-31.143751,0.16560873,0.17265116,0.68877757,994.43866, , , , 
2025-08-22 20:12:00.405,-1.3304094,3.5437703,7.240681,-0.022907428,-0.117362395,-0.15004367,29.681252,-29.19375,-31.275002,0.16741465,0.1721607,0.6874735,994.43866, , , , 
2025-08-22 20:12:00.425,0.42831525,4.9842496,7.393822,-0.2855793,-0.04894554,-0.081015944,29.643751,-30.825,-30.243752,0.16625623,0.1711245,0.6869893,994.4726, , , , 
2025-08-22 20:12:00.445,0.5838487,4.8598228,8.7984085,-0.52564913,-0.26763514,-0.22884522,27.525002,-31.29375,-31.85625,0.16432336,0.16759373,0.68645746,994.4726, , , , 
2025-08-22 20:12:00.465,0.21535404,4.0845485,9.080762,-0.43157595,-0.008628465,-0.3265836,26.643751,-29.775002,-30.91875,0.16188091,0.16340359,0.685191,994.4926, , , , 
2025-08-22 20:12:00.487,-0.15314065,3.8333018,7.7886376,-0.19028437,0.84597135,-0.49884745,28.237501,-29.962502,-32.475002,0.15610446,0.16334866,0.68292856,994.4926, , , , 
2025-08-22 20:12:00.506,-2.2229323,4.304688,8.721839,-0.23793183,0.43485937,-0.4237111,29.531252,-27.956251,-32.86875,0.14886719,0.16830984,0.68095875,994.53265, , , , 
2025-08-22 20:12:00.525,-1.6486548,4.2281175,9.425328,-0.3686569,0.3908771,0.061926417,28.48125,-29.212502,-29.1375,0.14358334,0.1691518,0.68093306,994.53265, , , , 
2025-08-22 20:12:00.545,-0.8255238,4.1276193,10.028319,-0.15913028,0.0035888306,0.29772022,27.975,-29.643751,-30.300001,0.14078541,0.16812363,0.6831356,994.54584, , , , 
2025-08-22 20:12:00.565,1.2179468,4.3764725,9.487542,0.2941314,0.6627119,0.14561489,29.118752,-28.275002,-30.0375,0.13987702,0.16979547,0.6850522,994.54584, , , , 
2025-08-22 20:12:00.586,1.052842,4.4075794,10.597812,0.8976658,0.96020305,-0.37056586,30.431252,-27.750002,-31.44375,0.13665953,0.18190207,0.6850361,994.58466, , , , 
2025-08-22 20:12:00.606,-1.1150553,5.2498527,8.580662,0.7009673,-0.047112945,-0.48357582,31.406252,-28.66875,-30.562502,0.13856955,0.19077586,0.68105567,994.58466, , , , 
2025-08-22 20:12:00.625,-1.2227324,4.8095737,8.925228,0.3741547,-0.8730021,-0.26977316,31.050001,-28.95,-30.206251,0.14559399,0.19252242,0.6757425,994.63104, , , , 
2025-08-22 20:12:00.647,-0.06699903,4.5248275,9.382257,0.6692024,-1.9365177,-0.015653409,30.375002,-29.38125,-31.031252,0.15843517,0.18565974,0.6719287,994.63104, , , , 
2025-08-22 20:12:00.666,-0.22013968,4.65404,7.018149,0.3112356,-1.8509966,-0.100563616,28.406252,-29.081251,-31.462502,0.17473459,0.17588808,0.66738904,994.644, , , , 
2025-08-22 20:12:00.687,0.36131623,5.2809596,5.5657053,-0.18661919,-0.11308634,0.4418843,27.337502,-29.94375,-31.143751,0.18135849,0.17039384,0.66660756,994.644, , , , 
2025-08-22 20:12:00.708,2.0865414,4.6755753,8.427522,-1.2263111,-0.27801985,0.15355614,28.406252,-29.831251,-32.04375,0.17838095,0.16129802,0.67081463,994.62006, , , , 
2025-08-22 20:12:00.727,1.0552348,4.938786,10.444671,-0.96425,-0.15340342,-0.32841617,26.306252,-27.806252,-30.993752,0.17366111,0.15453596,0.67118806,994.62006, , , , 
2025-08-22 20:12:00.747,-0.23928227,3.8500516,10.286744,-0.5574141,-0.38064513,-0.26855144,26.1375,-28.06875,-32.5125,0.16928361,0.14859502,0.6698103,994.6391, , , , 
2025-08-22 20:12:00.765,0.09810573,4.1347976,10.358529,-0.2611447,-0.73311406,-0.18669555,26.250002,-28.181252,-32.362503,0.16963968,0.14223057,0.6679279,994.6391, , , , 
2025-08-22 20:12:00.785,0.06699903,3.6729827,9.853643,-0.120034926,-0.41974047,0.018555017,26.025002,-29.306252,-33.05625,0.17267574,0.13604149,0.66649145,994.6579, , , , 
2025-08-22 20:12:00.805,0.3804588,3.9601214,9.164511,-0.20005822,-0.039171703,0.030772313,25.275002,-28.650002,-31.781252,0.17292742,0.13363257,0.6666272,994.6579, , , , 
2025-08-22 20:12:00.825,0.014356935,4.063013,9.329616,-0.27030766,0.123929195,0.05215258,24.768751,-28.218752,-31.44375,0.17074232,0.13234678,0.6673253,994.684, , , , 
2025-08-22 20:12:00.845,0.0526421,4.098905,9.521041,-0.17012584,0.113544494,0.074143715,24.956251,-27.31875,-31.81875,0.16888508,0.13185784,0.6680793,994.684, , , , 
2025-08-22 20:12:00.866,0.49292147,4.3070807,9.403793,0.023518294,-0.06971494,-0.010766491,24.112501,-28.650002,-32.568752,0.16801307,0.13149847,0.6686473,994.7004, , , , 
2025-08-22 20:12:00.885,-0.059820566,4.0965123,9.276974,0.091324285,-0.17722714,0.04421134,25.593752,-26.493752,-33.9375,0.16937013,0.13097574,0.66826457,994.7004, , , , 
2025-08-22 20:12:00.905,0.83988076,4.213761,8.865408,0.062002774,-0.091706075,0.17554727,23.2875,-28.35,-32.193752,0.17159414,0.13025369,0.66912967,994.69525, , , , 
2025-08-22 20:12:00.925,0.91405827,4.3334017,8.717052,-0.0650571,0.021303909,0.1004109,24.300001,-27.750002,-33.2625,0.17167802,0.12975366,0.6699883,994.69525, , , , 
2025-08-22 20:12:00.945,0.50009996,4.1611185,9.162118,-0.1188132,0.26626068,0.027107125,25.29375,-27.900002,-32.737503,0.16968696,0.13014281,0.670749,994.68427, , , , 
2025-08-22 20:12:00.965,0.14596218,4.106084,9.288938,-0.024740024,0.1862374,0.0112246405,23.456251,-27.468752,-31.650002,0.1676118,0.13135186,0.67138547,994.68427, , , , 
2025-08-22 20:12:00.985,0.023928227,4.4458647,8.903693,0.021685699,0.012751802,-0.027259842,24.187502,-29.00625,-32.71875,0.16713701,0.13201888,0.6713801,994.67596, , , , 
2025-08-22 20:12:01.005,0.34456646,4.017549,9.399008,0.035124727,0.031688612,0.063759014,24.993752,-28.66875,-32.831253,0.16717675,0.13228126,0.6714486,994.67596, , , , 
2025-08-22 20:12:01.026,0.61734825,3.7878382,9.516255,0.15302163,0.10560325,0.04054615,24.50625,-27.35625,-32.081253,0.16738734,0.13314834,0.6719632,994.6547,37.88835264,127.73981994,146.06396484375,0.0
2025-08-22 20:12:01.046,0.5455636,4.106084,9.332008,0.21716243,0.07078396,-0.15370885,24.750002,-29.19375,-34.0125,0.16786788,0.1349809,0.6716037,994.6547, , , , 
2025-08-22 20:12:01.066,-0.03589234,4.28076,8.671589,0.17562363,-0.01962403,-0.19524765,26.156252,-27.300001,-33.487503,0.16929784,0.13711971,0.66960347,994.6408, , , , 
2025-08-22 20:12:01.085,-0.8877372,4.06062,8.315059,0.06383537,0.120264,0.12912154,23.94375,-28.781252,-32.7,0.16971374,0.13837701,0.66927767,994.6408, , , , 
2025-08-22 20:12:01.106,0.12203395,4.1922255,8.499306,-0.06444623,0.35422522,0.3899608,24.656252,-28.95,-33.393753,0.16819176,0.1396972,0.6717005,994.62054, , , , 
2025-08-22 20:12:01.126,0.24885355,4.1443686,8.487342,-0.107817635,0.38721192,0.46509716,24.468752,-28.35,-32.943752,0.16546424,0.14130883,0.67550397,994.62054, , , , 
2025-08-22 20:12:01.146,0.39720857,4.0797625,8.874979,-0.13286309,0.11598795,0.39484772,25.95,-27.468752,-31.9125,0.1633562,0.14181794,0.6791762,994.5866, , , , 
2025-08-22 20:12:01.165,1.442872,4.022335,9.868001,-0.015577052,-0.38186684,0.13645191,25.63125,-30.6,-32.775,0.16374892,0.13993171,0.68117714,994.5866, , , , 
2025-08-22 20:12:01.185,1.4979069,3.644269,9.753145,0.24159703,-0.43073604,-0.23984079,23.8125,-28.66875,-32.550003,0.16763069,0.13718586,0.68017024,994.5805, , , , 
2025-08-22 20:12:01.205,-0.36610186,4.074977,8.733803,0.2715294,0.050625417,-0.18913901,23.587502,-29.062502,-32.662502,0.17054339,0.13777654,0.6775016,994.5805, , , , 
2025-08-22 20:12:01.226,-0.15792629,4.4578285,8.12124,0.11270455,0.051236283,0.116293386,23.19375,-28.85625,-32.925003,0.17095542,0.14138557,0.6765961,994.5915, , , , 
2025-08-22 20:12:01.246,1.0839486,4.345366,9.269794,0.116980605,-0.27557638,0.2042579,22.6875,-29.04375,-31.331251,0.17281541,0.14137371,0.6775172,994.5915, , , , 
2025-08-22 20:12:01.265,1.8544376,4.261617,8.805588,0.20433427,-0.47227484,-0.0816268,24.73125,-31.312502,-32.175003,0.17788114,0.13822798,0.6773205,994.5722, , , , 
2025-08-22 20:12:01.285,0.8279166,4.058227,8.685946,0.12797616,-0.26885685,-0.23495387,23.1,-30.73125,-32.662502,0.18292518,0.13509163,0.67540914,994.5722, , , , 
2025-08-22 20:12:01.307,0.7082755,4.26401,8.827123,0.06017018,0.16607887,-0.09812015,22.987501,-29.775002,-31.1625,0.18353032,0.13538814,0.67418563,994.5588, , , , 
2025-08-22 20:12:01.327,0.9954142,4.5822554,8.886943,0.07422007,0.13614649,-0.15431972,24.075,-28.893751,-33.16875,0.18277624,0.13717575,0.6736738,994.5588, , , , 
2025-08-22 20:12:01.345,0.31585258,4.584648,8.666803,0.0980438,-0.09598213,-0.17325652,24.187502,-29.75625,-33.15,0.18332212,0.13800308,0.67274255,994.5512, , , , 
2025-08-22 20:12:01.365,0.7537391,4.517649,8.839087,0.12858704,-0.30367616,-0.22151484,24.16875,-29.00625,-31.95,0.18523672,0.13799524,0.670906,994.5512, , , , 
2025-08-22 20:12:01.385,0.019142581,4.371687,7.7910304,0.13836087,-0.439899,-0.29542947,22.63125,-29.41875,-31.9125,0.18940325,0.13677324,0.66739863,994.5253, , , , 
2025-08-22 20:12:01.405,0.37806597,4.402794,7.314859,0.010079269,-0.5810088,-0.23861906,21.487501,-30.54375,-30.187502,0.19186424,0.13589983,0.6650082,994.5253, , , , 
2025-08-22 20:12:01.425,0.44985065,3.979264,7.3435726,-0.029016078,-1.0599267,-0.29115343,26.212502,-27.675001,-33.0,0.19765231,0.12982951,0.66093427,994.50604, , , , 
2025-08-22 20:12:01.445,-0.22013968,3.333202,7.9011,0.11575887,-1.465541,-0.06146827,23.493752,-29.681252,-34.7625,0.20578755,0.12158105,0.6571278,994.50604, , , , 
2025-08-22 20:12:01.466,1.0480564,2.658426,5.211568,0.24709481,-2.0330343,0.17921245,21.73125,-29.625002,-33.825,0.21900737,0.11024613,0.6538195,994.49286, , , , 
2025-08-22 20:12:01.485,1.8281165,3.0699914,3.5676985,-0.0058032153,-1.6616286,0.18409938,20.587502,-28.85625,-34.818752,0.2319705,0.09770434,0.65080917,994.49286, , , , 
2025-08-22 20:12:01.505,3.2087753,2.158326,2.9479575,-0.29352054,-1.6512438,0.11262819,20.4375,-28.987501,-35.71875,0.24394618,0.08135612,0.64786464,994.4218, , , , 
2025-08-22 20:12:01.525,2.0434706,1.7706888,2.2037897,-0.5213731,-1.8962007,0.060704686,17.6625,-29.643751,-35.550003,0.25253877,0.06619923,0.6443869,994.4218, , , , 
2025-08-22 20:12:01.546,0.74416786,1.0001999,1.6007984,-0.85673785,-2.2657738,0.33559385,17.550001,-27.4125,-37.050003,0.26121798,0.0464255,0.6407537,994.3576, , , , 
2025-08-22 20:12:01.565,-0.15553348,-0.10767702,2.9718857,-1.1890483,-2.1778092,1.0179298,14.437501,-28.462502,-39.15,0.2677493,0.023069099,0.6399647,994.3576, , , , 
2025-08-22 20:12:01.585,1.5840486,-0.7752745,3.199204,-1.0033454,-2.9664357,1.6373466,12.056251,-27.956251,-39.375,0.27579018,-0.005628403,0.6426582,994.30536, , , , 
2025-08-22 20:12:01.605,3.4480574,-0.63888365,0.6843473,-1.1572833,-2.75752,1.8908556,11.118751,-25.425001,-40.818752,0.28623927,-0.036528476,0.647177,994.30536, , , , 
2025-08-22 20:12:01.625,4.130012,-1.8640088,-0.11724831,-1.8744385,-3.2828636,1.8865795,4.9125004,-27.056252,-39.91875,0.2940445,-0.07182509,0.6511626,994.2587, , , , 
2025-08-22 20:12:01.645,3.5102708,-3.4097722,1.3040884,-2.1395538,-4.6059966,2.010585,2.9250002,-24.13125,-43.125,0.3026021,-0.11645153,0.65137154,994.2587, , , , 
2025-08-22 20:12:01.666,4.7282176,-4.634897,1.4883357,-1.7895284,-6.3090878,2.4363577,-0.82500005,-22.518751,-44.2125,0.32580632,-0.18745749,0.6451028,994.20624, , , , 
2025-08-22 20:12:01.685,5.663811,-6.32423,-1.0863415,-2.003331,-6.126439,2.9629233,-7.7625003,-21.243752,-43.55625,0.3469613,-0.24890894,0.6382619,994.20624, , , , 
2025-08-22 20:12:01.705,8.683554,-7.987242,-0.7585248,-2.6593997,-5.5815477,3.534082,-14.812501,-18.375,-42.525,0.35937452,-0.31171486,0.63226473,994.22284, , , , 
2025-08-22 20:12:01.725,11.557333,-8.685946,2.199004,-2.7333145,-5.7721376,3.5212536,-19.725,-15.01875,-40.95,0.3656813,-0.375479,0.62407017,994.22284, , , , 
2025-08-22 20:12:01.746,11.954542,-10.360922,1.6941184,-2.446208,-5.74526,3.6696937,-25.81875,-12.431251,-39.54375,0.37199467,-0.4366228,0.6130085,994.24164, , , , 
2025-08-22 20:12:01.766,12.569497,-11.803794,2.4047868,-2.4773622,-4.8546185,4.152277,-31.2,-7.65,-36.61875,0.37281114,-0.49400175,0.6026178,994.24164, , , , 
2025-08-22 20:12:01.785,13.919049,-12.05504,3.6777685,-2.2849398,-3.5546985,4.4344964,-35.79375,-4.05,-33.5625,0.3633749,-0.54431176,0.59624463,994.27875, , , , 
2025-08-22 20:12:01.805,15.08914,-12.212967,3.7280176,-1.9251404,-2.807611,4.3581386,-36.393753,1.95,-29.681252,0.34262818,-0.59450763,0.59367484,994.27875, , , , 
2025-08-22 20:12:01.825,15.491134,-12.12204,2.6368906,-1.5543455,-2.2498913,4.0899687,-37.912502,6.99375,-26.250002,0.3245314,-0.62693435,0.5931473,994.32196, , , , 
2025-08-22 20:12:01.845,14.914464,-12.29193,1.8975084,-1.3637556,-1.8986441,3.8822749,-38.568752,12.01875,-23.53125,0.3060276,-0.65432703,0.5928772,994.32196, , , , 
2025-08-22 20:12:01.866,14.3569355,-11.808579,1.7778672,-1.2030982,-1.614592,3.7197847,-36.206253,16.25625,-25.725,0.28675452,-0.6778834,0.59278107,994.33417, , , , 
2025-08-22 20:12:01.885,13.959727,-11.643475,1.5194423,-1.0314451,-1.4233913,3.5933356,-37.03125,18.768751,-24.393751,0.26763034,-0.69818693,0.5928466,994.33417, , , , 
2025-08-22 20:12:01.906,14.153546,-11.126625,1.268196,-0.8946115,-1.1057416,3.4045784,-39.693752,21.075,-21.0,0.24830303,-0.71537936,0.59328336,994.3454, , , , 
2025-08-22 20:12:01.926,14.321044,-10.796415,1.146162,-0.7968731,-0.7618247,3.0973134,-38.60625,23.79375,-18.7875,0.22422424,-0.73250157,0.5940251,994.3454, , , , 
2025-08-22 20:12:01.946,13.483556,-9.956535,1.2323036,-0.65881765,-0.42035133,2.738125,-35.04375,27.000002,-17.962502,0.20579587,-0.7429849,0.5947511,994.3381, , , , 
2025-08-22 20:12:01.966,12.861422,-8.874979,0.9954142,-0.5677988,-0.12713623,2.435747,-31.031252,28.781252,-17.25,0.18801676,-0.7510542,0.5957697,994.3381, , , , 
2025-08-22 20:12:01.985,12.023933,-8.111669,0.55752766,-0.58062696,0.25465426,2.0814455,-28.968752,30.750002,-20.04375,0.1708263,-0.7572562,0.5965499,994.3366, , , , 
2025-08-22 20:12:02.005,10.758131,-7.932207,0.45702913,-0.6411026,0.58452123,1.8004476,-27.581251,32.5125,-20.2875,0.15370142,-0.76226276,0.59665185,994.3366, , , , 
2025-08-22 20:12:02.027,9.370294,-7.7240314,0.6939186,-0.6093376,0.79771304,1.636125,-29.212502,32.7,-17.362501,0.13642812,-0.76634455,0.5964278,994.3339,37.88835264,127.73981994,146.06396484375,0.0
2025-08-22 20:12:02.048,8.956335,-7.2263246,0.95473623,-0.46273008,0.7250201,1.5176172,-24.16875,33.600002,-18.712502,0.11550179,-0.7701581,0.59654766,994.3339, , , , 
2025-08-22 20:12:02.067,9.001799,-6.8745794,0.8255238,-0.34727663,0.5955168,1.4296527,-25.275002,35.362503,-19.612501,0.10417087,-0.7717376,0.59705704,994.3327, , , , 
2025-08-22 20:12:02.087,9.169296,-6.192625,0.5192425,-0.22143848,0.37132943,1.2182934,-21.31875,36.131252,-18.525002,0.088555686,-0.7735152,0.5983097,994.3327, , , , 
2025-08-22 20:12:02.107,8.851051,-5.986842,0.46660042,-0.15913028,0.28397575,1.0741293,-21.806252,36.693752,-18.206251,0.07876412,-0.77445096,0.5993236,994.3483, , , , 
2025-08-22 20:12:02.125,9.35833,-5.910272,0.8853444,-0.035124727,0.08239039,0.98249966,-21.91875,35.4375,-17.5125,0.070667975,-0.77497596,0.60062927,994.3483, , , , 
2025-08-22 20:12:02.146,10.492527,-5.3814583,0.97866446,0.14019346,-0.10025818,0.8303943,-20.325,36.73125,-18.825,0.06512651,-0.77471703,0.602818,994.3503, , , , 
2025-08-22 20:12:02.165,11.545369,-4.759324,0.5814559,0.21655156,-0.16623157,0.48953176,-18.73125,38.025,-19.368752,0.06258722,-0.77369726,0.60531634,994.3503, , , , 
2025-08-22 20:12:02.185,11.794223,-4.5152564,0.6843473,0.21044292,-0.2615265,0.16149737,-20.0625,38.625,-19.893751,0.06294124,-0.7728192,0.6067459,994.3503, , , , 
2025-08-22 20:12:02.205,10.987842,-4.194618,1.7659031,0.29657486,-0.43501207,-0.08590286,-20.1375,37.631252,-19.2,0.06734099,-0.77118963,0.60863703,994.36273, , , , 
2025-08-22 20:12:02.226,11.966506,-3.5389848,2.8402805,0.5696314,-0.55290896,-0.20685409,-20.737501,37.55625,-19.143751,0.07479085,-0.76815796,0.61203647,994.3737, , , , 
2025-08-22 20:12:02.245,13.172488,-3.2087753,3.0963125,0.8952223,-0.5321396,-0.48540843,-20.60625,36.9375,-16.95,0.08329202,-0.7634859,0.6168383,994.3737, , , , 
2025-08-22 20:12:02.265,14.07219,-3.9888353,2.347359,1.2073742,-0.5278635,-0.92950714,-20.38125,37.10625,-19.7625,0.09506835,-0.75636345,0.62328553,994.3979, , , , 
2025-08-22 20:12:02.286,14.311472,-5.386244,1.1294123,1.4553853,-0.86445004,-1.4389683,-22.050001,34.575,-20.38125,0.111632824,-0.747357,0.6303626,994.3979, , , , 
2025-08-22 20:12:02.306,14.3569355,-7.075577,-0.3804588,1.4840959,-1.2071452,-1.7236314,-24.975,34.425003,-22.6875,0.13338216,-0.73752725,0.63692814,994.4045, , , , 
2025-08-22 20:12:02.326,15.409778,-8.475378,-1.2849457,1.2537999,-1.2248602,-1.9661447,-25.275002,33.6375,-22.143751,0.15780719,-0.7280178,0.6415731,994.4045, , , , 
2025-08-22 20:12:02.345,16.378872,-9.664611,-1.2394822,0.92271125,-1.1173481,-2.2770748,-27.862501,32.49375,-21.806252,0.18323001,-0.7194669,0.643025,994.40765, , , , 
2025-08-22 20:12:02.365,17.036898,-10.607383,0.31106696,0.603229,-0.75449437,-2.7840927,-29.812502,31.781252,-18.9375,0.21594591,-0.7092848,0.6405892,994.40765, , , , 
2025-08-22 20:12:02.387,15.92902,-10.334601,0.9667004,0.51709706,-0.045891218,-3.1597745,-30.281252,29.362501,-19.518751,0.24076076,-0.69927704,0.63745284,994.4008, , , , 
2025-08-22 20:12:02.405,14.490934,-9.95175,1.3878372,0.5366447,0.6248383,-3.4358852,-37.66875,26.1375,-19.95,0.2625646,-0.6865168,0.6346009,994.4008, , , , 
2025-08-22 20:12:02.426,13.77548,-9.875179,1.7706888,0.7687733,0.7103594,-3.6710682,-37.3875,25.81875,-23.212502,0.27808204,-0.6749745,0.63283455,994.4008, , , , 
2025-08-22 20:12:02.446,13.505091,-10.2317095,0.66759753,1.1310161,0.36888596,-3.9636724,-35.30625,23.04375,-24.187502,0.30712137,-0.6520525,0.6300404,994.4191, , , , 
2025-08-22 20:12:02.465,12.794423,-10.695917,-1.1078769,1.1780528,-0.009850195,-4.173199,-37.256252,17.118752,-22.575,0.3344132,-0.63158107,0.6263365,994.4433, , , , 
2025-08-22 20:12:02.487,11.406586,-11.01177,-1.9310079,0.82069683,-0.30428702,-4.281322,-38.268753,11.306251,-23.831251,0.37118065,-0.6068376,0.6168354,994.4433, , , , 
2025-08-22 20:12:02.506,10.492527,-10.999805,-1.6510476,0.51465356,-0.22182028,-4.2245116,-42.0,8.793751,-22.6875,0.39920363,-0.5886209,0.60552984,994.4384, , , , 
2025-08-22 20:12:02.525,9.844072,-10.504492,-1.4117653,0.309403,-0.045280352,-4.0943975,-41.775,4.8375,-23.25,0.41795865,-0.57543343,0.59609646,994.4384, , , , 
2025-08-22 20:12:02.546,9.190832,-10.107283,-1.3926228,0.025961753,0.23266312,-3.8311148,-43.0125,0.8625,-23.8125,0.44428644,-0.5541098,0.57991356,994.445, , , , 
2025-08-22 20:12:02.565,9.221938,-9.379865,-0.27996024,-0.12614357,0.49594584,-3.6637378,-43.518753,-2.1937501,-21.581251,0.46068978,-0.5376121,0.56707525,994.445, , , , 
2025-08-22 20:12:02.587,8.422736,-8.595019,0.4426722,0.030237807,0.472733,-3.5574474,-43.350002,-3.7875001,-23.831251,0.47527483,-0.520242,0.55486625,994.4631, , , , 
2025-08-22 20:12:02.605,6.9894347,-7.8963146,-0.3062813,0.18661919,0.2851975,-3.3601382,-43.3875,-6.76875,-23.493752,0.49014744,-0.50261956,0.54300696,994.4631, , , , 
2025-08-22 20:12:02.625,5.7954164,-7.0301127,-0.44745782,0.17928882,0.269315,-3.0730317,-40.5,-10.06875,-25.931252,0.50437415,-0.48593864,0.53130406,994.48285, , , , 
2025-08-22 20:12:02.645,4.718646,-6.209375,-0.2321038,0.21288638,0.3004691,-2.7492733,-40.93125,-12.337501,-26.831251,0.5165688,-0.46994594,0.5207271,994.48285, , , , 
2025-08-22 20:12:02.667,3.65384,-5.613562,-0.863809,0.27580544,0.06223185,-2.3876414,-40.162502,-14.156251,-24.50625,0.53048515,-0.45198488,0.508746,994.49994, , , , 
2025-08-22 20:12:02.687,2.6919255,-5.1661043,-2.132005,0.11331542,0.018249584,-1.9618686,-40.66875,-16.050001,-26.6625,0.5402792,-0.4405781,0.49971217,994.49994, , , , 
2025-08-22 20:12:02.707,2.7014968,-4.9866424,-2.0841484,-0.20799945,0.040240716,-1.5043309,-38.568752,-19.331251,-24.825,0.5467416,-0.43274814,0.49150616,994.50946, , , , 
2025-08-22 20:12:02.726,2.3353949,-4.666004,-0.83988076,-0.33750278,-0.040393434,-1.0419062,-38.15625,-19.650002,-26.868752,0.5500879,-0.42840883,0.48443297,994.50946, , , , 
2025-08-22 20:12:02.746,2.0697916,-4.520042,-0.9092726,-0.32162032,-0.19372049,-0.4566978,-39.825,-21.956251,-25.0125,0.551688,-0.4272699,0.4791961,994.5285, , , , 
2025-08-22 20:12:02.766,2.1942184,-4.9603214,-1.1676974,-0.39553493,-0.28840452,0.013057235,-39.300003,-21.50625,-25.556252,0.5516671,-0.42955804,0.47575518,994.5285, , , , 
2025-08-22 20:12:02.786,1.7252251,-5.558527,-0.5838487,-0.47800168,-0.27557638,0.55428344,-39.037502,-19.612501,-26.625002,0.54934007,-0.4351787,0.47424623,994.5341, , , , 
2025-08-22 20:12:02.805,1.7922242,-5.6614184,0.05742774,-0.4535671,-0.25480697,1.1346049,-38.4375,-20.0625,-24.50625,0.5440972,-0.44381186,0.47578892,994.5341, , , , 
2025-08-22 20:12:02.827,1.9286151,-6.0490556,0.1794617,-0.37843072,-0.13752094,1.7112613,-37.93125,-19.237501,-27.375002,0.5340046,-0.45772877,0.48234823,994.5424, , , , 
2025-08-22 20:12:02.846,2.4717858,-6.151947,0.37806597,-0.25625777,-0.11247548,2.1480296,-39.600002,-17.306252,-26.23125,0.5233698,-0.4705817,0.4911382,994.5424, , , , 
2025-08-22 20:12:02.865,3.2063823,-6.1902323,-0.19621146,-0.16707152,-0.15645774,2.4149776,-40.800003,-15.187501,-25.9125,0.51462466,-0.48098513,0.4990828,994.5424, , , , 
2025-08-22 20:12:02.887,3.8739798,-6.843473,-1.5170496,-0.2886336,-0.13629921,2.6733735,-41.34375,-12.01875,-24.806252,0.49861392,-0.49973193,0.5130904,994.55853, , , , 
2025-08-22 20:12:02.906,3.9218364,-7.716853,-1.1988041,-0.4327977,-0.1674533,2.9403212,-39.581253,-9.1125,-24.993752,0.48325002,-0.51634246,0.5243416,994.5578, , , , 
2025-08-22 20:12:02.926,4.802395,-8.953942,-0.95712906,-0.4725039,-0.37881252,3.362429,-40.350002,-7.70625,-23.60625,0.46137595,-0.5400265,0.5385073,994.5578, , , , 
2025-08-22 20:12:02.948,6.463014,-9.91825,-1.0049855,-0.5158753,-0.45272717,3.7216172,-42.787502,-5.5687504,-26.868752,0.4415716,-0.56099015,0.5502109,994.55927, , , , 
2025-08-22 20:12:02.965,8.042277,-10.856236,-0.7465607,-0.61117023,-0.3995819,3.994063,-42.73125,-3.5812502,-24.056252,0.4191376,-0.5828956,0.5619123,994.55927, , , , 
2025-08-22 20:12:02.986,8.970692,-11.533405,-0.3397808,-0.6459895,-0.30489787,4.1534986,-43.74375,0.7875,-24.056252,0.3940257,-0.60447437,0.5735434,994.5578, , , , 
2025-08-22 20:12:03.005,9.159725,-12.327823,-0.43788654,-0.6960804,-0.2022726,4.3471427,-40.93125,4.05,-22.21875,0.36676037,-0.62534297,0.5848516,994.5578, , , , 
2025-08-22 20:12:03.025,10.18146,-12.8111725,-0.02632105,-0.77854717,0.050625417,4.6061497,-40.7625,9.28125,-21.6,0.33626643,-0.6455203,0.5959479,994.5534,37.88835264,127.73981994,146.06396484375,0.0
2025-08-22 20:12:03.045,11.916257,-12.5551405,0.33738798,-0.7797689,0.22044583,4.654408,-40.59375,15.431251,-27.225,0.3028694,-0.6641416,0.6066918,994.5534, , , , 
2025-08-22 20:12:03.066,12.9954195,-12.177074,0.17467605,-0.83719015,0.28947353,4.467483,-40.65,18.73125,-19.06875,0.26888794,-0.6806395,0.61601245,994.5485, , , , 
2025-08-22 20:12:03.086,13.244273,-11.933006,0.72263247,-0.9111048,0.19723296,4.1363945,-34.48125,24.243752,-23.587502,0.22812666,-0.6988315,0.624153,994.5485, , , , 
2025-08-22 20:12:03.106,13.134204,-11.693725,1.6941184,-0.78709924,-0.13324489,3.9152615,-32.25,25.10625,-23.550001,0.19896029,-0.71169275,0.6284139,994.54755, , , , 
2025-08-22 20:12:03.126,13.2921295,-10.779666,1.6534405,-0.5745183,-0.37453645,3.6837437,-32.7,27.16875,-24.243752,0.17346925,-0.7224364,0.63211244,994.54755, , , , 
2025-08-22 20:12:03.146,12.677175,-9.767502,1.5625132,-0.5280926,-0.14607304,3.4406195,-31.48125,29.1375,-20.625,0.15020926,-0.73117495,0.6352343,994.5402, , , , 
2025-08-22 20:12:03.165,12.849458,-8.76491,2.0482562,-0.5366447,0.43180504,3.1974952,-27.393751,30.431252,-22.2,0.12572849,-0.7380142,0.63785875,994.5402, , , , 
2025-08-22 20:12:03.185,12.325429,-7.9011,2.160719,-0.40958482,0.6779835,2.8841217,-25.556252,31.725,-20.306252,0.100613005,-0.742643,0.6403315,994.53973, , , , 
2025-08-22 20:12:03.206,12.0023985,-7.0779696,1.4189439,-0.2623664,0.63766646,2.5878522,-22.7625,34.518753,-21.69375,0.077407524,-0.74535733,0.6429818,994.53973, , , , 
2025-08-22 20:12:03.225,12.165111,-6.257231,0.9284152,-0.16646065,0.6230057,2.3111305,-20.04375,36.525,-20.7,0.05675484,-0.74684936,0.6455077,994.5361, , , , 
2025-08-22 20:12:03.246,12.602997,-5.4221363,-0.29192436,-0.16890411,0.81603897,2.0179155,-16.893751,36.112503,-21.150002,0.03792907,-0.74742377,0.64769244,994.5361, , , , 
2025-08-22 20:12:03.266,12.839887,-4.6731825,-0.81834537,-0.35766134,1.1373539,1.6611704,-16.575,36.2625,-21.0375,0.015315749,-0.74822783,0.6482902,994.528, , , , 
2025-08-22 20:12:03.285,12.837494,-4.6396832,0.13399807,-0.36743516,1.1214714,1.383227,-13.462501,38.34375,-23.643751,-0.0019053451,-0.74909997,0.6471521,994.528, , , , 
2025-08-22 20:12:03.306,13.189239,-4.84068,0.45224348,-0.14691298,0.57413656,1.1144464,-12.76875,37.65,-20.90625,-0.015418027,-0.74933547,0.6464563,994.5151, , , , 
2025-08-22 20:12:03.325,14.136796,-5.4795637,0.076570325,0.14630212,-0.24686573,0.8566615,-9.7875,38.0625,-19.237501,-0.022166593,-0.74876577,0.6474099,994.5151, , , , 
2025-08-22 20:12:03.345,15.821343,-6.2787666,-0.44745782,0.3265072,-0.8723913,0.54206616,-9.900001,38.8125,-20.962502,-0.021587256,-0.74774295,0.64985484,994.5336, , , , 
2025-08-22 20:12:03.365,18.38645,-7.1712894,-0.5312066,0.31245732,-0.9579123,0.049709123,-10.81875,39.3375,-21.525002,-0.01338034,-0.7464927,0.65298915,994.5336, , , , 
2025-08-22 20:12:03.386,19.604397,-8.128419,-0.5192425,0.17379104,-0.56879145,-0.5965858,-10.368751,40.0125,-21.91875,-0.0033398848,-0.7458505,0.6538652,994.5307, , , , 
2025-08-22 20:12:03.405,19.42972,-7.920243,-0.02632105,0.06994402,-0.003130682,-1.1787399,-8.793751,38.4375,-22.29375,0.007779386,-0.7452757,0.65297353,994.5307, , , , 
2025-08-22 20:12:03.425,19.3364,-8.013563,0.35413775,0.06383537,0.44035715,-1.8995603,-11.26875,37.706253,-23.38125,0.020177197,-0.7440177,0.65083563,994.52435, , , , 
2025-08-22 20:12:03.445,16.950756,-8.568698,0.3493521,0.06444623,0.66943145,-2.727282,-13.687501,38.175003,-21.150002,0.03577236,-0.74169433,0.6473867,994.52435, , , , 
2025-08-22 20:12:03.465,14.167903,-9.84168,1.1413764,0.13347395,0.6963095,-3.2214718,-13.44375,38.5875,-22.59375,0.05480706,-0.7382215,0.6426255,994.54, , , , 
2025-08-22 20:12:03.485,12.019148,-10.918449,2.2085752,0.4083631,0.5362629,-3.4426048,-16.931252,36.487503,-22.725,0.07629431,-0.73275346,0.6378645,994.54, , , , 
2025-08-22 20:12:03.505,10.767702,-11.002198,2.9312077,0.84024453,0.00481056,-3.5537822,-20.53125,35.25,-23.8125,0.10101715,-0.72468024,0.63455075,994.54, , , , 
2025-08-22 20:12:03.527,10.552348,-11.0811615,2.6249263,1.2751802,-0.905378,-3.6252534,-22.875,31.650002,-23.681252,0.13894022,-0.7117626,0.6322869,994.54, , , , 
2025-08-22 20:12:03.547,11.73201,-11.648261,2.3784657,1.4205661,-1.4765365,-3.7468154,-24.54375,30.618752,-24.525002,0.17524116,-0.70055026,0.63017005,994.5822, , , , 
2025-08-22 20:12:03.567,12.844672,-12.844672,1.7419748,1.3930771,-1.8601596,-3.9435139,-27.6375,29.062502,-24.562502,0.21561536,-0.68889654,0.62603605,994.5822, , , , 
2025-08-22 20:12:03.585,14.246866,-13.99562,0.7728817,1.1010838,-1.8974223,-4.132882,-31.181252,25.968752,-24.956251,0.25739798,-0.67727566,0.61859685,994.5607, , , , 
2025-08-22 20:12:03.605,14.813965,-14.854643,1.3998013,0.5659662,-1.293888,-4.324083,-30.91875,23.962502,-20.53125,0.29674068,-0.6657134,0.6073485,994.5607, , , , 
2025-08-22 20:12:03.626,14.840286,-15.105889,2.5028925,0.3008509,-0.60910857,-4.553157,-40.29375,20.268751,-21.0375,0.33126932,-0.6526691,0.5940375,994.56757, , , , 
2025-08-22 20:12:03.645,13.469198,-15.002998,3.1106694,0.3026835,-0.17050762,-4.7962813,-39.61875,17.85,-21.431252,0.3624157,-0.63648343,0.58013725,994.56757, , , , 
2025-08-22 20:12:03.665,11.432906,-14.732609,3.225525,0.4951059,-0.16073379,-4.9080696,-40.36875,12.562501,-22.9125,0.39254117,-0.61713153,0.5661076,994.57855, , , , 
2025-08-22 20:12:03.689,9.341579,-13.859229,2.8259234,0.80603606,-0.71784246,-4.9154,-42.206253,5.1375003,-20.1375,0.44025287,-0.5850587,0.5435436,994.57855, , , , 
2025-08-22 20:12:03.705,7.850851,-13.170095,1.8017955,0.82375115,-0.78748107,-4.809109,-43.331253,2.30625,-21.862501,0.46494406,-0.5687039,0.531078,994.56805, , , , 
2025-08-22 20:12:03.725,6.8578296,-12.358929,0.971486,0.6404917,-0.43867728,-4.5501027,-42.487503,-1.4625001,-21.581251,0.4943612,-0.54678047,0.5146337,994.56805, , , , 
2025-08-22 20:12:03.746,6.0801625,-11.042876,0.5982057,0.39370236,0.026801692,-4.1750317,-44.49375,-6.9187503,-19.368752,0.5182933,-0.5247526,0.49939936,994.5483, , , , 
2025-08-22 20:12:03.765,5.2642097,-10.241281,0.74416786,0.37598726,0.07811433,-3.929464,-44.268753,-10.125,-19.81875,0.53856623,-0.50294536,0.4849747,994.5483, , , , 
2025-08-22 20:12:03.785,4.551149,-9.370294,-0.07178468,0.48899725,-0.082543105,-3.7248244,-44.025,-13.218751,-19.050001,0.5576231,-0.48163232,0.4708786,994.53705, , , , 
2025-08-22 20:12:03.805,2.9312077,-8.623733,-1.5409778,0.43035424,-0.029397868,-3.4933066,-43.237503,-17.362501,-19.66875,0.57589763,-0.46109623,0.4567306,994.53705, , , , 
2025-08-22 20:12:03.825,0.22492532,-8.147561,-2.8354948,0.10231985,0.27542365,-2.9844563,-43.10625,-20.456251,-20.587502,0.5940024,-0.43732214,0.44053018,994.52167, , , , 
2025-08-22 20:12:03.845,-0.7920243,-7.8293157,-2.3162522,-0.1395826,0.38599017,-2.4145193,-43.40625,-23.34375,-20.400002,0.6028004,-0.42188105,0.43002847,994.52167, , , , 
2025-08-22 20:12:03.865,-1.2203395,-7.379465,-0.88295156,-0.13591741,0.24488042,-1.6454407,-39.61875,-24.712502,-18.09375,0.6081055,-0.41063306,0.42217684,994.5219, , , , 
2025-08-22 20:12:03.885,-0.8853444,-6.74776,-0.6628119,0.04612029,0.065286174,-1.0058652,-40.256252,-25.143751,-20.00625,0.6120344,-0.40325037,0.4169631,994.5219, , , , 
2025-08-22 20:12:03.906,-1.3926228,-6.9655066,-1.3710874,0.11575887,5.345067E-4,-0.48663014,-38.60625,-25.81875,-22.29375,0.6150085,-0.39893663,0.41427448,994.52826, , , , 
2025-08-22 20:12:03.927,-2.143969,-7.62114,-1.713261,0.07116575,-0.20471606,0.41378453,-37.2,-28.181252,-20.775002,0.6162207,-0.3994455,0.41443425,994.52826, , , , 
2025-08-22 20:12:03.947,-1.7754744,-8.391629,-1.7300107,0.06627883,-0.35743225,1.1510984,-38.737503,-26.475,-21.6375,0.6143989,-0.40637538,0.4178594,994.51996, , , , 
2025-08-22 20:12:03.967,-0.50009996,-9.394221,-2.0147567,0.01924224,-0.41179922,2.1626904,-38.737503,-26.250002,-18.712502,0.6092914,-0.41927254,0.42507336,994.51996, , , , 
2025-08-22 20:12:03.985,1.268196,-9.147761,-1.8592232,-0.032070402,-0.30734134,2.9195518,-39.675003,-24.337502,-19.5,0.599709,-0.4374238,0.43674263,994.50116, , , , 
2025-08-22 20:12:04.005,4.28076,-8.9348,-2.024328,-0.15302163,-0.009850195,3.46933,-41.287502,-22.893751,-18.46875,0.58513856,-0.45862278,0.45242882,994.50116, , , , 
2025-08-22 20:12:04.025,5.8360944,-9.497113,-2.036292,-0.35033095,0.2540434,3.8022516,-41.60625,-18.806252,-20.681252,0.5659519,-0.48067516,0.4704333,994.4836,37.88835264,127.73981994,146.06396484375,0.0
2025-08-22 20:12:04.046,6.6592255,-10.152746,-1.861616,-0.43768463,0.20517421,3.9824567,-42.506252,-16.556252,-18.862501,0.5493602,-0.49790025,0.48420238,994.4836, , , , 
2025-08-22 20:12:04.065,7.798209,-11.444871,-1.2107682,-0.47189304,5.345067E-4,4.261011,-42.487503,-12.187501,-19.575,0.5194105,-0.52823794,0.5061296,994.47406, , , , 
2025-08-22 20:12:04.086,8.350951,-12.157932,-0.9906286,-0.43157595,0.016416991,4.5212393,-43.612503,-9.056251,-20.1,0.4935028,-0.5531245,0.5232888,994.47406, , , , 
2025-08-22 20:12:04.105,9.138189,-12.780066,-1.4045869,-0.4951059,0.1984547,4.7460375,-46.40625,-4.125,-20.25,0.46458283,-0.57760245,0.5408917,994.47406, , , , 
2025-08-22 20:12:04.126,9.446864,-13.674981,-1.3040884,-0.6832523,0.38599017,4.992827,-44.362503,-1.1812501,-19.3875,0.43177864,-0.6015595,0.5581544,994.46674, , , , 
2025-08-22 20:12:04.145,10.238888,-14.103296,-0.7082755,-0.77732545,0.2864192,5.2170143,-42.43125,3.24375,-20.475,0.39574644,-0.62555563,0.5740892,994.46674, , , , 
2025-08-22 20:12:04.165,12.830315,-14.002798,0.021535404,-0.7382301,-0.026343543,5.2475576,-41.081253,11.137501,-23.681252,0.34992546,-0.6546922,0.59089965,994.45746, , , , 
2025-08-22 20:12:04.185,13.966906,-13.720445,0.55513483,-0.5897899,-0.20777038,5.0612435,-44.081253,14.325001,-24.7875,0.31502125,-0.67531306,0.6019022,994.44403, , , , 
2025-08-22 20:12:04.205,14.187045,-13.560126,0.6364908,-0.41447175,-0.30734134,4.834002,-37.537502,18.056252,-20.2875,0.28249833,-0.6927108,0.61142075,994.44403, , , , 
2025-08-22 20:12:04.225,13.909478,-13.75873,0.22971097,-0.39186975,-7.63581E-5,4.67701,-32.737503,22.06875,-23.175001,0.2506859,-0.7071227,0.61994815,994.4355, , , , 
2025-08-22 20:12:04.245,14.31865,-13.27538,0.30867413,-0.54947287,0.41470084,4.455266,-32.737503,24.16875,-23.1375,0.217223,-0.7193222,0.627101,994.4355, , , , 
2025-08-22 20:12:04.265,14.474184,-12.354143,1.1892328,-0.5910117,0.5332086,4.1052403,-30.31875,27.525002,-22.5,0.17516653,-0.731957,0.63337326,994.4267, , , , 
2025-08-22 20:12:04.285,13.600804,-11.270195,1.3543376,-0.43890634,0.2833649,3.7527714,-27.2625,31.06875,-22.25625,0.14511214,-0.7396303,0.63707256,994.4267, , , , 
2025-08-22 20:12:04.305,12.844672,-10.219746,0.9379865,-0.35888305,0.24671301,3.5353036,-24.675001,31.48125,-23.475,0.118195124,-0.7455309,0.6401612,994.41595, , , , 
2025-08-22 20:12:04.325,12.643675,-8.989835,1.5529419,-0.2715294,0.37927067,3.3416593,-22.181252,36.693752,-21.712502,0.09213651,-0.74992573,0.6428065,994.41595, , , , 
2025-08-22 20:12:04.345,12.882957,-7.733603,1.6701902,-0.011300999,0.40614873,3.0612724,-19.368752,34.612503,-22.35,0.06774578,-0.7520844,0.64605105,994.4189, , , , 
2025-08-22 20:12:04.365,12.957134,-6.458228,-0.66759753,0.15118903,0.6926443,2.6464953,-15.431251,35.268753,-22.5,0.045499224,-0.75186867,0.65018755,994.4189, , , , 
2025-08-22 20:12:04.385,12.617353,-6.0370917,-2.2899313,-0.118202336,1.1055889,2.3337326,-13.35,37.706253,-21.0,0.02357829,-0.751453,0.6528743,994.3991, , , , 
2025-08-22 20:12:04.405,13.344772,-5.9437714,-1.6486548,-0.41630435,1.2057707,2.0948844,-12.056251,37.48125,-22.368752,0.0013163065,-0.75255287,0.65246046,994.3991, , , , 
2025-08-22 20:12:04.425,14.761323,-5.663811,-0.7369894,-0.40042186,0.83131063,1.6770529,-5.3812504,39.300003,-22.85625,-0.022013223,-0.7547128,0.6498973,994.3962, , , , 
2025-08-22 20:12:04.445,16.161123,-5.517849,-1.1724831,-0.2837467,0.52038044,1.3398556,-6.43125,39.91875,-22.3125,-0.03500194,-0.75587577,0.64820755,994.3962, , , , 
2025-08-22 20:12:04.465,18.448662,-5.3144593,-1.9884356,-0.36376998,0.46357,0.8426116,-4.7250004,38.11875,-23.475,-0.04356317,-0.75721705,0.6461448,994.3896, , , , 
2025-08-22 20:12:04.485,19.654646,-5.218746,-0.83988076,-0.52931434,0.6150645,0.047876526,-2.7,38.925003,-21.2625,-0.047859717,-0.7597513,0.64223725,994.3896, , , , 
2025-08-22 20:12:04.505,19.312471,-5.8337016,0.79920274,-0.44929105,0.6614902,-0.60269445,-3.61875,38.71875,-21.768751,-0.04741386,-0.76251066,0.63748044,994.3896, , , , 
2025-08-22 20:12:04.525,18.293129,-6.580262,2.5028925,0.09987639,0.24793474,-1.3650537,-3.3375,39.24375,-22.7625,-0.040645197,-0.76347697,0.63451844,994.41425, , , , 
2025-08-22 20:12:04.545,17.230717,-6.800402,1.416551,0.69546956,-0.39408416,-1.982638,-4.55625,40.612503,-21.7875,-0.02532311,-0.76117593,0.63553685,994.4445, , , , 
2025-08-22 20:12:04.565,16.029518,-7.8173513,-0.17706887,0.901331,-0.9102649,-2.597168,-7.8375,38.79375,-22.25625,0.0051725553,-0.7557069,0.63924855,994.4445, , , , 
2025-08-22 20:12:04.585,15.594026,-9.58804,-0.36370903,0.8518509,-1.081307,-3.0675337,-9.168751,39.28125,-24.150002,0.03570009,-0.75088185,0.6409711,994.45526, , , , 
2025-08-22 20:12:04.606,15.787844,-11.576476,-0.15792629,0.79137534,-1.163163,-3.4926958,-13.35,36.225002,-21.075,0.06963853,-0.7455295,0.64082676,994.45526, , , , 
2025-08-22 20:12:04.625,15.448063,-12.820744,-0.078963146,0.74556047,-1.2254711,-3.9551203,-17.325,35.2125,-23.85,0.10664888,-0.7391424,0.6387533,994.4594, , , , 
2025-08-22 20:12:04.645,15.483955,-14.031512,0.30149564,0.6197223,-1.1937062,-4.277657,-19.9125,33.84375,-25.650002,0.14578901,-0.7316637,0.6343098,994.4594, , , , 
2025-08-22 20:12:04.665,15.725631,-15.96252,0.74416786,0.45967576,-1.067868,-4.6960993,-24.13125,32.643753,-23.90625,0.18612565,-0.72284317,0.6272234,994.4599, , , , 
2025-08-22 20:12:04.685,15.4313135,-17.558533,1.5146568,0.36743516,-0.8913281,-4.968545,-27.54375,28.81875,-23.79375,0.22684622,-0.71232563,0.6175959,994.4599, , , , 
2025-08-22 20:12:04.705,15.168102,-17.941383,1.7946169,0.32467464,-0.530307,-5.1017137,-30.150002,26.812502,-23.56875,0.2661177,-0.69945514,0.60656905,994.4599, , , , 
2025-08-22 20:12:04.725,14.914464,-17.551353,2.2707887,0.29290965,-0.05627592,-5.361331,-32.550003,26.79375,-20.681252,0.3118179,-0.6794002,0.5914043,994.4672, , , , 
2025-08-22 20:12:04.745,13.569697,-17.278572,2.2947168,0.42791077,0.18379395,-5.5855184,-42.28125,19.425001,-17.85,0.3467484,-0.6592397,0.578569,994.4736, , , , 
2025-08-22 20:12:04.765,11.806187,-17.194824,1.5433706,0.57390743,0.19356778,-5.660044,-40.706253,16.7625,-22.181252,0.38124505,-0.6359133,0.5650841,994.4736, , , , 
2025-08-22 20:12:04.785,10.389636,-16.486547,1.0073783,0.69546956,0.060399257,-5.591627,-39.300003,9.1875,-22.050001,0.41509545,-0.6108072,0.5506393,994.4819, , , , 
2025-08-22 20:12:04.805,8.709874,-15.591632,0.3493521,0.7553343,-0.07582359,-5.4383,-42.825,5.4750004,-22.25625,0.44821838,-0.5847154,0.5350969,994.4819, , , , 
2025-08-22 20:12:04.825,7.1688967,-14.261223,-0.8925229,0.62766355,-0.04772381,-5.1487503,-41.737503,-0.01875,-22.2,0.47941437,-0.55868846,0.5186126,994.46405, , , , 
2025-08-22 20:12:04.845,5.871987,-12.768102,-0.99302137,0.33689192,0.24121523,-4.801168,-42.693752,-4.7250004,-22.612501,0.50614005,-0.53340954,0.50173855,994.46405, , , , 
2025-08-22 20:12:04.865,5.0656056,-11.717652,-0.46899325,0.19700389,0.33834273,-4.497568,-42.375,-9.5625,-20.5125,0.53305733,-0.50266653,0.48107195,994.4604, , , , 
2025-08-22 20:12:04.885,3.912265,-10.966306,-0.37806597,0.25747952,0.117820546,-4.3118653,-43.237503,-15.468751,-23.475,0.5527561,-0.47884843,0.46408555,994.4604, , , , 
2025-08-22 20:12:04.905,1.6630118,-10.279566,-1.0241281,0.2922988,-0.11614066,-3.942903,-40.74375,-16.837502,-22.425001,0.5719788,-0.45634857,0.4465024,994.4548, , , , 
2025-08-22 20:12:04.925,-0.45942193,-9.887143,-1.7754744,0.18723005,-0.26519167,-3.3705227,-40.800003,-21.5625,-23.85,0.5893216,-0.43673885,0.4291982,994.4548, , , , 
2025-08-22 20:12:04.945,-1.5577276,-9.635897,-1.5696917,0.09315688,-0.33055422,-2.6295438,-38.193752,-25.275002,-23.1375,0.6033665,-0.421402,0.41355774,994.4582, , , , 
2025-08-22 20:12:04.965,-1.7563318,-9.030513,-1.5744773,0.054672398,-0.29695663,-1.9429318,-37.275,-27.187502,-21.75,0.6137711,-0.410616,0.4011406,994.4582, , , , 
2025-08-22 20:12:04.985,-1.5816557,-8.707481,-2.2947168,-0.12247839,0.068340495,-1.1433098,-35.850002,-29.75625,-24.675001,0.6199026,-0.4034534,0.393185,994.45624, , , , 
2025-08-22 20:12:05.005,-2.1655045,-8.800801,-2.103291,-0.34055713,0.38110328,-0.43104145,-35.456253,-27.73125,-23.4375,0.6208769,-0.3993421,0.39013472,994.45624, , , , 
2025-08-22 20:12:05.025,-2.656033,-9.085547,-0.95712906,-0.38148504,0.42142034,0.45104727,-34.0125,-28.575,-23.7,0.61590993,-0.39976993,0.3927017,994.45844,37.88835635,127.73980361,149.13812255859375,1.68
2025-08-22 20:12:05.045,-2.0003998,-9.475577,-0.70348984,-0.18661919,0.13370302,1.2751039,-36.600002,-28.35,-24.056252,0.60928065,-0.40596378,0.39925268,994.45844, , , , 
2025-08-22 20:12:05.065,-1.4069797,-9.473185,-1.3399807,-0.044287696,-0.16928591,2.0276892,-34.425003,-26.362501,-25.48125,0.60363054,-0.41453078,0.40631458,994.45844, , , , 
2025-08-22 20:12:05.085,1.564906,-8.956335,-1.4811572,-0.11575887,-0.2945132,2.9158866,-36.375,-25.087502,-24.112501,0.59119976,-0.43598318,0.42161152,994.4572, , , , 
2025-08-22 20:12:05.105,3.6011982,-9.640682,-1.2035898,-0.18234314,-0.12835796,3.4045784,-37.912502,-22.612501,-25.48125,0.5771094,-0.45684344,0.43689385,994.4467, , , , 
2025-08-22 20:12:05.125,5.367101,-10.794023,-1.3208381,-0.18967351,-0.08681916,3.804695,-40.331253,-19.9125,-22.29375,0.55941653,-0.47922707,0.45465705,994.4467, , , , 
2025-08-22 20:12:05.145,6.3314085,-11.696117,-1.3304094,-0.19394957,-0.21082471,4.206033,-39.075,-16.7625,-24.91875,0.5391304,-0.5033351,0.47347212,994.4296, , , , 
2025-08-22 20:12:05.165,7.9274216,-12.406785,-1.308874,-0.2770272,-0.09414954,4.6922812,-41.4375,-13.05,-23.19375,0.5093655,-0.5358344,0.4979904,994.4296, , , , 
2025-08-22 20:12:05.185,9.389436,-12.96192,-1.6319051,-0.47555822,0.3652208,4.9250207,-42.9375,-10.33125,-23.19375,0.47999293,-0.56150466,0.5188554,994.424, , , , 
2025-08-22 20:12:05.205,8.95155,-13.79223,-1.4117653,-0.743117,0.68531394,5.133937,-42.225002,-4.6687503,-23.737501,0.45441696,-0.5799753,0.5345027,994.424, , , , 
2025-08-22 20:12:05.225,8.865408,-15.316458,0.014356935,-0.86223567,0.48311767,5.625072,-42.862503,0.24375,-22.725,0.40630522,-0.61114,0.5592959,994.4228, , , , 
2025-08-22 20:12:05.245,11.612369,-15.85245,1.5936198,-0.6911935,0.10254893,5.9500523,-41.550003,5.9812503,-22.575,0.36520767,-0.636703,0.57784617,994.4228, , , , 
2025-08-22 20:12:05.265,14.940784,-14.785251,1.6175481,-0.2715294,-0.31406087,5.6983757,-42.84375,13.200001,-24.54375,0.32637808,-0.6594683,0.5949605,994.43207, , , , 
2025-08-22 20:12:05.285,14.4693985,-14.230116,0.64845496,-0.060781047,-0.40813404,5.336744,-42.037502,15.69375,-15.806251,0.29181305,-0.67765,0.60991496,994.43207, , , , 
2025-08-22 20:12:05.305,13.730017,-14.55554,0.22492532,0.019853106,-0.23281583,5.2109056,-34.66875,21.862501,-23.737501,0.25889757,-0.6923219,0.62308985,994.43207, , , , 
2025-08-22 20:12:05.325,14.000405,-14.995819,-0.8422736,0.04856375,0.4586831,5.370952,-34.93125,24.093752,-24.91875,0.2140679,-0.70637155,0.6390472,994.41864, , , , 
2025-08-22 20:12:05.345,15.833307,-13.148561,-2.5292134,-0.4743365,1.217988,5.2310643,-32.04375,25.48125,-22.66875,0.17197448,-0.71560496,0.64958966,994.3925, , , , 
2025-08-22 20:12:05.367,15.838093,-11.636296,-1.6271194,-1.1499529,1.4806598,4.8004045,-27.956251,26.156252,-22.987501,0.1391092,-0.7232348,0.653081,994.3925, , , , 
2025-08-22 20:12:05.385,15.641882,-10.4351,2.1750758,-1.46577,1.2705224,4.119901,-23.00625,31.031252,-23.625,0.08726035,-0.7369376,0.65145105,994.40765, , , , 
2025-08-22 20:12:05.405,15.292529,-9.5665045,3.2805598,-1.0980295,0.98158336,3.6629744,-17.775002,35.04375,-24.712502,0.05226157,-0.7452376,0.6487894,994.40765, , , , 
2025-08-22 20:12:05.425,14.256437,-8.13799,2.0865414,-0.66309375,0.8368084,3.329442,-17.475,36.05625,-22.181252,0.022283504,-0.7497846,0.6479283,994.4235, , , , 
2025-08-22 20:12:05.445,15.292529,-6.908079,1.6295122,-0.4553997,0.68836826,3.054553,-12.356251,37.575,-21.09375,-0.011043862,-0.75244147,0.64795816,994.4235, , , , 
2025-08-22 20:12:05.465,16.546368,-6.111269,1.227518,-0.12980877,0.30718863,2.521879,-10.725,38.23125,-22.087502,-0.03191699,-0.752629,0.64891994,994.42303, , , , 
2025-08-22 20:12:05.485,17.309679,-5.367101,-0.15792629,0.09560034,0.09582941,1.9861505,-6.76875,38.90625,-23.456251,-0.04668189,-0.75133085,0.65101206,994.42303, , , , 
2025-08-22 20:12:05.505,17.388641,-4.991428,-1.7324036,-0.013744458,0.1117119,1.4614177,-5.0062504,39.7125,-23.081251,-0.056808177,-0.75016123,0.6525005,994.42303, , , , 
2025-08-22 20:12:05.525,18.027525,-5.395815,-1.6606189,-0.3668243,0.24793474,1.0026581,-4.9875,39.318752,-20.118752,-0.06426353,-0.75101554,0.6512224,994.4035, , , , 
2025-08-22 20:12:05.545,19.944178,-5.8504515,0.15553348,-0.5910117,0.33651012,0.31482443,-3.0,40.912502,-23.5125,-0.06888151,-0.75377786,0.6473816,994.413, , , , 
2025-08-22 20:12:05.565,20.501705,-6.2931237,1.8448663,-0.5525272,0.2088394,-0.5031235,-2.025,40.0125,-22.78125,-0.067928925,-0.7572543,0.6425503,994.413, , , , 
2025-08-22 20:12:05.585,19.96332,-6.7645097,3.6634114,-0.21471897,-0.061773703,-1.4701225,-2.6437502,39.9375,-21.16875,-0.05629201,-0.7606224,0.63756895,994.44574, , , , 
2025-08-22 20:12:05.605,18.52284,-8.408379,4.1491547,0.27763805,-0.46372274,-2.3161702,-1.0875001,42.46875,-22.556252,-0.037278034,-0.7607667,0.63626057,994.44574, , , , 
2025-08-22 20:12:05.625,17.213966,-10.71506,3.5557344,0.7553343,-0.9915099,-3.0376015,-6.4125004,40.162502,-20.475,-0.00937214,-0.75803304,0.6375035,994.4816, , , , 
2025-08-22 20:12:05.645,16.125233,-12.454642,2.4789643,1.0876447,-1.4740931,-3.5879905,-8.15625,39.375,-22.40625,0.02646696,-0.7527126,0.6400763,994.4816, , , , 
2025-08-22 20:12:05.665,15.299708,-13.914264,1.5625132,1.2134829,-1.7746385,-4.0687413,-12.356251,38.30625,-20.681252,0.068020225,-0.7454127,0.6421614,994.4858, , , , 
2025-08-22 20:12:05.685,15.067604,-15.414563,1.1772687,1.2006547,-1.8564944,-4.405328,-17.15625,37.4625,-23.681252,0.11280986,-0.7364265,0.6424745,994.4858, , , , 
2025-08-22 20:12:05.705,14.813965,-16.807186,0.9068798,1.099862,-1.8241186,-4.7303076,-20.625,34.0125,-24.50625,0.17105459,-0.7229251,0.6394004,994.466, , , , 
2025-08-22 20:12:05.725,14.316257,-17.247465,0.93559366,0.98868465,-1.7428735,-4.8628654,-27.093752,31.95,-21.54375,0.20617257,-0.71369153,0.6355573,994.466, , , , 
2025-08-22 20:12:05.745,14.2133665,-16.378872,1.1365907,0.82252944,-1.4191152,-5.005197,-29.38125,28.612501,-21.73125,0.2627312,-0.69638556,0.6263041,994.4677, , , , 
2025-08-22 20:12:05.765,14.421542,-16.08934,0.72502524,0.6178897,-0.70257086,-5.297801,-34.3875,26.362501,-21.54375,0.3046394,-0.6799298,0.61676544,994.4677, , , , 
2025-08-22 20:12:05.785,14.321044,-16.644474,-0.2536392,0.4413498,0.14408773,-5.6630983,-38.23125,23.6625,-15.431251,0.34227353,-0.65998554,0.6059135,994.4521, , , , 
2025-08-22 20:12:05.807,13.787444,-17.484356,-0.7728817,0.26419902,0.4965567,-6.016178,-41.49375,19.518751,-20.41875,0.37675554,-0.6366832,0.59321785,994.4521, , , , 
2025-08-22 20:12:05.825,11.351551,-18.128025,-0.038285162,0.16829325,0.23205225,-6.2226505,-42.54375,11.325001,-20.90625,0.41098648,-0.61141133,0.5771236,994.4355, , , , 
2025-08-22 20:12:05.845,9.147761,-17.991634,0.4331009,0.18600832,-0.06421716,-6.0638256,-43.10625,7.05,-21.54375,0.44512188,-0.5855552,0.5580537,994.4355, , , , 
2025-08-22 20:12:05.865,8.176275,-16.972292,0.6149554,0.27030766,-0.11919499,-5.796267,-42.91875,0.73125005,-22.125,0.4775988,-0.55952895,0.53777635,994.4355, , , , 
2025-08-22 20:12:05.885,5.790631,-15.543776,-0.37088752,0.30207264,0.0994946,-5.456015,-43.706253,-3.3187501,-23.6625,0.5070207,-0.53254026,0.51800036,994.4355, , , , 
2025-08-22 20:12:05.905,3.37388,-13.53859,-1.6366907,0.092546016,0.14103341,-4.9062366,-41.53125,-7.70625,-22.556252,0.53200185,-0.5061463,0.49905238,994.4355, , , , 
2025-08-22 20:12:05.925,2.7613173,-11.691332,-0.81834537,-0.14019346,-0.057497647,-4.3644,-43.631252,-12.168751,-20.85,0.5573881,-0.47765377,0.4748074,994.42596, , , , 
2025-08-22 20:12:05.945,2.1128623,-10.760524,0.19860429,-0.113926284,-0.43073604,-4.0455284,-42.16875,-18.618752,-19.706251,0.57572484,-0.45803946,0.45434183,994.4255, , , , 
2025-08-22 20:12:05.965,0.42831525,-11.026127,0.25842485,-0.013744458,-0.4954877,-3.5934885,-39.5625,-20.212502,-20.362501,0.5933265,-0.44045985,0.43382058,994.4255, , , , 
2025-08-22 20:12:05.985,-2.1942184,-11.093125,-0.849452,0.032681264,-0.3171152,-2.8806093,-38.49375,-24.562502,-22.21875,0.6079898,-0.42446825,0.41649005,994.4423, , , , 
2025-08-22 20:12:06.005,-3.6993039,-10.124033,-1.9262222,-0.15241076,-0.39713848,-1.748066,-38.737503,-26.475,-21.6375,0.62050515,-0.41137332,0.40035182,994.4423, , , , 
2025-08-22 20:12:06.025,-3.1609187,-9.372686,-1.3519448,-0.38759372,-0.16012293,-0.8134428,-37.575,-28.593752,-20.85,0.6246708,-0.40805817,0.39211157,994.4572,37.8883533,127.73979241,149.009765625,1.31
2025-08-22 20:12:06.045,-3.0436704,-8.836694,-0.14596218,-0.5018254,0.36216646,-0.0193186,-37.818752,-27.618752,-21.0375,0.6227273,-0.4080624,0.39024365,994.4572, , , , 
2025-08-22 20:12:06.065,-2.440679,-8.939586,0.9762716,-0.36438084,0.65354896,0.73387766,-38.475002,-27.431252,-22.837502,0.6160631,-0.41023278,0.39511305,994.4692, , , , 
2025-08-22 20:12:06.085,-1.6534405,-8.772088,0.3278167,-0.0876591,0.5643627,1.4015529,-37.575,-27.956251,-22.44375,0.6074203,-0.4150055,0.40499368,994.4692, , , , 
2025-08-22 20:12:06.105,-1.4787644,-8.2456665,-0.2943172,-0.062002774,0.38782278,1.9995894,-37.4625,-25.95,-22.575,0.5976483,-0.42367074,0.4175948,994.4692, , , , 
2025-08-22 20:12:06.126,0.7465607,-9.013762,-0.069391854,-0.12614357,0.3664425,2.8102071,-39.65625,-21.806252,-24.73125,0.5815178,-0.44090122,0.43680838,994.4643, , , , 
2025-08-22 20:12:06.145,2.268396,-10.547563,-0.1698904,-0.12797616,0.45623964,3.316614,-38.9625,-21.018751,-21.45,0.56904304,-0.45344782,0.45080695,994.4421, , , , 
2025-08-22 20:12:06.165,3.6753755,-12.256038,-0.71306115,-0.13286309,0.31574073,3.885329,-39.99375,-19.10625,-24.69375,0.5494055,-0.4726288,0.47177663,994.4421, , , , 
2025-08-22 20:12:06.185,5.642276,-13.366307,-0.8207382,-0.2403753,-0.12713623,4.5352893,-41.643753,-16.29375,-23.1375,0.52123314,-0.5024985,0.49847594,994.4294, , , , 
2025-08-22 20:12:06.205,7.429714,-14.25883,-0.74177504,-0.2953531,-0.30734134,4.9280753,-42.112503,-11.3625,-23.53125,0.50245357,-0.52312267,0.51398623,994.4294, , , , 
2025-08-22 20:12:06.225,8.432307,-15.751951,-1.0648061,-0.4896081,-0.066049755,5.471745,-41.193752,-8.175,-22.725,0.46622488,-0.558887,0.53979623,994.42084, , , , 
2025-08-22 20:12:06.245,9.736395,-16.656439,-0.7178468,-0.7064651,0.35056004,5.946387,-44.325,-2.6437502,-22.556252,0.4300887,-0.58756065,0.5610474,994.42084, , , , 
2025-08-22 20:12:06.265,11.763116,-16.675581,0.22253251,-0.82497287,0.5796343,6.2072263,-42.675003,1.8750001,-22.987501,0.38758332,-0.6151619,0.58208394,994.41864, , , , 
2025-08-22 20:12:06.285,12.933207,-16.591833,1.3280165,-0.6704241,0.38843364,6.2383804,-42.018753,10.668751,-25.556252,0.3427518,-0.64032406,0.6013272,994.41864, , , , 
2025-08-22 20:12:06.305,14.861821,-15.579668,0.9092726,-0.28985533,-0.13996439,5.994645,-44.7,14.250001,-23.643751,0.29045057,-0.6667679,0.6222645,994.43646, , , , 
2025-08-22 20:12:06.325,16.644474,-15.002998,0.15553348,-0.16584979,-0.45089456,5.5914745,-36.131252,19.2,-20.34375,0.25414735,-0.68366843,0.63558733,994.43646, , , , 
2025-08-22 20:12:06.345,18.008383,-13.904693,0.76331043,-0.11270455,-0.35559967,5.0893435,-33.318752,24.018751,-25.687502,0.22164722,-0.6972654,0.6457578,994.43866, , , , 
2025-08-22 20:12:06.365,18.25245,-11.925828,0.8279166,-0.0070249448,0.3523926,4.4473248,-33.487503,24.843752,-23.25,0.19049561,-0.7063077,0.65466267,994.43866, , , , 
2025-08-22 20:12:06.385,16.713865,-10.497313,-0.47138608,-0.1065959,1.3090068,3.87189,-28.706251,27.975,-25.781252,0.15813342,-0.71127284,0.6628248,994.42596, , , , 
2025-08-22 20:12:06.408,15.304494,-9.592826,-1.2155539,-0.39003715,1.8972696,3.5120907,-26.493752,28.931252,-24.525002,0.12325322,-0.7148896,0.66872483,994.42596, , , , 
2025-08-22 20:12:06.425,14.514862,-8.839087,-0.60777694,-0.60994846,1.6626976,3.2683556,-23.175001,31.518751,-24.862501,0.08858271,-0.7187193,0.67163897,994.4235, , , , 
2025-08-22 20:12:06.445,14.888143,-7.4943204,0.32303107,-0.52748173,1.0982585,3.0288966,-18.9375,33.581253,-26.212502,0.058281157,-0.7224815,0.67278236,994.4235, , , , 
2025-08-22 20:12:06.465,15.672988,-5.639883,0.5240282,-0.32833982,0.7946587,2.647717,-17.306252,33.73125,-24.843752,0.027689174,-0.7255176,0.6739647,994.43036, , , , 
2025-08-22 20:12:06.485,16.079767,-4.668397,-0.21296121,-0.26175556,0.7946587,2.236605,-14.08125,35.193752,-25.575,0.007549231,-0.7265521,0.6748292,994.43036, , , , 
2025-08-22 20:12:06.505,16.369299,-3.9361932,-0.23928227,-0.28130323,0.7323505,1.8847469,-12.31875,35.98125,-24.88125,-0.005595819,-0.7271573,0.67490906,994.43036, , , , 
2025-08-22 20:12:06.525,16.800007,-4.208975,0.5192425,-0.18112141,0.20089816,1.4039963,-9.5625,36.6375,-23.6625,-0.021432506,-0.7281105,0.6745043,994.4338, , , , 
2025-08-22 20:12:06.545,17.618353,-5.352744,1.5050855,0.030237807,-0.36293003,0.9036981,-8.606251,37.5,-27.50625,-0.026153667,-0.72835666,0.67499626,994.45526, , , , 
2025-08-22 20:12:06.565,17.496319,-6.3050876,2.4047868,0.18417573,-0.4087449,0.5237402,-7.1062503,38.5125,-26.175001,-0.025799157,-0.72763646,0.6764929,994.45526, , , , 
2025-08-22 20:12:06.585,18.18306,-7.0492554,3.0652058,0.2855793,-0.42157304,0.17066035,-7.5937505,36.61875,-28.500002,-0.02283536,-0.7260529,0.6786018,994.50726, , , , 
2025-08-22 20:12:06.605,18.898514,-6.017949,3.802195,0.54092073,-0.71845335,-0.3265836,-7.9875,37.912502,-24.35625,-0.013821679,-0.7227238,0.68235475,994.50726, , , , 
2025-08-22 20:12:06.625,19.642681,-5.4580283,3.3714871,0.7510582,-1.1472805,-1.0260237,-8.85,37.725002,-27.337502,-0.003133371,-0.7197116,0.68548715,994.50726, , , , 
2025-08-22 20:12:06.645,18.97269,-7.408179,1.9046868,0.7345649,-1.519908,-2.212934,-9.39375,37.40625,-25.25625,0.026987517,-0.71412045,0.68978643,994.5517, , , , 
2025-08-22 20:12:06.665,17.891134,-9.954143,1.5529419,0.53420126,-1.5797727,-2.9649086,-11.306251,34.36875,-26.587502,0.050869353,-0.7111676,0.6902412,994.5517, , , , 
2025-08-22 20:12:06.685,16.232908,-13.287344,1.6462619,0.20616686,-1.3739113,-3.6667922,-15.056251,33.862503,-26.775002,0.095240854,-0.7067124,0.6867578,994.56195, , , , 
2025-08-22 20:12:06.705,15.536597,-14.847465,2.0075781,0.030237807,-1.1057416,-3.99727,-17.175001,35.11875,-25.556252,0.1312454,-0.7029214,0.68058777,994.56195, , , , 
2025-08-22 20:12:06.725,14.206188,-15.921842,1.847259,-0.18112141,-0.828409,-4.3711195,-22.556252,32.4375,-24.206251,0.16678843,-0.69820523,0.6719762,994.571, , , , 
2025-08-22 20:12:06.745,13.579268,-16.173088,2.605784,-0.44745845,-0.8229112,-4.674108,-25.087502,30.581251,-26.625002,0.2107716,-0.69165707,0.6570229,994.5573, , , , 
2025-08-22 20:12:06.765,12.823136,-16.680367,5.0392847,-0.26053384,-1.1167371,-4.9612145,-29.41875,28.143751,-24.956251,0.248118,-0.68474936,0.6423892,994.5573, , , , 
2025-08-22 20:12:06.785,11.672189,-16.551155,5.625526,0.34300056,-1.3983458,-5.0931616,-31.143751,26.94375,-23.456251,0.28852266,-0.6734183,0.62866086,994.55927, , , , 
2025-08-22 20:12:06.806,11.042876,-16.230516,3.5964124,0.7638864,-1.3922372,-5.168298,-37.5,23.5125,-18.13125,0.33060974,-0.6573961,0.6163631,994.55927, , , , 
2025-08-22 20:12:06.825,11.069198,-15.553348,0.6891329,0.7834341,-1.1173481,-5.2599277,-40.331253,18.54375,-22.331251,0.37171826,-0.6382828,0.6038891,994.52606, , , , 
2025-08-22 20:12:06.845,10.3848505,-15.012569,-1.538585,0.47861254,-0.8021418,-5.37477,-39.956253,14.08125,-20.268751,0.41058213,-0.6175702,0.58934647,994.52606, , , , 
2025-08-22 20:12:06.865,8.891729,-14.569897,-2.333002,-0.019853106,-0.3617083,-5.3393397,-42.300003,8.981251,-20.19375,0.4453125,-0.59662324,0.5719681,994.477, , , , 
2025-08-22 20:12:06.885,7.759924,-14.230116,-1.9645073,-0.4847212,0.07261655,-5.11332,-43.5,3.1312501,-19.275002,0.4805694,-0.5711548,0.54776233,994.477, , , , 
2025-08-22 20:12:06.905,6.6041903,-13.552947,-0.63888365,-0.5891791,0.30535603,-4.8598113,-44.831253,-4.96875,-19.743752,0.49760398,-0.55599993,0.5331152,994.477, , , , 
2025-08-22 20:12:06.925,6.0490556,-12.473784,0.11724831,-0.46273008,0.34994915,-4.634402,-45.9,-6.675,-20.925001,0.5173751,-0.5352645,0.51463634,994.45233, , , , 
2025-08-22 20:12:06.945,4.981857,-11.344372,-0.32303107,-0.341168,0.29741478,-4.3924994,-45.2625,-11.475,-20.25,0.5402957,-0.50851226,0.49230522,994.44305, , , , 
2025-08-22 20:12:06.965,3.4887354,-10.719846,0.634098,-0.20983206,0.25709772,-4.145099,-44.53125,-13.743751,-21.13125,0.5570914,-0.48722863,0.474758,994.44305, , , , 
2025-08-22 20:12:06.985,0.9619147,-10.334601,-0.33499518,0.01924224,0.117820546,-3.6930594,-39.581253,-16.837502,-22.40625,0.5727469,-0.46622607,0.45868683,994.44525, , , , 
2025-08-22 20:12:07.005,-1.1437693,-10.057034,-1.8687944,-0.0051923506,-0.015958842,-3.0314927,-40.237503,-19.29375,-20.962502,0.58705723,-0.44796923,0.44382697,994.44525, , , , 
2025-08-22 20:12:07.025,-1.4285151,-9.343972,-1.8640088,-0.27336198,0.066507906,-2.050444,-40.66875,-21.337502,-19.25625,0.59897804,-0.43205518,0.42883325,994.4406,37.88835772,127.73977753,149.28582763671875,1.48
2025-08-22 20:12:07.047,-0.8111669,-8.965906,-1.0336994,-0.43768463,0.29252788,-1.2966368,-38.193752,-25.275002,-23.1375,0.6024857,-0.42455485,0.42127427,994.4406, , , , 
2025-08-22 20:12:07.065,-1.0504491,-8.676374,-0.27517462,-0.4486802,0.41775516,-0.72120225,-37.162502,-25.931252,-22.59375,0.60224223,-0.42096162,0.41850224,994.4406, , , , 
2025-08-22 20:12:07.085,-0.66759753,-8.592627,0.18424734,-0.27336198,0.19234605,-0.026038112,-37.0125,-24.525002,-23.306252,0.59916794,-0.41937113,0.41814268,994.44794, , , , 
2025-08-22 20:12:07.105,-0.9092726,-8.752945,-0.8039884,-0.09498947,0.0060322895,0.64957833,-38.68125,-25.462502,-22.1625,0.5961297,-0.42253032,0.42066747,994.445, , , , 
2025-08-22 20:12:07.125,-1.3639089,-8.396415,-1.9046868,-0.24770567,0.1220966,1.4797436,-38.925003,-23.868752,-22.837502,0.59055763,-0.42979258,0.42663604,994.445, , , , 
2025-08-22 20:12:07.147,0.5312066,-8.642876,-0.9499506,-0.41752607,0.32184938,2.2213335,-39.956253,-23.737501,-21.65625,0.5797188,-0.44170773,0.43674803,994.43304, , , , 
2025-08-22 20:12:07.166,2.4502504,-10.07139,-0.6364908,-0.28313583,0.29313874,2.8609087,-39.9,-19.85625,-22.03125,0.56065494,-0.4606951,0.45479417,994.43304, , , , 
2025-08-22 20:12:07.187,3.656233,-11.62194,-1.7874385,-0.14813471,0.03291034,3.3734243,-43.0125,-19.2,-20.04375,0.54368037,-0.47905624,0.47177306,994.4233, , , , 
2025-08-22 20:12:07.206,4.692325,-12.646068,-2.603391,-0.2886336,-0.14912736,3.9702392,-42.09375,-16.237501,-22.1625,0.52443683,-0.50127333,0.48951036,994.4233, , , , 
2025-08-22 20:12:07.227,6.9535427,-13.239488,-1.7946169,-0.47922343,-0.1155298,4.567665,-42.393753,-13.293751,-21.075,0.5007782,-0.52688915,0.50792086,994.3984, , , , 
2025-08-22 20:12:07.247,9.217153,-13.5481615,-1.3280165,-0.558025,-0.0019089525,4.8266716,-43.8375,-7.4437504,-22.331251,0.4729303,-0.55344915,0.5268674,994.3984, , , , 
2025-08-22 20:12:07.267,10.408778,-13.282558,-1.2083755,-0.6502656,0.047571093,4.8291154,-45.318752,-6.1125,-22.25625,0.44244266,-0.57903796,0.545021,994.39374, , , , 
2025-08-22 20:12:07.287,11.440085,-12.928421,-0.50009996,-0.6679806,-0.082543105,4.749092,-43.631252,3.7687502,-21.45,0.4033682,-0.6092133,0.5645319,994.39374, , , , 
2025-08-22 20:12:07.307,13.684553,-12.143575,-0.6963114,-0.55008376,-0.25725043,4.54995,-41.23125,5.3812504,-22.575,0.37328538,-0.63105124,0.5778139,994.3996, , , , 
2025-08-22 20:12:07.327,15.656239,-10.839486,-2.0673988,-0.56535536,-0.4936551,4.102797,-42.412502,10.368751,-22.875,0.3465799,-0.65058374,0.58790845,994.3996, , , , 
2025-08-22 20:12:07.345,14.208581,-10.447063,-3.5844483,-1.0002911,-0.29878923,3.6953502,-43.800003,13.181251,-20.268751,0.3222842,-0.66888577,0.5933835,994.38446, , , , 
2025-08-22 20:12:07.367,11.846865,-10.516456,-2.065006,-1.8982623,0.5619192,3.7576582,-37.987503,19.5,-19.5375,0.29338747,-0.6881578,0.59460944,994.38446, , , , 
2025-08-22 20:12:07.387,11.66501,-10.760524,2.481357,-2.0882413,1.0353395,3.9427505,-37.85625,21.525002,-21.225,0.25697786,-0.7077563,0.59374684,994.414, , , , 
2025-08-22 20:12:07.407,12.399607,-10.619347,5.209175,-1.4150683,0.68164873,4.0239954,-38.04375,23.38125,-22.85625,0.21880989,-0.7240879,0.5946757,994.414, , , , 
2025-08-22 20:12:07.427,13.201202,-9.777073,4.8263235,-0.33994624,-0.2560287,4.0270495,-33.7125,26.79375,-21.487501,0.1864737,-0.73533005,0.5999337,994.46405, , , , 
2025-08-22 20:12:07.447,14.58904,-8.226524,1.8041883,0.44257152,-0.81191564,3.9012115,-30.581251,29.343752,-19.800001,0.15635136,-0.74294484,0.6119832,994.46405, , , , 
2025-08-22 20:12:07.467,15.122639,-7.001399,-0.5312066,0.54947287,-0.6256019,3.6519787,-28.29375,31.2,-20.75625,0.13603899,-0.7457718,0.6223641,994.4594, , , , 
2025-08-22 20:12:07.487,15.079568,-6.448657,-1.8185452,0.3130682,-0.118584126,3.420461,-26.60625,33.112503,-19.2,0.11509031,-0.74764407,0.6308359,994.4594, , , , 
2025-08-22 20:12:07.507,15.232709,-6.0155563,-1.7898313,-0.008246674,0.30902123,3.2207081,-25.575,33.956253,-18.431252,0.092221774,-0.7497682,0.6364876,994.44965, , , , 
2025-08-22 20:12:07.527,16.591833,-4.9028935,-0.9810573,-0.20677772,0.5325977,2.86885,-23.868752,36.487503,-19.368752,0.06896419,-0.7521608,0.63967425,994.44965, , , , 
2025-08-22 20:12:07.547,17.407785,-4.17069,-1.713261,-0.20005822,0.7360157,2.3697736,-18.7875,37.7625,-19.35,0.047769945,-0.75385815,0.64152026,994.44867, , , , 
2025-08-22 20:12:07.566,17.142181,-3.926622,-3.4289148,-0.44929105,0.9400445,1.9391139,-17.25,38.68125,-20.8125,0.024314698,-0.7560141,0.6412479,994.44867, , , , 
2025-08-22 20:12:07.585,18.77648,-3.7663028,-2.8905299,-0.9159917,1.0005201,1.382616,-16.125,37.912502,-19.181252,0.0077427267,-0.7599448,0.6368829,994.4338, , , , 
2025-08-22 20:12:07.605,19.424934,-4.7018967,-0.059820566,-0.9300416,0.5344303,0.60620695,-13.387501,39.80625,-19.893751,-0.0030760756,-0.76507956,0.63000023,994.4338, , , , 
2025-08-22 20:12:07.625,19.558931,-5.17089,1.8855443,-0.5659662,-0.05627592,0.10957387,-13.725,39.525,-19.837502,-0.00545655,-0.76908875,0.6243608,994.45917, , , , 
2025-08-22 20:12:07.646,20.89652,-5.5369916,3.1728828,0.055283263,-0.85040015,-0.6155226,-10.837501,40.706253,-21.28125,0.0013282133,-0.7705992,0.6221099,994.45917, , , , 
2025-08-22 20:12:07.666,22.418356,-6.7262244,3.129812,0.5555815,-1.2932771,-1.5690825,-13.462501,39.54375,-18.16875,0.018624073,-0.7693613,0.622885,994.49066, , , , 
2025-08-22 20:12:07.686,21.702902,-8.46102,2.0291135,0.8005383,-1.2425753,-2.5623486,-14.38125,39.318752,-18.206251,0.04536458,-0.7654038,0.624916,994.49066, , , , 
2025-08-22 20:12:07.706,19.860428,-10.743773,1.1533405,0.70585424,-0.6787471,-3.356473,-15.637501,39.46875,-18.09375,0.07677088,-0.7595444,0.6255017,994.4843, , , , 
2025-08-22 20:12:07.726,17.764315,-13.103097,1.4907285,0.67103493,-0.21693335,-3.9349618,-19.35,37.95,-18.5625,0.117160745,-0.74978024,0.6237085,994.4843, , , , 
2025-08-22 20:12:07.746,15.577275,-15.160924,1.5170496,0.85612696,-0.22609633,-4.344852,-24.2625,37.4625,-19.837502,0.15109253,-0.7390751,0.62121105,994.4875, , , , 
2025-08-22 20:12:07.765,14.297115,-15.658631,1.2251252,1.005178,-0.4832704,-4.4902377,-26.7,32.49375,-21.618752,0.18723589,-0.7261269,0.61815155,994.4875, , , , 
2025-08-22 20:12:07.785,14.1726885,-15.005391,0.9068798,1.0424408,-0.6604212,-4.6240172,-30.975,31.031252,-19.237501,0.22491467,-0.7116722,0.61385405,994.4841, , , , 
2025-08-22 20:12:07.805,14.026727,-14.493327,0.31106696,0.90866137,-0.53458303,-4.840874,-31.218752,29.6625,-21.6,0.26311103,-0.69580454,0.60739505,994.4841, , , , 
2025-08-22 20:12:07.826,13.07199,-14.4693985,0.3804588,0.67103493,-0.09964732,-5.112098,-32.550003,26.268751,-18.018751,0.29997095,-0.678294,0.5982325,994.4726, , , , 
2025-08-22 20:12:07.846,12.375679,-14.596218,0.8757731,0.571464,0.19784383,-5.2409906,-40.875,21.300001,-17.79375,0.33425355,-0.6586852,0.5872421,994.4726, , , , 
2025-08-22 20:12:07.865,11.638689,-14.481362,1.2323036,0.6520982,0.18684827,-5.3313985,-41.362503,15.056251,-20.625,0.367017,-0.6367901,0.5751264,994.4726, , , , 
2025-08-22 20:12:07.885,10.679168,-14.261223,0.70348984,0.7357866,-0.01962403,-5.370494,-43.143753,9.7875,-21.84375,0.40831593,-0.6069518,0.5580502,994.4726, , , , 
2025-08-22 20:12:07.906,9.650253,-14.093725,0.24646074,0.7156281,-0.030619597,-5.311851,-42.956253,6.20625,-23.6625,0.44072282,-0.58201295,0.5425775,994.4631, , , , 
2025-08-22 20:12:07.926,8.973084,-13.761123,-0.37806597,0.607505,0.13553563,-5.1542478,-43.912502,0.13125001,-21.825,0.47047246,-0.5563441,0.5264052,994.4631, , , , 
2025-08-22 20:12:07.946,7.367501,-13.217953,-0.89491564,0.42363474,0.2485456,-4.9257846,-44.34375,-7.7625003,-21.487501,0.5029812,-0.523876,0.50545424,994.45184, , , , 
2025-08-22 20:12:07.967,6.113662,-12.959527,-0.782453,0.34361145,0.19234605,-4.6771626,-45.2625,-9.58125,-23.1375,0.52030486,-0.5050943,0.49247098,994.45184, , , , 
2025-08-22 20:12:07.988,5.015356,-12.040684,-0.971486,0.25014913,0.19906557,-4.110891,-43.125,-15.58125,-22.556252,0.54573977,-0.47607848,0.4711425,994.4377, , , , 
2025-08-22 20:12:08.006,3.4408789,-10.9017,-2.1415763,-0.03084867,0.5918516,-3.7278786,-41.4375,-17.925001,-20.2875,0.5611942,-0.45423442,0.45583025,994.4377, , , , 
2025-08-22 20:12:08.027,1.9046868,-10.140782,-1.8305093,-0.22999059,0.7555634,-3.2959974,-40.96875,-19.987501,-20.831251,0.5690008,-0.43872857,0.4459405,994.4274,37.88835772,127.73977753,149.28582763671875,1.48
2025-08-22 20:12:08.047,0.15074782,-9.209974,-0.72502524,-0.11270455,0.08727731,-2.6533675,-38.49375,-22.556252,-24.187502,0.579553,-0.41744712,0.4302857,994.4274, , , , 
2025-08-22 20:12:08.066,-0.7513463,-9.178867,-0.7178468,0.12125666,-0.43684468,-2.1298563,-37.2,-26.175001,-23.34375,0.5892556,-0.40589473,0.41743818,994.43256, , , , 
2025-08-22 20:12:08.085,-1.6534405,-10.107283,-1.8783658,0.1084285,-0.45761406,-1.553811,-37.443752,-25.2,-23.23125,0.5985041,-0.3985788,0.40634656,994.43256, , , , 
2025-08-22 20:12:08.105,-2.5674987,-10.99502,-2.3641088,-0.10231985,-0.12163845,-0.75174546,-36.225002,-27.300001,-25.087502,0.60341305,-0.3951102,0.3997665,994.4218, , , , 
2025-08-22 20:12:08.125,-3.9601214,-11.038091,-3.0436704,-0.39736754,0.23632832,0.36247188,-36.112503,-28.050001,-23.04375,0.60221916,-0.3958189,0.39932764,994.4218, , , , 
2025-08-22 20:12:08.145,-3.1680973,-10.025927,-2.1702902,-0.75838864,0.37255114,1.4528655,-36.0,-28.3875,-25.35,0.5943609,-0.4027724,0.40463206,994.42303, , , , 
2025-08-22 20:12:08.165,-1.026521,-9.729217,-0.21535404,-0.8286381,0.32307112,2.3031893,-33.84375,-24.431252,-27.50625,0.58056283,-0.4157743,0.41478342,994.42303, , , , 
2025-08-22 20:12:08.185,1.7563318,-9.992428,1.0480564,-0.5549707,0.04818196,2.874348,-37.612503,-23.325,-25.95,0.5642064,-0.43307108,0.4284436,994.4357, , , , 
2025-08-22 20:12:08.205,3.455236,-10.738988,0.83748794,-0.11514801,-0.35743225,3.2029932,-37.29375,-20.41875,-26.906252,0.5485801,-0.45276484,0.4441044,994.4357, , , , 
2025-08-22 20:12:08.226,3.9050865,-11.473584,-0.3469593,0.15546508,-0.6781363,3.5853944,-39.768753,-17.962502,-24.7875,0.5345855,-0.47444174,0.46083176,994.4357, , , , 
2025-08-22 20:12:08.245,5.73081,-12.387643,-1.8687944,0.13286309,-0.6573669,4.2524586,-38.943752,-16.875,-25.556252,0.5147735,-0.50490856,0.48390865,994.42694, , , , 
2025-08-22 20:12:08.265,6.9391856,-13.344772,-2.1655045,-0.10293072,-0.2939023,4.7460375,-42.16875,-11.625,-23.5125,0.49308306,-0.53085357,0.5043363,994.4045, , , , 
2025-08-22 20:12:08.285,9.12144,-13.708481,-1.9501505,-0.44623673,0.18012875,5.1925797,-44.006252,-8.34375,-22.25625,0.46439105,-0.5571547,0.52619606,994.4045, , , , 
2025-08-22 20:12:08.305,10.861022,-13.194024,-1.4524434,-0.65881765,0.22350015,5.2383947,-42.881252,-5.1000004,-24.112501,0.43072316,-0.5830482,0.54711956,994.4045, , , , 
2025-08-22 20:12:08.325,11.55494,-12.942778,0.043070808,-0.6692024,-0.20288347,5.2310643,-43.331253,-0.675,-22.931252,0.3965394,-0.60839885,0.5647622,994.3879, , , , 
2025-08-22 20:12:08.345,12.090933,-12.880565,0.66999036,-0.4657844,-0.49976376,5.24939,-42.768753,7.1062503,-23.4375,0.3559573,-0.63831705,0.58353025,994.3979, , , , 
2025-08-22 20:12:08.365,12.60539,-12.614961,1.1222339,-0.3509418,-0.3513236,5.2420597,-41.34375,11.981251,-24.31875,0.33166546,-0.6542815,0.5940956,994.3979, , , , 
2025-08-22 20:12:08.385,13.373486,-12.581462,1.1102697,-0.29474226,0.021914775,5.15043,-42.46875,15.543751,-18.54375,0.28916806,-0.676361,0.61125535,994.40594, , , , 
2025-08-22 20:12:08.405,14.378471,-12.49532,1.3926228,-0.21899502,-0.014126248,4.987329,-34.5,21.2625,-23.71875,0.2546639,-0.69065094,0.6236492,994.40594, , , , 
2025-08-22 20:12:08.425,15.309279,-11.696117,1.68694,-0.028405212,-0.29023713,4.711829,-34.706253,23.118752,-24.2625,0.2229854,-0.7023592,0.6343745,994.40326, , , , 
2025-08-22 20:12:08.445,15.828522,-10.839486,0.6795616,0.1517999,-0.013515383,4.397234,-34.5,24.975,-21.768751,0.19407801,-0.7108494,0.6442071,994.40326, , , , 
2025-08-22 20:12:08.465,15.804593,-9.954143,-1.4907285,-0.06750056,0.78244144,4.196259,-31.181252,26.94375,-21.91875,0.16383706,-0.71659833,0.65318185,994.40106, , , , 
2025-08-22 20:12:08.485,16.283157,-8.348558,-2.184647,-0.54519683,1.6077198,3.972072,-25.85625,29.98125,-23.118752,0.1289233,-0.72194976,0.6592364,994.40106, , , , 
2025-08-22 20:12:08.506,18.218952,-6.3385873,-1.6151553,-0.8854485,1.7146211,3.3618178,-24.712502,32.5875,-24.618752,0.0837532,-0.7291986,0.6610669,994.38666, , , , 
2025-08-22 20:12:08.525,17.52264,-5.6446686,-2.8378878,-1.1517855,1.5423572,2.6984189,-19.050001,34.443752,-26.250002,0.053396966,-0.7351806,0.6585032,994.38666, , , , 
2025-08-22 20:12:08.545,16.29273,-5.855237,-1.8281165,-1.5347978,1.4256821,2.3581672,-16.125,35.9625,-24.7875,0.026682243,-0.7429078,0.65184903,994.3835, , , , 
2025-08-22 20:12:08.565,17.027327,-5.8360944,0.59342,-1.5836669,1.217988,2.119319,-14.868751,35.71875,-24.6,0.008113908,-0.749226,0.6452979,994.3835, , , , 
2025-08-22 20:12:08.585,18.833906,-5.8935223,2.4071796,-1.163392,0.44463322,1.4663045,-12.4125,39.206253,-23.962502,-0.015245978,-0.7580478,0.6352495,994.4274, , , , 
2025-08-22 20:12:08.605,19.664217,-5.907879,2.5866413,-0.8121447,-0.067271486,0.95928675,-9.46875,38.850002,-19.931252,-0.02392509,-0.7630033,0.62964994,994.4274, , , , 
2025-08-22 20:12:08.625,20.355742,-6.096912,2.8259234,-0.43218684,-0.1485165,0.19753839,-8.85,40.29375,-22.556252,-0.025527148,-0.7663142,0.6258604,994.4604, , , , 
2025-08-22 20:12:08.645,19.905891,-6.4438715,3.0053852,-0.09926552,0.07383828,-0.3992765,-9.806251,40.068752,-20.8875,-0.021507457,-0.7677738,0.62304795,994.4604, , , , 
2025-08-22 20:12:08.665,19.034904,-6.0777693,2.6249263,0.18845178,0.11598795,-0.86597717,-8.681251,40.55625,-20.268751,-0.01643345,-0.766993,0.62263066,994.4604, , , , 
2025-08-22 20:12:08.685,17.450855,-6.0801625,2.3162522,0.51159924,-0.10881029,-1.5611413,-10.2375,40.893753,-20.118752,-0.0016826005,-0.76359016,0.6234539,994.48627, , , , 
2025-08-22 20:12:08.705,16.010376,-7.4512496,1.564906,0.72479105,-0.49915287,-2.1933863,-13.25625,40.443752,-19.931252,0.017646274,-0.7594644,0.6248101,994.4892, , , , 
2025-08-22 20:12:08.725,14.866607,-9.793823,1.1365907,0.8481857,-0.9603558,-2.7352233,-13.63125,38.4375,-21.6375,0.04359725,-0.75464374,0.62583774,994.4892, , , , 
2025-08-22 20:12:08.745,14.47897,-11.509477,1.430908,0.88422674,-1.0715332,-3.0388231,-15.13125,38.4,-20.23125,0.07389377,-0.7490898,0.6260364,994.4799, , , , 
2025-08-22 20:12:08.766,14.866607,-12.509677,1.457229,0.8732312,-0.9346995,-3.2978299,-19.2,36.881252,-22.5,0.10576328,-0.7422929,0.6252559,994.4799, , , , 
2025-08-22 20:12:08.785,15.536597,-13.993227,1.902294,0.8139773,-0.63720834,-3.7694175,-19.743752,34.725002,-24.6375,0.14650837,-0.7316829,0.6221086,994.4721, , , , 
2025-08-22 20:12:08.805,15.244673,-14.689538,2.2564318,0.83596843,-0.44478592,-4.142045,-25.63125,33.35625,-22.706251,0.1717405,-0.7237548,0.61907095,994.4721, , , , 
2025-08-22 20:12:08.825,14.065011,-14.976677,2.4717858,0.9141591,-0.11064288,-4.468858,-28.125002,30.375002,-23.212502,0.21413168,-0.7070957,0.61280155,994.4594, , , , 
2025-08-22 20:12:08.845,13.110275,-14.883357,1.4141582,0.9618066,0.32123852,-4.770014,-32.49375,26.306252,-21.581251,0.25531164,-0.6857247,0.605486,994.4594, , , , 
2025-08-22 20:12:08.865,11.8588295,-14.730216,0.81834537,0.91049397,0.5784126,-4.9147887,-36.46875,22.650002,-20.04375,0.27890012,-0.67097306,0.6001337,994.4445, , , , 
2025-08-22 20:12:08.885,10.693524,-14.5100765,0.9068798,0.8854485,0.72807443,-4.983206,-38.662502,20.85,-24.6375,0.30885103,-0.6496674,0.5917366,994.4445, , , , 
2025-08-22 20:12:08.905,10.27478,-14.371293,1.0504491,0.9782999,0.6248383,-5.0339074,-37.95,15.806251,-23.04375,0.33794528,-0.62657493,0.58224773,994.4274, , , , 
2025-08-22 20:12:08.925,9.619147,-14.234902,0.6197411,1.1187989,0.3456731,-5.101103,-39.35625,8.700001,-24.956251,0.3680476,-0.6020389,0.5713573,994.4274, , , , 
2025-08-22 20:12:08.945,8.573483,-13.8041935,-0.8446664,1.082147,0.17096578,-5.086442,-40.36875,5.7562504,-26.081251,0.4067276,-0.570403,0.55513215,994.4106, , , , 
2025-08-22 20:12:08.966,6.946364,-13.062419,-1.6965113,0.7828232,0.3493383,-4.8592005,-40.7625,0.63750005,-29.1375,0.4350666,-0.54542756,0.540259,994.4106, , , , 
2025-08-22 20:12:08.985,6.1471615,-12.124433,-1.0600204,0.5042689,0.6456077,-4.562931,-39.506252,-6.7125,-27.300001,0.4581759,-0.5210462,0.5250653,994.38837, , , , 
2025-08-22 20:12:09.005,4.843073,-11.3778715,-0.5240282,0.44623673,0.68653566,-4.2648287,-38.53125,-6.99375,-26.925001,0.4772108,-0.49683756,0.5104531,994.38837, , , , 
2025-08-22 20:12:09.025,4.019942,-10.700703,-0.7369894,0.52931434,0.28886268,-3.9624507,-39.393753,-10.556251,-28.031252,0.49520397,-0.47404206,0.49570972,994.38226,37.88834985,127.73975456,149.44091796875,1.18
2025-08-22 20:12:09.045,2.143969,-10.162318,-1.4787644,0.60994846,-0.20960298,-3.7071092,-38.025,-13.89375,-27.525002,0.5141381,-0.45364258,0.47975594,994.38226, , , , 
2025-08-22 20:12:09.065,0.41874397,-10.164711,-2.7445676,0.4987711,-0.50648326,-3.3069928,-38.86875,-18.206251,-28.725,0.5331744,-0.43675643,0.46274036,994.38226, , , , 
2025-08-22 20:12:09.085,-1.9621146,-10.348958,-3.7543387,-0.0070249448,-0.4747183,-2.4273477,-37.4625,-20.56875,-27.806252,0.5517719,-0.42227244,0.4425176,994.3759, , , , 
2025-08-22 20:12:09.107,-3.1226335,-10.035499,-2.9718857,-0.32772896,-0.26763514,-1.6014584,-36.300003,-22.06875,-26.925001,0.55807954,-0.41747287,0.4328298,994.3759, , , , 
2025-08-22 20:12:09.125,-3.1848469,-9.071191,-1.2921243,-0.49327332,0.06589704,-0.3730093,-36.487503,-22.95,-26.85,0.5601583,-0.41508344,0.42405227,994.3649, , , , 
2025-08-22 20:12:09.145,-1.7706888,-8.554341,-0.59581286,-0.40286532,0.13553563,0.416228,-36.84375,-23.25,-26.79375,0.5564707,-0.41747835,0.4237878,994.36786, , , , 
2025-08-22 20:12:09.166,-0.6556334,-8.327023,-1.0336994,-0.27397284,0.053068876,0.976391,-36.956253,-22.3875,-26.831251,0.5506145,-0.42314708,0.428058,994.36786, , , , 
2025-08-22 20:12:09.185,1.0815558,-7.487142,-1.0600204,-0.2696968,-0.15767947,1.7069852,-35.34375,-21.825,-29.6625,0.54112595,-0.43563792,0.43723547,994.3664, , , , 
2025-08-22 20:12:09.205,2.6344976,-7.7383885,-0.72263247,-0.26419902,-0.21693335,2.0863323,-34.818752,-20.1375,-31.518751,0.5340038,-0.44558105,0.4442701,994.3664, , , , 
2025-08-22 20:12:09.225,3.830909,-9.109476,-1.282553,-0.24770567,-0.15584688,2.5127158,-37.03125,-17.775002,-27.862501,0.5196932,-0.46439543,0.45866936,994.3493, , , , 
2025-08-22 20:12:09.245,4.063013,-10.616954,-1.8855443,-0.332005,-0.15645774,2.9580364,-37.8375,-18.112501,-27.768751,0.5052408,-0.48152217,0.47247943,994.3493, , , , 
2025-08-22 20:12:09.265,4.4889355,-11.454442,-2.065006,-0.44745845,-0.326889,3.4558911,-39.525,-13.425,-28.462502,0.4924314,-0.49659744,0.48361844,994.3493, , , , 
2025-08-22 20:12:09.285,5.9581285,-12.2584305,-1.3304094,-0.61055934,-0.38369945,4.155331,-40.59375,-11.306251,-26.306252,0.46652752,-0.5260723,0.50336725,994.3332, , , , 
2025-08-22 20:12:09.305,7.219146,-12.756138,-0.9595219,-0.64476776,-0.32322383,4.5554476,-40.5,-8.925,-28.781252,0.44115764,-0.5514996,0.52067196,994.3332, , , , 
2025-08-22 20:12:09.325,8.350951,-13.304094,-1.119841,-0.69180435,-0.27435464,4.883482,-41.23125,-3.0375001,-28.25625,0.41244894,-0.57702756,0.53855896,994.3422, , , , 
2025-08-22 20:12:09.345,9.446864,-13.801801,-0.96430755,-0.7803798,-0.3201695,5.118665,-42.09375,0.09375,-26.04375,0.38102803,-0.60235393,0.555753,994.3403, , , , 
2025-08-22 20:12:09.366,11.13859,-13.909478,-0.014356935,-0.77854717,-0.5406917,5.2432814,-39.28125,5.8875003,-28.35,0.3479733,-0.62740237,0.5713132,994.3403, , , , 
2025-08-22 20:12:09.385,12.801601,-13.581661,0.7968099,-0.5763509,-0.76487905,5.1394343,-40.18125,11.75625,-26.906252,0.30784675,-0.65627,0.58823586,994.3461, , , , 
2025-08-22 20:12:09.405,13.019348,-13.483556,0.4953143,-0.47494736,-0.6262128,4.93846,-37.425003,16.556252,-18.50625,0.26980776,-0.6802001,0.6029548,994.3461, , , , 
2025-08-22 20:12:09.425,13.416556,-13.222738,0.6867401,-0.49938196,-0.417297,4.8242283,-34.125,21.675001,-23.775002,0.25430912,-0.68847024,0.60821843,994.3461, , , , 
2025-08-22 20:12:09.445,13.201202,-12.873385,1.0767702,-0.52931434,-0.06788235,4.588434,-34.5,24.750002,-25.312502,0.21459943,-0.7059709,0.61976117,994.3466, , , , 
2025-08-22 20:12:09.465,13.406985,-13.009777,0.9954142,-0.5195405,0.057344932,4.441216,-34.443752,24.2625,-25.44375,0.1825289,-0.71726507,0.62752545,994.3542, , , , 
2025-08-22 20:12:09.485,13.703695,-12.143575,1.3495519,-0.4327977,0.23266312,4.293998,-30.31875,27.525002,-22.5,0.15066558,-0.7263995,0.6342216,994.3542, , , , 
2025-08-22 20:12:09.505,14.098511,-10.557134,0.19860429,-0.36560258,0.55519974,4.105851,-27.206251,31.331251,-22.275002,0.118791334,-0.7328543,0.64052564,994.363, , , , 
2025-08-22 20:12:09.525,14.938392,-8.702696,-0.91166544,-0.65759593,0.9180534,3.7674322,-22.462502,33.693752,-23.53125,0.07847362,-0.73924625,0.645536,994.363, , , , 
2025-08-22 20:12:09.545,15.737595,-7.408179,-0.27756742,-0.901331,1.0438915,3.2433102,-20.962502,34.706253,-22.2,0.04761673,-0.74453115,0.64553475,994.3608, , , , 
2025-08-22 20:12:09.568,14.634503,-6.9942207,0.20578274,-0.90866137,0.94676405,2.7839398,-16.650002,35.662502,-23.775002,0.020518847,-0.74940497,0.64335746,994.3608, , , , 
2025-08-22 20:12:09.585,14.31865,-6.142376,0.45942193,-0.7956514,0.75434166,2.562196,-14.887501,37.2,-23.1375,-0.0033847482,-0.7534631,0.6407818,994.3747, , , , 
2025-08-22 20:12:09.605,15.342779,-5.7954164,0.2727818,-0.70402163,0.5918516,2.3319,-13.181251,38.362503,-22.9125,-0.024628453,-0.7565629,0.6383653,994.3747, , , , 
2025-08-22 20:12:09.625,16.639688,-5.682954,-0.36131623,-0.5873465,0.1532507,1.8578689,-10.481251,38.025,-22.40625,-0.04105769,-0.75918543,0.63596797,994.3962, , , , 
2025-08-22 20:12:09.645,17.391035,-5.453243,-0.39720857,-0.56902057,-0.19982915,1.4302635,-9.168751,38.8875,-20.587502,-0.05158598,-0.76198906,0.6333293,994.3962, , , , 
2025-08-22 20:12:09.665,18.508484,-5.1852465,0.46660042,-0.539699,-0.32749987,0.9263001,-6.5625005,39.506252,-19.03125,-0.05703703,-0.7651053,0.6303215,994.3962, , , , 
2025-08-22 20:12:09.685,19.585253,-5.6039906,1.7850457,-0.36071566,-0.33177593,0.21403174,-5.5125003,40.893753,-22.0125,-0.057103157,-0.7685532,0.62667197,994.4074, , , , 
2025-08-22 20:12:09.705,19.910677,-5.237889,2.1176481,-0.06017018,-0.3323868,-0.48724103,-4.6125,41.325,-18.112501,-0.053208504,-0.769624,0.6254392,994.4384, , , , 
2025-08-22 20:12:09.725,19.503897,-5.611169,1.9357935,0.110871956,-0.2334267,-1.4915028,-5.45625,42.112503,-19.462502,-0.039292835,-0.7698939,0.6244352,994.4384, , , , 
2025-08-22 20:12:09.745,17.52264,-7.676175,2.213361,0.28069237,-0.25847217,-2.3784783,-6.3187504,42.15,-19.518751,-0.020948846,-0.7691988,0.62326723,994.46356, , , , 
2025-08-22 20:12:09.765,15.321243,-9.693324,2.6249263,0.571464,-0.6262128,-2.864116,-10.3125,39.862503,-18.50625,0.00402721,-0.7668222,0.62275666,994.46356, , , , 
2025-08-22 20:12:09.785,14.1009035,-11.389835,2.3928227,0.9453133,-1.2462405,-3.242852,-12.243751,39.5625,-20.60625,0.035217,-0.7622378,0.6237932,994.487, , , , 
2025-08-22 20:12:09.806,14.383257,-12.97867,2.0075781,1.1102468,-1.6634612,-3.6032622,-15.95625,37.706253,-22.575,0.08152948,-0.7540012,0.6254574,994.487, , , , 
2025-08-22 20:12:09.825,15.077175,-14.5818615,2.0697916,1.1511747,-1.9719479,-3.9496226,-20.212502,34.256252,-19.931252,0.12322271,-0.74580544,0.6253669,994.497, , , , 
2025-08-22 20:12:09.845,14.880964,-15.263816,2.8881369,1.2165372,-2.161316,-4.269105,-24.45,33.581253,-19.44375,0.16853239,-0.7358395,0.62352866,994.497, , , , 
2025-08-22 20:12:09.865,14.074583,-15.136996,3.318845,1.2305871,-1.903531,-4.476799,-28.931252,31.743752,-19.181252,0.21480809,-0.7233976,0.6203841,994.4953, , , , 
2025-08-22 20:12:09.885,13.883157,-14.651253,3.3212378,1.1493421,-1.4484367,-4.6912127,-32.79375,29.75625,-22.21875,0.25897512,-0.7083435,0.6161261,994.4953, , , , 
2025-08-22 20:12:09.907,13.414164,-14.797215,4.005585,1.0259475,-1.0837505,-5.060175,-33.65625,26.643751,-17.00625,0.30141705,-0.69072443,0.6100433,994.4948, , , , 
2025-08-22 20:12:09.925,12.631711,-15.345172,4.436293,1.0742058,-0.9182061,-5.33201,-43.0875,20.8125,-14.606251,0.3431785,-0.6700898,0.602347,994.4948, , , , 
2025-08-22 20:12:09.945,11.602797,-15.8692,3.6634114,1.1273509,-0.73250324,-5.5439796,-42.131252,18.581251,-19.2,0.39459673,-0.63989973,0.5910421,994.4841, , , , 
2025-08-22 20:12:09.965,9.753145,-15.883556,2.9982069,1.0900882,-0.4466185,-5.4456306,-41.175003,11.08125,-18.2625,0.4236203,-0.6199713,0.58362794,994.4841, , , , 
2025-08-22 20:12:09.985,9.336794,-14.924035,2.1966112,0.9899064,-0.10147991,-5.091329,-43.3125,5.7375,-16.650002,0.46601632,-0.58567756,0.5714714,994.45795, , , , 
2025-08-22 20:12:10.005,9.726824,-14.483755,1.6366907,0.878729,0.054901473,-5.063229,-44.25,1.0500001,-17.362501,0.49561417,-0.5576319,0.5613225,994.45795, , , , 
2025-08-22 20:12:10.025,8.781659,-14.294723,1.5409778,0.765719,0.035964664,-5.098659,-45.45,-4.2937503,-18.487501,0.5165127,-0.53613365,0.5525673,994.45795,37.88834292,127.7397418,148.863037109375,1.2
2025-08-22 20:12:10.045,6.704689,-13.533805,1.1318051,0.6960804,-0.15951207,-4.965491,-44.925003,-9.712501,-18.69375,0.549939,-0.50024605,0.535442,994.4333, , , , 
2025-08-22 20:12:10.065,4.8239303,-12.562319,0.55513483,0.5977312,-0.16439898,-4.678995,-45.018753,-15.075001,-16.837502,0.5748574,-0.47246987,0.52012664,994.4052, , , , 
2025-08-22 20:12:10.085,2.8642087,-11.550155,0.0047856453,0.4657844,0.029245151,-4.2672725,-43.425003,-18.0375,-16.368752,0.6009703,-0.43960342,0.5015911,994.4052, , , , 
2025-08-22 20:12:10.105,1.2705889,-11.059627,-0.701097,0.34544402,0.06772963,-3.7700284,-42.05625,-22.237501,-17.19375,0.6136955,-0.4213338,0.491431,994.4052, , , , 
2025-08-22 20:12:10.125,-0.5288138,-10.454242,-0.89730847,0.26175556,-0.16562071,-3.0638688,-40.93125,-24.618752,-17.34375,0.6316075,-0.39583933,0.4751471,994.39056, , , , 
2025-08-22 20:12:10.145,-1.6941184,-9.611969,-1.3447664,0.2403753,-0.31100652,-2.2495859,-37.537502,-27.375002,-17.0625,0.64325887,-0.38114902,0.46369794,994.37274, , , , 
2025-08-22 20:12:10.165,-2.024328,-8.671589,-1.9381863,0.0754418,-0.045280352,-1.2746457,-36.862503,-29.2875,-19.2,0.6510833,-0.3716248,0.45585117,994.37274, , , , 
2025-08-22 20:12:10.185,-1.7228323,-8.319844,-1.7850457,-0.12614357,0.28886268,-0.50556695,-39.581253,-28.837502,-17.081251,0.65363395,-0.36654666,0.45295256,994.3547, , , , 
2025-08-22 20:12:10.205,-1.7084754,-8.224132,-1.5672989,-0.2593121,0.45562875,0.16088651,-37.575,-30.6,-18.581251,0.65159494,-0.36546138,0.4545036,994.3547, , , , 
2025-08-22 20:12:10.225,-1.9046868,-7.537391,-0.68195444,-0.29290965,0.37621635,0.9568433,-36.318752,-30.112501,-17.5125,0.6446743,-0.3702167,0.4609183,994.3461, , , , 
2025-08-22 20:12:10.245,-1.1509477,-7.757531,-0.13160525,-0.17806709,0.19478951,1.6568943,-37.706253,-29.00625,-17.56875,0.63699627,-0.3793591,0.46898142,994.3461, , , , 
2025-08-22 20:12:10.267,-0.1698904,-9.040084,-0.04546363,0.082161315,-0.028176138,2.4907248,-40.443752,-28.050001,-17.6625,0.628127,-0.39296687,0.47975695,994.3483, , , , 
2025-08-22 20:12:10.285,1.0743774,-10.329815,-0.34456646,0.28130323,-0.14240785,3.1736717,-39.675003,-27.206251,-18.243752,0.6175585,-0.41080573,0.4938881,994.3483, , , , 
2025-08-22 20:12:10.305,2.8785655,-11.487942,-1.0624132,0.44929105,-0.2841285,3.859062,-41.8125,-24.075,-18.975,0.6047898,-0.43244892,0.51086706,994.331, , , , 
2025-08-22 20:12:10.325,5.096712,-12.521641,-2.0458634,0.46028662,-0.3030653,4.4742026,-41.60625,-19.95,-17.38125,0.5893477,-0.45715708,0.5293393,994.331, , , , 
2025-08-22 20:12:10.345,6.7836523,-13.651053,-3.0963125,0.26725334,-0.04344776,4.98794,-44.362503,-16.143751,-16.3875,0.5695112,-0.48392123,0.54889524,994.30365, , , , 
2025-08-22 20:12:10.365,8.513663,-14.268401,-2.900101,-0.027794348,0.24488042,5.5090075,-45.9,-13.687501,-16.66875,0.5432436,-0.5127062,0.5691912,994.30365, , , , 
2025-08-22 20:12:10.385,11.131411,-14.689538,-1.5433706,-0.21288638,0.33223408,5.8810244,-46.275,-6.8812504,-17.325,0.502212,-0.55033207,0.59384406,994.2895, , , , 
2025-08-22 20:12:10.405,13.057633,-14.751752,-0.02871387,-0.06750056,0.022525638,5.992202,-46.912502,-2.0812502,-17.53125,0.46709907,-0.57942736,0.6112557,994.2895, , , , 
2025-08-22 20:12:10.425,14.730216,-14.091332,0.44985065,0.24220788,-0.25908303,5.7973356,-46.36875,3.35625,-20.681252,0.43351462,-0.60509276,0.6263329,994.28436, , , , 
2025-08-22 20:12:10.445,14.902499,-13.141382,-0.20338993,0.4517345,-0.3354411,5.1095023,-46.36875,10.368751,-13.200001,0.39545447,-0.6300474,0.6420799,994.28436, , , , 
2025-08-22 20:12:10.465,13.524234,-12.758531,-0.54317075,0.42485645,-0.29023713,4.807124,-40.2,13.1625,-16.95,0.37459648,-0.64196557,0.6496888,994.2861, , , , 
2025-08-22 20:12:10.485,12.227324,-12.57189,-0.81595254,0.22327107,-0.030008731,4.612258,-39.862503,17.6625,-16.931252,0.3469294,-0.65613616,0.65787584,994.2861, , , , 
2025-08-22 20:12:10.505,12.282358,-12.031113,-0.38285163,-0.015577052,0.30535603,4.4931397,-40.893753,19.9125,-16.181252,0.3173777,-0.66962904,0.66406673,994.2895, , , , 
2025-08-22 20:12:10.525,12.679567,-10.870593,0.37328035,-0.16890411,0.55703235,4.164494,-36.91875,23.56875,-16.650002,0.27877656,-0.68502575,0.6694371,994.2895, , , , 
2025-08-22 20:12:10.545,12.983456,-10.18146,0.50009996,-0.11453715,0.55703235,3.826075,-31.368752,24.54375,-21.768751,0.24944983,-0.69510484,0.6724136,994.2895, , , , 
2025-08-22 20:12:10.565,13.452449,-9.2793665,-0.485743,-0.05894845,0.60345805,3.4943757,-32.79375,27.112501,-19.125,0.22230837,-0.7029866,0.6748201,994.2946, , , , 
2025-08-22 20:12:10.585,13.342379,-8.042277,-1.4189439,-0.20616686,0.67248577,3.1119742,-29.19375,31.218752,-18.975,0.19710301,-0.70978266,0.6760745,994.2858, , , , 
2025-08-22 20:12:10.605,13.536198,-7.233503,-0.79441714,-0.3265072,0.62422746,2.8798456,-25.48125,34.443752,-17.85,0.17381129,-0.7165264,0.67554426,994.2858, , , , 
2025-08-22 20:12:10.625,14.802001,-6.4797635,-0.22731815,-0.16279547,0.608345,2.5518112,-25.312502,32.86875,-20.7,-0.15271457,0.7221501,-0.67463964,994.2836, , , , 
2025-08-22 20:12:10.645,15.833307,-5.613562,-0.79441714,0.052839804,0.49289152,2.163912,-21.91875,36.075,-18.768751,-0.13435005,0.7254508,-0.674867,994.2836, , , , 
2025-08-22 20:12:10.665,16.800007,-5.197211,-1.8137596,0.11209369,0.28947353,1.7277547,-20.456251,36.61875,-20.8125,-0.1203782,0.7269538,-0.6756932,994.2836, , , , 
2025-08-22 20:12:10.685,18.482162,-5.4987063,-2.3688943,0.037568185,-0.1918879,0.9605085,-17.38125,37.29375,-21.018751,-0.11174876,0.7279758,-0.6758339,994.28046, , , , 
2025-08-22 20:12:10.706,18.98944,-6.2787666,-2.5220351,-0.11759147,-0.5449678,0.19692753,-17.400002,37.29375,-20.25,-0.1134505,0.7285705,-0.67479396,994.2763, , , , 
2025-08-22 20:12:10.725,18.108881,-8.250452,-2.065006,-0.38881543,-0.7282272,-0.39133525,-16.875,37.0875,-18.900002,-0.12171754,0.7297304,-0.67211235,994.2763, , , , 
2025-08-22 20:12:10.745,17.871992,-8.903693,2.5938199,-0.4413498,-1.8155665,-0.73403037,-17.456251,37.78125,-19.650002,-0.13573559,0.73147833,-0.66749656,994.2922, , , , 
2025-08-22 20:12:10.765,19.31008,-8.185846,6.424729,0.34727663,-3.2486553,-1.2813653,-18.018751,38.8125,-16.875,-0.16069467,0.7288958,-0.6643528,994.2922, , , , 
2025-08-22 20:12:10.786,19.200008,-7.9369926,4.7688956,1.131627,-3.6090655,-2.3308308,-21.825,36.675003,-16.35,-0.19717918,0.71783787,-0.6657709,994.3566, , , , 
2025-08-22 20:12:10.805,17.290537,-8.997013,1.1653047,1.0393864,-2.8986297,-2.9905648,-22.893751,36.5625,-15.450001,-0.23836853,0.7016403,-0.6690873,994.3566, , , , 
2025-08-22 20:12:10.825,14.646467,-10.27478,-0.76331043,0.43218684,-1.5718315,-3.5085783,-28.650002,32.737503,-14.793751,-0.2853988,0.6824252,-0.6712434,994.38495, , , , 
2025-08-22 20:12:10.845,12.9021,-11.856436,0.03589234,-0.066889696,-1.2150865,-3.8182867,-30.018751,31.10625,-14.55,-0.31889957,0.6696553,-0.6700217,994.38495, , , , 
2025-08-22 20:12:10.865,12.0023985,-13.567305,1.9453648,-0.13530655,-1.8082361,-4.021094,-35.4,27.675001,-14.250001,-0.34545285,0.6600093,-0.6668972,994.38495, , , , 
2025-08-22 20:12:10.885,11.956935,-15.302101,2.9599216,0.018631376,-2.9774313,-4.146932,-38.23125,24.656252,-13.1625,-0.39670447,0.6407207,-0.65734184,994.4152, , , , 
2025-08-22 20:12:10.906,12.1866455,-15.074782,3.117848,-0.11636974,-3.3653305,-4.1933575,-40.85625,23.081251,-6.1687503,0.44200474,-0.6231296,0.6452263,994.4152, , , , 
2025-08-22 20:12:10.925,11.842079,-14.557933,6.0658054,-0.29779658,-3.299968,-4.4731336,-45.393753,21.618752,-6.2250004,0.48723948,-0.60450953,0.63007355,994.4406, , , , 
2025-08-22 20:12:10.945,11.854043,-14.8378935,7.5062847,-0.27030766,-2.7245333,-4.517116,-40.875,18.4125,0.58125,0.5407338,-0.5781306,0.61046946,994.4875, , , , 
2025-08-22 20:12:10.966,11.743974,-14.110476,10.770095,0.30879214,-2.5455499,-4.6374564,-48.91875,12.31875,5.64375,0.5699704,-0.55941844,0.60078317,994.4875, , , , 
2025-08-22 20:12:10.985,10.54517,-13.536198,9.389436,1.2281437,-2.1130576,-4.8457613,-48.018753,6.99375,0.45000002,0.61609954,-0.51913345,0.5905035,994.5368, , , , 
2025-08-22 20:12:11.005,9.693324,-14.189438,5.541777,1.5732822,-1.4539346,-4.8048334,-47.025,3.3375,2.71875,0.6484014,-0.48130357,0.58717495,994.5368, , , , 
2025-08-22 20:12:11.026,9.497113,-13.722837,1.6223338,1.3063344,-0.68546665,-4.54094,-48.037502,-2.04375,7.7625003,0.6748037,-0.4434369,0.58615154,994.5234,37.88833521,127.73972824,148.9837646484375,1.39
2025-08-22 20:12:11.045,9.51147,-12.906885,-0.21296121,0.66126114,0.19540037,-4.3338566,-48.43125,-6.80625,8.231251,0.69441044,-0.40874618,0.58653784,994.5234, , , , 
2025-08-22 20:12:11.065,9.707682,-12.253645,0.05503492,0.08460477,0.88628846,-4.291096,-46.03125,-11.025001,6.9750004,0.7070711,-0.37762898,0.58877766,994.4777, , , , 
2025-08-22 20:12:11.085,8.886943,-12.4115715,0.64845496,-0.14691298,1.0939825,-4.413269,-47.86875,-15.187501,5.25,0.71537447,-0.34765124,0.59186316,994.4777, , , , 
2025-08-22 20:12:11.105,7.24786,-12.600604,1.0600204,-0.13652828,0.8361975,-4.4755774,-46.96875,-18.581251,5.9625,0.72268116,-0.31722203,0.59328955,994.4472, , , , 
2025-08-22 20:12:11.125,5.1996036,-12.74178,1.0671989,-0.042455103,0.44707665,-4.353404,-44.8875,-21.581251,3.6000001,0.7326557,-0.27919066,0.59074014,994.4472, , , , 
2025-08-22 20:12:11.145,2.751746,-12.624533,0.8350951,0.052839804,0.22899793,-3.9893289,-45.35625,-27.487501,3.825,0.74066967,-0.2503251,0.5861201,994.4401, , , , 
2025-08-22 20:12:11.165,0.46660042,-12.01197,-0.011964113,0.088269964,-0.023900084,-3.4316092,-42.225002,-30.88125,3.3937502,0.74634856,-0.23094103,0.58170235,994.4401, , , , 
2025-08-22 20:12:11.185,-1.0336994,-10.999805,-0.6436693,-0.025961753,-0.10881029,-2.4670537,-40.0125,-32.90625,4.3500004,0.7546999,-0.2057164,0.57326734,994.42596, , , , 
2025-08-22 20:12:11.206,-1.6127625,-10.286744,-0.6628119,-0.14019346,0.09033163,-1.7712787,-37.96875,-35.287502,2.11875,0.758445,-0.19223718,0.56855506,994.42596, , , , 
2025-08-22 20:12:11.225,-2.2612174,-9.777073,-1.0480564,-0.2629773,0.43730283,-0.84826213,-36.393753,-35.4,3.3375,0.75864404,-0.18306214,0.56732035,994.4128, , , , 
2025-08-22 20:12:11.245,-4.1443686,-8.815159,-1.4069797,-0.34300056,0.71585715,-0.00160352,-36.73125,-36.412502,1.4250001,0.75526595,-0.18166572,0.5705543,994.4128, , , , 
2025-08-22 20:12:11.265,-4.816752,-8.145168,-1.0313065,-0.4071414,0.7946587,0.94768035,-35.943752,-36.075,2.1000001,0.75075704,-0.18521932,0.57534,994.4128, , , , 
2025-08-22 20:12:11.285,-2.5316064,-7.7216387,-0.18424734,-0.2800815,0.6474403,2.115043,-37.0875,-35.2125,2.625,0.74083656,-0.2008957,0.58641684,994.4006, , , , 
2025-08-22 20:12:11.305,0.0071784677,-8.367701,-0.0023928226,0.016187917,0.5142718,2.8847325,-38.9625,-33.768753,0.43125,0.73183274,-0.21959981,0.5969835,994.4008, , , , 
2025-08-22 20:12:11.325,3.1154552,-9.60479,-0.28953153,0.42974338,0.33284494,3.447339,-41.8875,-33.581253,2.5875,0.7222385,-0.24113321,0.6084304,994.4008, , , , 
2025-08-22 20:12:11.345,4.7712884,-10.794023,-1.0767702,0.7956514,0.083612114,3.7802603,-42.46875,-29.2875,2.4,0.7127282,-0.2635443,0.61952114,994.3874, , , , 
2025-08-22 20:12:11.365,5.352744,-12.119647,-2.0673988,1.0583233,-0.31039566,4.163883,-43.068752,-25.95,-1.44375,0.7037822,-0.2866971,0.62884873,994.3874, , , , 
2025-08-22 20:12:11.385,6.2811594,-13.124632,-2.9431717,1.2006547,-0.6048325,4.612869,-46.66875,-22.5,2.60625,0.6950348,-0.31160554,0.63545966,994.35834, , , , 
2025-08-22 20:12:11.406,8.130812,-14.012369,-3.7854455,1.0943643,-0.45211628,5.12905,-47.79375,-18.4125,5.11875,0.6808486,-0.34596863,0.64128953,994.35834, , , , 
2025-08-22 20:12:11.425,10.004392,-13.8353,-3.6514473,0.79442966,0.016416991,5.394776,-49.068752,-13.931251,4.21875,0.6635491,-0.37618166,0.6458562,994.3249, , , , 
2025-08-22 20:12:11.445,11.090733,-13.79223,-3.4121652,0.41080657,0.5325977,5.5285554,-48.281254,-5.7562504,2.5875,-0.64050555,0.4080461,-0.6505529,994.3249, , , , 
2025-08-22 20:12:11.465,12.045469,-13.641482,-2.8522446,0.07238748,0.9351576,5.5413833,-51.73125,-1.7625,3.5062501,-0.61988676,0.43288437,-0.6537318,994.3249, , , , 
2025-08-22 20:12:11.485,13.648661,-13.3687,-0.7752745,-0.20677772,0.761672,5.278712,-50.906254,2.41875,5.025,-0.58208925,0.47415844,-0.65696657,994.31683, , , , 
2025-08-22 20:12:11.505,15.345172,-13.064812,0.4642076,-0.051007207,-0.19921827,4.807124,-47.49375,8.26875,2.325,-0.5557173,0.50306594,-0.65455306,994.3249, , , , 
2025-08-22 20:12:11.525,15.684953,-12.000006,1.0241281,0.26542073,-0.97318393,4.179155,-46.818752,12.843751,-0.31875002,-0.5373163,0.5244883,-0.6476472,994.3249, , , , 
2025-08-22 20:12:11.545,12.973885,-10.700703,0.634098,0.46639526,-0.93103427,3.5261407,-45.65625,15.056251,1.2750001,-0.5210617,0.542026,-0.6378965,994.34344, , , , 
2025-08-22 20:12:11.565,11.808579,-9.767502,1.4548361,0.5659662,-0.23892449,3.4351218,-45.7125,18.525002,2.4750001,-0.505753,0.5540595,-0.6326346,994.34344, , , , 
2025-08-22 20:12:11.585,12.335001,-9.0544405,1.1006985,0.88850284,0.38476846,3.3777003,-41.5125,21.09375,0.65625,-0.48556346,0.56499934,-0.63153875,994.37177, , , , 
2025-08-22 20:12:11.605,13.031312,-8.130812,-1.1006985,1.1334596,0.78244144,3.1712282,-42.206253,23.71875,4.74375,-0.46243727,0.5737746,-0.6338763,994.37177, , , , 
2025-08-22 20:12:11.625,13.311273,-6.754938,-3.400201,0.9844086,0.90033835,2.8028767,-39.693752,25.743752,1.44375,-0.439149,0.58131105,-0.6373517,994.3752, , , , 
2025-08-22 20:12:11.645,14.024334,-6.084948,-3.8811584,0.7724385,0.70241815,2.4424665,-36.61875,28.44375,-1.35,-0.4187271,0.5882264,-0.6394618,994.3752, , , , 
2025-08-22 20:12:11.666,14.538791,-5.4580283,-4.965107,0.59528774,0.62056226,2.0680063,-36.5625,30.187502,-1.4625001,-0.4020899,0.5939425,-0.64043975,994.3752, , , , 
2025-08-22 20:12:11.685,14.974284,-4.991428,-4.8526444,0.16523892,0.5442042,1.6587269,-33.581253,31.650002,-4.33125,-0.3862839,0.6013313,-0.63980526,994.3549, , , , 
2025-08-22 20:12:11.705,16.3358,-5.355137,-3.2422748,-0.041233372,0.15997021,1.179809,-35.30625,33.45,-2.5500002,-0.38018346,0.6055071,-0.63828754,994.3549, , , , 
2025-08-22 20:12:11.725,16.828722,-6.4941206,-2.0171494,0.07788526,-0.4014145,0.39668033,-32.0625,34.162502,-3.24375,-0.3785177,0.60738283,-0.6359363,994.3515, , , , 
2025-08-22 20:12:11.745,14.967106,-7.5996046,-1.1700903,0.21166465,-0.6463713,-0.23678645,-29.8875,34.85625,-2.11875,-0.3835931,0.60394394,-0.6355666,994.363, , , , 
2025-08-22 20:12:11.765,13.921442,-8.702696,-0.16749759,0.4101957,-0.6286562,-0.50739956,-30.712502,33.768753,-0.73125005,-0.39084512,0.59788287,-0.6368164,994.363, , , , 
2025-08-22 20:12:11.785,13.466805,-8.082955,-0.89491564,0.5415316,-0.7056252,-0.77984524,-31.743752,33.675003,-2.0062501,-0.39863333,0.58954924,-0.63989323,994.37933, , , , 
2025-08-22 20:12:11.805,13.045669,-7.487142,-1.1581261,0.23365578,-1.0257183,-1.3057998,-32.475002,33.7125,-1.0125,-0.40981162,0.57975715,-0.6427105,994.37933, , , , 
2025-08-22 20:12:11.825,12.612568,-8.420342,2.0889342,0.09010255,-1.8754312,-1.950873,-33.43125,31.7625,-2.49375,-0.43355834,0.56435066,-0.6429524,994.40424, , , , 
2025-08-22 20:12:11.845,12.689138,-9.52822,4.1276193,0.40103272,-2.8693082,-2.4078,-33.693752,30.618752,-1.63125,-0.46092662,0.5450555,-0.641001,994.40424, , , , 
2025-08-22 20:12:11.865,13.351951,-10.509277,4.0414777,0.63988084,-3.4331365,-2.7743187,-35.193752,28.44375,0.80625004,-0.49365637,0.51887596,-0.63747215,994.44794, , , , 
2025-08-22 20:12:11.885,13.533805,-11.428121,3.4408789,0.4725039,-3.385489,-3.0247734,-36.131252,27.35625,0.0375,-0.5278434,0.48983943,-0.63278025,994.44794, , , , 
2025-08-22 20:12:11.905,14.584254,-12.449856,3.7567315,0.052839804,-3.2083383,-3.2709517,-40.518753,25.63125,5.8500004,-0.56203467,0.46118104,-0.626497,994.4792, , , , 
2025-08-22 20:12:11.925,14.660825,-12.4833555,5.345566,-0.41813695,-2.8155522,-3.5831037,-42.768753,22.0125,8.925,-0.59560704,0.43347174,-0.61931974,994.4792, , , , 
2025-08-22 20:12:11.945,15.108282,-12.045469,9.075976,-0.42852163,-2.5369978,-3.9697812,-41.775,20.362501,8.90625,-0.6274173,0.40577364,-0.612819,994.5236, , , , 
2025-08-22 20:12:11.965,14.416757,-11.947364,10.932807,0.39920014,-2.3928337,-4.6460085,-43.0125,17.587502,14.137501,-0.664293,0.3626561,-0.60911363,994.5236, , , , 
2025-08-22 20:12:11.985,12.380465,-12.504891,7.8436728,0.90927225,-2.0226495,-5.018025,-42.300003,12.543751,16.21875,-0.69034755,0.31986326,-0.6100705,994.5595, , , , 
2025-08-22 20:12:12.005,11.676974,-12.703495,4.570291,0.982576,-1.2932771,-4.9703774,-47.49375,8.868751,20.0625,-0.7110938,0.27600387,-0.6136155,994.5595, , , , 
2025-08-22 20:12:12.027,12.497713,-12.792029,0.8805587,0.5665771,-0.16623157,-4.912956,-47.193752,4.4437504,17.962502,-0.7249729,0.2355139,-0.62076616,994.5336,37.88832642,127.73971527,148.9215087890625,1.28
2025-08-22 20:12:12.045,12.023933,-13.000205,0.0047856453,-0.11148282,0.52709997,-4.9673233,-45.600002,0.22500001,20.8125,-0.7332161,0.19979642,-0.63096815,994.5336, , , , 
2025-08-22 20:12:12.065,11.303694,-13.540983,1.3064811,-0.5024363,0.94309884,-5.0332966,-46.350002,-5.8125,19.06875,-0.7373073,0.16810554,-0.64261883,994.5009, , , , 
2025-08-22 20:12:12.085,10.083355,-13.715659,2.388037,-0.4071414,1.0139592,-5.0931616,-44.737503,-10.35,16.3875,-0.7382238,0.13725647,-0.65452754,994.5009, , , , 
2025-08-22 20:12:12.105,7.719246,-13.411771,2.3234308,-0.08277218,0.92416203,-4.972821,-44.737503,-14.08125,15.50625,-0.7371466,0.10504071,-0.66524845,994.48773, , , , 
2025-08-22 20:12:12.125,5.649454,-12.993027,0.96909314,0.17501275,0.6633228,-4.5959177,-44.11875,-19.10625,14.043751,-0.7347991,0.06448192,-0.6749546,994.48773, , , , 
2025-08-22 20:12:12.145,4.1515474,-12.27518,-0.13160525,0.20127994,0.36949682,-4.1548734,-42.65625,-24.075,15.39375,0.73324764,-0.034310453,0.6790656,994.48114, , , , 
2025-08-22 20:12:12.165,2.8163524,-11.679367,-0.5192425,0.1499673,0.12148573,-3.7345982,-42.300003,-27.393751,15.243751,0.73269963,-0.013950453,0.6800101,994.48114, , , , 
2025-08-22 20:12:12.185,1.0600204,-10.628919,-0.4354937,0.1725693,-0.3097848,-3.0956337,-41.04375,-30.618752,14.981251,0.73338014,0.015349948,0.6779669,994.466, , , , 
2025-08-22 20:12:12.206,-0.3589234,-10.19821,-0.88295156,0.22388195,-0.5559633,-2.493321,-36.61875,-31.800001,16.743752,0.7357888,0.03482715,0.6733704,994.466, , , , 
2025-08-22 20:12:12.225,-0.89730847,-9.659825,-1.4859428,0.14202607,-0.5907826,-1.8079307,-36.112503,-34.575,14.08125,0.7392238,0.049693517,0.6674981,994.4445, , , , 
2025-08-22 20:12:12.245,-1.0959128,-9.456435,-2.2205393,-0.05894845,-0.2945132,-1.1200969,-34.78125,-35.081253,16.125,0.7419918,0.058961537,0.6627451,994.4445, , , , 
2025-08-22 20:12:12.265,-1.9214365,-9.41815,-2.778067,-0.26358816,0.1098793,-0.4841867,-34.443752,-36.412502,15.093751,0.7425641,0.062168736,0.6612151,994.4445, , , , 
2025-08-22 20:12:12.285,-2.617748,-9.253045,-2.4454648,-0.6325505,0.7244093,0.65385437,-33.525,-36.1875,14.83125,0.7393429,0.055944536,0.66526186,994.4118, , , , 
2025-08-22 20:12:12.305,-2.737389,-9.0951185,-1.5266209,-0.80176,1.0231222,1.6465096,-34.59375,-34.425003,12.825001,0.7353677,0.04612354,0.67077667,994.3979, , , , 
2025-08-22 20:12:12.325,-1.524228,-9.018549,-0.41635114,-0.7834341,0.88445586,2.6831472,-36.73125,-35.4,14.64375,0.72784156,0.019944122,0.68164945,994.3979, , , , 
2025-08-22 20:12:12.345,2.8354948,-9.410972,0.47138608,-0.47555822,0.54114985,3.4033568,-37.21875,-32.831253,13.481251,0.72289383,-0.007334089,0.6887792,994.39667, , , , 
2025-08-22 20:12:12.365,4.9196434,-10.530812,-0.19860429,-0.11636974,0.1758527,3.600666,-41.268753,-31.987501,12.3,0.7194575,-0.035332024,0.69293535,994.39667, , , , 
2025-08-22 20:12:12.385,5.790631,-11.952149,-1.3280165,0.2556469,-0.4710531,3.881053,-41.53125,-28.275002,11.34375,0.7185143,-0.06265002,0.69267553,994.3874, , , , 
2025-08-22 20:12:12.405,6.735796,-12.830315,-2.524428,0.4566214,-0.99578595,4.216418,-45.112503,-25.5375,12.656251,-0.7202735,0.0902,-0.68721026,994.3874, , , , 
2025-08-22 20:12:12.425,7.9226356,-13.4022,-3.7663028,0.35033095,-1.0275509,4.544452,-42.787502,-21.31875,12.937501,-0.7230891,0.12676631,-0.6751594,994.3676, , , , 
2025-08-22 20:12:12.445,8.5423765,-13.42852,-3.2925239,0.043065965,-0.6915753,4.798572,-46.537502,-16.3875,16.143751,-0.72208965,0.15951961,-0.66460544,994.3676, , , , 
2025-08-22 20:12:12.468,8.9826565,-13.021741,-1.5146568,-0.14263692,-0.326889,4.9305186,-46.74375,-12.4125,15.168751,-0.71685445,0.19487038,-0.6546636,994.3586, , , , 
2025-08-22 20:12:12.485,9.296116,-12.5551405,-0.63170516,-0.08888082,-0.14546217,4.964116,-48.2625,-6.8625,16.087502,-0.70803297,0.23050351,-0.6450063,994.3586, , , , 
2025-08-22 20:12:12.505,9.346365,-12.193824,-0.33260235,-0.00641408,-0.03978257,4.90303,-52.0875,-3.15,17.212502,-0.6964168,0.26483187,-0.6353008,994.3586, , , , 
2025-08-22 20:12:12.525,10.018748,-12.081362,-0.09092726,0.1499673,-0.0080176005,4.8065133,-48.7125,1.2750001,18.91875,-0.68277955,0.29717612,-0.6251523,994.3757, , , , 
2025-08-22 20:12:12.545,11.100305,-11.964113,-0.7537391,0.36438084,-0.07704532,4.5982084,-45.581253,7.74375,14.19375,-0.66406095,0.33330724,-0.61173654,994.3808, , , , 
2025-08-22 20:12:12.565,11.959328,-11.803794,-2.5387847,0.4138609,0.012751802,4.504135,-46.10625,10.9125,14.231251,-0.64803576,0.35921,-0.60054594,994.3808, , , , 
2025-08-22 20:12:12.585,13.03849,-11.01177,-3.9338005,0.088269964,0.3420079,4.3153777,-42.975002,13.481251,14.83125,-0.6309421,0.38498637,-0.58939093,994.3757, , , , 
2025-08-22 20:12:12.605,13.304094,-10.030712,-3.35713,-0.5079341,0.7219658,4.0331583,-42.99375,17.081251,15.4125,-0.6134586,0.41255862,-0.5786219,994.3757, , , , 
2025-08-22 20:12:12.626,14.467006,-9.243474,-0.42831525,-0.7492257,0.7360157,3.583562,-41.4375,20.587502,17.362501,-0.5967911,0.44033268,-0.5679506,994.37787, , , , 
2025-08-22 20:12:12.645,14.727823,-8.252846,1.0025927,-0.42791077,0.38782278,3.0844853,-40.987503,23.25,14.85,-0.5820165,0.46341088,-0.5581371,994.37787, , , , 
2025-08-22 20:12:12.665,14.840286,-7.30768,0.86141616,-0.04856375,0.120264,2.6684864,-39.6375,24.900002,14.606251,-0.5693673,0.48000187,-0.5495035,994.40497, , , , 
2025-08-22 20:12:12.685,14.957535,-6.778867,-0.078963146,0.21838416,0.20150901,2.290972,-35.86875,27.018751,15.937501,-0.55778646,0.49181768,-0.54300696,994.40497, , , , 
2025-08-22 20:12:12.705,15.168102,-6.5682983,-1.146162,0.2696968,0.5588649,1.9128467,-34.3125,30.16875,14.3625,-0.5433018,0.5036997,-0.53895456,994.41254, , , , 
2025-08-22 20:12:12.725,15.041284,-6.242874,-1.4739788,0.20799945,0.757396,1.5603777,-34.0875,29.94375,14.981251,-0.53200036,0.5124882,-0.53858256,994.41254, , , , 
2025-08-22 20:12:12.745,15.670595,-6.6089764,-1.8161523,0.1640172,0.33162323,1.1144464,-33.018753,32.925003,12.993751,-0.5231028,0.5192241,-0.53878564,994.4189, , , , 
2025-08-22 20:12:12.765,15.885949,-6.778867,-1.8161523,0.15057817,-0.17478369,0.7870229,-32.287502,32.1375,12.95625,-0.5198813,0.52142596,-0.5381039,994.4189, , , , 
2025-08-22 20:12:12.785,17.077576,-6.975078,-1.2370893,0.021685699,-0.6940187,0.13095413,-29.681252,33.393753,12.0,-0.52149844,0.5196683,-0.5353319,994.42865, , , , 
2025-08-22 20:12:12.805,16.955542,-8.183454,-0.57906306,-0.02046397,-0.74777484,-0.46402815,-30.581251,33.412502,13.781251,-0.5279704,0.5141208,-0.5339582,994.42865, , , , 
2025-08-22 20:12:12.825,15.613168,-7.9776707,0.05742774,0.025961753,-0.63293225,-0.93133974,-31.406252,31.593752,14.606251,-0.5367452,0.50589997,-0.5348151,994.44135, , , , 
2025-08-22 20:12:12.845,14.675181,-8.126026,0.078963146,0.06750056,-0.53946996,-1.458516,-31.10625,33.73125,13.51875,-0.54914165,0.49262866,-0.5394095,994.44135, , , , 
2025-08-22 20:12:12.865,14.139189,-9.305687,-0.014356935,0.08888082,-0.5822305,-1.9209406,-33.45,32.362503,14.925,-0.5579765,0.48265585,-0.543614,994.44135, , , , 
2025-08-22 20:12:12.885,13.4045925,-11.035698,-0.15553348,0.113926284,-0.9218713,-2.4866014,-33.46875,30.13125,15.056251,-0.57630455,0.4613395,-0.55137664,994.465, , , , 
2025-08-22 20:12:12.905,12.564712,-12.344572,-0.10049855,0.051007207,-1.1808779,-2.9013786,-36.5625,29.306252,15.262501,-0.5944647,0.44006774,-0.5568631,994.4726, , , , 
2025-08-22 20:12:12.925,12.524034,-13.861622,0.53359944,-0.01924224,-1.2450187,-3.283169,-37.0125,26.5125,17.475,-0.6144323,0.4162899,-0.5617582,994.4726, , , , 
2025-08-22 20:12:12.945,12.339787,-14.624932,0.87338024,-0.029016078,-1.1289545,-3.5782168,-37.331253,24.112501,16.425001,-0.6345995,0.39054975,-0.5671066,994.48285, , , , 
2025-08-22 20:12:12.965,11.913864,-14.313865,0.85184485,-0.0650571,-0.83635026,-3.8109562,-39.65625,23.737501,18.993752,-0.65360767,0.3636086,-0.57378954,994.48285, , , , 
2025-08-22 20:12:12.985,11.13859,-13.423735,0.49052864,-0.160352,-0.22976151,-4.0724063,-41.79375,16.800001,19.462502,-0.6700915,0.33660328,-0.5829294,994.4902, , , , 
2025-08-22 20:12:13.006,10.963913,-12.696317,0.3900301,-0.26603162,0.32368198,-4.3460736,-41.11875,17.118752,18.6,-0.6833702,0.3101298,-0.59499264,994.4902, , , , 
2025-08-22 20:12:13.025,10.246066,-12.801601,0.040677983,-0.31184646,0.7653372,-4.6588364,-45.84375,11.493751,22.81875,-0.6956705,0.27640125,-0.6137509,994.47943,37.88831499,127.7397063,149.53533935546875,1.33
2025-08-22 20:12:13.045,10.377672,-13.117454,-0.40917268,-0.3252855,0.9992984,-4.9404454,-46.96875,8.325001,16.931252,-0.7027281,0.24817182,-0.63005847,994.47943, , , , 
2025-08-22 20:12:13.065,9.585648,-13.282558,-2.2444677,-0.44440413,0.9614248,-5.198841,-46.95,4.7250004,15.6,-0.70818925,0.21838233,-0.6459734,994.47406, , , , 
2025-08-22 20:12:13.085,8.891729,-13.655839,-3.1465619,-0.7956514,0.6798161,-5.3008556,-46.987503,-1.8937501,17.53125,-0.7139891,0.18853486,-0.65845114,994.47406, , , , 
2025-08-22 20:12:13.105,7.9537425,-14.196617,-1.4500505,-0.92454386,0.49105892,-5.227552,-47.175003,-7.2375,16.143751,-0.72020704,0.15986088,-0.66672796,994.4455, , , , 
2025-08-22 20:12:13.125,6.2715883,-13.526627,-0.1268196,-0.6368265,0.6559924,-4.9807625,-46.6875,-10.05,14.868751,-0.7243623,0.13152704,-0.6733224,994.4455, , , , 
2025-08-22 20:12:13.145,4.517649,-12.421143,-0.9379865,-0.2696968,1.1678971,-4.467636,-46.29375,-18.956251,14.718751,-0.7232236,0.096455574,-0.683314,994.43304, , , , 
2025-08-22 20:12:13.165,3.1848469,-11.619547,-2.1822543,-0.19883649,1.6388738,-3.9355726,-44.756252,-20.90625,12.656251,0.7170723,-0.070860535,0.693386,994.43304, , , , 
2025-08-22 20:12:13.185,1.875973,-10.77488,-2.1774685,-0.21655156,1.8038074,-3.3222644,-44.30625,-24.69375,10.51875,0.70733166,-0.04933925,0.70466936,994.4157, , , , 
2025-08-22 20:12:13.205,1.1796615,-9.738789,-1.6797615,-0.050396346,1.317559,-2.7578254,-41.04375,-29.7,8.90625,0.69782555,-0.031244999,0.7140722,994.4157, , , , 
2025-08-22 20:12:13.225,0.6723832,-8.88455,-1.4380864,0.205556,0.3982075,-2.289292,-40.275,-28.968752,5.8500004,0.6927346,-0.015087596,0.71836287,994.41327, , , , 
2025-08-22 20:12:13.245,0.26799613,-8.374879,-1.6558332,0.37659815,-0.18639012,-1.8146502,-39.862503,-30.431252,7.74375,0.6925589,-5.961284E-4,0.7176487,994.41327, , , , 
2025-08-22 20:12:13.265,0.46660042,-7.984849,-2.0482562,0.41630435,-0.41302094,-1.2080615,-39.412502,-32.5125,8.75625,0.6960416,0.013411187,0.71329594,994.3996, , , , 
2025-08-22 20:12:13.285,0.47856453,-7.7120676,-2.4023938,0.32467464,-0.46311185,-0.71692616,-38.71875,-33.43125,8.56875,0.69971836,0.020419318,0.70922834,994.3996, , , , 
2025-08-22 20:12:13.305,0.32303107,-7.6331043,-2.3401806,0.17501275,-0.5443569,-0.23067781,-38.5125,-33.675003,10.575001,0.7037034,0.023278985,0.7051693,994.3984, , , , 
2025-08-22 20:12:13.325,-0.30867413,-8.429914,-2.3018954,0.055283263,-0.66591895,0.35391977,-38.362503,-34.518753,8.90625,0.7084239,0.02154551,0.7007819,994.3984, , , , 
2025-08-22 20:12:13.345,-0.95712906,-8.145168,-1.6438692,-0.003970621,-0.8381828,1.3600141,-38.15625,-35.4,12.168751,0.7140469,0.013880398,0.69604474,994.4025, , , , 
2025-08-22 20:12:13.367,1.0049855,-7.865208,-0.782453,0.038789913,-0.7972549,2.0680063,-36.99375,-33.393753,10.2375,0.7200818,-9.112153E-5,0.69122213,994.4025, , , , 
2025-08-22 20:12:13.385,3.3140593,-8.202596,-1.2634103,0.11636974,-0.47594002,2.674595,-39.487503,-32.550003,12.618751,0.72433156,-0.017997159,0.68789566,994.4128, , , , 
2025-08-22 20:12:13.405,4.503292,-9.267402,-2.2660031,0.038179047,-0.1625664,3.031951,-41.325,-30.862501,11.475,0.7259613,-0.038855474,0.686301,994.4128, , , , 
2025-08-22 20:12:13.425,5.3766723,-10.454242,-2.6536403,-0.13775001,-0.106977694,3.4100764,-42.7125,-27.525002,11.7375,-0.7250527,0.06964697,-0.6851265,994.4001, , , , 
2025-08-22 20:12:13.445,6.1304116,-11.284552,-2.0841484,-0.22937973,-0.27557638,3.7460518,-44.006252,-24.431252,13.406251,-0.72360086,0.09790739,-0.68251693,994.4001, , , , 
2025-08-22 20:12:13.465,7.0301127,-11.844472,-1.1676974,-0.1725693,-0.4710531,4.0362124,-45.131252,-22.6875,13.25625,-0.7224012,0.12060469,-0.67894137,994.4001, , , , 
2025-08-22 20:12:13.485,7.999206,-12.4115715,-0.4211368,0.0858265,-0.68424493,4.34531,-46.03125,-17.79375,12.918751,-0.71968955,0.1591238,-0.67003524,994.4018, , , , 
2025-08-22 20:12:13.505,8.472985,-12.990634,-0.5407779,0.37110037,-0.76548994,4.617145,-46.10625,-13.200001,11.90625,-0.7161662,0.18932346,-0.660676,994.41327, , , , 
2025-08-22 20:12:13.525,9.2793665,-12.861422,-1.1174482,0.47189304,-0.73494667,4.8181195,-47.006252,-9.5625,12.562501,-0.7105968,0.21928157,-0.64979595,994.41327, , , , 
2025-08-22 20:12:13.545,10.169497,-12.533605,-1.146162,0.4572323,-0.63293225,4.912193,-50.156254,-4.05,14.118751,-0.7027776,0.24925943,-0.63763714,994.40717, , , , 
2025-08-22 20:12:13.565,11.365908,-11.810972,-0.66041905,0.45478883,-0.41607526,4.8669887,-49.93125,-0.3375,19.59375,-0.6923401,0.27889583,-0.62509704,994.40717, , , , 
2025-08-22 20:12:13.585,12.44507,-11.148161,-0.6843473,0.47922343,-0.06421716,4.581715,-45.787502,6.8437505,15.356251,-0.67556125,0.3136838,-0.6108322,994.4062, , , , 
2025-08-22 20:12:13.605,12.500106,-10.514063,-0.971486,0.41935867,0.20028728,4.202368,-46.8375,9.712501,16.5375,-0.6600805,0.338976,-0.60132897,994.4062, , , , 
2025-08-22 20:12:13.625,11.3683,-10.049855,-1.2155539,0.3008509,0.3493383,3.9598546,-44.90625,11.90625,15.13125,-0.64386326,0.3626364,-0.59281445,994.4086, , , , 
2025-08-22 20:12:13.645,11.069198,-9.74836,-1.4979069,0.15668681,0.41836601,3.9555786,-44.850002,16.518751,15.4875,-0.62715375,0.38611463,-0.5837586,994.4086, , , , 
2025-08-22 20:12:13.665,12.449856,-8.71466,-1.8113668,0.06994402,0.563141,3.8511207,-41.49375,19.987501,13.5375,-0.60963255,0.4096783,-0.5741549,994.4035, , , , 
2025-08-22 20:12:13.685,13.24188,-7.628319,-1.9740787,-0.13713914,0.8710168,3.4797149,-39.862503,22.275002,13.387501,-0.59179395,0.4326144,-0.5655664,994.4035, , , , 
2025-08-22 20:12:13.705,13.07199,-6.680761,-1.3615161,-0.33444846,1.0609958,3.0166793,-38.756252,25.612501,14.793751,-0.5744693,0.45477945,-0.5588923,994.3896, , , , 
2025-08-22 20:12:13.725,12.758531,-6.448657,-0.3804588,-0.12797616,0.57658,2.5402048,-38.11875,27.281252,14.306251,-0.5558572,0.477844,-0.5515524,994.3896, , , , 
2025-08-22 20:12:13.745,12.624533,-6.927222,-1.3950156,0.25137085,-0.031841327,2.2897503,-34.125,29.56875,13.293751,-0.544416,0.48943225,-0.54512703,994.38104, , , , 
2025-08-22 20:12:13.765,13.351951,-7.365108,-2.902494,0.38759372,-0.36293003,2.1712425,-35.0625,30.843752,14.1,-0.5373799,0.4951916,-0.5396812,994.38104, , , , 
2025-08-22 20:12:13.785,15.969698,-7.958528,-4.5152564,0.1744019,-0.5614611,1.8658102,-33.412502,30.375002,15.0375,-0.5285894,0.50227535,-0.52939713,994.35126, , , , 
2025-08-22 20:12:13.805,17.970098,-7.6809607,-4.4434714,-0.31245732,-0.4899899,1.3368012,-29.925001,35.23125,14.231251,-0.5257316,0.50707906,-0.5207859,994.35126, , , , 
2025-08-22 20:12:13.825,19.580467,-8.281559,-2.5842485,-0.77182764,-0.23648103,0.59032446,-27.675001,34.818752,15.1125,-0.5274236,0.5115612,-0.513482,994.3532, , , , 
2025-08-22 20:12:13.845,20.02314,-9.190832,0.25124636,-0.7706059,0.028023422,-0.2361756,-26.625002,36.318752,13.200001,-0.5327386,0.51409996,-0.51004785,994.3532, , , , 
2025-08-22 20:12:13.865,18.31945,-7.8029947,1.4691931,-0.2941314,0.20089816,-1.1408663,-29.025002,33.9375,15.150001,-0.5414907,0.5105195,-0.5142279,994.3913, , , , 
2025-08-22 20:12:13.885,16.476976,-8.106883,0.6987042,0.066889696,0.122707464,-1.95576,-28.10625,34.162502,14.56875,-0.5503649,0.50084895,-0.52358884,994.3913, , , , 
2025-08-22 20:12:13.905,14.806787,-9.829716,-0.4761717,0.2953531,-0.21326816,-2.6686392,-32.7,31.687502,15.187501,-0.56251365,0.48485476,-0.53552085,994.4255, , , , 
2025-08-22 20:12:13.925,13.629518,-11.420942,-1.1389836,0.33994624,-0.6604212,-3.1225116,-33.412502,30.6,17.962502,-0.5742205,0.46911684,-0.5443201,994.4255, , , , 
2025-08-22 20:12:13.945,12.224931,-12.957134,-0.9499506,0.17806709,-1.1937062,-3.4664285,-34.706253,27.000002,16.29375,-0.598297,0.4380049,-0.5558803,994.44183, , , , 
2025-08-22 20:12:13.965,11.980863,-13.856836,-0.059820566,0.02535089,-1.361083,-3.6386924,-37.18125,27.112501,17.15625,-0.61985236,0.41103172,-0.5622019,994.44183, , , , 
2025-08-22 20:12:13.985,11.767901,-14.529219,0.7513463,-0.038179047,-1.3464223,-3.8066802,-36.9375,23.90625,16.087502,-0.6417518,0.38285017,-0.5672921,994.4538, , , , 
2025-08-22 20:12:14.007,11.033305,-14.220545,1.2921243,-0.016187917,-1.1637738,-3.8714318,-40.443752,21.056252,16.29375,-0.6624775,0.35385945,-0.5723127,994.4538, , , , 
2025-08-22 20:12:14.025,10.736595,-13.205988,1.2562319,-0.0027488915,-0.8839977,-3.897699,-42.24375,16.743752,19.81875,-0.68495256,0.31766117,-0.5795435,994.4804,37.88830067,127.73970406,149.99053955078125,1.34
2025-08-22 20:12:14.045,10.99502,-12.387643,1.0624132,-0.059559315,-0.52053314,-4.038809,-42.9375,14.925,21.393751,-0.7000508,0.2889862,-0.58676666,994.4804, , , , 
2025-08-22 20:12:14.065,10.947164,-12.12204,1.0719845,-0.123089254,-0.14240785,-4.2739916,-42.65625,12.075001,23.23125,-0.70961493,0.26735306,-0.59364957,994.4804, , , , 
2025-08-22 20:12:14.085,10.356136,-12.540784,1.5625132,-0.11331542,0.109268434,-4.6637235,-47.5125,7.4812503,21.206251,-0.7224529,0.22986421,-0.6076343,994.4848, , , , 
2025-08-22 20:12:14.106,9.669396,-12.985848,2.1511476,0.0980438,-0.12408191,-4.892187,-45.112503,3.99375,20.550001,-0.7314099,0.19701806,-0.6184377,994.49384, , , , 
2025-08-22 20:12:14.125,8.9013,-13.227524,1.8185452,0.32223117,-0.35071275,-5.0473466,-46.3125,-1.10625,21.431252,-0.7401882,0.16070715,-0.6268542,994.49384, , , , 
2025-08-22 20:12:14.145,7.9011,-13.215559,1.052842,0.39431322,-0.23648103,-5.068727,-46.0125,-6.05625,22.44375,-0.7478541,0.122555375,-0.6333951,994.5019, , , , 
2025-08-22 20:12:14.166,6.8410797,-12.815958,0.44985065,0.3527744,0.092164226,-4.9483867,-45.99375,-9.65625,21.88125,-0.75247216,0.084945336,-0.6399769,994.5019, , , , 
2025-08-22 20:12:14.185,5.541777,-12.205789,-0.5455636,0.2122755,0.49350238,-4.6050806,-43.6875,-15.637501,21.825,-0.752837,0.041617714,-0.6495254,994.4948, , , , 
2025-08-22 20:12:14.206,5.0368915,-11.669796,-0.8853444,0.030237807,0.6627119,-4.2672725,-43.3875,-20.94375,18.84375,-0.74989873,0.011181229,-0.65743077,994.4948, , , , 
2025-08-22 20:12:14.225,4.4721856,-10.906486,-0.5383851,-0.03940078,0.38721192,-3.9508443,-42.91875,-21.393751,20.53125,-0.74624103,-0.016154904,-0.66371,994.4899, , , , 
2025-08-22 20:12:14.245,3.196811,-10.466207,-0.09092726,0.052839804,-0.062995434,-3.62281,-41.2125,-24.35625,22.21875,-0.7440159,-0.041725114,-0.66635484,994.4899, , , , 
2025-08-22 20:12:14.265,2.0602202,-10.202995,-0.29671,0.1621846,-0.3171152,-3.1774895,-38.25,-28.0125,19.95,-0.74358815,-0.065403536,-0.66540104,994.48773, , , , 
2025-08-22 20:12:14.285,0.72263247,-9.475577,-1.1485549,0.12492185,-0.1955531,-2.5812855,-35.7,-30.6,19.837502,0.74358845,0.08581133,0.6630381,994.48773, , , , 
