timestamp,pressure,acc_x,acc_y,acc_z,gyro_x,gyro_y,gyro_z,mag_x,mag_y,mag_z,mag_bias_x,mag_bias_y,mag_bias_z,game_x,game_y,game_z,game_w,rot_x,rot_y,rot_z,rot_w,rot_accuracy,step
1763545166867,1009.76385,0.14057833,4.532604,7.673184,0.10499238,-0.04214967,0.033444848,34.2,3.3000002,9.975,46.950733,0.3361091,49.741684,0.16988446,0.16676009,0.69247836,0.6810316,0.22889303,-0.063162945,-0.24186704,0.9408075,-1.0,0
1763545166892,1009.7553,0.33080772,4.7455654,7.967501,-0.082543105,0.066736974,0.0042760535,34.425003,2.8500001,7.8,46.950733,0.3361091,49.741684,0.16935517,0.16702309,0.6926171,0.68095785,0.22949989,-0.06251153,-0.24078259,0.9409813,-1.0,0
1763545166917,1009.75165,-0.059820566,4.5296135,9.379267,-0.12163845,0.11575887,-0.029932374,34.0125,1.44375,6.6937504,46.950733,0.3361091,49.741684,0.16677184,0.16685711,0.6930142,0.6812321,0.22810961,-0.06016769,-0.24002086,0.94166654,-1.0,0
1763545166942,1009.75165,-0.16211374,4.5038905,9.246465,-0.008170316,0.006872229,-0.0,33.525,2.8500001,9.918751,46.950733,0.3361091,49.741684,0.16652472,0.16668177,0.69306666,0.6812821,0.22777589,-0.06026148,-0.2409434,0.9415057,-1.0,0
1763545166967,1009.75555,-0.04426722,4.566702,8.6961155,0.059941106,-0.053145237,0.027947064,34.350002,4.0687504,9.6,46.950733,0.3361091,49.741684,0.16682926,0.16666271,0.6930932,0.6811853,0.22785759,-0.060740247,-0.24169683,0.941262,-1.0,0
1763545166992,1009.75555,0.17527425,4.685745,8.425129,0.0020616686,-0.03604102,0.019394957,37.706253,3.6937501,6.3375,46.950733,0.3361091,49.741684,0.16705412,0.16658147,0.69310886,0.68113405,0.22790754,-0.060947698,-0.24152972,0.9412794,-1.0,0
1763545167017,1009.75555,0.09990034,4.5242295,9.32124,-0.065286174,0.00076358096,-0.013591741,33.99375,3.6562502,9.0375,46.950733,0.3361091,49.741684,0.16668357,0.1658893,0.6931378,0.6813643,0.22716832,-0.06080479,-0.24101138,0.94160014,-1.0,0
1763545167042,1009.7636,0.18005991,4.482953,9.389436,0.013515383,-0.026572619,-0.0070249448,33.91875,3.16875,7.3875003,46.950733,0.3361091,49.741684,0.16677013,0.16554223,0.6931224,0.6814432,0.2268871,-0.061145365,-0.24146669,0.9415293,-1.0,0
1763545167067,1009.7636,0.17527425,4.4895334,9.110074,0.056734066,0.014355322,-0.004581486,33.112503,3.80625,10.200001,46.950733,0.3361091,49.741684,0.16675456,0.16565226,0.69318247,0.6813591,0.22697389,-0.06107876,-0.24137242,0.94153684,-1.0,0
1763545167092,1009.77167,-0.11964113,4.6486564,8.551949,0.055665053,0.032070402,-0.008704823,34.706253,3.4875002,7.89375,46.950733,0.3361091,49.741684,0.16690546,0.16680712,0.6930612,0.68116385,0.22801681,-0.060748488,-0.24175517,0.94120795,-1.0,0
1763545167118,1009.76654,-0.033499517,4.670192,8.483154,0.035964664,-0.051618073,-0.010537418,35.9625,3.1312501,7.1625004,46.950733,0.3361091,49.741684,0.16755453,0.16704403,0.69272476,0.6812886,0.22854544,-0.061198104,-0.2420601,0.9409722,-1.0,0
1763545167143,1009.76654,0.0047856453,4.598407,8.800203,-0.0080176005,-0.061544627,-0.006872229,37.48125,3.3000002,6.2250004,46.950733,0.3361091,49.741684,0.16798905,0.16692184,0.69254696,0.6813924,0.2286587,-0.06163124,-0.24222231,0.9408747,-1.0,0
1763545167168,1009.77264,0.19561325,4.5631127,9.038888,0.050625417,0.030390523,-0.0006108648,34.050003,3.91875,8.71875,46.950733,0.3361091,49.741684,0.16810766,0.1670331,0.6926309,0.68125045,0.22881,-0.06169467,-0.2421257,0.9408586,-1.0,0
1763545167193,1009.7741,0.064008005,4.582854,8.457432,0.06971494,0.025961753,-0.004581486,33.225002,2.8312502,9.9375,46.950733,0.3361091,49.741684,0.16846873,0.16742286,0.69255334,0.6811444,0.22933665,-0.061780434,-0.24194477,0.9407713,-1.0,0
1763545167219,1009.7741,0.0047856453,4.562515,8.20798,0.022983788,-0.020005822,-0.02046397,33.80625,2.6437502,8.043751,46.950733,0.3361091,49.741684,0.1689166,0.1675288,0.69226545,0.6813001,0.22966698,-0.062062763,-0.24201089,0.9406551,-1.0,0
1763545167244,1009.77264,-0.09990034,4.3854456,8.554341,-0.03810269,-0.014813471,-0.024740024,33.80625,3.5062501,9.225,46.950733,0.3361091,49.741684,0.16869223,0.16761255,0.69211984,0.681483,0.22962308,-0.06184081,-0.24230012,0.940606,-1.0,0
1763545167269,1009.77264,-0.054436713,4.5415773,8.965906,-0.016111558,0.04138609,0.02046397,34.050003,2.41875,8.175,46.950733,0.3361091,49.741684,0.16721438,0.16783534,0.6925107,0.68139535,0.22900468,-0.060714174,-0.24311079,0.94062096,-1.0,0
1763545167294,1009.76996,-0.014955142,4.5930233,8.778668,0.014584397,-0.01924224,0.021838415,35.081253,2.53125,9.150001,46.950733,0.3361091,49.741684,0.16739596,0.16765536,0.69257706,0.6813276,0.22892354,-0.06102242,-0.24326934,0.9405798,-1.0,0
1763545167319,1009.7668,0.020937199,4.5690947,8.609376,-0.016111558,-0.04382955,0.016493348,35.381252,3.3000002,8.606251,46.950733,0.3361091,49.741684,0.16748431,0.16736624,0.69262654,0.6813267,0.2287358,-0.061174996,-0.24296163,0.94069505,-1.0,0
1763545167344,1009.7668,0.016749758,4.686941,8.772088,-0.066507906,0.034361143,0.03176497,33.99375,4.40625,9.150001,46.950733,0.3361091,49.741684,0.16655439,0.1671983,0.69314915,0.6810643,0.22839451,-0.060853668,-0.24277504,0.940847,-1.0,0
1763545167370,1009.7712,0.2847459,4.730012,9.018549,-0.033368487,0.023365578,0.026725333,34.331253,3.825,8.53125,46.950733,0.3361091,49.741684,0.16651951,0.16722682,0.6933528,0.68085855,0.2281389,-0.06038371,-0.24208575,0.94111687,-1.0,0
1763545167395,1009.77313,0.019740786,4.597809,8.825927,-0.011377357,0.023365578,0.020005822,32.643753,3.525,9.1875,46.950733,0.3361091,49.741684,0.16665378,0.16709839,0.6935988,0.68060654,0.22811286,-0.060496893,-0.24146639,0.941275,-1.0,0
1763545167420,1009.77313,0.31764722,4.5170507,8.979067,0.015806125,-0.04046979,0.0001527162,34.40625,3.6750002,10.856251,46.950733,0.3361091,49.741684,0.16715282,0.16664398,0.69365466,0.6805387,0.22811534,-0.060507394,-0.24133196,0.9413082,-1.0,0
1763545167445,1009.77655,0.3278167,4.406383,8.683554,0.0028252497,-0.028863361,-0.03375028,34.18125,3.05625,7.8187504,46.950733,0.3361091,49.741684,0.16734692,0.16611063,0.6934958,0.6807833,0.2279891,-0.06108394,-0.24108031,0.941366,-1.0,0
1763545167471,1009.77655,0.23868406,4.4117665,8.619545,-0.030772313,0.03252855,-0.04703659,32.850002,3.9,9.76875,46.950733,0.3361091,49.741684,0.1670365,0.16587415,0.6933885,0.6810264,0.22734322,-0.06107773,-0.24042822,0.9416894,-1.0,0
1763545167495,1009.78534,0.10887343,4.499105,8.55135,-0.03489565,0.03008509,-0.041691523,32.850002,3.9,10.06875,46.950733,0.3361091,49.741684,0.16681059,0.165638,0.693278,0.6812517,0.22705337,-0.06089744,-0.24024878,0.94181675,-1.0,0
1763545167520,1009.7841,0.23449662,4.601398,8.873184,-0.05902481,-0.046425723,-0.03176497,31.218752,3.1125002,10.9125,46.950733,0.3361091,49.741684,0.16692366,0.16481614,0.69286776,0.6818405,0.2264134,-0.06135833,-0.24075557,0.9418115,-1.0,0
1763545167546,1009.7841,0.11066805,4.5373898,9.233903,-0.059635673,-0.010231985,-0.059253883,35.1375,4.275,8.887501,46.950733,0.3361091,49.741684,0.16665807,0.16439046,0.69258016,0.6823002,0.22592573,-0.061291855,-0.24108467,0.94184875,-1.0,0
1763545167570,1009.7902,-0.04546363,4.503292,9.247662,-0.018249584,0.023976443,-0.059559315,34.631252,4.8187504,11.0625,46.950733,0.3361091,49.741684,0.16613206,0.1644007,0.6923474,0.6826622,0.22565258,-0.0608963,-0.24178226,0.9417611,-1.0,0
1763545167596,1009.79095,-0.08075777,4.7808595,8.331808,0.0058795735,0.029168794,-0.02565632,33.768753,3.4875002,11.400001,46.950733,0.3361091,49.741684,0.16564089,0.16535525,0.69197875,0.68292475,0.22621132,-0.060064122,-0.24249628,0.94149685,-1.0,0
1763545167622,1009.79095,0.01375873,4.698307,8.42453,-0.05535962,-0.009468404,-0.009010255,35.90625,2.86875,7.8,46.950733,0.3361091,49.741684,0.16567475,0.16558976,0.6918375,0.68300277,0.22645076,-0.05990115,-0.24232562,0.9414936,-1.0,0
1763545167647,1009.78046,0.17347965,4.5134616,8.763115,-0.069867656,0.03252855,-0.0036651888,34.725002,4.4625,10.1625,46.950733,0.3361091,49.741684,0.16528933,0.16574168,0.6919186,0.68297714,0.22641519,-0.05938888,-0.24183536,0.94166064,-1.0,0
1763545167672,1009.7858,0.2416751,4.694718,8.912068,0.08391755,-0.046883874,0.033444848,33.862503,4.51875,9.46875,46.950733,0.3361091,49.741684,0.16706865,0.16591527,0.69204265,0.68237615,0.22750907,-0.060658287,-0.24050593,0.9416566,-1.0,0
1763545167697,1009.7858,0.2745764,4.946563,8.228319,0.20303617,-0.24113888,0.08628465,35.568752,3.45,8.7375,46.950733,0.3361091,49.741684,0.17116338,0.16553916,0.6918049,0.6816934,0.229298,-0.064206995,-0.239308,0.9412925,-1.0,0
1763545167723,1009.78436,0.29671,4.9226346,7.5696945,0.1720348,-0.4147772,0.12186752,34.55625,3.5812502,9.150001,46.950733,0.3361091,49.741684,0.17612764,0.1640736,0.6914631,0.6811297,0.2305907,-0.06905815,-0.23828353,0.9408931,-1.0,0
1763545167749,1009.78436,0.92243314,4.612764,8.330014,0.08468113,-0.40683594,0.12996148,33.600002,2.71875,12.225,46.950733,0.3361091,49.741684,0.17996892,0.16263066,0.69142765,0.6805073,0.23135991,-0.07287074,-0.2368239,0.9407852,-1.0,0
1763545167774,1009.7724,1.599602,5.188836,8.059027,-0.19982915,0.25885394,0.11866048,33.487503,2.60625,8.53125,46.950733,0.3361091,49.741684,0.17978157,0.16107479,0.6941364,0.6781653,0.23035327,-0.072137944,-0.2278672,0.94329745,-1.0,0
1763545167800,1009.7587,1.7294126,5.3982077,8.322237,-0.25282165,0.38026333,0.085215636,35.11875,4.2562504,9.65625,46.950733,0.3361091,49.741684,0.17978157,0.16107479,0.6941364,0.6781653,0.23035327,-0.072137944,-0.2278672,0.94329745,-1.0,0
1763545167824,1009.7587,0.99720883,5.4640107,8.053643,-0.20777038,0.23747368,0.021838415,35.756252,2.23125,8.625,46.950733,0.3361091,49.741684,0.1742179,0.16133174,0.6963094,0.67732817,0.22778717,-0.06702845,-0.22522023,0.94493175,-1.0,0
1763545167849,1009.7563,0.657428,5.1050873,8.758927,-0.14179699,-0.18493931,0.009926553,34.55625,3.80625,12.056251,46.950733,0.3361091,49.741684,0.17465757,0.15766448,0.6964202,0.67796427,0.22488609,-0.06920691,-0.22538571,0.94543004,-1.0,0
1763545167874,1009.7675,0.3068795,5.003392,9.049057,-0.12133302,-0.09392046,0.03497201,35.287502,3.6562502,9.825001,46.950733,0.3361091,49.741684,0.17435914,0.15652321,0.6968228,0.6778918,0.22375996,-0.06951338,-0.2250241,0.94576085,-1.0,0
1763545167900,1009.7675,-0.060418773,5.0530434,9.140582,-0.11064288,0.12568542,0.09025527,33.768753,4.8562503,11.00625,46.950733,0.3361091,49.741684,0.17272589,0.15690662,0.6979456,0.67706573,0.22325283,-0.06791234,-0.2237307,0.94630367,-1.0,0
1763545167925,1009.76263,-0.51086766,5.538188,8.269595,0.04176788,0.14294235,0.16615522,34.4625,3.9375002,10.51875,46.950733,0.3361091,49.741684,0.17117676,0.15916428,0.70044583,0.6743448,0.22365908,-0.06579877,-0.22197416,0.9467706,-1.0,0
1763545167951,1009.76263,-0.37746778,5.588437,7.905886,0.017791437,-0.11560616,0.1499673,36.91875,2.9625,9.543751,46.950733,0.3361091,49.741684,0.17246644,0.15822782,0.70102227,0.6736372,0.22438467,-0.06546959,-0.22030061,0.9470126,-1.0,0
1763545167978,1009.7668,-0.011365907,5.3736815,8.660822,-0.093996815,-0.16019928,0.10461059,33.487503,4.8375,9.637501,46.950733,0.3361091,49.741684,0.17283213,0.15685038,0.7015022,0.6733659,0.22324859,-0.06806657,-0.21887599,0.9474283,-1.0,0
1763545168004,1009.7807,-0.62093747,5.4346986,9.670592,0.014278964,0.21792601,0.12415826,32.831253,3.8812501,11.475,46.950733,0.3361091,49.741684,0.17067865,0.1587863,0.70342124,0.6714569,0.22276443,-0.06675275,-0.21798947,0.94784,-1.0,0
1763545168029,1009.7807,-0.2757728,5.802595,8.961121,0.2163225,0.031306818,0.1508836,34.800003,2.7375002,10.856251,46.950733,0.3361091,49.741684,0.17270541,0.16031022,0.70384043,0.67013586,0.22613358,-0.066258095,-0.21520983,0.94771206,-1.0,0
1763545168054,1009.77045,0.18664017,6.1040907,7.8287177,0.28229588,-0.17272201,0.0858265,35.925003,3.9562502,11.137501,46.950733,0.3361091,49.741684,0.17584217,0.16101518,0.70340645,0.6696066,0.22834729,-0.06858478,-0.2149498,0.9470746,-1.0,0
1763545168079,1009.7668,-0.2620141,5.896513,8.160722,-0.20502149,0.23319763,-0.14859286,35.86875,2.1000001,9.5625,46.950733,0.3361091,49.741684,0.1726748,0.16228706,0.7024917,0.6710825,0.22784352,-0.06512293,-0.21631195,0.94713014,-1.0,0
1763545168104,1009.7668,-0.8213364,5.629115,9.550952,-0.21418446,0.44715303,-0.12034036,38.287502,3.9750001,9.806251,46.950733,0.3361091,49.741684,0.16844405,0.16464002,0.70277274,0.67129034,0.22769132,-0.06030249,-0.21642284,0.94746053,-1.0,0
1763545168130,1009.7697,-0.8386843,5.6739807,9.599406,0.039935283,0.37384924,-0.042455103,34.706253,4.4625,10.6125,46.950733,0.3361091,49.741684,0.1669635,0.16768014,0.7028426,0.67083436,0.22953263,-0.057517156,-0.21617582,0.9472458,-1.0,0
1763545168155,1009.75604,-0.18364914,5.9521465,7.9770727,0.40324712,-0.14492767,-0.034666575,35.4375,2.9250002,10.1625,46.950733,0.3361091,49.741684,0.17288977,0.17231323,0.70085496,0.67023844,0.23653296,-0.060290042,-0.21690574,0.9451821,-1.0,0
1763545168180,1009.75604,-0.23688944,5.8271213,7.426125,0.34903285,-0.077121675,-0.06536253,35.775,2.4562502,10.012501,46.950733,0.3361091,49.741684,0.17522568,0.17472734,0.6997532,0.670158,0.23980679,-0.061044104,-0.21733584,0.94420946,-1.0,0
1763545168205,1009.7414,-0.43489552,5.8971114,7.3453674,0.23556472,0.14156792,-0.07147118,34.66875,2.1000001,10.9125,46.950733,0.3361091,49.741684,0.17544779,0.17783305,0.69915277,0.6699096,0.24259794,-0.05960507,-0.21727599,0.94360197,-1.0,0
1763545168234,1009.7419,-0.59700924,6.0233326,7.6977105,0.31360272,0.08429934,-0.02535089,34.10625,1.3125,9.01875,46.950733,0.3361091,49.741684,0.17768207,0.1841347,0.6978997,0.66892415,0.24914737,-0.058327556,-0.21718907,0.94199383,-1.0,0
1763545168259,1009.7419,-0.2847459,6.133403,7.432107,0.41363183,-0.094378605,-0.045509428,35.15625,0.7875,9.543751,46.950733,0.3361091,49.741684,0.18129,0.18654454,0.69643235,0.6688176,0.25307268,-0.0601593,-0.21772538,0.94070756,-1.0,0
1763545168285,1009.74677,-0.5509474,6.343373,7.203593,0.3589594,-0.15347977,-0.100945406,35.550003,1.0875001,7.6312504,46.950733,0.3361091,49.741684,0.18420482,0.18840824,0.6948414,0.6691535,0.25617573,-0.06166892,-0.21868478,0.93954664,-1.0,0
1763545168310,1009.74677,-0.66041905,6.3535423,8.469396,0.03901899,0.13423753,-0.16203189,34.912502,-0.4875,9.1875,46.950733,0.3361091,49.741684,0.18371989,0.1921057,0.6926918,0.67046285,0.25909317,-0.059399642,-0.22106065,0.9383361,-1.0,0
1763545168335,1009.7631,-1.1850454,6.1214385,9.206984,0.08086322,0.11514801,-0.14538582,36.0,1.3687501,9.731251,46.950733,0.3361091,49.741684,0.18359521,0.19396307,0.6917288,0.67095643,0.26060915,-0.05841012,-0.2222256,0.937703,-1.0,0
1763545168360,1009.77875,-1.4273187,6.0233326,9.192028,0.2022726,-0.011453714,-0.05650499,33.600002,0.375,10.200001,46.950733,0.3361091,49.741684,0.18519968,0.19550799,0.6909563,0.67086303,0.2627342,-0.05910193,-0.22291344,0.93690306,-1.0,0
1763545168385,1009.77875,-1.1994023,6.070591,8.9521475,0.29130614,-0.11728604,0.049174614,33.9375,-0.95625,8.85,46.950733,0.3361091,49.741684,0.18794565,0.19688603,0.6905122,0.67015314,0.26530218,-0.06084754,-0.22285275,0.9360817,-1.0,0
1763545168410,1009.7836,-0.6161518,6.5228343,8.208578,0.16668972,-0.18814635,0.12614357,36.5625,0.45000002,8.493751,46.950733,0.3361091,49.741684,0.19318053,0.19748427,0.6904733,0.66852665,0.26847693,-0.06510683,-0.2217059,0.9351619,-1.0,0
1763545168435,1009.78534,-0.061615184,6.571289,8.405986,0.036880963,-0.1886045,0.057879437,36.84375,-1.1437501,8.400001,46.950733,0.3361091,49.741684,0.1945365,0.19661921,0.6902392,0.6686302,0.26843533,-0.06667851,-0.22178936,0.9350433,-1.0,0
1763545168460,1009.78534,-0.16570297,6.422934,8.383254,-0.112017326,-0.14126249,-0.04886918,34.256252,-1.5375,9.46875,46.950733,0.3361091,49.741684,0.1944877,0.19508901,0.6897522,0.6695944,0.2670988,-0.06740477,-0.22281782,0.9351294,-1.0,0
1763545168485,1009.8012,-0.19142582,5.7607207,9.771091,-0.23816091,-0.06017018,-0.13515383,34.275,-2.15625,9.337501,46.950733,0.3361091,49.741684,0.19214565,0.19184482,0.68854463,0.6724448,0.26500028,-0.067187205,-0.22437605,0.9353695,-1.0,0
1763545168510,1009.8012,0.19561325,5.307879,10.308878,-0.06330086,-0.17134757,-0.10140356,35.5875,-0.65625,9.900001,46.950733,0.3361091,49.741684,0.19314918,0.19065991,0.68759745,0.6734627,0.26258492,-0.06860735,-0.22755909,0.93517864,-1.0,0
1763545168535,1009.80634,0.79501534,4.939384,9.910473,0.15309799,-0.20509785,-0.077121675,34.256252,-1.5375,9.46875,46.950733,0.3361091,49.741684,0.19539188,0.19072753,0.68641865,0.6739989,0.26376998,-0.07057178,-0.2288745,0.9343776,-1.0,0
1763545168561,1009.7924,0.62751776,4.72403,8.054241,0.38018698,0.050243627,-0.10598504,34.987503,-1.35,11.08125,46.950733,0.3361091,49.741684,0.19951041,0.19549826,0.68388665,0.6739993,0.2664654,-0.07148162,-0.229809,0.93331367,-1.0,0
1763545168586,1009.7924,0.83389866,4.63071,7.222137,0.393626,0.016798781,-0.11331542,37.03125,-2.3812501,8.606251,46.950733,0.3361091,49.741684,0.20183523,0.19804102,0.6823716,0.67410034,0.2699668,-0.07170706,-0.23027526,0.9321745,-1.0,0
1763545168611,1009.77606,0.9272188,4.3962135,6.882356,0.28000516,-0.07864884,-0.17867795,33.1875,-1.6500001,10.05,46.950733,0.3361091,49.741684,0.20378716,0.19922666,0.680499,0.6750559,0.27537084,-0.07342601,-0.23273025,0.92984736,-1.0,0
1763545168637,1009.78265,0.72263247,4.2981076,7.990233,0.033826638,-0.13439025,-0.2150244,33.393753,-2.1375,10.05,46.950733,0.3361091,49.741684,0.20554811,0.19864228,0.6770669,0.6781383,0.27577975,-0.075195245,-0.23698811,0.9285084,-1.0,0
1763545168662,1009.78265,0.7088737,4.564309,7.9884386,-0.04253146,-0.1357647,-0.20479241,35.25,-3.075,10.5375,46.950733,0.3361091,49.741684,0.2056003,0.19748785,0.6756349,0.6798856,0.2748163,-0.07582177,-0.23919412,0.92817736,-1.0,0
1763545168687,1009.7778,0.53659046,4.6761737,8.19123,-0.1268308,-0.12583815,-0.21364996,35.34375,-3.3000002,10.387501,46.950733,0.3361091,49.741684,0.20504937,0.1960585,0.674336,0.68175274,0.27329734,-0.076110125,-0.24157004,0.9279869,-1.0,0
1763545168712,1009.7736,0.046660043,4.706084,8.559725,-0.13034327,-0.06307179,-0.18341215,35.550003,-3.7875001,10.06875,46.950733,0.3361091,49.741684,0.2042474,0.19524887,0.6734157,0.6831341,0.27217713,-0.07588624,-0.2434047,0.9278551,-1.0,0
1763545168737,1009.7736,-0.1160519,4.97408,7.1503525,0.08620829,0.050396346,-0.018631376,38.60625,-4.0687504,7.6125,46.950733,0.3361091,49.741684,0.20411567,0.1964971,0.67284304,0.68337977,0.27315632,-0.07523251,-0.24423768,0.92740154,-1.0,0
1763545168762,1009.76483,0.42412782,5.148756,6.9882383,0.033979353,-0.02367101,-0.009162972,35.71875,-2.8875,10.012501,46.950733,0.3361091,49.741684,0.20468087,0.19645168,0.6725115,0.6835501,0.2734136,-0.07571357,-0.24445786,0.92722857,-1.0,0
1763545168788,1009.76483,0.421735,5.058427,7.4853473,0.055512335,-0.11560616,-0.05589413,34.068752,-3.80625,10.387501,46.950733,0.3361091,49.741684,0.20599443,0.19624285,0.6717314,0.6839824,0.2739079,-0.07693785,-0.24518776,0.9267891,-1.0,0
1763545168813,1009.7531,0.32243285,5.1296134,6.942775,0.15920663,0.006872229,0.018784093,33.318752,-3.15,11.3625,46.950733,0.3361091,49.741684,0.20846729,0.1978371,0.6710614,0.6834314,0.27652088,-0.0783221,-0.24529667,0.9258679,-1.0,0
1763545168838,1009.73553,0.91525465,5.576473,7.119844,0.20044,-0.046425723,0.037262753,33.35625,-4.6125,8.19375,46.950733,0.3361091,49.741684,0.21058036,0.19879322,0.6706686,0.6828915,0.27843487,-0.07960431,-0.24487631,0.92529607,-1.0,0
1763545168863,1009.73553,0.84167534,5.837889,6.9385877,0.28855726,-0.13362667,-0.007941242,32.287502,-4.5,11.85,46.950733,0.3361091,49.741684,0.21381472,0.19972153,0.66967994,0.6825858,0.28090522,-0.0818394,-0.24488024,0.9243529,-1.0,0
1763545168888,1009.72797,0.91226363,5.986842,6.245267,0.2749655,-0.1754709,-0.025198173,32.643753,-4.96875,11.83125,46.950733,0.3361091,49.741684,0.21665691,0.20033984,0.6686295,0.68253815,0.2829122,-0.0838865,-0.24511205,0.9234955,-1.0,0
1763545168913,1009.75116,0.57547385,5.956932,8.370692,-0.008781182,-0.13271037,-0.21899502,34.03125,-5.55,9.09375,46.950733,0.3361091,49.741684,0.21872757,0.19988994,0.6655557,0.68500936,0.28367752,-0.08558504,-0.24779451,0.9223883,-1.0,0
1763545168939,1009.75116,-0.19262223,5.7726846,10.1497555,0.1589012,-0.2432769,-0.18066326,32.7,-4.70625,11.19375,46.950733,0.3361091,49.741684,0.22144501,0.20010431,0.66360664,0.6859639,0.28523812,-0.08785706,-0.24976481,0.9211612,-1.0,0
1763545168964,1009.77484,-0.36909288,5.913263,10.212567,0.45639235,-0.17989968,-0.06902772,32.006252,-5.15625,12.843751,46.950733,0.3361091,49.741684,0.22549033,0.20233017,0.6619919,0.6855534,0.28917047,-0.0903538,-0.250748,0.91942483,-1.0,0
1763545168989,1009.77484,0.29312077,6.0514483,7.13121,0.35498878,0.13836087,-0.027488915,33.112503,-7.0312505,10.9875,46.950733,0.3361091,49.741684,0.22950019,0.20884101,0.66045165,0.6837535,0.2967749,-0.090606585,-0.25040638,0.91706693,-1.0,0
1763545169014,1009.7834,0.030508488,6.2691956,7.623533,0.022372922,0.2952004,-0.057879437,33.0,-7.65,10.40625,46.950733,0.3361091,49.741684,0.22724345,0.21089795,0.6608737,0.6834679,0.2973777,-0.08765862,-0.25007746,0.9172479,-1.0,0
1763545169039,1009.8088,-0.36729828,6.640083,9.493524,-0.087888174,0.3110829,0.013286309,34.631252,-6.0,11.231251,46.950733,0.3361091,49.741684,0.22534962,0.21233097,0.6618099,0.68274504,0.29764035,-0.08530584,-0.24900036,0.91767746,-1.0,0
1763545169065,1009.8088,0.116650105,7.7072816,8.624331,0.34032804,-0.41630435,0.27305657,36.28125,-7.425,9.13125,46.950733,0.3361091,49.741684,0.23353106,0.2111179,0.66234595,0.6798458,0.29931164,-0.08696092,-0.24742803,0.91740376,-1.0,0
1763545169090,1009.8132,1.5481563,7.797013,8.008179,0.14928009,-0.69226253,0.18539746,31.800001,-8.418751,12.281251,46.950733,0.3361091,49.741684,0.2386557,0.20697536,0.66152215,0.680142,0.29981074,-0.09954322,-0.24709953,0.91604936,-1.0,0
1763545169115,1009.83734,1.7324036,6.9062843,8.793025,-0.27084216,-0.29672757,-0.026419902,31.237501,-7.5937505,11.681251,46.950733,0.3361091,49.741684,0.23714577,0.20412245,0.66158533,0.6814696,0.2966274,-0.09958044,-0.24783501,0.91688263,-1.0,0
1763545169140,1009.83734,-1.1276177,5.3653064,10.317253,-0.45929396,0.9144646,-0.0073303776,33.506252,-7.1250005,12.637501,46.950733,0.3361091,49.741684,0.22052608,0.20814838,0.6666284,0.6809178,0.29325026,-0.09167465,-0.24697289,0.91902363,-1.0,0
1763545169165,1009.83954,-1.2394822,5.264808,9.7399845,-0.0561232,0.3715585,0.16081016,33.956253,-6.5625005,10.087501,46.950733,0.3361091,49.741684,0.21963541,0.20922452,0.6681348,0.67939776,0.2915774,-0.083307356,-0.2450078,0.92087656,-1.0,0
1763545169190,1009.83954,-0.7160522,5.221139,7.966903,0.29833108,-0.29550585,0.21670428,33.73125,-6.95625,10.293751,46.950733,0.3361091,49.741684,0.22420482,0.20840347,0.66809106,0.67819947,0.2935383,-0.086804815,-0.24338119,0.92036176,-1.0,0
1763545169215,1009.80853,-0.20039889,5.159524,5.9874406,0.20914483,-0.38438666,0.19013166,35.7,-5.25,9.056251,46.950733,0.3361091,49.741684,0.22730984,0.20679504,0.66823196,0.6775191,0.29369083,-0.09044141,-0.24317908,0.9200163,-1.0,0
1763545169240,1009.8078,-0.16749759,4.5619164,7.7090764,-0.4267654,0.16019928,0.084757484,35.643753,-6.8812504,10.556251,46.950733,0.3361091,49.741684,0.22195105,0.2033593,0.671156,0.6774455,0.2879945,-0.087615274,-0.24175104,0.92246366,-1.0,0
1763545169265,1009.8078,-0.27996024,4.386044,8.437691,-0.29542947,0.19013166,0.06902772,33.80625,-6.4500003,11.34375,46.950733,0.3361091,49.741684,0.21923582,0.20263556,0.6724656,0.6772477,0.28595158,-0.08577412,-0.24132833,0.92338246,-1.0,0
1763545169290,1009.79926,-0.62931234,4.462614,7.8000035,-0.09063706,-0.011453714,0.083230324,34.18125,-7.65,10.125,46.950733,0.3361091,49.741684,0.21929315,0.20147876,0.67303896,0.67700475,0.28493047,-0.08658984,-0.24140559,0.92360175,-1.0,0
1763545169315,1009.7829,-0.44626144,4.5475593,7.166504,-0.042684175,-0.1414152,0.17195843,33.73125,-7.4625,12.337501,46.950733,0.3361091,49.741684,0.22104394,0.19855034,0.6745086,0.6758369,0.2831951,-0.089906566,-0.24070156,0.92400223,-1.0,0
1763545169340,1009.7829,-0.2111666,4.7395835,7.5236325,-0.041462447,-0.0015271619,0.16844596,34.29375,-7.0312505,10.387501,46.950733,0.3361091,49.741684,0.22091621,0.19816391,0.6756519,0.6748493,0.28275624,-0.090121046,-0.23969136,0.9243783,-1.0,0
1763545169365,1009.7807,-0.062213387,5.0135617,7.5290165,0.0240528,0.019394957,0.1310305,34.631252,-6.9750004,8.493751,46.950733,0.3361091,49.741684,0.22114116,0.1983034,0.6763715,0.67401326,0.28296387,-0.090327635,-0.23887828,0.924505,-1.0,0
1763545169392,1009.7807,-0.8542377,5.3557353,7.7754774,0.13614649,0.11484258,0.0971275,34.537502,-8.118751,9.806251,46.950733,0.3361091,49.741684,0.22162671,0.20086889,0.6775021,0.6719555,0.28538808,-0.08955645,-0.23688354,0.9243481,-1.0,0
1763545169417,1009.7807,-0.96849495,5.9270215,7.2825556,0.2529744,0.12064579,0.17180572,40.0125,-8.025001,6.4500003,46.950733,0.3361091,49.741684,0.22284637,0.20313017,0.6783263,0.67003804,0.28789714,-0.08965261,-0.23541607,0.92393553,-1.0,0
1763545169442,1009.7751,-0.49232325,6.4067826,6.890133,0.26671883,0.02611447,0.18234314,35.568752,-9.618751,8.400001,46.950733,0.3361091,49.741684,0.22473751,0.20479155,0.6788138,0.668405,0.29026708,-0.09050713,-0.23395827,0.9234809,-1.0,0
1763545169471,1009.7751,-0.33379877,6.4905314,8.200203,0.22059855,-0.05818487,0.115911596,33.84375,-10.1625,8.606251,46.950733,0.3361091,49.741684,0.2289233,0.20702575,0.67902315,0.6660796,0.29430598,-0.09300283,-0.23188262,0.9224776,-1.0,0
1763545169496,1009.79364,0.2321038,6.5347986,8.518449,0.29054257,-0.15989386,0.15577053,37.537502,-9.056251,10.931251,46.950733,0.3361091,49.741684,0.23221931,0.20765488,0.678979,0.6647865,0.29649872,-0.09557659,-0.2309346,0.9217499,-1.0,0
1763545169521,1009.8022,0.82672024,6.625128,8.2678,0.24488042,-0.118202336,0.11911863,34.48125,-8.3625,9.825001,46.950733,0.3361091,49.741684,0.23427385,0.20835118,0.67902315,0.6638021,0.29814047,-0.09698816,-0.2300314,0.9212986,-1.0,0
1763545169546,1009.8022,0.45882374,7.422536,9.077771,-0.12759438,0.054366965,-0.050090913,34.6875,-10.837501,10.725,46.950733,0.3361091,49.741684,0.2328738,0.20825729,0.6791384,0.664206,0.2984136,-0.09628229,-0.22941348,0.9214383,-1.0,0
1763545169571,1009.82025,0.12562318,7.496115,10.207782,-0.13217586,-0.11377356,-0.114079,33.1875,-8.887501,10.931251,46.950733,0.3361091,49.741684,0.23290291,0.2068928,0.67825246,0.6655262,0.2962372,-0.09639463,-0.2314521,0.92161894,-1.0,0
1763545169596,1009.8427,0.31585258,7.210771,10.332807,-0.11140647,-0.23655738,-0.109650224,34.800003,-8.1,10.856251,46.950733,0.3361091,49.741684,0.23351622,0.20473261,0.67720836,0.6670408,0.29466873,-0.098059185,-0.23342286,0.9214491,-1.0,0
1763545169621,1009.8427,1.2430713,6.5922265,11.112866,-0.15431972,-0.2600757,-0.12064579,34.987503,-8.681251,10.106251,46.950733,0.3361091,49.741684,0.23366325,0.20251924,0.6761423,0.66874444,0.292824,-0.099331066,-0.23551534,0.92136854,-1.0,0
1763545169646,1009.8554,1.0001999,5.515456,10.35494,-0.027259842,0.22311836,-0.21151192,33.693752,-9.95625,11.400001,46.950733,0.3361091,49.741684,0.22999662,0.2038116,0.6746719,0.67110366,0.29192862,-0.09823695,-0.23713194,0.9213553,-1.0,0
1763545169671,1009.84784,0.7196414,5.3156557,9.430114,0.025427246,0.20693044,-0.20250167,33.3375,-8.981251,9.675,46.950733,0.3361091,49.741684,0.22860625,0.20530942,0.6737832,0.6720144,0.2926619,-0.09360458,-0.239678,0.92094606,-1.0,0
1763545169697,1009.84784,0.67178494,4.883153,9.104691,0.11950042,0.040622506,-0.19318599,35.737503,-8.493751,11.56875,46.950733,0.3361091,49.741684,0.2290704,0.20641798,0.6723922,0.67290944,0.2938439,-0.09347404,-0.24124327,0.92017394,-1.0,0
1763545169723,1009.82635,0.9523434,4.537988,7.676773,0.2758818,-0.15729769,0.03375028,32.775,-10.293751,10.125,46.950733,0.3361091,49.741684,0.23385684,0.20749897,0.67079,0.67252946,0.29550028,-0.094787724,-0.2420993,0.91928387,-1.0,0
1763545169748,1009.82635,1.8526429,4.718048,6.9481587,0.2531271,-0.26160285,0.046883874,34.95,-9.46875,12.468751,46.950733,0.3361091,49.741684,0.2373574,0.20681156,0.6699006,0.6724014,0.29715565,-0.09717702,-0.24208775,0.9185035,-1.0,0
1763545169773,1009.78876,2.0428724,4.944768,6.1178493,0.1645517,-0.34559676,-0.07589995,31.687502,-9.675,12.20625,46.950733,0.3361091,49.741684,0.24034545,0.20539433,0.668227,0.6734388,0.29867122,-0.10367394,-0.24365379,0.9168861,-1.0,0
1763545169798,1009.75385,0.8913264,5.043472,5.669195,-0.3108538,0.11331542,-0.32360563,32.662502,-9.09375,13.762501,46.950733,0.3361091,49.741684,0.23636311,0.20396444,0.66551864,0.6779498,0.29553923,-0.10062593,-0.24788043,0.9171076,-1.0,0
1763545169823,1009.75385,0.21834506,4.8490553,6.6000032,-0.41928232,0.44073895,-0.33063057,32.325,-11.3625,14.868751,46.950733,0.3361091,49.741684,0.23011516,0.2052842,0.66529393,0.67991865,0.29353914,-0.094495334,-0.24946073,0.91797316,-1.0,0
1763545169848,1009.7353,-0.31106696,5.0105705,7.1766734,-0.2870301,0.47311476,-0.27259842,33.487503,-10.856251,12.543751,46.950733,0.3361091,49.741684,0.22543153,0.20714046,0.66503197,0.68117976,0.29276687,-0.0895216,-0.2506967,0.9183815,-1.0,0
1763545169873,1009.7153,-0.27756742,5.331807,6.623333,0.27420193,-0.16951497,-0.09407318,32.0625,-9.993751,12.0375,46.950733,0.3361091,49.741684,0.2283254,0.20928355,0.6623821,0.6821421,0.2960483,-0.09103563,-0.25318888,0.9164951,-1.0,0
1763545169898,1009.7153,-0.16570297,5.4634123,5.721837,0.32505643,-0.30894485,-0.03894263,33.956253,-10.6875,13.25625,46.950733,0.3361091,49.741684,0.23216617,0.20948295,0.6608575,0.68226326,0.29816085,-0.09425677,-0.25409338,0.9152335,-1.0,0
1763545169923,1009.70355,0.19561325,5.6243296,5.7451673,0.17081307,-0.19792019,-0.032070402,33.54375,-12.093751,11.85,46.950733,0.3361091,49.741684,0.2339801,0.20960392,0.6599015,0.6825317,0.29919508,-0.09572252,-0.25469363,0.91457677,-1.0,0
1763545169948,1009.70355,0.21894327,5.6560345,6.84766,0.023900084,0.009315688,-0.093615025,32.25,-12.6,13.2375,46.950733,0.3361091,49.741684,0.23368055,0.21044393,0.6592557,0.68299985,0.29978842,-0.094974436,-0.25522736,0.91431165,-1.0,0
1763545169973,1009.7194,-0.15732808,6.012565,8.303095,0.21998768,0.020616686,0.032223117,32.71875,-11.681251,13.44375,46.950733,0.3361091,49.741684,0.23530065,0.21345763,0.6587011,0.6820427,0.30319142,-0.09489749,-0.25483838,0.91330546,-1.0,0
1763545169998,1009.73236,0.3475575,6.45105,7.8257265,0.4182133,-0.20127994,0.09193515,33.075,-12.900001,13.012501,46.950733,0.3361091,49.741684,0.2398368,0.21441542,0.65785533,0.68097776,0.30630186,-0.098360695,-0.25445452,0.9120073,-1.0,0
1763545170023,1009.73236,0.9421739,6.9092755,7.4650083,0.3835467,-0.3084867,0.06475167,33.956253,-12.168751,12.731251,46.950733,0.3361091,49.741684,0.24423862,0.2145365,0.65670204,0.68048805,0.30864948,-0.10204862,-0.25447568,0.91080385,-1.0,0
1763545170048,1009.76263,1.21017,7.062416,8.310871,0.20853396,-0.20525056,-0.028405212,32.90625,-11.53125,12.656251,46.950733,0.3361091,49.741684,0.24644843,0.21470752,0.6556574,0.6806447,0.30995515,-0.10374945,-0.25479186,0.91007966,-1.0,0
1763545170074,1009.79535,0.35653058,7.0396843,10.017552,0.0075594517,0.22479823,-0.09315688,32.0625,-12.750001,13.425,46.950733,0.3361091,49.741684,0.24441233,0.21745357,0.6552288,0.6809198,0.31133002,-0.100484185,-0.25489897,0.90994674,-1.0,0
1763545170098,1009.79535,-0.23988047,7.3190465,9.840483,0.05016727,0.27504188,-0.05070178,32.193752,-14.343751,13.031251,46.950733,0.3361091,49.741684,0.24295835,0.21947761,0.6555095,0.68052053,0.31232455,-0.098247334,-0.25453603,0.9099518,-1.0,0
1763545170123,1009.80756,-0.56410795,7.4530444,8.896515,0.0041996953,0.1461494,-0.0016798781,33.825,-12.075001,12.900001,46.950733,0.3361091,49.741684,0.24196288,0.21996434,0.65583307,0.6804063,0.3121928,-0.09729338,-0.2547135,0.91004986,-1.0,0
1763545170148,1009.80756,-0.0526421,6.0454664,10.869397,-0.28473935,-0.03176497,0.03619374,33.675003,-12.825001,13.25625,46.950733,0.3361091,49.741684,0.23883837,0.21660645,0.65714186,0.68132406,0.31021318,-0.0966546,-0.25589582,0.911348,-1.0,0
1763545170174,1009.8466,-0.18484555,5.0889354,12.031711,-0.11339177,0.091324285,0.09040799,33.35625,-12.243751,12.337501,46.950733,0.3361091,49.741684,0.23763853,0.21666954,0.6584214,0.6804877,0.30695763,-0.09588937,-0.2554247,0.91177875,-1.0,0
1763545170199,1009.83856,-0.26739794,5.0009995,10.082158,0.18944444,0.13790272,0.1999055,33.375,-12.8625,12.675,46.950733,0.3361091,49.741684,0.23829399,0.21775004,0.659747,0.6786272,0.30811375,-0.09625492,-0.2541694,0.9117011,-1.0,0
1763545170224,1009.83856,0.28055847,5.3180485,6.899106,-0.057192214,-0.12889247,0.08002329,32.90625,-11.53125,12.656251,46.950733,0.3361091,49.741684,0.23973621,0.21559228,0.66079825,0.67778474,0.3084901,-0.09822927,-0.25357956,0.91152745,-1.0,0
1763545170250,1009.82025,-0.28893334,5.0865426,6.9535427,-0.3749946,0.09040799,-0.027794348,33.1875,-13.125001,12.39375,46.950733,0.3361091,49.741684,0.23578203,0.21389657,0.6618312,0.67870075,0.30337954,-0.09646636,-0.25451288,0.9131694,-1.0,0
1763545170275,1009.82074,-1.0845468,4.752744,7.9369926,-0.565279,0.31642795,-0.0051923506,31.706251,-12.525001,12.056251,46.950733,0.3361091,49.741684,0.22969107,0.21257,0.6639072,0.67917836,0.29912454,-0.09202462,-0.2543699,0.91506934,-1.0,0
1763545170301,1009.82074,-1.2335001,4.525426,8.251649,-0.17707443,0.24159703,0.2547306,32.7,-13.406251,11.38125,46.950733,0.3361091,49.741684,0.22286555,0.21196815,0.66902745,0.6766112,0.29599768,-0.08812705,-0.2532855,0.916769,-1.0,0
1763545170326,1009.8049,-0.82612205,4.7210393,7.05105,0.101632625,-0.048411034,0.3620901,33.9,-10.931251,12.975,46.950733,0.3361091,49.741684,0.2249639,0.21137436,0.67093074,0.67421365,0.29500753,-0.08700643,-0.25139666,0.91771466,-1.0,0
1763545170351,1009.8049,-0.039481573,4.8269215,6.0598235,0.20334162,-0.23930627,0.3911062,33.018753,-11.887501,11.26875,46.950733,0.3361091,49.741684,0.22845732,0.21036564,0.6724498,0.6718369,0.2963124,-0.09298059,-0.24657449,0.9180167,-1.0,0
1763545170376,1009.77386,0.56470615,4.874778,5.6093745,-0.030314164,-0.04367683,0.2403753,33.3375,-11.7375,11.53125,46.950733,0.3361091,49.741684,0.23104514,0.2085424,0.67536604,0.66858727,0.29600143,-0.09620267,-0.24251913,0.9188649,-1.0,0
1763545170401,1009.757,0.35234314,5.0213385,6.5778694,-0.037644543,-0.015577052,0.13209951,32.23125,-12.843751,11.868751,46.950733,0.3361091,49.741684,0.23140533,0.20816429,0.6760962,0.6678421,0.2958368,-0.09675431,-0.24166693,0.9190845,-1.0,0
1763545170426,1009.757,-0.030508488,5.1583276,6.6735826,0.073685564,-0.0035124724,0.10079269,32.381252,-12.712501,13.087501,46.950733,0.3361091,49.741684,0.23228054,0.20857523,0.6765329,0.6669672,0.2965904,-0.09742704,-0.24105988,0.91892993,-1.0,0
1763545170452,1009.7297,-0.14476576,5.6279187,6.645467,0.14240785,-0.051923506,0.10598504,32.41875,-11.94375,10.70625,46.950733,0.3361091,49.741684,0.2339679,0.20893145,0.67672575,0.66606975,0.29770926,-0.09880552,-0.240473,0.91857463,-1.0,0
1763545170476,1009.72577,0.27996024,6.611369,7.745567,0.28015786,-0.111635536,0.11423171,31.9125,-12.88125,12.20625,46.950733,0.3361091,49.741684,0.23930116,0.21058585,0.67656183,0.6638167,0.3017387,-0.10278713,-0.2391516,0.9171669,-1.0,0
1763545170501,1009.72577,0.41575295,6.821339,7.6983085,0.3192532,-0.033139415,0.08857539,33.84375,-14.2875,11.625,46.950733,0.3361091,49.741684,0.24166152,0.2123697,0.67631835,0.66264045,0.30443853,-0.104011364,-0.2384465,0.91631985,-1.0,0
1763545170526,1009.7365,0.39361933,6.9619174,8.0614195,0.22502731,-0.013286309,0.033139415,32.68125,-13.425,12.468751,46.950733,0.3361091,49.741684,0.24313225,0.21365388,0.6759656,0.66204935,0.306266,-0.10470148,-0.23826765,0.91567856,-1.0,0
1763545170551,1009.7365,0.30269206,7.140183,9.050852,0.13309216,0.0042760535,-0.011453714,33.84375,-12.056251,11.493751,46.950733,0.3361091,49.741684,0.24383147,0.21470991,0.6755968,0.6618269,0.30750653,-0.10485155,-0.23846209,0.9151949,-1.0,0
1763545170577,1009.7609,-0.036490545,7.921439,9.707084,0.04344776,0.14401138,-0.074067354,32.4375,-13.200001,11.868751,46.950733,0.3361091,49.741684,0.24263649,0.2175502,0.6750832,0.6618626,0.309319,-0.10257838,-0.2392673,0.9146314,-1.0,0
1763545170602,1009.7878,-0.31286156,7.6983085,9.803992,0.03214676,0.16982041,-0.05742129,31.800001,-13.500001,11.493751,46.950733,0.3361091,49.741684,0.24169074,0.21894549,0.6750329,0.66179985,0.31000498,-0.101234555,-0.23973912,0.9144253,-1.0,0
1763545170628,1009.7878,0.2644069,7.5583286,9.280562,-0.023136504,-0.028252495,-0.033444848,32.90625,-14.512501,12.20625,46.950733,0.3361091,49.741684,0.24183166,0.21807171,0.67456794,0.66251063,0.30925605,-0.101973146,-0.24112721,0.91423184,-1.0,0
1763545170653,1009.8239,1.585245,6.183652,10.48176,-0.35422522,-0.13026692,-0.24022257,34.74375,-13.44375,11.175,46.950733,0.3361091,49.741684,0.23926231,0.21274215,0.67248964,0.6672721,0.3033188,-0.10248598,-0.24660408,0.91470253,-1.0,0
1763545170678,1009.8405,0.8530413,5.3132625,10.998011,-0.34109163,0.26572618,-0.2773326,32.71875,-14.6625,12.375001,46.950733,0.3361091,49.741684,0.23443381,0.21315734,0.67238283,0.6689589,0.30126354,-0.098160766,-0.24835046,0.9153834,-1.0,0
1763545170703,1009.8405,-0.0029910284,4.842475,10.34836,-0.10682498,0.44516772,-0.16539164,34.143753,-13.51875,11.25,46.950733,0.3361091,49.741684,0.23089086,0.2154872,0.6727423,0.6690833,0.30147412,-0.09412053,-0.24886233,0.9155994,-1.0,0
1763545170728,1009.81903,0.73519474,4.6821556,7.3974113,0.27221662,-0.40500334,0.054519683,35.2125,-13.406251,10.5,46.950733,0.3361091,49.741684,0.23660591,0.21493803,0.67123115,0.66878104,0.3029862,-0.094590485,-0.24930945,0.9149299,-1.0,0
1763545170753,1009.79755,1.6534405,4.4165525,6.9505515,0.14332415,-0.5516109,-0.014508039,32.100002,-14.85,12.3,46.950733,0.3361091,49.741684,0.24023716,0.21215905,0.6697608,0.6698471,0.30301023,-0.10445166,-0.2526931,0.91291887,-1.0,0
1763545170778,1009.79755,1.5798612,4.269394,6.6155562,-0.13080142,-0.20311254,-0.09468404,33.956253,-15.150001,11.981251,46.950733,0.3361091,49.741684,0.23956951,0.21003932,0.66932267,0.6711908,0.30084082,-0.10490398,-0.25404307,0.91320974,-1.0,0
1763545170803,1009.78094,0.63828546,4.511069,7.2969127,-0.2720639,0.0003054324,-0.18631376,32.5875,-13.293751,10.931251,46.950733,0.3361091,49.741684,0.23513952,0.20669237,0.6684391,0.674668,0.29791924,-0.10328221,-0.25563544,0.91390777,-1.0,0
1763545170828,1009.78094,0.33379877,4.6301117,6.638288,-0.110490166,-0.18081598,-0.1583667,32.34375,-13.70625,12.20625,46.950733,0.3361091,49.741684,0.23554613,0.20495263,0.66720766,0.6762739,0.2957246,-0.102758326,-0.25768593,0.91410375,-1.0,0
1763545170853,1009.75726,0.4863412,4.752146,6.2757754,-0.08223767,-0.17409647,-0.13286309,32.0625,-13.500001,14.08125,46.950733,0.3361091,49.741684,0.23547155,0.20384024,0.66629225,0.6775374,0.29335,-0.10461103,-0.26173374,0.9135085,-1.0,0
1763545170879,1009.74286,0.3397808,5.0255256,6.7758756,-0.05627592,0.15241076,-0.060017463,32.193752,-15.31875,10.012501,46.950733,0.3361091,49.741684,0.23276472,0.20489137,0.66621214,0.6782341,0.29272953,-0.10318394,-0.26253143,0.9136409,-1.0,0
1763545170904,1009.74286,0.2632105,5.3353963,6.5407805,0.06345358,0.0140498895,-0.047952887,32.4,-14.19375,11.00625,46.950733,0.3361091,49.741684,0.23343584,0.20536761,0.665675,0.6783868,0.2928747,-0.1019033,-0.2628969,0.91363305,-1.0,0
1763545170930,1009.72943,0.32362926,5.5184474,6.187241,0.11339177,-0.09911281,-0.03405571,32.025,-13.968751,10.106251,46.950733,0.3361091,49.741684,0.23487473,0.20558904,0.6649966,0.67848843,0.2945002,-0.10345341,-0.26388988,0.9126495,-1.0,0
1763545170955,1009.7226,0.36670008,5.599803,6.323034,0.12286018,-0.06383537,-0.008399391,33.05625,-14.625001,10.650001,46.950733,0.3361091,49.741684,0.23618239,0.2062379,0.66459054,0.6782354,0.29569495,-0.10431056,-0.26398456,0.9121381,-1.0,0
1763545170981,1009.7226,0.8321041,6.253642,6.769295,0.09582941,-0.0010690134,0.024129158,32.15625,-15.337501,11.868751,46.950733,0.3361091,49.741684,0.23813917,0.20772067,0.6643889,0.67729557,0.29795673,-0.10526117,-0.26318976,0.9115224,-1.0,0
1763545171006,1009.7319,0.69152576,6.4348984,7.70788,0.11308634,-0.014660755,-0.012064579,34.3875,-14.475,11.118751,46.950733,0.3361091,49.741684,0.23939545,0.20844236,0.6639324,0.67707855,0.29920116,-0.106004976,-0.26323915,0.91101414,-1.0,0
1763545171031,1009.7319,0.4139583,6.4408803,8.408379,0.21219915,-0.07956514,0.0030543238,31.85625,-15.6,9.28125,46.950733,0.3361091,49.741684,0.24167313,0.20937003,0.6633206,0.67658263,0.3011175,-0.1075637,-0.2632027,0.9102102,-1.0,0
1763545171056,1009.7526,1.2981063,6.83091,8.765508,0.20761767,-0.057574004,-0.015577052,33.225002,-15.95625,10.40625,46.950733,0.3361091,49.741684,0.24562718,0.21129993,0.6620483,0.67580456,0.30472535,-0.11010373,-0.2632848,0.9086808,-1.0,0
1763545171081,1009.7685,1.0612168,6.835098,9.097511,0.08498656,0.12583815,-0.09926552,31.050001,-14.962501,12.4125,46.950733,0.3361091,49.741684,0.24481665,0.21282914,0.6616533,0.67600554,0.30565134,-0.10866778,-0.2637175,0.9084171,-1.0,0
1763545171106,1009.7685,0.24107689,7.016354,9.553345,-0.017180571,0.22678354,-0.12324197,32.23125,-17.081251,12.58125,46.950733,0.3361091,49.741684,0.24294499,0.21428975,0.6615516,0.67631876,0.3059909,-0.10635759,-0.26415196,0.90845,-1.0,0
1763545171131,1009.7983,-0.4331009,7.20778,9.285348,-0.31512988,0.14370593,-0.028863361,31.29375,-16.800001,11.26875,46.950733,0.3361091,49.741684,0.23703907,0.21349071,0.6627542,0.6774888,0.30229208,-0.101908304,-0.26549098,0.90980697,-1.0,0
1763545171157,1009.8354,0.20398813,6.5288167,10.799407,-0.5319869,0.06276636,-0.10598504,34.331253,-14.85,10.51875,46.950733,0.3361091,49.741684,0.23264226,0.21085213,0.663141,0.67945796,0.29779658,-0.09948979,-0.2673837,0.91100216,-1.0,0
1763545171181,1009.8354,-0.5168497,5.7260246,12.641282,-0.45089456,0.20066908,-0.13423753,32.268753,-15.69375,9.8625,46.950733,0.3361091,49.741684,0.2280478,0.210126,0.6638897,0.6805084,0.29484284,-0.09605435,-0.2685941,0.911975,-1.0,0
1763545171206,1009.86127,-1.1246266,5.3156557,12.009577,-0.07322741,0.32375833,0.044898562,33.037502,-15.375001,11.15625,46.950733,0.3361091,49.741684,0.22587517,0.21158822,0.6652241,0.6794761,0.29493597,-0.093818575,-0.26819938,0.9122938,-1.0,0
1763545171231,1009.84174,-0.12083755,5.462216,7.990233,0.26458082,-0.26664248,0.2319759,32.0625,-15.20625,10.1625,46.950733,0.3361091,49.741684,0.23131323,0.21126719,0.66639596,0.67659205,0.29709885,-0.09935753,-0.26706222,0.9113386,-1.0,0
1763545171256,1009.84174,0.041874398,5.261817,6.8536425,0.05627592,-0.23793183,0.15500695,32.831253,-16.5,9.84375,46.950733,0.3361091,49.741684,0.23266043,0.20950851,0.6669213,0.6761592,0.296173,-0.101519704,-0.26682764,0.9114704,-1.0,0
1763545171281,1009.8317,0.03708875,4.939384,6.8392854,-0.27740896,-0.06780599,0.12553272,33.600002,-16.425001,9.3,46.950733,0.3361091,49.741684,0.23077002,0.20693776,0.66836166,0.6761765,0.2929793,-0.1011986,-0.26639727,0.9126634,-1.0,0
1763545171306,1009.8317,0.4235296,4.197609,8.376076,-0.32444555,0.15103632,0.114079,33.1875,-15.468751,9.6,46.950733,0.3361091,49.741684,0.22459368,0.20338863,0.67195815,0.67576844,0.28921533,-0.099297695,-0.26575777,0.91425776,-1.0,0
1763545171331,1009.8234,0.17288144,4.0157547,7.3232336,-0.10942116,0.03619374,0.10002911,33.037502,-15.6,9.0,46.950733,0.3361091,49.741684,0.22414081,0.20239763,0.6728684,0.6753105,0.2856557,-0.09800364,-0.2647153,0.9158176,-1.0,0
1763545171356,1009.79535,0.31286156,3.9882371,6.530013,-0.011530072,-0.115453444,0.12064579,31.462502,-16.650002,11.08125,46.950733,0.3361091,49.741684,0.22508948,0.20115553,0.6733932,0.6748428,0.28497997,-0.09957524,-0.26450148,0.9159204,-1.0,0
1763545171382,1009.79535,0.5814559,4.4596233,5.858228,-0.06864593,0.060017463,0.027947064,32.325,-14.681251,9.95625,46.950733,0.3361091,49.741684,0.22447325,0.2003283,0.6743131,0.67437536,0.28451726,-0.10046633,-0.2642225,0.91604745,-1.0,0
1763545171407,1009.7734,0.053240303,4.6815577,6.466005,-0.13660464,0.16615522,-0.022143848,32.86875,-16.25625,11.231251,46.950733,0.3361091,49.741684,0.22251207,0.20066766,0.6747681,0.67446935,0.2839129,-0.09956476,-0.26406106,0.91637987,-1.0,0
1763545171432,1009.7673,-0.51086766,4.807779,7.27777,-0.06146827,0.17501275,-0.0025961753,32.68125,-17.15625,11.2875,46.950733,0.3361091,49.741684,0.22134678,0.20160465,0.6752363,0.6741047,0.28345782,-0.09638734,-0.26394805,0.9168929,-1.0,0
1763545171457,1009.7673,-0.6628119,5.0548377,7.5547395,0.15431972,0.023212861,0.0923933,31.650002,-17.25,10.63125,46.950733,0.3361091,49.741684,0.22306573,0.20258488,0.67544776,0.6730314,0.28507173,-0.097637504,-0.2636093,0.9163576,-1.0,0
1763545171482,1009.7668,0.038285162,6.113064,7.018747,0.32887432,-0.3990474,0.1404989,31.81875,-17.1,10.462501,46.950733,0.3361091,49.741684,0.23224378,0.20219038,0.67439574,0.6710978,0.28908852,-0.10604692,-0.26299283,0.9143395,-1.0,0
1763545171507,1009.7668,0.4354937,6.3571315,7.726424,0.18929173,-0.17791437,0.10140356,30.431252,-17.268751,12.76875,46.950733,0.3361091,49.741684,0.23419563,0.20260884,0.67435133,0.6703375,0.29036695,-0.1076334,-0.26259327,0.9138637,-1.0,0
1763545171532,1009.77826,0.5072784,6.4875402,8.251051,0.120264,0.04963276,0.03375028,31.575,-18.2625,11.00625,46.950733,0.3361091,49.741684,0.23474023,0.20370899,0.6743347,0.6698301,0.29157177,-0.107639395,-0.26234052,0.9135519,-1.0,0
1763545171557,1009.7924,0.18305093,6.875776,8.364112,0.09659299,-0.13790272,-0.0003054324,30.6375,-17.737501,12.7875,46.950733,0.3361091,49.741684,0.23737592,0.20366082,0.6733731,0.66988325,0.2927213,-0.1101785,-0.26349208,0.9125496,-1.0,0
1763545171582,1009.7924,0.32183465,7.240681,7.85444,-0.05383246,-0.083383046,-0.01725693,29.362501,-17.625,11.83125,46.950733,0.3361091,49.741684,0.23713224,0.2027393,0.6731768,0.67044616,0.29177067,-0.11047532,-0.26429057,0.9125873,-1.0,0
1763545171607,1009.8088,0.0741775,7.155736,8.708678,-0.269315,-0.033444848,-0.064140804,30.6,-16.612501,11.025001,46.950733,0.3361091,49.741684,0.23534659,0.20105344,0.67322195,0.6715368,0.2894299,-0.10973066,-0.2652591,0.91314137,-1.0,0
1763545171632,1009.8315,0.65922266,6.7686973,10.000802,-0.4218785,0.0006108648,0.007941242,30.6375,-17.962502,10.012501,46.950733,0.3361091,49.741684,0.22997451,0.1962,0.674631,0.6734169,0.28250122,-0.10759082,-0.267001,0.91505617,-1.0,0
1763545171657,1009.8315,1.9914266,6.3104715,12.250055,-0.41149378,-0.23503022,-0.058032155,30.431252,-16.743752,10.125,46.950733,0.3361091,49.741684,0.22911488,0.19217812,0.6742277,0.675271,0.27853203,-0.10883922,-0.26905856,0.9155225,-1.0,0
1763545171683,1009.8808,2.3629124,5.6153564,13.347763,-0.15263984,-0.20341797,-0.16890411,29.081251,-16.143751,10.6875,46.950733,0.3361091,49.741684,0.22909494,0.19048475,0.67301047,0.6769697,0.27698892,-0.10975449,-0.271531,0.91515136,-1.0,0
1763545171707,1009.8808,1.3944174,5.1696935,11.733804,0.083764836,0.043371398,-0.20677772,32.7,-15.656251,11.212501,46.950733,0.3361091,49.741684,0.22858751,0.19147404,0.67197603,0.6778891,0.2775614,-0.108968936,-0.2732751,0.91455245,-1.0,0
1763545171732,1009.8879,0.7118647,4.7653065,9.531211,0.090942495,-0.07208204,-0.065667965,29.493752,-16.987501,11.775001,46.950733,0.3361091,49.741684,0.22931704,0.19224572,0.6705834,0.6788027,0.27843812,-0.109621845,-0.27599734,0.9133897,-1.0,0
1763545171757,1009.8776,1.3010973,4.6061835,9.115458,0.1277471,-0.17333288,-0.091018856,31.66875,-16.893751,13.2375,46.950733,0.3361091,49.741684,0.23086658,0.19194527,0.6693494,0.67958003,0.27884236,-0.11130727,-0.27786067,0.91249716,-1.0,0
1763545171782,1009.8776,1.2550355,4.5708895,7.9160557,0.11003202,-0.08552107,-0.16752967,29.906252,-18.431252,12.58125,46.950733,0.3361091,49.741684,0.23129132,0.19224548,0.6679983,0.68067926,0.27925718,-0.11166663,-0.27989355,0.9117048,-1.0,0
1763545171807,1009.8339,1.2472588,4.579264,7.01097,-0.01886045,0.0810923,-0.24342962,30.956251,-17.587502,12.88125,46.950733,0.3361091,49.741684,0.22969119,0.1930544,0.6667022,0.682261,0.27918056,-0.10993753,-0.28210798,0.9112558,-1.0,0
1763545171832,1009.8005,0.089132644,4.60738,6.4701924,-0.062995434,0.2716821,-0.32146758,30.000002,-18.0375,11.475,46.950733,0.3361091,49.741684,0.2243874,0.19664265,0.66396374,0.6856632,0.27975476,-0.10370794,-0.28686988,0.9103228,-1.0,0
1763545171858,1009.8005,-0.39421752,4.7718863,6.161518,0.07032581,0.18585561,-0.22769985,29.85,-17.94375,13.031251,46.950733,0.3361091,49.741684,0.22374414,0.19886081,0.66278535,0.6863735,0.28135383,-0.10221098,-0.2884589,0.9094968,-1.0,0
1763545171884,1009.75946,0.8805587,5.273183,5.1236315,0.23037238,-0.13881902,-0.114689864,28.781252,-19.050001,11.34375,46.950733,0.3361091,49.741684,0.22752617,0.20130421,0.65993404,0.68716484,0.28352132,-0.10273161,-0.28960496,0.9084002,-1.0,0
1763545171908,1009.75946,0.87278205,5.3497534,5.3982077,0.111253746,-0.18448116,-0.18463388,31.2,-18.5625,13.2375,46.950733,0.3361091,49.741684,0.22912474,0.20117109,0.6580975,0.6884328,0.28588977,-0.105995186,-0.29297683,0.906199,-1.0,0
1763545171933,1009.736,0.66341007,5.3772707,6.4348984,0.023594651,-0.06459895,-0.17608178,30.768751,-19.85625,13.81875,46.950733,0.3361091,49.741684,0.22937647,0.20165983,0.65688735,0.68936116,0.2864382,-0.1059877,-0.29437914,0.905572,-1.0,0
1763545171958,1009.7277,0.52342993,5.5950174,6.91765,0.075670876,0.09483676,-0.12278382,29.00625,-18.4125,13.9125,46.950733,0.3361091,49.741684,0.22933549,0.20324636,0.65617234,0.6895898,0.28779876,-0.10524114,-0.29505682,0.905007,-1.0,0
1763545171984,1009.7277,0.3152544,6.352944,6.660422,0.22609633,-0.09407318,-0.08093958,30.31875,-19.275002,12.900001,46.950733,0.3361091,49.741684,0.232905,0.20579329,0.653867,0.68982774,0.28978762,-0.10550595,-0.29576203,0.90411085,-1.0,0
1763545172009,1009.7238,0.67178494,6.530013,7.203593,0.23861906,-0.20280711,-0.06902772,30.487501,-19.875,13.06875,46.950733,0.3361091,49.741684,0.23587905,0.20619515,0.6523899,0.6900957,0.29170343,-0.10726008,-0.29663378,0.9030021,-1.0,0
1763545172035,1009.73944,0.63170516,6.5204415,7.865208,0.19830199,-0.1404989,-0.074525505,29.156252,-19.893751,13.81875,46.950733,0.3361091,49.741684,0.2377275,0.20698585,0.6513264,0.69022924,0.2950475,-0.11092547,-0.2981552,0.90096945,-1.0,0
1763545172059,1009.73944,0.15014961,6.489335,8.675179,0.14607304,0.107359484,-0.037873615,32.15625,-21.1875,11.26875,46.950733,0.3361091,49.741684,0.23776467,0.20894276,0.651271,0.6896789,0.2967564,-0.11011247,-0.29795074,0.9005755,-1.0,0
1763545172084,1009.76263,0.34396824,6.946364,9.757931,0.25755587,-0.017715078,0.04444041,30.900002,-20.081251,12.58125,46.950733,0.3361091,49.741684,0.24030557,0.21198472,0.65107125,0.6880566,0.30056587,-0.11110563,-0.2972172,0.8994318,-1.0,0
1763545172109,1009.76263,0.19621146,7.44108,9.093325,0.2192241,-0.20250167,-0.019394957,30.73125,-20.85,13.406251,46.950733,0.3361091,49.741684,0.24260533,0.21171625,0.65004903,0.68829876,0.30135825,-0.11342098,-0.29840142,0.8984851,-1.0,0
1763545172134,1009.7895,0.046660043,7.5140615,9.020343,-0.037797257,-0.075594515,-0.06933315,28.7625,-20.325,14.981251,46.950733,0.3361091,49.741684,0.2418317,0.21118659,0.6496649,0.6890959,0.3004851,-0.113097504,-0.29960558,0.8984176,-1.0,0
1763545172160,1009.8249,0.023330022,6.4642105,11.726625,-0.45135272,0.0042760535,-0.12079851,29.925001,-19.800001,12.975,46.950733,0.3361091,49.741684,0.23538461,0.20710982,0.64989126,0.6923445,0.2937115,-0.1096994,-0.30343887,0.89979136,-1.0,0
1763545172184,1009.8249,0.14297116,5.8229337,12.987045,-0.2485456,0.04780017,-0.083230324,29.962502,-18.806252,13.51875,46.950733,0.3361091,49.741684,0.2332675,0.2066058,0.65008616,0.69302833,0.2921445,-0.10840335,-0.304973,0.8999399,-1.0,0
1763545172210,1009.8581,-0.18723837,5.608776,11.059627,0.13843723,0.16982041,-0.0065667965,30.281252,-19.29375,15.056251,46.950733,0.3361091,49.741684,0.23312289,0.20840487,0.65026444,0.69237083,0.29351327,-0.10783706,-0.30556217,0.8993625,-1.0,0
1763545172235,1009.83563,-0.29671,5.4233327,7.0666037,0.15111268,-0.102014415,0.060017463,30.300001,-19.29375,14.437501,46.950733,0.3361091,49.741684,0.2359931,0.2094979,0.6500263,0.6912913,0.29561475,-0.11042653,-0.30645156,0.89805645,-1.0,0
1763545172260,1009.83563,-0.293719,5.160122,6.533602,-0.042684175,-0.054366965,0.00076358096,31.781252,-20.737501,12.825001,46.950733,0.3361091,49.741684,0.23548408,0.20878895,0.65005195,0.69165516,0.29468316,-0.11048709,-0.3073046,0.89806366,-1.0,0
1763545172285,1009.81635,-0.91106725,4.786842,6.5760746,-0.2748128,0.039095346,0.00320704,29.775002,-18.975,14.475,46.950733,0.3361091,49.741684,0.23294416,0.20723496,0.6509363,0.6921507,0.29204664,-0.109170064,-0.30794796,0.8988652,-1.0,0
1763545172311,1009.81635,-0.7609176,4.348955,7.649854,-0.39255697,0.08811724,0.0876591,30.806252,-20.362501,14.75625,46.950733,0.3361091,49.741684,0.22982672,0.20534194,0.65253794,0.692249,0.28881726,-0.10756502,-0.30811948,0.90004265,-1.0,0
1763545172336,1009.80707,-0.45104706,4.016951,7.6313095,-0.053527027,0.0056504994,0.15027274,29.962502,-18.581251,16.29375,46.950733,0.3361091,49.741684,0.2279741,0.20331088,0.6551317,0.69101006,0.28592634,-0.107487746,-0.30775067,0.90110046,-1.0,0
1763545172361,1009.78314,-0.38584265,4.2687955,6.4420767,0.048029244,-0.052687086,0.22113305,30.50625,-18.375,12.825001,46.950733,0.3361091,49.741684,0.22895369,0.20258905,0.6564591,0.6896371,0.28562883,-0.108987585,-0.3068558,0.9013198,-1.0,0
1763545172386,1009.78314,0.14057833,4.469793,6.296713,0.045280352,-0.12873976,0.24816382,29.475,-18.13125,16.1625,46.950733,0.3361091,49.741684,0.23049682,0.20150444,0.6576509,0.68830407,0.28531483,-0.11103273,-0.30567554,0.9015707,-1.0,0
1763545172411,1009.76605,0.2853441,4.79402,6.289534,0.06131555,0.005345067,0.110108376,30.000002,-19.3125,14.475,46.950733,0.3361091,49.741684,0.23217855,0.2013617,0.6590476,0.68644214,0.28587037,-0.11283418,-0.30415022,0.9016869,-1.0,0
1763545172437,1009.7524,0.04127619,5.0129633,6.3678994,0.05933024,0.12812889,0.061544627,31.218752,-19.06875,14.493751,46.950733,0.3361091,49.741684,0.23196296,0.20259991,0.65955585,0.68566215,0.28682163,-0.112191334,-0.30360273,0.90164953,-1.0,0
1763545172462,1009.7524,-0.41156548,5.197809,6.378667,0.12484549,0.06459895,0.05574141,30.4125,-18.65625,14.700001,46.950733,0.3361091,49.741684,0.23290421,0.20363575,0.6597244,0.6848736,0.2881066,-0.11272304,-0.3033734,0.9012506,-1.0,0
1763545172487,1009.73676,-0.10887343,5.5633125,7.137192,0.15920663,-0.1434005,0.10720677,30.35625,-18.91875,15.806251,46.950733,0.3361091,49.741684,0.23701502,0.20396096,0.65982264,0.68327,0.28934512,-0.11473655,-0.30319336,0.90066016,-1.0,0
1763545172513,1009.73676,0.16510476,5.892924,7.893922,0.08315397,-0.04382955,0.1084285,30.806252,-18.862501,15.76875,46.950733,0.3361091,49.741684,0.23785026,0.20402676,0.66026,0.6825372,0.29014665,-0.11658093,-0.3030236,0.9002225,-1.0,0
1763545172538,1009.73627,0.5521438,6.1399827,8.475976,0.031535894,-0.051923506,0.06627883,28.85625,-18.956251,17.212502,46.950733,0.3361091,49.741684,0.23853551,0.20358229,0.660403,0.68229246,0.29037726,-0.11843125,-0.30289945,0.89994836,-1.0,0
1763545172563,1009.75507,0.6155536,6.385247,8.968898,-0.020387612,-0.17012584,0.01924224,30.50625,-19.650002,15.225,46.950733,0.3361091,49.741684,0.23956268,0.20201431,0.6600945,0.682697,0.28939715,-0.120205455,-0.30384114,0.8997113,-1.0,0
1763545172588,1009.75507,0.45224348,7.0959153,9.822537,-0.17004949,-0.13668099,-0.07620538,31.125002,-17.85,17.212502,46.950733,0.3361091,49.741684,0.23938833,0.19839251,0.65924555,0.6846378,0.2879037,-0.12149468,-0.30515754,0.8995718,-1.0,0
1763545172614,1009.79095,0.1381855,6.8662047,10.786844,-0.18104506,-0.032986697,-0.026267186,30.018751,-18.337502,16.743752,46.950733,0.3361091,49.741684,0.23817249,0.19735998,0.6595355,0.68508095,0.2844404,-0.121534996,-0.3075758,0.89984447,-1.0,0
1763545172639,1009.8212,0.8344969,6.518647,10.753345,-0.16210824,0.022449281,0.014660755,30.750002,-16.893751,15.95625,46.950733,0.3361091,49.741684,0.23541819,0.19556269,0.6606182,0.68550503,0.2814492,-0.12021996,-0.30845696,0.9006597,-1.0,0
1763545172665,1009.8212,1.0851451,6.1597238,11.443674,-0.13736822,-0.15913028,-0.035124727,30.13125,-17.7,17.00625,46.950733,0.3361091,49.741684,0.23567991,0.19349115,0.6602377,0.68636894,0.2796348,-0.1216068,-0.31007084,0.90048444,-1.0,0
1763545172690,1009.8564,1.7796619,5.7924256,11.61177,0.023441937,-0.1631009,-0.050090913,28.85625,-18.956251,17.212502,46.950733,0.3361091,49.741684,0.23663527,0.1928708,0.65955746,0.6868686,0.27942792,-0.12294481,-0.31148535,0.8998786,-1.0,0
1763545172716,1009.8398,1.0103694,5.3886366,8.0614195,0.1844048,-0.016951498,-0.14034618,30.000002,-17.587502,17.15625,46.950733,0.3361091,49.741684,0.23860368,0.1947273,0.6573029,0.68782437,0.28184256,-0.12415794,-0.31433463,0.8979662,-1.0,0
1763545172742,1009.8398,1.4273187,5.029115,7.391429,0.017027855,-0.16554436,-0.1960876,29.437502,-16.78125,17.643751,46.950733,0.3361091,49.741684,0.23911905,0.19361591,0.6555449,0.6896346,0.2810405,-0.1252249,-0.317075,0.8971056,-1.0,0
1763545172767,1009.8188,1.2460624,4.5302114,7.8143606,-0.21082471,-0.12232567,-0.27305657,30.31875,-16.81875,17.23125,46.950733,0.3361091,49.741684,0.23750204,0.1918921,0.65405625,0.6920843,0.27874592,-0.12462145,-0.32011133,0.89682716,-1.0,0
1763545172792,1009.80316,0.2656033,4.3238306,8.508878,-0.21387903,0.1763872,-0.17043127,30.4125,-16.3125,16.893751,46.950733,0.3361091,49.741684,0.23158872,0.1910893,0.6531719,0.6951389,0.27518323,-0.12009431,-0.3244691,0.89697903,-1.0,0
1763545172817,1009.80316,0.26979074,4.6899323,7.5978103,-0.0028252497,0.059253883,-0.09346231,31.687502,-16.44375,18.618752,46.950733,0.3361091,49.741684,0.2314963,0.19142969,0.6526066,0.69560677,0.2753434,-0.12009117,-0.3259014,0.8964108,-1.0,0
1763545172842,1009.7773,0.5832505,5.049454,6.409774,0.14271328,-0.15714496,-0.076052666,30.35625,-17.306252,17.1,46.950733,0.3361091,49.741684,0.23350956,0.191282,0.65136176,0.696141,0.2760499,-0.12211464,-0.32746094,0.89535123,-1.0,0
1763545172867,1009.7773,0.6837491,5.3036914,5.72423,0.13416117,-0.14126249,-0.10995566,30.206251,-16.706251,16.462502,46.950733,0.3361091,49.741684,0.2347653,0.19173473,0.6501388,0.6967371,0.27698544,-0.12310984,-0.32879874,0.8944352,-1.0,0
1763545172892,1009.74725,0.35413775,5.4442697,5.759524,-0.0297033,0.21884231,-0.14446951,30.337502,-16.06875,16.425001,46.950733,0.3361091,49.741684,0.23235835,0.19495003,0.64895874,0.69775116,0.27876702,-0.11951929,-0.33025992,0.89383024,-1.0,0
1763545172918,1009.7216,0.4959125,5.404788,6.2009997,-0.008475749,0.082924895,-0.15531237,30.806252,-16.40625,18.862501,46.950733,0.3361091,49.741684,0.23210904,0.19576137,0.64788634,0.69860303,0.27935869,-0.11897844,-0.33165547,0.8932007,-1.0,0
1763545172943,1009.7216,0.3481557,5.4233327,6.329614,0.07170025,-0.07498365,-0.15729769,30.768751,-16.66875,18.5625,46.950733,0.3361091,49.741684,0.23318592,0.19609813,0.6464987,0.699435,0.2801235,-0.11983732,-0.3331806,0.89227825,-1.0,0
1763545172968,1009.7126,1.0420742,5.7170515,6.2512493,0.06284271,-0.016798781,-0.10063997,29.493752,-16.518751,16.5375,46.950733,0.3361091,49.741684,0.23465595,0.19720061,0.6446113,0.7003748,0.28106365,-0.12060451,-0.33416095,0.89151233,-1.0,0
1763545172994,1009.7204,1.1389836,5.804988,6.95773,0.013820816,-0.002290743,-0.12858704,29.437502,-16.78125,17.643751,46.950733,0.3361091,49.741684,0.2348545,0.19751582,0.6436756,0.7010796,0.28213742,-0.1206964,-0.33594632,0.89048916,-1.0,0
1763545173019,1009.7204,1.1670992,5.804988,7.8317084,0.036880963,-0.022601997,-0.12767074,28.35,-16.9125,19.9125,46.950733,0.3361091,49.741684,0.2353511,0.19791198,0.64270365,0.70169276,0.2827027,-0.12098953,-0.33702043,0.889864,-1.0,0
1763545173045,1009.737,0.94396853,5.895915,8.472985,0.13385575,0.045967575,-0.10766492,30.375002,-16.331251,19.368752,46.950733,0.3361091,49.741684,0.23591179,0.19956343,0.641978,0.701701,0.28441027,-0.120792136,-0.33749792,0.88916546,-1.0,0
1763545173070,1009.737,0.6831509,6.649056,8.130213,0.24961463,0.032681264,0.008399391,30.956251,-15.76875,17.71875,46.950733,0.3361091,49.741684,0.23855382,0.20342267,0.6412708,0.700345,0.2889744,-0.12158329,-0.3371269,0.8877256,-1.0,0
1763545173095,1009.7436,1.0175478,6.8404818,8.558528,0.21418446,-0.12843432,-0.016951498,30.468752,-15.937501,17.94375,46.950733,0.3361091,49.741684,0.240906,0.20369476,0.64033335,0.70031846,0.29025614,-0.123606734,-0.3376621,0.88682413,-1.0,0
1763545173120,1009.7673,0.76570326,6.838089,9.45165,0.15172353,-0.12324197,-0.06887501,31.218752,-15.8625,18.6375,46.950733,0.3361091,49.741684,0.24246716,0.204072,0.6393781,0.7005426,0.2912827,-0.12486031,-0.33837897,0.88603836,-1.0,0
1763545173145,1009.7673,-0.06460621,7.1694946,9.209974,-0.014737112,0.08429934,-0.07024945,29.8875,-15.88125,18.91875,46.950733,0.3361091,49.741684,0.24166408,0.20544326,0.63868827,0.7010484,0.29232755,-0.12467311,-0.33896858,0.88549507,-1.0,0
1763545173171,1009.79486,0.05742774,6.987042,9.977472,-0.19463679,-0.035124727,-0.11041381,30.16875,-15.975,17.98125,46.950733,0.3361091,49.741684,0.24027334,0.20395727,0.63806057,0.7025303,0.29002848,-0.123342335,-0.34193775,0.88529587,-1.0,0
1763545173196,1009.79486,0.06580263,6.245267,11.008181,-0.27985242,-0.06398808,-0.19288056,30.16875,-15.975,17.98125,46.950733,0.3361091,49.741684,0.2379409,0.20246385,0.63720137,0.70453316,0.2875745,-0.12209991,-0.34464586,0.8852185,-1.0,0
1763545173221,1009.82294,-1.2077773,5.5190454,10.667802,-0.11308634,0.29550585,-0.030237807,29.8875,-15.88125,18.91875,46.950733,0.3361091,49.741684,0.23159875,0.20404698,0.6380797,0.7053943,0.285914,-0.11630278,-0.34682712,0.8856849,-1.0,0
1763545173246,1009.8398,-0.6729814,5.593223,9.82493,0.00068722287,0.08842268,0.05497783,31.893751,-14.793751,17.56875,46.950733,0.3361091,49.741684,0.23111287,0.20429198,0.638522,0.7050824,0.28576005,-0.1161446,-0.34754673,0.88547325,-1.0,0
1763545173271,1009.8398,-0.49172506,5.4341,8.619545,0.037797257,-0.0059559317,0.025503604,31.237501,-15.8625,17.550001,46.950733,0.3361091,49.741684,0.23097025,0.2043679,0.6386394,0.7050009,0.28565037,-0.116264194,-0.34829262,0.88519984,-1.0,0
1763545173297,1009.8288,-0.80877405,5.156533,7.4853473,-0.07887791,0.07467822,0.017104214,31.650002,-14.56875,16.5,46.950733,0.3361091,49.741684,0.22938327,0.20424446,0.63925415,0.7049976,0.28474456,-0.115121804,-0.34871617,0.8854742,-1.0,0
1763545173321,1009.8151,-0.55752766,4.273581,8.047063,-0.29756752,0.12950334,0.062308207,31.875002,-14.812501,18.65625,46.950733,0.3361091,49.741684,0.22375253,0.20238927,0.6417022,0.70511824,0.28039628,-0.11137566,-0.3492563,0.8871265,-1.0,0
1763545173350,1009.8151,-0.49950173,3.9338005,7.8311105,-0.23571745,0.12415826,0.07880156,33.16875,-14.2875,17.25,46.950733,0.3361091,49.741684,0.22142763,0.20157455,0.6429955,0.70490736,0.27851668,-0.10995892,-0.34948218,0.8878061,-1.0,0
1763545173376,1009.79266,-0.12023934,3.7537405,7.3980093,-0.040240716,-0.06398808,0.15317434,32.381252,-14.606251,16.893751,46.950733,0.3361091,49.741684,0.22086182,0.19937918,0.6451418,0.70374715,0.27608427,-0.11094814,-0.3492002,0.88855344,-1.0,0
1763545173400,1009.77606,0.44207397,4.01396,7.091728,0.028787002,-0.17577635,0.18264857,29.400002,-15.431251,18.956251,46.950733,0.3361091,49.741684,0.2223071,0.1978998,0.6459665,0.7029527,0.27530804,-0.11309411,-0.34876373,0.8886951,-1.0,0
1763545173425,1009.77606,0.48873404,4.2963133,6.5162544,0.014737112,-0.083230324,0.14095704,32.006252,-14.906251,17.41875,46.950733,0.3361091,49.741684,0.22277883,0.19715634,0.6468108,0.70223546,0.2747977,-0.11396165,-0.3481297,0.8889908,-1.0,0
1763545173450,1009.7636,0.2644069,4.537988,6.3607206,-0.043142326,0.056046844,0.09850194,33.112503,-14.55,17.268751,46.950733,0.3361091,49.741684,0.22218424,0.19708654,0.64767563,0.7016462,0.27444285,-0.1135344,-0.34747013,0.88941306,-1.0,0
1763545173475,1009.7502,-0.026919255,5.142774,7.0402822,0.011988222,-0.03527744,0.030695954,31.181252,-13.875001,17.75625,46.950733,0.3361091,49.741684,0.2224282,0.196872,0.6481079,0.7012298,0.27427062,-0.114054956,-0.34757873,0.88935715,-1.0,0
1763545173500,1009.7502,0.09571291,5.2492547,7.446464,0.0721584,-0.091018856,-0.0108428495,32.15625,-11.90625,18.46875,46.950733,0.3361091,49.741684,0.22353832,0.19696426,0.6476135,0.70130765,0.274797,-0.11511259,-0.34818628,0.8888206,-1.0,0
1763545173525,1009.75116,-0.30149564,5.3389854,7.8580294,0.16073379,-0.03924806,-0.023976443,30.825,-14.175,18.88125,46.950733,0.3361091,49.741684,0.22496334,0.19800527,0.6470915,0.7010406,0.27631462,-0.116038054,-0.34848875,0.88811094,-1.0,0
1763545173551,1009.75116,0.28773692,5.9096737,7.2508507,0.29130614,-0.21762058,0.08536835,31.66875,-14.325001,18.956251,46.950733,0.3361091,49.741684,0.23100024,0.19904125,0.64617056,0.6996321,0.27974427,-0.12133297,-0.34862047,0.88627607,-1.0,0
1763545173578,1009.7485,1.1814562,6.242276,7.512865,0.1164461,-0.35964665,0.014660755,31.406252,-13.481251,18.31875,46.950733,0.3361091,49.741684,0.23381487,0.1969886,0.6450737,0.7002899,0.27911747,-0.12476917,-0.34971786,0.88556397,-1.0,0
1763545173605,1009.7607,1.1527423,6.2721863,8.803793,-0.092469655,-0.30100363,-0.118507765,30.562502,-14.700001,19.10625,46.950733,0.3361091,49.741684,0.23453894,0.19475919,0.64382267,0.70182097,0.27744249,-0.12635398,-0.35152143,0.8851514,-1.0,0
1763545173630,1009.7607,0.29491538,6.9116683,10.345967,-0.17295109,-0.011911863,-0.17653993,31.462502,-14.493751,20.7,46.950733,0.3361091,49.741684,0.23211604,0.19287172,0.64212006,0.70470166,0.27581218,-0.12603082,-0.35333177,0.88498616,-1.0,0
1763545173654,1009.7824,-0.22492532,6.8931236,10.572687,-0.07276927,0.047189303,-0.12079851,32.11875,-13.650001,17.79375,46.950733,0.3361091,49.741684,0.2312771,0.19301274,0.641626,0.70538855,0.27434224,-0.12441599,-0.3564574,0.88441795,-1.0,0
1763545173679,1009.8027,0.02871387,7.043872,9.52822,-0.038560838,-0.07269291,-0.064140804,30.993752,-12.656251,18.31875,46.950733,0.3361091,49.741684,0.23131138,0.19198467,0.6410113,0.7062163,0.27335232,-0.12506624,-0.3580281,0.8839982,-1.0,0
1763545173704,1009.8027,1.0683953,6.117251,10.162916,-0.41928232,-0.11682789,-0.171653,30.806252,-14.175,19.2,46.950733,0.3361091,49.741684,0.22775203,0.18646789,0.6395412,0.7101731,0.27027664,-0.12578693,-0.36023057,0.8839469,-1.0,0
1763545173730,1009.8288,0.83090764,5.5926247,11.05843,-0.2767981,0.17745622,-0.21426082,30.675001,-12.056251,17.550001,46.950733,0.3361091,49.741684,0.22474924,0.18693836,0.6389704,0.71151865,0.26678488,-0.124366716,-0.36260462,0.8842379,-1.0,0
1763545173755,1009.82245,-0.24945176,5.58425,9.740582,0.11369721,0.12873976,-0.17088942,32.475002,-13.368751,17.118752,46.950733,0.3361091,49.741684,0.2252791,0.18847257,0.6378145,0.71198314,0.26739138,-0.12155021,-0.36591277,0.8830828,-1.0,0
1763545173781,1009.82245,0.99661064,5.453243,7.1934233,0.11247548,-0.5184715,-0.15225805,32.41875,-12.88125,17.868752,46.950733,0.3361091,49.741684,0.23214595,0.18527128,0.63340676,0.7145479,0.2685227,-0.12528633,-0.3680057,0.881346,-1.0,0
1763545173806,1009.78827,1.2215359,4.8442693,8.106285,-0.16852233,-0.30314165,-0.23182319,28.650002,-13.275001,19.368752,46.950733,0.3361091,49.741684,0.23164016,0.18301256,0.6317459,0.71676105,0.26514992,-0.12979323,-0.37332952,0.87947387,-1.0,0
1763545173832,1009.78827,0.9619147,4.4817567,8.703294,-0.24442227,0.10766492,-0.21074834,29.85,-14.75625,17.475,46.950733,0.3361091,49.741684,0.2286889,0.18301256,0.63123995,0.7181531,0.26384476,-0.12719335,-0.37500867,0.87953186,-1.0,0
1763545173856,1009.77924,0.6257231,5.1092744,6.399006,0.003130682,-0.1084285,-0.19288056,30.300001,-13.106251,18.88125,46.950733,0.3361091,49.741684,0.22783056,0.18275474,0.6287602,0.72066253,0.26316118,-0.12669751,-0.37889996,0.8781394,-1.0,0
1763545173881,1009.7541,0.39780676,5.346164,5.9527445,-0.05108357,-0.3026835,-0.23090689,32.475002,-13.368751,17.118752,46.950733,0.3361091,49.741684,0.22884902,0.1808487,0.62659806,0.722701,0.26189238,-0.12841539,-0.38159406,0.87710196,-1.0,0
1763545173906,1009.7541,0.04546363,5.325825,6.166902,-0.15951207,-0.12828161,-0.20983206,31.425001,-12.731251,17.962502,46.950733,0.3361091,49.741684,0.22782338,0.17993774,0.62538743,0.7242994,0.2606459,-0.12784679,-0.38343582,0.87675303,-1.0,0
1763545173931,1009.73773,0.42532423,5.3676996,6.4648085,-0.2126573,0.13255766,-0.15149446,30.300001,-13.106251,18.5625,46.950733,0.3361091,49.741684,0.22519721,0.18033041,0.6250132,0.7253452,0.25985965,-0.12532276,-0.3845894,0.87684554,-1.0,0
1763545173957,1009.72455,0.59581286,5.2660046,6.732805,-0.25022548,0.025503604,-0.21197008,30.937502,-12.900001,18.337502,46.950733,0.3361091,49.741684,0.2208584,0.17936309,0.6232047,0.7284685,0.2571431,-0.12176609,-0.38798225,0.87665284,-1.0,0
1763545173982,1009.72455,0.8500503,4.8819566,7.6600237,-0.2635118,-0.15363249,-0.20601414,32.53125,-12.993751,18.487501,46.950733,0.3361091,49.741684,0.21999542,0.17706622,0.62184083,0.7304543,0.25471103,-0.121953785,-0.39027408,0.8763194,-1.0,0
1763545174007,1009.7336,1.1880364,4.6618166,8.82473,-0.13797908,-0.120034926,-0.18066326,30.6375,-13.687501,18.5625,46.950733,0.3361091,49.741684,0.21956225,0.17626105,0.6207299,0.7317232,0.25378492,-0.12193751,-0.39199042,0.87582415,-1.0,0
1763545174032,1009.7453,0.75553375,5.1122656,7.6259255,0.18547381,0.39858928,-0.012522728,31.331251,-12.993751,19.5375,46.950733,0.3361091,49.741684,0.21772225,0.18223424,0.6211996,0.73041,0.25831708,-0.11783283,-0.3910573,0.8754781,-1.0,0
1763545174057,1009.7453,0.41515473,5.804988,6.975078,0.23373213,0.23457208,0.037415467,30.562502,-12.450001,19.425001,46.950733,0.3361091,49.741684,0.2186937,0.18465936,0.6214394,0.7293059,0.26092422,-0.117662914,-0.3899564,0.8752188,-1.0,0
1763545174082,1009.74506,-0.014356935,6.2494545,6.7256265,0.21846052,-0.026267186,0.068416856,30.187502,-12.975,17.962502,46.950733,0.3361091,49.741684,0.22082388,0.18536699,0.62148803,0.72844255,0.26251215,-0.1192119,-0.38893092,0.87499064,-1.0,0
1763545174107,1009.74506,0.020937199,6.201598,7.958528,0.12240203,-0.020922119,0.13240494,32.15625,-12.656251,18.65625,46.950733,0.3361091,49.741684,0.22193083,0.18627344,0.62231183,0.7271705,0.26383564,-0.11975748,-0.38722286,0.8752756,-1.0,0
1763545174132,1009.76215,0.34217364,6.599405,9.014959,0.38965538,0.22876886,0.12538,30.73125,-13.81875,19.800001,46.950733,0.3361091,49.741684,0.22449028,0.19267859,0.6239625,0.723291,0.27066228,-0.11942722,-0.3834198,0.8749105,-1.0,0
1763545174157,1009.7756,0.8279166,7.0965137,8.889337,0.39225155,-0.08261946,0.09040799,30.618752,-13.687501,18.88125,46.950733,0.3361091,49.741684,0.2280631,0.19399759,0.6234884,0.7222287,0.27338344,-0.12210381,-0.38273662,0.87399364,-1.0,0
1763545174182,1009.7756,1.0067801,7.433902,9.046664,0.28947353,-0.05665771,-0.0035124724,30.0375,-13.63125,19.556252,46.950733,0.3361091,49.741684,0.23012109,0.19545141,0.62283444,0.72174805,0.2756108,-0.12327057,-0.38238528,0.87328374,-1.0,0
1763545174207,1009.7961,-0.6412765,7.7072816,9.605389,0.07857248,0.09529491,0.0108428495,31.575,-14.08125,18.806252,46.950733,0.3361091,49.741684,0.2308515,0.19791035,0.62274754,0.72091925,0.27735335,-0.12290736,-0.38184595,0.8730192,-1.0,0
1763545174232,1009.82367,-0.2943172,7.5439715,9.793225,-0.026954409,-0.11056653,0.06185006,29.737501,-14.2875,20.400002,46.950733,0.3361091,49.741684,0.23140511,0.19661552,0.62282085,0.72103274,0.27721724,-0.123921655,-0.3817301,0.87296975,-1.0,0
1763545174257,1009.82367,0.33379877,6.619146,10.746765,-0.15111268,-0.11866048,-0.029779658,31.237501,-14.3625,17.306252,46.950733,0.3361091,49.741684,0.2305184,0.19552308,0.62258434,0.7218177,0.27581352,-0.123672634,-0.38279188,0.87298477,-1.0,0
1763545174282,1009.84247,-1.6582261,5.096114,8.971889,-0.042378742,0.5007564,0.0018325944,31.725,-14.700001,19.125,46.950733,0.3361091,49.741684,0.22381969,0.20045857,0.6245478,0.7208753,0.27605987,-0.12018393,-0.38304293,0.873284,-1.0,0
1763545174307,1009.84247,-1.9932213,4.883751,7.591828,-0.057192214,0.31994042,0.11133011,31.706251,-14.306251,16.800001,46.950733,0.3361091,49.741684,0.22174379,0.20151561,0.6260526,0.71991616,0.27719632,-0.115935795,-0.3824672,0.8737505,-1.0,0
1763545174332,1009.8227,-1.8945173,4.584648,7.382456,-0.13767365,-0.02489274,0.19226968,31.500002,-14.475,18.825,46.950733,0.3361091,49.741684,0.2212541,0.19979358,0.6275465,0.71924585,0.2752579,-0.114472546,-0.381511,0.8749734,-1.0,0
1763545174357,1009.811,-0.85483587,4.2514477,8.151151,-0.2352593,-0.20616686,0.34697118,30.900002,-13.14375,17.268751,46.950733,0.3361091,49.741684,0.22110854,0.19317137,0.6318833,0.71730006,0.27221912,-0.116093226,-0.38088816,0.87598133,-1.0,0
1763545174382,1009.811,-0.33738798,4.4572306,8.077571,-0.19799654,-0.15042545,0.33643377,33.318752,-12.656251,18.69375,46.950733,0.3361091,49.741684,0.22089459,0.1903721,0.6342102,0.7160596,0.26627493,-0.118884936,-0.37810758,0.8786346,-1.0,0
1763545174407,1009.7973,-0.25064817,4.7138605,7.2502527,-0.20471606,-0.105526894,0.27351472,30.243752,-13.462501,17.5125,46.950733,0.3361091,49.741684,0.22030443,0.18767785,0.63613206,0.7152475,0.26350942,-0.119665325,-0.37711564,0.8797879,-1.0,0
1763545174432,1009.77997,-0.123828575,4.6935215,6.9678993,-0.30947936,-0.10063997,0.17592905,31.556252,-12.825001,17.19375,46.950733,0.3361091,49.741684,0.21864997,0.18482462,0.63760614,0.71518564,0.26018524,-0.119463734,-0.37671593,0.8809751,-1.0,0
1763545174457,1009.77997,-1.1282159,4.3351965,8.069196,-0.29955283,0.30130905,0.1583667,30.806252,-12.806251,18.50625,46.950733,0.3361091,49.741684,0.21165149,0.1836376,0.6416759,0.7139558,0.2560125,-0.113915466,-0.3748534,0.8837227,-1.0,0
1763545174482,1009.76825,-1.1814562,4.3728833,7.8664045,-0.09705114,0.36376998,0.27763805,33.2625,-12.3,18.206251,46.950733,0.3361091,49.741684,0.20951393,0.18517144,0.64446306,0.71167606,0.2563915,-0.11157049,-0.37243974,0.8849317,-1.0,0
1763545174507,1009.76825,-0.80578303,4.66062,7.2819576,0.109268434,0.13316852,0.3339903,32.662502,-12.243751,19.81875,46.950733,0.3361091,49.741684,0.21050714,0.18591595,0.6465604,0.7092825,0.25738922,-0.112377904,-0.37014797,0.88550127,-1.0,0
1763545174532,1009.75555,-0.35593235,5.1457653,6.285347,0.17524183,-0.009468404,0.28145593,30.843752,-12.543751,19.10625,46.950733,0.3361091,49.741684,0.21434751,0.18698384,0.6495912,0.70506984,0.25988686,-0.11561404,-0.3657497,0.8861825,-1.0,0
1763545174558,1009.74164,-0.28055847,5.072784,6.3607206,0.074143715,0.1669188,0.24174973,33.45,-10.650001,18.2625,46.950733,0.3361091,49.741684,0.214011,0.18835557,0.6514242,0.703113,0.2609653,-0.11478522,-0.3633873,0.88694483,-1.0,0
1763545174583,1009.74164,-0.50488555,5.308477,7.058827,0.017333288,0.21670428,0.22617269,33.018753,-11.4375,16.650002,46.950733,0.3361091,49.741684,0.2132762,0.18965913,0.65331566,0.7012284,0.26181912,-0.11361375,-0.36103034,0.8878062,-1.0,0
1763545174608,1009.74066,-0.7513463,5.712266,7.8113694,0.07551816,0.17974696,0.26419902,33.018753,-9.95625,17.34375,46.950733,0.3361091,49.741684,0.21348493,0.1910165,0.6552826,0.6989575,0.2630966,-0.11332825,-0.3584687,0.8885027,-1.0,0
1763545174633,1009.7465,-0.51086766,6.3044896,7.719844,0.31421357,-0.03940078,0.3536907,32.2125,-9.65625,16.1625,46.950733,0.3361091,49.741684,0.2185813,0.19345288,0.6587375,0.69344294,0.26736835,-0.11711527,-0.35263866,0.88906926,-1.0,0
1763545174658,1009.7465,0.0735793,6.8225355,7.589435,0.22991423,-0.07574723,0.40225446,30.69375,-11.306251,16.875,46.950733,0.3361091,49.741684,0.22108136,0.193517,0.66080856,0.6906564,0.26844895,-0.119419195,-0.34944555,0.88969773,-1.0,0
1763545174683,1009.7548,1.18684,7.3746796,8.75474,0.0045051277,-0.029474225,0.31841326,31.44375,-10.59375,16.29375,46.950733,0.3361091,49.741684,0.22146447,0.19299881,0.66267693,0.68888617,0.26816675,-0.11992363,-0.34685236,0.8907291,-1.0,0
1763545174709,1009.7548,-0.13459627,7.515258,9.521041,-0.19738568,0.25534147,0.12614357,31.237501,-10.762501,17.868752,46.950733,0.3361091,49.741684,0.21710236,0.1933649,0.6660377,0.6869282,0.26671958,-0.11568966,-0.34325713,0.89311314,-1.0,0
1763545174734,1009.7724,0.40558344,7.4584284,10.316655,-0.24518585,0.0021380268,0.12064579,31.29375,-10.5,16.78125,46.950733,0.3361091,49.741684,0.21612468,0.19142741,0.6670178,0.68682814,0.26454043,-0.11564033,-0.34283274,0.8939303,-1.0,0
1763545174759,1009.7961,1.1270195,7.007381,10.875379,-0.24533857,-0.20494513,0.055283263,29.56875,-10.293751,17.400002,46.950733,0.3361091,49.741684,0.2162241,0.18812905,0.66719824,0.68753266,0.26158386,-0.11712934,-0.3434384,0.8943739,-1.0,0
1763545174784,1009.7961,2.0907288,6.3158555,11.356337,-0.28382304,-0.2950477,-0.03161225,31.81875,-9.20625,18.50625,46.950733,0.3361091,49.741684,0.21604457,0.18433012,0.6667646,0.6890371,0.25805032,-0.118586995,-0.34506863,0.8945808,-1.0,0
1763545174809,1009.8239,1.7904296,4.7545385,11.69851,-0.17921245,0.22479823,-0.26710063,30.618752,-10.200001,17.2875,46.950733,0.3361091,49.741684,0.21088614,0.18326277,0.6651578,0.6924644,0.25489745,-0.11439177,-0.3489844,0.894512,-1.0,0
1763545174834,1009.8271,0.5132605,4.555336,10.241879,0.05108357,0.43249226,-0.2328922,31.406252,-9.88125,18.2625,46.950733,0.3361091,49.741684,0.20835765,0.18663941,0.6646044,0.6928592,0.25683743,-0.1108229,-0.3500767,0.8939794,-1.0,0
1763545174859,1009.8271,0.13399807,4.69412,8.547761,0.2531271,0.20250167,-0.13790272,29.19375,-11.34375,18.75,46.950733,0.3361091,49.741684,0.20924366,0.18900749,0.66353214,0.6929779,0.25927806,-0.11082247,-0.35128483,0.8928002,-1.0,0
1763545174885,1009.8046,1.4315062,4.068995,6.908677,0.06696605,-0.37797257,-0.16493349,30.712502,-9.69375,17.868752,46.950733,0.3361091,49.741684,0.21452403,0.18649676,0.6597909,0.6956108,0.2602398,-0.11413857,-0.3531182,0.8913782,-1.0,0
1763545174910,1009.8046,1.521237,3.7764723,7.292725,-0.20639594,-0.12232567,-0.24449863,30.975,-9.168751,17.6625,46.950733,0.3361091,49.741684,0.21271694,0.18483104,0.6585277,0.6978039,0.25692582,-0.115758926,-0.35787794,0.8902316,-1.0,0
1763545174935,1009.78094,1.0031909,3.906283,8.173284,-0.30841035,0.14263692,-0.26435173,30.525002,-9.84375,18.206251,46.950733,0.3361091,49.741684,0.20931816,0.18430872,0.65772563,0.69972366,0.2550295,-0.11288821,-0.35994634,0.89031166,-1.0,0
1763545174960,1009.76044,0.503091,4.4051867,7.2448688,0.12637265,-0.1262963,-0.25778493,30.6,-9.58125,17.41875,46.950733,0.3361091,49.741684,0.20968917,0.18467127,0.65399176,0.70300907,0.25547874,-0.1131532,-0.36477134,0.8881829,-1.0,0
1763545174985,1009.76044,0.39840496,4.6007996,5.697311,0.16546799,-0.22388195,-0.27382013,31.931252,-8.175,16.10625,46.950733,0.3361091,49.741684,0.21140814,0.18462935,0.6514846,0.70483077,0.25614855,-0.114757665,-0.3675642,0.88663137,-1.0,0
1763545175010,1009.73114,0.39421752,4.9142594,5.6757755,-0.019165883,-0.046731155,-0.28344125,29.962502,-9.76875,17.643751,46.950733,0.3361091,49.741684,0.21066745,0.18500555,0.6496288,0.70666444,0.25620857,-0.11386393,-0.3697863,0.8858049,-1.0,0
1763545175036,1009.7155,0.3499503,5.0476594,7.043872,0.012751802,0.05742129,-0.2924515,30.54375,-10.575001,17.325,46.950733,0.3361091,49.741684,0.20891283,0.18708101,0.64593554,0.7100165,0.25738573,-0.11133942,-0.3741632,0.8839446,-1.0,0
1763545175061,1009.7155,0.35353956,5.1822557,6.735796,0.13507748,-0.03940078,-0.29825473,29.925001,-10.012501,17.6625,46.950733,0.3361091,49.741684,0.20990466,0.18828306,0.64349556,0.71162003,0.2588989,-0.11172204,-0.376592,0.8824217,-1.0,0
1763545175086,1009.7177,0.48873404,5.372485,6.683752,0.19814926,-0.07467822,-0.28603745,30.675001,-11.306251,17.6625,46.950733,0.3361091,49.741684,0.21152855,0.18971239,0.64099157,0.71301806,0.26088706,-0.11257469,-0.37883234,0.8807672,-1.0,0
1763545175111,1009.7177,0.7710871,5.5334024,6.5964136,0.25282165,-0.10033454,-0.2809978,30.45,-11.08125,16.893751,46.950733,0.3361091,49.741684,0.21377765,0.19113675,0.6382893,0.71438974,0.26315555,-0.11394419,-0.3809568,0.87899816,-1.0,0
1763545175136,1009.7165,0.9445667,5.7613187,6.8129644,0.2636645,-0.16462806,-0.31658068,30.056252,-11.38125,18.806252,46.950733,0.3361091,49.741684,0.21887918,0.1933516,0.632296,0.7175715,0.26738867,-0.11745737,-0.38573718,0.87516505,-1.0,0
1763545175161,1009.7319,1.198206,6.009574,6.760322,0.14561489,-0.0971275,-0.3349066,30.4125,-12.075001,16.181252,46.950733,0.3361091,49.741684,0.21973999,0.1941501,0.629542,0.71951157,0.2685269,-0.11778463,-0.38826826,0.87365204,-1.0,0
1763545175186,1009.7319,1.1485549,6.154938,7.5864444,-0.026801692,-0.016340632,-0.39003715,30.806252,-10.05,16.331251,46.950733,0.3361091,49.741684,0.21903823,0.19455686,0.626868,0.7219462,0.26865527,-0.11685241,-0.39119682,0.87243044,-1.0,0
1763545175211,1009.7358,0.7178468,6.105885,8.983254,-0.100869045,-0.022143848,-0.38744098,32.193752,-11.137501,16.40625,46.950733,0.3361091,49.741684,0.21824612,0.19438998,0.624398,0.7243675,0.26821247,-0.11610732,-0.39411855,0.8713505,-1.0,0
1763545175236,1009.7724,1.3674982,6.413961,10.242477,0.07628174,-0.086742796,-0.29474226,28.7625,-10.743751,16.743752,46.950733,0.3361091,49.741684,0.21902215,0.19455554,0.6198484,0.7279873,0.26867807,-0.116767526,-0.39940166,0.86870927,-1.0,0
1763545175261,1009.7724,0.9810573,6.7609205,10.254441,0.067118764,0.004123337,-0.2707658,31.725,-11.19375,17.53125,46.950733,0.3361091,49.741684,0.21900782,0.19520137,0.6180409,0.7293541,0.2692656,-0.11646475,-0.4013446,0.8676719,-1.0,0
1763545175287,1009.8007,1.5553347,6.2865434,11.077573,0.087124586,-0.15225805,-0.33307403,30.300001,-11.94375,15.262501,46.950733,0.3361091,49.741684,0.2204664,0.19504625,0.6130145,0.7331881,0.2696802,-0.116590016,-0.40346527,0.86654204,-1.0,0
1763545175312,1009.8007,1.8065811,5.487939,10.950154,0.035201084,-0.30879214,-0.5050325,31.143751,-12.0,16.40625,46.950733,0.3361091,49.741684,0.22150913,0.19344479,0.6085691,0.73699147,0.26975092,-0.11782569,-0.40685079,0.86476815,-1.0,0
1763545175338,1009.83295,1.3669,4.597809,11.737991,-0.020845762,-0.30344707,-0.61178106,30.88125,-12.525001,17.400002,46.950733,0.3361091,49.741684,0.22199486,0.19200653,0.6037852,0.74114454,0.26757938,-0.120621376,-0.4183692,0.8595458,-1.0,0
1763545175363,1009.8537,1.5667006,4.3112683,11.340185,0.09445497,-0.32559094,-0.6084213,30.843752,-12.7875,16.95,46.950733,0.3361091,49.741684,0.22353338,0.19068675,0.59857106,0.745241,0.2669168,-0.12281706,-0.42506406,0.8561495,-1.0,0
1763545175388,1009.8537,1.4243277,5.081159,8.428718,-0.0019089525,-0.52763444,-0.7644973,31.35,-13.33125,14.775001,46.950733,0.3361091,49.741684,0.227057,0.1854917,0.58578694,0.7555737,0.26577106,-0.12614699,-0.4325756,0.8522506,-1.0,0
1763545175413,1009.8461,1.2335001,5.0189457,8.304291,-0.24060437,-0.5090031,-0.87445295,29.643751,-13.5375,17.587502,46.950733,0.3361091,49.741684,0.22632402,0.18183683,0.57871985,0.76209986,0.26355442,-0.12845668,-0.4406478,0.84845,-1.0,0
1763545175438,1009.8383,0.88354975,4.447061,9.061021,-0.35071275,-0.46043932,-0.9346231,30.91875,-13.14375,16.5,46.950733,0.3361091,49.741684,0.22472677,0.17833121,0.57156944,0.768768,0.25606534,-0.1293626,-0.45865667,0.8410291,-1.0,0
1763545175463,1009.8383,0.6693921,3.9852462,9.396614,-0.23984079,-0.4017963,-0.8801034,29.906252,-14.493751,16.6875,46.950733,0.3361091,49.741684,0.22389615,0.17581591,0.56474143,0.77461374,0.25335595,-0.12981322,-0.4673247,0.83699876,-1.0,0
1763545175489,1009.82367,0.6867401,3.9613178,7.1946197,0.12988512,-0.558025,-0.7493784,28.800001,-14.118751,17.7,46.950733,0.3361091,49.741684,0.22793771,0.17144631,0.55088675,0.7843305,0.25198492,-0.13182159,-0.47536314,0.83256024,-1.0,0
1763545175514,1009.82367,1.0432707,4.238287,6.1513486,0.13141228,-0.7031054,-0.7367029,31.087502,-12.993751,16.63125,46.950733,0.3361091,49.741684,0.23143445,0.16790333,0.5434869,0.7892202,0.25091186,-0.13561955,-0.48296073,0.8278886,-1.0,0
1763545175539,1009.7929,1.294517,4.525426,6.708278,0.03810269,-0.62689996,-0.8785763,30.018751,-14.606251,17.1375,46.950733,0.3361091,49.741684,0.2366418,0.16160667,0.52736056,0.7998592,0.24565864,-0.14753936,-0.5065718,0.81318444,-1.0,0
1763545175565,1009.77435,1.1066805,4.733003,6.689734,0.09109521,-0.5737547,-0.93813556,28.425001,-15.900001,18.46875,46.950733,0.3361091,49.741684,0.23907754,0.15960298,0.5185341,0.8052895,0.2448665,-0.15057088,-0.51513094,0.8074707,-1.0,0
1763545175590,1009.77435,1.1102697,5.00399,6.524031,0.1259145,-0.605367,-1.0212132,30.225,-15.712501,18.73125,46.950733,0.3361091,49.741684,0.24170746,0.1576818,0.50881916,0.8110592,0.24425139,-0.1537117,-0.52426314,0.80116296,-1.0,0
1763545175616,1009.7558,0.18843478,5.2486563,6.7226353,0.076434456,-0.6365211,-1.1493421,28.9125,-17.212502,17.1,46.950733,0.3361091,49.741684,0.24623267,0.15363252,0.4876733,0.8233719,0.24255806,-0.15937082,-0.54381734,0.7874193,-1.0,0
1763545175641,1009.73944,-0.1369891,5.373083,7.1635127,0.07918335,-0.7185297,-1.0879502,30.018751,-16.612501,19.425001,46.950733,0.3361091,49.741684,0.24898362,0.15061425,0.4772611,0.8291829,0.24099018,-0.16309886,-0.55334353,0.78047,-1.0,0
1763545175667,1009.73944,0.49172506,5.5627146,7.7940216,0.110490166,-0.85795957,-1.0038035,29.587502,-18.900002,18.206251,46.950733,0.3361091,49.741684,0.2526453,0.14639103,0.46689638,0.8347142,0.23868428,-0.16819575,-0.5627172,0.77336234,-1.0,0
1763545175692,1009.738,1.5140585,5.4729834,8.860622,0.05093085,-1.0375538,-1.0737475,28.462502,-19.3875,18.35625,46.950733,0.3361091,49.741684,0.26005816,0.13514602,0.44465834,0.8463949,0.23157571,-0.17963123,-0.58262277,0.7580607,-1.0,0
1763545175718,1009.75726,1.1509477,5.2642097,9.762716,-0.029092435,-0.9634865,-1.0812306,28.706251,-20.98125,19.5,46.950733,0.3361091,49.741684,0.26240024,0.12969308,0.4337172,0.8521826,0.22754186,-0.18411644,-0.5927089,0.7503479,-1.0,0
1763545175743,1009.75726,0.89013004,5.424529,10.694721,0.03046688,-0.85734874,-0.9899064,28.275002,-20.90625,19.3875,46.950733,0.3361091,49.741684,0.2651397,0.12501717,0.4235929,0.8571119,0.22429994,-0.18872702,-0.60197234,0.7427657,-1.0,0
1763545175768,1009.7922,1.0546366,6.012565,10.192228,0.15997021,-0.9314161,-0.92072594,27.487501,-21.75,21.525002,46.950733,0.3361091,49.741684,0.2691644,0.11970826,0.4133466,0.86160606,0.22100697,-0.19477032,-0.610898,0.7348633,-1.0,0
1763545175794,1009.80194,2.1798615,6.1363935,8.914461,-0.20105088,-1.2347105,-1.0502293,27.187502,-22.518751,21.75,46.950733,0.3361091,49.741684,0.27425098,0.10362362,0.3902667,0.8727774,0.20841318,-0.20619261,-0.6309977,0.71825516,-1.0,0
1763545175819,1009.80194,2.5782664,5.5459647,10.027721,-0.58589566,-1.004109,-1.1801908,26.56875,-22.59375,22.125,46.950733,0.3361091,49.741684,0.27108848,0.09623737,0.37835327,0.87982845,0.2003824,-0.2063916,-0.642364,0.7103646,-1.0,0
1763545175844,1009.82367,2.0721843,4.8616176,11.433505,-0.7558688,-0.67561644,-1.2835796,28.35,-23.268751,21.35625,46.950733,0.3361091,49.741684,0.26576567,0.090976804,0.36657184,0.88697064,0.19325854,-0.20386098,-0.65419286,0.70222753,-1.0,0
1763545175869,1009.82367,0.78664047,4.256233,11.415559,-0.2511418,-0.7305943,-1.1016946,28.331251,-22.7625,19.95,46.950733,0.3361091,49.741684,0.26174906,0.08151044,0.34424326,0.89796436,0.18243586,-0.2046306,-0.6752991,0.68470037,-1.0,0
1763545175895,1009.8415,1.2616158,4.1850467,9.462418,0.0037415468,-0.9025527,-0.9596686,26.475,-24.581251,21.6375,46.950733,0.3361091,49.741684,0.26381144,0.07568837,0.33382934,0.9017942,0.17773037,-0.20913422,-0.6839234,0.6759612,-1.0,0
1763545175920,1009.8322,2.00698,4.217948,7.813762,-0.011835505,-0.8979712,-0.91477,27.4125,-24.993752,21.862501,46.950733,0.3361091,49.741684,0.26528943,0.06994671,0.32366595,0.9055216,0.1729359,-0.21298872,-0.6920525,0.6676768,-1.0,0
1763545175945,1009.8322,2.0398812,4.2598224,7.7593255,-0.17600541,-0.75915223,-0.9648609,29.75625,-24.35625,20.34375,46.950733,0.3361091,49.741684,0.2651083,0.06515271,0.31351006,0.90949667,0.16840596,-0.21486436,-0.7001202,0.65977603,-1.0,0
1763545175970,1009.80536,1.6223338,4.345366,7.69113,-0.11369721,-0.5430588,-1.0777181,26.118752,-25.63125,21.88125,46.950733,0.3361091,49.741684,0.2645738,0.05909335,0.29229358,0.9171004,0.16244933,-0.21702889,-0.71640897,0.6428584,-1.0,0
1763545175995,1009.80536,1.3734802,4.412365,6.8081784,-0.052763447,-0.61132294,-1.1398736,26.118752,-25.63125,21.88125,46.950733,0.3361091,49.741684,0.2652353,0.055996336,0.2805533,0.920763,0.16244933,-0.21702889,-0.71640897,0.6428584,-1.0,0
1763545176020,1009.7692,1.4027922,4.403392,6.553343,-0.089415334,-0.6565269,-1.1804962,28.25625,-26.531252,23.41875,46.950733,0.3361091,49.741684,0.2655381,0.052725848,0.26837802,0.9244906,0.15693252,-0.22059621,-0.73326033,0.62372977,-1.0,0
1763545176045,1009.736,1.1784651,4.4129634,7.8071823,-0.17142393,-0.51495904,-1.218828,27.525002,-28.837502,21.91875,46.950733,0.3361091,49.741684,0.26441994,0.047888905,0.24403436,0.9317918,0.15410705,-0.22141011,-0.7418357,0.6139286,-1.0,0
1763545176070,1009.736,0.72023964,4.4811587,8.352746,-0.0655916,-0.48899725,-1.1814125,28.85625,-29.437502,21.65625,46.950733,0.3361091,49.741684,0.26476225,0.04608111,0.23235282,0.9347672,0.15034182,-0.22275513,-0.7579656,0.59436154,-1.0,0
1763545176095,1009.72797,0.72382885,4.7371907,8.306684,0.09491312,-0.54718214,-1.0816888,28.781252,-29.718752,23.7,46.950733,0.3361091,49.741684,0.2666302,0.04388687,0.2213191,0.9370166,0.1489885,-0.22543326,-0.7648299,0.58482265,-1.0,0
1763545176120,1009.71576,0.991825,5.474778,6.920043,0.2154062,-0.5253437,-0.9834923,29.23125,-29.79375,22.10625,46.950733,0.3361091,49.741684,0.2719977,0.039760344,0.20044632,0.94034976,0.14734633,-0.23206179,-0.7765673,0.56690353,-1.0,0
1763545176145,1009.71576,0.92602235,5.6931233,6.862615,0.08605558,-0.40332347,-0.96867883,29.531252,-30.393751,23.19375,46.950733,0.3361091,49.741684,0.2731197,0.038822245,0.19067638,0.9420939,0.14698578,-0.23344532,-0.7820581,0.55882335,-1.0,0
1763545176170,1009.70526,0.94396853,5.88096,8.2678,0.0063377223,-0.32574365,-0.95493436,28.66875,-31.725,23.8125,46.950733,0.3361091,49.741684,0.2737645,0.038421422,0.18123367,0.94378555,0.14691567,-0.23417725,-0.7873826,0.551004,-1.0,0
1763545176195,1009.70526,0.50428736,5.95753,9.57787,0.11064288,-0.27687445,-0.8975131,30.50625,-32.025,23.962502,46.950733,0.3361091,49.741684,0.2754968,0.038345356,0.17256212,0.9449092,0.14749682,-0.23582521,-0.7920828,0.5433563,-1.0,0
1763545176221,1009.70917,0.7477571,6.300302,8.934201,0.44692394,-0.4149299,-0.7145591,30.862501,-33.225002,23.0625,46.950733,0.3361091,49.741684,0.28358936,0.03640501,0.1568176,0.9453359,0.14885461,-0.2441118,-0.7992814,0.5285839,-1.0,0
1763545176246,1009.71967,0.84167534,6.594021,8.608179,0.34506226,-0.5039635,-0.7032581,30.50625,-33.412502,24.656252,46.950733,0.3361091,49.741684,0.28696778,0.034122348,0.14893985,0.9456755,0.14810596,-0.24815208,-0.80289036,0.5213945,-1.0,0
1763545176271,1009.72894,0.26021945,6.600601,9.2488575,0.028176138,-0.205556,-0.6186533,31.06875,-34.96875,24.525002,46.950733,0.3361091,49.741684,0.28868255,0.032912467,0.13577707,0.9471767,0.14766592,-0.25023118,-0.80969477,0.50987595,-1.0,0
1763545176297,1009.72894,0.78783685,6.5108705,9.470194,-0.13324489,-0.344375,-0.6553052,32.30625,-33.225002,24.45,46.950733,0.3361091,49.741684,0.28748366,0.030948717,0.12837793,0.9486382,0.1453628,-0.24994868,-0.81408674,0.5036448,-1.0,0
1763545176322,1009.7409,0.6891329,5.7876396,10.057034,-0.28840452,-0.40790495,-0.82268214,31.725,-34.537502,25.35,46.950733,0.3361091,49.741684,0.28473502,0.029463861,0.119706385,0.9506462,0.14278112,-0.2481042,-0.81966484,0.49619293,-1.0,0
1763545176347,1009.7409,-0.44506502,4.99083,10.951949,-0.36033386,-0.1432478,-0.8631519,32.475002,-34.575,24.35625,46.950733,0.3361091,49.741684,0.2813272,0.030538827,0.111944325,0.9525707,0.14219517,-0.24465923,-0.8249439,0.48927495,-1.0,0
1763545176373,1009.7697,-1.1210374,4.64746,9.85484,0.09918917,-0.24694209,-0.45906487,33.300003,-35.60625,24.018751,46.950733,0.3361091,49.741684,0.28091103,0.030422207,0.101229586,0.9538952,0.14147693,-0.24458289,-0.8313749,0.47851783,-1.0,0
1763545176399,1009.77313,-0.41754755,4.71087,8.614759,0.19509494,-0.536492,-0.3478875,33.09375,-35.006252,25.3875,46.950733,0.3361091,49.741684,0.28274837,0.02644934,0.09645729,0.9539653,0.13844648,-0.24794915,-0.8336388,0.47370896,-1.0,0
1763545176425,1009.77313,0.1692922,4.6618166,7.8227353,0.085597426,-0.5745183,-0.33093598,34.143753,-35.643753,25.1625,46.950733,0.3361091,49.741684,0.28335914,0.022440858,0.091847174,0.9543417,0.13491353,-0.2501886,-0.83605814,0.4692662,-1.0,0
1763545176450,1009.77045,-0.053240303,4.3818564,8.078169,-0.16409355,-0.17318016,-0.28725916,32.11875,-36.225002,25.25625,46.950733,0.3361091,49.741684,0.2807906,0.019483408,0.08510327,0.9557899,0.13228841,-0.25016868,-0.8384981,0.46565688,-1.0,0
1763545176475,1009.76385,-0.12622139,4.4279184,7.795816,-0.083612114,-0.09911281,-0.21639885,35.11875,-35.175003,25.500002,46.950733,0.3361091,49.741684,0.28021386,0.018957587,0.08293222,0.9561606,0.13011907,-0.24889399,-0.84194744,0.46070084,-1.0,0
1763545176500,1009.76385,0.05682954,4.488337,7.5349984,0.06360629,-0.229227,-0.17669263,35.456253,-35.53125,26.868752,46.950733,0.3361091,49.741684,0.2812439,0.017026858,0.080544606,0.9560986,0.12867337,-0.25066152,-0.8430211,0.45817837,-1.0,0
1763545176525,1009.7475,0.637089,4.5631127,6.3678994,0.22731806,-0.37171122,-0.2112065,33.787502,-35.943752,25.218752,46.950733,0.3361091,49.741684,0.28561,0.011668875,0.074723616,0.9553571,0.12682624,-0.25385204,-0.8439644,0.45519048,-1.0,0
1763545176550,1009.7475,0.567099,4.6707897,5.989235,0.11064288,-0.23472479,-0.28710645,35.456253,-37.143753,25.575,46.950733,0.3361091,49.741684,0.286488,0.010635045,0.071389176,0.95536125,0.12533551,-0.25690514,-0.845013,0.4519334,-1.0,0
1763545176575,1009.7299,0.12263216,4.6295137,6.8650084,0.0032833982,-0.10491603,-0.33750278,34.3875,-37.256252,26.156252,46.950733,0.3361091,49.741684,0.2867295,0.010727379,0.06806736,0.95553017,0.12481428,-0.25836074,-0.8480303,0.44555095,-1.0,0
1763545176600,1009.7231,-0.31585258,5.1003013,7.6145597,0.32261297,-0.22846343,-0.2622137,34.350002,-38.25,25.29375,46.950733,0.3361091,49.741684,0.29162157,0.009236934,0.061860327,0.9544867,0.12525669,-0.25979015,-0.8491883,0.44237885,-1.0,0
1763545176625,1009.7231,-0.34217364,5.63091,7.006783,0.4311942,-0.28145593,-0.23136504,35.15625,-38.550003,26.456251,46.950733,0.3361091,49.741684,0.29573235,0.007771921,0.05892732,0.9534199,0.12525009,-0.2635164,-0.8498315,0.4389281,-1.0,0
1763545176650,1009.717,-0.35653058,6.0867424,6.3996043,0.34322965,-0.28435755,-0.21456626,34.36875,-38.643753,28.406252,46.950733,0.3361091,49.741684,0.29882577,0.005778623,0.05600092,0.9526456,0.12500013,-0.27148697,-0.8504371,0.4329279,-1.0,0
1763545176675,1009.7153,0.2727818,6.305686,7.454241,0.1579849,-0.46456265,-0.22876886,33.581253,-39.7125,27.618752,46.950733,0.3361091,49.741684,0.30053866,0.0020324467,0.05222962,0.9523363,0.12244343,-0.2744726,-0.85136765,0.42993662,-1.0,0
1763545176701,1009.7153,0.31585258,6.4612193,9.352945,0.0561232,-0.23304491,-0.32330018,35.25,-38.662502,27.69375,46.950733,0.3361091,49.741684,0.3020222,-0.0018203543,0.04469369,0.9522509,0.11936702,-0.27743867,-0.8545302,0.42256054,-1.0,0
1763545176726,1009.7475,-0.05383851,6.7465634,9.436694,0.007101303,-0.05329795,-0.2855793,35.831253,-38.60625,28.406252,46.950733,0.3361091,49.741684,0.30207595,-0.0014465273,0.04199297,0.9523574,0.11965748,-0.2773699,-0.85582155,0.41990182,-1.0,0
1763545176751,1009.7685,0.05503492,6.858428,9.647861,0.030161448,-0.11056653,-0.2583958,35.643753,-38.775,29.362501,46.950733,0.3361091,49.741684,0.3025238,-0.0019139185,0.039165575,0.9523349,0.11935912,-0.2779887,-0.8570075,0.41714957,-1.0,0
1763545176776,1009.7685,0.357727,6.6777697,8.858828,-0.0881936,-0.2376264,-0.2716821,37.21875,-39.84375,27.712502,46.950733,0.3361091,49.741684,0.3016757,-0.0045899753,0.03281468,0.95283467,0.116454765,-0.27832997,-0.8601744,0.41118205,-1.0,0
1763545176801,1009.79877,0.567099,6.7405815,9.270393,-0.29710937,-0.24098615,-0.28435755,36.54375,-38.15625,26.60625,46.950733,0.3361091,49.741684,0.2987959,-0.006230794,0.029387036,0.95384413,0.1137504,-0.27636692,-0.8625425,0.4082923,-1.0,0
1763545176827,1009.79877,1.1084751,6.378069,10.459028,-0.35712683,-0.28848088,-0.3028362,37.518753,-38.325,28.368752,46.950733,0.3361091,49.741684,0.29582417,-0.0082155075,0.02568958,0.9548615,0.110625684,-0.27448386,-0.86512667,0.40494004,-1.0,0
1763545176854,1009.82,0.9661021,5.56092,10.195219,-0.03978257,-0.3262018,-0.32757625,37.800003,-38.5125,26.175001,46.950733,0.3361091,49.741684,0.29388693,-0.012826808,0.017936327,0.9555858,0.105089776,-0.2747548,-0.86966074,0.3964292,-1.0,0
1763545176878,1009.82806,1.0241281,5.0715876,9.305089,0.03825541,-0.39675668,-0.27259842,37.350002,-39.1875,27.0375,46.950733,0.3361091,49.741684,0.29407105,-0.016044257,0.014364911,0.95554096,0.1019735,-0.2762908,-0.8713771,0.39238593,-1.0,0
1763545176903,1009.82806,1.5182459,4.5212383,9.118449,0.028328855,-0.41065386,-0.25503606,40.162502,-40.631252,25.743752,46.950733,0.3361091,49.741684,0.29418942,-0.019005202,0.010973244,0.9554952,0.099026166,-0.27767324,-0.87306833,0.38838527,-1.0,0
1763545176928,1009.821,1.5427724,4.365705,8.2558365,0.05688678,-0.28221953,-0.2716821,38.662502,-40.050003,25.725,46.950733,0.3361091,49.741684,0.29446986,-0.020932293,0.0077612232,0.95539993,0.09701944,-0.27881515,-0.8747333,0.38430586,-1.0,0
1763545176953,1009.7941,1.3034902,4.369294,6.469594,-0.051236283,-0.2762636,-0.320704,39.6375,-40.2,26.7,46.950733,0.3361091,49.741684,0.29373488,-0.024664054,0.0005468835,0.95556855,0.09279007,-0.27978295,-0.87842435,0.3761412,-1.0,0
1763545176978,1009.7941,1.486541,4.4081774,6.3678994,-0.16439898,-0.28710645,-0.3697259,39.956253,-38.568752,28.275002,46.950733,0.3361091,49.741684,0.29202154,-0.026455842,-0.0038038306,0.9560382,0.09027916,-0.2789734,-0.8808197,0.37172598,-1.0,0
1763545177003,1009.7653,1.1940185,4.348955,7.5643106,-0.2370919,-0.24877468,-0.41722065,38.456253,-38.831253,26.437502,46.950733,0.3361091,49.741684,0.29006228,-0.02753715,-0.008248963,0.95657593,0.088308536,-0.2776617,-0.8833331,0.36718968,-1.0,0
1763545177029,1009.7653,0.10707881,4.510471,7.597212,0.1494328,0.077579826,-0.26633704,38.98125,-39.787502,27.825,46.950733,0.3361091,49.741684,0.29132083,-0.025549155,-0.013465304,0.9561894,0.08866289,-0.2770712,-0.8849935,0.363534,-1.0,0
1763545177054,1009.76263,0.36370903,4.9986067,6.502496,0.29604036,-0.11560616,-0.19226968,39.300003,-41.006252,29.41875,46.950733,0.3361091,49.741684,0.29414073,-0.026619583,-0.015667114,0.9552629,0.090202965,-0.2812308,-0.8857307,0.35812542,-1.0,0
1763545177079,1009.7314,0.60059845,5.319843,5.790631,0.2917643,-0.27412558,-0.21395539,41.625,-40.612503,25.44375,46.950733,0.3361091,49.741684,0.2967649,-0.028600652,-0.01843068,0.9543442,0.0893426,-0.2844386,-0.886037,0.35503668,-1.0,0
1763545177104,1009.7314,0.53240305,5.5986066,6.250651,0.124692775,0.048716467,-0.22525638,42.54375,-41.1375,25.687502,46.950733,0.3361091,49.741684,0.29997554,-0.02787251,-0.02259734,0.9532718,0.08946327,-0.28625813,-0.88632786,0.35281086,-1.0,0
1763545177129,1009.72064,0.20398813,5.858228,6.1184473,0.13767365,0.11178826,-0.19226968,41.775,-41.23125,27.618752,46.950733,0.3361091,49.741684,0.30153185,-0.026704622,-0.02402811,0.9527792,0.09319488,-0.2880092,-0.8864765,0.3500355,-1.0,0
1763545177154,1009.7287,0.16390835,6.2997036,6.579664,0.108657576,-0.085979216,-0.17363831,43.987503,-40.3875,27.656252,46.950733,0.3361091,49.741684,0.30281627,-0.027493032,-0.025984285,0.95229787,0.0931156,-0.28945303,-0.8866234,0.34849024,-1.0,0
1763545177179,1009.7287,0.23090738,6.483353,7.8023963,0.12942697,-0.22525638,-0.15332706,43.987503,-38.8875,27.862501,46.950733,0.3361091,49.741684,0.30446172,-0.029174872,-0.027930386,0.9516679,0.09234708,-0.29158208,-0.886643,0.34686613,-1.0,0
1763545177204,1009.7497,0.5808577,6.786045,8.679366,0.36308277,-0.11866048,0.010995566,42.225002,-42.3375,30.4125,46.950733,0.3361091,49.741684,0.31055108,-0.031759493,-0.028907835,0.9495861,0.092258126,-0.29442963,-0.88604593,0.34600905,-1.0,0
1763545177230,1009.7497,1.0133604,7.2089763,8.282756,0.37728536,-0.22052218,-0.028863361,41.737503,-39.75,29.23125,46.950733,0.3361091,49.741684,0.3137712,-0.034059945,-0.030048128,0.94841164,0.09246607,-0.29816216,-0.88497865,0.34548825,-1.0,0
1763545177255,1009.7746,1.3860425,7.281359,8.219346,0.17524183,-0.27382013,-0.16478078,41.98125,-40.74375,30.187502,46.950733,0.3361091,49.741684,0.3149057,-0.035758734,-0.032557756,0.94789016,0.0905304,-0.3037244,-0.8848064,0.34157482,-1.0,0
1763545177280,1009.8083,-1.1270195,6.795616,9.877572,-0.15004367,0.6540835,-0.19226968,41.71875,-40.518753,30.525002,46.950733,0.3361091,49.741684,0.3129974,-0.025686935,-0.03353643,0.94881403,0.09902371,-0.29802936,-0.8860682,0.34096327,-1.0,0
1763545177305,1009.8083,-1.6109679,6.8985076,9.468399,-0.14973822,0.6789762,0.005345067,42.61875,-40.3125,31.331251,46.950733,0.3361091,49.741684,0.31168997,-0.019957595,-0.03154992,0.9494502,0.103931785,-0.29452866,-0.88570094,0.34348926,-1.0,0
1763545177330,1009.8403,-0.549751,6.760322,9.81476,-0.18073961,0.22143848,0.07925971,42.46875,-40.443752,30.431252,46.950733,0.3361091,49.741684,0.3100323,-0.01858149,-0.030733813,0.95004743,0.10473201,-0.29239786,-0.8857122,0.34503415,-1.0,0
1763545177356,1009.8649,-0.57188463,4.87418,10.198809,-0.13782637,0.23915356,-0.0016798781,43.18125,-39.75,31.087502,46.950733,0.3361091,49.741684,0.30680126,-0.015169584,-0.029807549,0.95118576,0.106420174,-0.28815258,-0.886611,0.34578001,-1.0,0
1763545177381,1009.8649,-0.74536425,4.6259246,9.456435,-0.118889555,0.23075417,0.09987639,41.775,-40.256252,30.50625,46.950733,0.3361091,49.741684,0.30534667,-0.013906082,-0.028343188,0.9517178,0.10690748,-0.28635773,-0.88665205,0.34701318,-1.0,0
1763545177406,1009.8559,-0.15732808,4.5284166,9.177671,-0.07826705,-0.15607595,0.15027274,40.85625,-41.100002,31.10625,46.950733,0.3361091,49.741684,0.30425733,-0.016292283,-0.027793137,0.95204496,0.10421168,-0.2863178,-0.88682675,0.34741965,-1.0,0
1763545177431,1009.8559,0.42951167,4.599005,8.66142,-0.05337431,-0.36331183,0.08857539,42.16875,-39.84375,29.343752,46.950733,0.3361091,49.741684,0.3011529,-0.021681515,-0.028352214,0.9529077,0.09777804,-0.28566173,-0.888154,0.34643805,-1.0,0
1763545177456,1009.8481,-0.40079778,4.6642094,8.221739,-0.25557056,0.075289086,0.118202336,39.46875,-39.9,32.568752,46.950733,0.3361091,49.741684,0.29861543,-0.020547656,-0.026636219,0.9537805,0.09779006,-0.28289658,-0.88833517,0.34823442,-1.0,0
1763545177481,1009.8349,-0.30029923,4.7198424,7.9818583,-0.19585852,0.27107126,0.21899502,41.737503,-38.79375,32.5875,46.950733,0.3361091,49.741684,0.29699844,-0.018574918,-0.023823652,0.9544,0.09896325,-0.280641,-0.88781965,0.35103154,-1.0,0
1763545177507,1009.8349,0.08853444,4.7718863,7.30768,-0.003894263,0.15424335,0.22510368,39.7125,-40.125,32.568752,46.950733,0.3361091,49.741684,0.2972793,-0.018128393,-0.021590322,0.95437425,0.09946898,-0.28073037,-0.88694215,0.3530297,-1.0,0
1763545177531,1009.7929,0.12263216,4.818547,6.128019,0.14240785,-0.03924806,0.1632536,39.75,-39.35625,31.275002,46.950733,0.3361091,49.741684,0.29861373,-0.019302316,-0.020424724,0.9539602,0.0989104,-0.2824172,-0.8861048,0.35394275,-1.0,0
1763545177556,1009.7746,0.15014961,4.5391846,5.81755,0.047112945,-0.17562363,0.12492185,40.48125,-39.300003,32.287502,46.950733,0.3361091,49.741684,0.30004513,-0.0230378,-0.019096212,0.95345557,0.09618684,-0.28514192,-0.88492733,0.35545158,-1.0,0
1763545177581,1009.7746,0.31046873,4.4524446,6.31765,-0.0029779659,-0.017562363,0.13530655,39.318752,-40.03125,31.368752,46.950733,0.3361091,49.741684,0.30001754,-0.023213634,-0.017827544,0.95348454,0.09604555,-0.28517476,-0.8844184,0.35672766,-1.0,0
1763545177606,1009.75995,-0.17587246,5.128417,6.908079,0.0051159924,0.16294818,0.14080434,38.90625,-39.075,32.268753,46.950733,0.3361091,49.741684,0.30012932,-0.021214083,-0.014529626,0.95355195,0.09673592,-0.28473574,-0.8839222,0.3581191,-1.0,0
1763545177633,1009.7526,-0.40857446,5.7631135,7.091728,0.118889555,0.13927718,0.15164718,38.268753,-39.15,34.050003,46.950733,0.3361091,49.741684,0.30160385,-0.020552771,-0.012806604,0.9531258,0.09922991,-0.28555337,-0.881978,0.36156273,-1.0,0
1763545177658,1009.7526,-0.86261255,6.238687,6.795616,0.22670719,0.003817905,0.16646065,40.66875,-39.15,31.63125,46.950733,0.3361091,49.741684,0.30387676,-0.021069102,-0.011266199,0.9524117,0.09980449,-0.28779167,-0.88051665,0.36318788,-1.0,0
1763545177684,1009.7651,-0.19262223,6.604789,7.2526455,0.035048366,-0.04856375,0.24678937,39.581253,-40.0125,33.037502,46.950733,0.3361091,49.741684,0.30568007,-0.02284656,-0.007444156,0.95183104,0.10009212,-0.28940946,-0.87894946,0.36561126,-1.0,0
1763545177710,1009.7651,0.62093747,6.6305118,8.707481,-0.10560325,-0.20127994,0.15439607,37.4625,-39.487503,34.612503,46.950733,0.3361091,49.741684,0.30474582,-0.025196131,-0.0070639253,0.95207417,0.09701394,-0.2899882,-0.87771463,0.3689338,-1.0,0
1763545177735,1009.7929,0.41515473,6.5431733,9.830314,-0.1466839,-0.13362667,0.05421425,38.475002,-39.75,32.662502,46.950733,0.3361091,49.741684,0.3033818,-0.025692454,-0.0067362194,0.95249885,0.096016005,-0.28893176,-0.8779807,0.3693903,-1.0,0
1763545177760,1009.8254,-0.6681957,7.0929246,9.399008,-0.20059273,0.5178606,0.14844014,38.850002,-39.3375,32.287502,46.950733,0.3361091,49.741684,0.29985437,-0.017795598,-0.001804091,0.95381725,0.099017434,-0.28584766,-0.87767255,0.37172243,-1.0,0
1763545177785,1009.8254,0.068793654,7.012167,9.618548,-0.19051345,0.09987639,0.13439025,37.8375,-39.1875,33.018753,46.950733,0.3361091,49.741684,0.29822224,-0.018245213,-0.0010338592,0.9543215,0.10183915,-0.2825918,-0.87730455,0.37430927,-1.0,0
1763545177811,1009.86615,1.0366904,6.5228343,10.253843,-0.21968225,-0.39813113,0.0061086477,38.23125,-39.412502,34.068752,46.950733,0.3361091,49.741684,0.29610413,-0.02240514,-0.0026721617,0.9548891,0.09604176,-0.28099045,-0.8787419,0.373675,-1.0,0
1763545177835,1009.9035,1.3046865,5.611169,11.818151,-0.23755004,-0.47280934,-0.08307761,36.206253,-39.35625,32.568752,46.950733,0.3361091,49.741684,0.29389378,-0.026222425,-0.0046633086,0.9554669,0.09152669,-0.28050676,-0.8802373,0.3716465,-1.0,0
1763545177860,1009.9035,1.7617157,5.110471,11.114063,-0.014737112,0.05497783,-0.11331542,38.943752,-38.831253,32.568752,46.950733,0.3361091,49.741684,0.29187086,-0.02649843,-0.0065399674,0.9560682,0.089547835,-0.27905542,-0.88275677,0.36721894,-1.0,0
1763545177885,1009.90424,0.89312106,4.953741,9.885348,-0.008781182,0.084452055,-0.18325943,37.443752,-38.86875,34.74375,46.950733,0.3361091,49.741684,0.291412,-0.02567121,-0.007977176,0.9562199,0.089723624,-0.27844143,-0.88399106,0.364664,-1.0,0
1763545177910,1009.90424,0.26620153,4.615755,9.080164,7.63581e-05,-0.02489274,-0.13271037,40.3125,-37.93125,31.9125,46.950733,0.3361091,49.741684,0.29114094,-0.025872203,-0.009103172,0.95628697,0.089166455,-0.27835545,-0.8848388,0.36280546,-1.0,0
1763545177935,1009.8852,1.0336994,4.3064823,7.6271224,-0.06772963,-0.1999055,-0.023823727,37.912502,-37.443752,32.5875,46.950733,0.3361091,49.741684,0.28971654,-0.02899752,-0.010756945,0.95661265,0.08528433,-0.27839383,-0.8863628,0.35997847,-1.0,0
1763545177961,1009.8576,1.3824533,4.4111686,7.697112,-0.15050182,-0.25885394,-0.09117157,37.36875,-37.987503,31.7625,46.950733,0.3361091,49.741684,0.28803185,-0.031170228,-0.012497873,0.9570318,0.0823808,-0.27775407,-0.8877428,0.3577412,-1.0,0
1763545177986,1009.8576,1.154537,4.5505505,7.646863,-0.20761767,-0.1867719,-0.16722423,37.59375,-37.48125,33.412502,46.950733,0.3361091,49.741684,0.28594702,-0.03227642,-0.014573571,0.9575908,0.0802933,-0.27633396,-0.8893973,0.35519695,-1.0,0
1763545178012,1009.83417,0.3062813,4.727021,7.919645,-0.05016727,0.021074835,-0.08872811,39.35625,-39.037502,32.23125,46.950733,0.3361091,49.741684,0.28423202,-0.031735152,-0.016641514,0.95808566,0.07974601,-0.2746553,-0.89114696,0.3522246,-1.0,0
1763545178037,1009.81903,0.85902333,5.0159545,7.478169,0.14500403,-0.03084867,-0.022754714,38.025,-38.30625,32.625,46.950733,0.3361091,49.741684,0.28585234,-0.03197814,-0.016884461,0.9575911,0.080002405,-0.27628568,-0.8909628,0.3513562,-1.0,0
1763545178062,1009.81903,1.1862419,5.259424,6.3828545,0.22273657,0.040317077,-0.047952887,37.425003,-37.612503,33.112503,46.950733,0.3361091,49.741684,0.28786147,-0.03117672,-0.017141493,0.9570109,0.081355855,-0.27788022,-0.8907231,0.35039422,-1.0,0
1763545178088,1009.78436,1.174876,5.3742795,5.66082,0.107435845,0.23518294,-0.13240494,39.9,-37.85625,31.331251,46.950733,0.3361091,49.741684,0.28882802,-0.02837812,-0.017746637,0.95679575,0.084198356,-0.27773649,-0.89089805,0.3493905,-1.0,0
1763545178113,1009.78436,0.18843478,5.5405807,7.0193453,0.050319985,0.30863944,-0.20127994,38.53125,-38.737503,32.456253,46.950733,0.3361091,49.741684,0.29030916,-0.021691859,-0.019692682,0.9564843,0.08756852,-0.27662548,-0.89140147,0.34815738,-1.0,0
1763545178138,1009.7702,0.0849452,5.615955,7.110871,0.25465426,0.15638138,-0.13729186,38.5875,-39.131252,33.7125,46.950733,0.3361091,49.741684,0.2933172,-0.02043402,-0.020467017,0.95557755,0.09305818,-0.27891344,-0.891057,0.3457815,-1.0,0
1763545178163,1009.76434,0.1692922,5.681159,6.799206,0.4058433,-0.041538805,-0.07238748,38.2125,-37.93125,34.912502,46.950733,0.3361091,49.741684,0.2973054,-0.021031072,-0.021186676,0.9543156,0.09399482,-0.28283876,-0.89020616,0.3445289,-1.0,0
1763545178188,1009.76434,-0.16689938,6.2327046,7.3567333,0.2738965,0.060017463,-0.02489274,38.193752,-40.93125,35.7,46.950733,0.3361091,49.741684,0.30337107,-0.020747991,-0.021512613,0.95240366,0.094759546,-0.28629166,-0.8894541,0.343408,-1.0,0
1763545178213,1009.77094,-0.29312077,6.3140607,7.6779695,0.19784383,0.113162704,0.058490302,39.61875,-38.268753,34.0125,46.950733,0.3361091,49.741684,0.3051942,-0.020049581,-0.020564198,0.9518569,0.09649278,-0.2883637,-0.8886561,0.3432577,-1.0,0
1763545178238,1009.7956,0.31166515,6.52104,8.19123,0.11446079,-0.010690134,0.07696896,39.24375,-39.318752,35.8125,46.950733,0.3361091,49.741684,0.30617616,-0.020548835,-0.020128176,0.9515402,0.09772702,-0.2908875,-0.887353,0.344149,-1.0,0
1763545178263,1009.7956,0.42652065,6.5724854,9.055637,0.026648976,-0.0858265,0.012064579,37.425003,-38.8875,35.362503,46.950733,0.3361091,49.741684,0.30635008,-0.021233479,-0.02031366,0.95146525,0.0970794,-0.2913363,-0.88745,0.34370226,-1.0,0
1763545178288,1009.83,-0.67836523,6.9768724,9.9140625,0.0014508038,0.19944735,0.19807291,37.96875,-39.09375,36.393753,46.950733,0.3361091,49.741684,0.30610365,-0.01910615,-0.016810996,0.95165795,0.097846575,-0.2908477,-0.8873024,0.34427917,-1.0,0
1763545178313,1009.83,0.33499518,7.3525457,9.97149,-0.053527027,-0.041691523,0.23258677,36.862503,-38.7,36.3375,46.950733,0.3361091,49.741684,0.30527484,-0.020561367,-0.015359914,0.95191836,0.098794036,-0.29035184,-0.88648295,0.34653074,-1.0,0
1763545178338,1009.85565,1.1114662,6.9445696,10.909476,-0.18745913,-0.21166465,0.05864302,40.18125,-38.25,36.881252,46.950733,0.3361091,49.741684,0.3032568,-0.022289842,-0.015906913,0.9525153,0.094602205,-0.28898433,-0.88712955,0.34718817,-1.0,0
1763545178363,1009.87225,0.31046873,6.0843496,11.712867,-0.26962045,0.056046844,-0.11178826,39.825,-40.237503,33.018753,46.950733,0.3361091,49.741684,0.30072716,-0.020538064,-0.016485868,0.95334655,0.094994195,-0.28606772,-0.8884423,0.3461383,-1.0,0
1763545178388,1009.87225,-0.6939186,5.415556,9.409177,0.051389,0.26542073,0.08491021,39.300003,-36.318752,33.318752,46.950733,0.3361091,49.741684,0.299957,-0.014863827,-0.0140111195,0.953734,0.09837228,-0.2836693,-0.88863367,0.3466768,-1.0,0
1763545178413,1009.8603,0.017347964,5.2283173,8.728418,0.06207913,-0.11804962,0.056352276,37.7625,-37.125,37.068752,46.950733,0.3361091,49.741684,0.30022103,-0.016119512,-0.014188219,0.95362794,0.098476365,-0.2840685,-0.88833946,0.3470742,-1.0,0
1763545178438,1009.8332,-0.47018966,4.6061835,7.318448,-0.17936517,0.10308343,-0.04535671,38.1375,-38.193752,36.318752,46.950733,0.3361091,49.741684,0.2974904,-0.01474292,-0.014792531,0.9544964,0.09845878,-0.28111163,-0.8896932,0.3460175,-1.0,0
1763545178464,1009.8332,-0.37567315,4.2711883,7.683952,-0.27221662,0.19700389,-0.009162972,38.362503,-38.550003,36.6375,46.950733,0.3361091,49.741684,0.29498562,-0.012750667,-0.014312054,0.9553094,0.09927359,-0.27807167,-0.8903732,0.34649172,-1.0,0
1763545178489,1009.8161,-0.67477596,3.923631,7.792825,-0.16928591,0.119271345,0.04444041,39.581253,-39.28125,33.91875,46.950733,0.3361091,49.741684,0.2936524,-0.012058728,-0.013505914,0.9557408,0.09928447,-0.276622,-0.89062995,0.34698868,-1.0,0
1763545178515,1009.7685,-0.89730847,3.6191442,6.9391856,0.028023422,-0.16707152,0.2932151,38.475002,-38.025,35.8125,46.950733,0.3361091,49.741684,0.29499716,-0.015486743,-0.009623829,0.9553242,0.096409045,-0.27922833,-0.88904077,0.3497762,-1.0,0
1763545178539,1009.7685,0.2883351,4.2185464,5.1439705,0.07903063,-0.21746786,0.26175556,36.862503,-37.331253,35.643753,46.950733,0.3361091,49.741684,0.2952669,-0.018010966,-0.008035489,0.9552112,0.0940743,-0.2804585,-0.8884605,0.35090023,-1.0,0
1763545178564,1009.75165,0.48394838,4.601398,5.6356955,-0.099036455,-0.13347395,0.15271619,37.0875,-36.91875,35.287502,46.950733,0.3361091,49.741684,0.2942016,-0.019324372,-0.007240374,0.9555206,0.092397146,-0.27998355,-0.88852435,0.35156286,-1.0,0
1763545178589,1009.75165,0.23569304,4.622335,6.6556363,-0.15386157,-0.03619374,0.032070402,36.768753,-36.975002,37.162502,46.950733,0.3361091,49.741684,0.29306543,-0.01964011,-0.0071804253,0.95586365,0.091606125,-0.27907237,-0.88891107,0.3515168,-1.0,0
1763545178614,1009.74506,-0.32662028,4.667799,7.0085773,-0.048334677,-0.00962112,-0.0035124724,37.987503,-38.325,35.11875,46.950733,0.3361091,49.741684,0.29284316,-0.019699866,-0.007234862,0.9559302,0.091376655,-0.2789185,-0.88910747,0.3512018,-1.0,0
1763545178639,1009.7492,-0.57009,5.341378,7.944171,0.07047852,-0.03252855,0.060781047,38.756252,-37.5,34.050003,46.950733,0.3361091,49.741684,0.29392853,-0.02006626,-0.006524616,0.9555945,0.091440886,-0.28006282,-0.8885333,0.35172716,-1.0,0
1763545178664,1009.7492,-0.7004988,5.48076,7.77129,0.19081889,0.008246674,0.10109812,38.831253,-36.487503,33.225002,46.950733,0.3361091,49.741684,0.29585117,-0.02016001,-0.005509293,0.9550054,0.09203564,-0.28189322,-0.8876546,0.35232788,-1.0,0
1763545178689,1009.75775,-0.09092726,6.0418773,7.652247,0.16959134,-0.26450446,0.1631009,37.96875,-35.475002,35.71875,46.950733,0.3361091,49.741684,0.2993814,-0.024628876,-0.0039867316,0.95380723,0.08929281,-0.2868146,-0.8858752,0.35353824,-1.0,0
1763545178714,1009.75775,-0.09092726,6.0418773,7.652247,0.16959134,-0.26450446,0.1631009,37.96875,-35.475002,35.71875,46.950733,0.3361091,49.741684,0.2993814,-0.024628876,-0.0039867316,0.95380723,0.08929281,-0.2868146,-0.8858752,0.35353824,-1.0,0
1763545178739,1009.7741,0.3912265,6.7764735,9.135797,-0.07093667,-0.19746204,0.034819294,37.068752,-36.1875,36.9375,46.950733,0.3361091,49.741684,0.29880682,-0.029009836,-0.0043082004,0.95386285,0.0849357,-0.28794616,-0.88614506,0.35301542,-1.0,0
1763545178765,1009.8039,-0.058624156,7.045666,9.677173,-0.17325652,-0.056963142,0.003817905,37.350002,-36.393753,34.7625,46.950733,0.3361091,49.741684,0.29717737,-0.029289572,-0.0044412096,0.95436263,0.084030874,-0.2865503,-0.88670206,0.35296908,-1.0,0
1763545178791,1009.8039,0.69571316,7.155138,9.830912,-0.23556472,-0.18585561,-0.011453714,38.53125,-35.662502,34.893753,46.950733,0.3361091,49.741684,0.29305974,-0.031606786,-0.005612636,0.9555551,0.08033547,-0.28360048,-0.88825345,0.35231057,-1.0,0
1763545178816,1009.8256,1.3142579,6.631708,10.756336,-0.37530005,-0.35216355,-0.11285727,38.90625,-36.0,34.875,46.950733,0.3361091,49.741684,0.28939852,-0.0344973,-0.007991814,0.9565535,0.07619075,-0.28131217,-0.89018697,0.3501793,-1.0,0
1763545178842,1009.87494,1.5284154,5.7451673,12.1352005,-0.4834231,-0.24846925,-0.17928882,38.625,-36.131252,32.60625,46.950733,0.3361091,49.741684,0.2847389,-0.03573801,-0.01029218,0.9578834,0.07306894,-0.27751464,-0.89256793,0.347806,-1.0,0
1763545178867,1009.87494,1.0977074,4.7856455,12.506686,-0.045585785,0.22113305,-0.1065959,36.99375,-36.693752,35.8875,46.950733,0.3361091,49.741684,0.2810478,-0.032075983,-0.011565578,0.95908785,0.073174044,-0.27376127,-0.8943758,0.34611014,-1.0,0
1763545178892,1009.87933,0.9391829,4.6151567,10.052248,0.23984079,-0.0029016077,-0.03329213,37.331253,-35.04375,35.456253,46.950733,0.3361091,49.741684,0.28291112,-0.03272918,-0.011780416,0.95851517,0.07406518,-0.27499864,-0.8951064,0.34303743,-1.0,0
1763545178917,1009.852,1.3256238,4.4261236,7.9244304,0.22685991,-0.20387612,0.014508039,36.600002,-35.100002,34.7625,46.950733,0.3361091,49.741684,0.28427047,-0.03495839,-0.012154274,0.95802945,0.07224108,-0.27715158,-0.89510727,0.34168875,-1.0,0
1763545178942,1009.852,1.6157535,4.2855453,6.678966,-0.19616395,-0.056046844,-0.0772744,37.29375,-36.65625,35.081253,46.950733,0.3361091,49.741684,0.2816602,-0.036815643,-0.013733803,0.9587093,0.07031026,-0.2775324,-0.89564925,0.34035957,-1.0,0
1763545178967,1009.8232,0.9924232,4.2634115,7.129415,-0.31757334,0.100487255,-0.14691298,38.850002,-34.65,36.506252,46.950733,0.3361091,49.741684,0.27880174,-0.035406392,-0.014794425,0.95958173,0.06923911,-0.27237833,-0.89823306,0.3379251,-1.0,0
1763545178993,1009.7863,0.56350976,4.4039903,7.308877,-0.22624904,0.13469568,-0.123089254,38.60625,-35.381252,33.16875,46.950733,0.3361091,49.741684,0.2772015,-0.03423998,-0.015661566,0.96007377,0.069603436,-0.27049664,-0.89917624,0.33685172,-1.0,0
1763545179018,1009.7863,0.63170516,4.368098,6.0921264,0.13645191,-0.23747368,-0.15073088,36.9,-36.3375,36.3375,46.950733,0.3361091,49.741684,0.27907953,-0.037241064,-0.019275649,0.95935196,0.06725983,-0.2734015,-0.9001174,0.33244,-1.0,0
1763545179043,1009.76483,0.62153566,4.552943,6.04427,0.03810269,-0.067653276,-0.11514801,38.15625,-34.575,35.34375,46.950733,0.3361091,49.741684,0.27929795,-0.037128605,-0.020343304,0.9592707,0.06738181,-0.27357918,-0.9005074,0.3312107,-1.0,0
1763545179068,1009.76483,0.907478,4.8508496,6.8045893,-0.042073313,0.074525505,-0.13500112,37.36875,-35.643753,34.55625,46.950733,0.3361091,49.741684,0.27915433,-0.03602307,-0.021487871,0.9593297,0.068289,-0.27305937,-0.9010643,0.32993683,-1.0,0
1763545179093,1009.7507,0.317049,4.8418765,6.8925257,0.025579963,0.07055488,-0.15485422,36.84375,-36.1875,32.943752,46.950733,0.3361091,49.741684,0.2798084,-0.035224423,-0.022615919,0.95914286,0.069174625,-0.27340147,-0.9014179,0.32849997,-1.0,0
1763545179118,1009.73773,0.5988039,5.006383,6.6394844,0.19891284,-0.11346813,-0.045509428,39.05625,-35.34375,33.131252,46.950733,0.3361091,49.741684,0.28331417,-0.0365304,-0.024050709,0.9580293,0.069123395,-0.27717024,-0.90103674,0.32639152,-1.0,0
1763545179144,1009.73773,0.47856453,5.1212387,7.117451,0.20166174,-0.10720677,-0.01924224,38.68125,-34.162502,35.71875,46.950733,0.3361091,49.741684,0.2853352,-0.037317935,-0.024242377,0.9573941,0.06905714,-0.27935627,-0.9005949,0.32576063,-1.0,0
1763545179170,1009.74457,0.4546363,5.300102,7.2957163,0.22258386,0.032681264,0.030695954,41.7,-34.6875,32.193752,46.950733,0.3361091,49.741684,0.28745243,-0.036914196,-0.02363275,0.9567915,0.07013977,-0.28119737,-0.8998857,0.32590517,-1.0,0
1763545179196,1009.7568,0.60598236,6.020342,8.158927,0.22548546,-0.015729768,0.076052666,36.1875,-34.912502,35.25,46.950733,0.3361091,49.741684,0.2917038,-0.037295572,-0.022070538,0.9555265,0.07123231,-0.2853209,-0.8982516,0.32659152,-1.0,0
1763545179221,1009.7568,0.56769717,6.503692,8.52144,0.26473352,-0.06352994,0.10476331,37.2,-34.18125,35.737503,46.950733,0.3361091,49.741684,0.29419345,-0.038255762,-0.021124646,0.95474625,0.07119655,-0.28800058,-0.897233,0.32704693,-1.0,0
1763545179246,1009.76483,1.1425728,6.9619174,8.3994055,0.21235187,-0.050090913,0.09987639,37.36875,-34.050003,36.6375,46.950733,0.3361091,49.741684,0.29590464,-0.038890887,-0.02048284,0.95420563,0.07120574,-0.28983063,-0.8965193,0.32738522,-1.0,0
1763545179271,1009.7939,0.27996024,7.18445,10.092926,-0.08926262,0.24877468,-0.12889247,38.86875,-33.99375,34.143753,46.950733,0.3361091,49.741684,0.29538053,-0.035250757,-0.021215115,0.9544934,0.07421611,-0.28806984,-0.89726985,0.32621244,-1.0,0
1763545179298,1009.7939,-0.5952146,7.1342006,10.188639,-0.119653136,0.34269515,-0.042607818,40.162502,-33.375,34.7625,46.950733,0.3361091,49.741684,0.2943271,-0.032063108,-0.020541511,0.95494586,0.0768073,-0.28593203,-0.89744484,0.32701105,-1.0,0
1763545179323,1009.82245,-0.45822555,7.038488,10.223933,-0.1645517,0.1960876,0.032986697,40.7625,-32.79375,31.875002,46.950733,0.3361091,49.741684,0.29272023,-0.030504799,-0.019930497,0.9555036,0.07773388,-0.283854,-0.89767766,0.3279621,-1.0,0
