timestamp,pressure,acc_x,acc_y,acc_z,gyro_x,gyro_y,gyro_z,mag_x,mag_y,mag_z,mag_bias_x,mag_bias_y,mag_bias_z,game_x,game_y,game_z,game_w,rot_x,rot_y,rot_z,rot_w,rot_accuracy,step
1763544937753,1009.74506,0.25603202,4.5188456,9.297911,-0.0042760535,0.17318016,0.07147118,100.818756,-4.0125003,19.7625,46.950733,0.3361091,49.741684,0.1676047,0.14741889,0.6810826,0.6973542,0.17626584,0.13694528,0.6373794,0.73751193,-1.0,0
1763544937778,1009.74506,0.046061836,4.5332026,9.631111,0.03649917,0.13545926,0.065667965,98.981255,-4.21875,21.825,46.950733,0.3361091,49.741684,0.1668125,0.1484716,0.6817502,0.69666815,0.1755394,0.13804397,0.6380864,0.73686874,-1.0,0
1763544937803,1009.74066,-0.13040884,4.4548373,9.132806,0.1301142,0.03619374,0.08872811,100.668755,-5.4,20.79375,46.950733,0.3361091,49.741684,0.16795711,0.15042105,0.6825536,0.6951867,0.17678775,0.13993634,0.6390458,0.7353805,-1.0,0
1763544937828,1009.74457,-0.13579269,4.265805,8.41795,0.14202607,-0.046273008,0.092546016,100.03126,-4.125,22.0125,46.950733,0.3361091,49.741684,0.16886595,0.1509339,0.682777,0.69463575,0.17774007,0.14037529,0.639229,0.73490787,-1.0,0
1763544937853,1009.74457,0.5353941,4.4004006,8.436495,0.022143848,0.015577052,0.032833982,98.981255,-4.21875,22.125,46.950733,0.3361091,49.741684,0.1691797,0.15137507,0.68293846,0.69430465,0.17809762,0.14077435,0.63931876,0.7346668,-1.0,0
1763544937878,1009.74677,0.47138608,4.4835515,8.417352,-0.06826414,0.13912445,0.019089524,98.34376,-3.7875001,21.393751,46.950733,0.3361091,49.741684,0.16811128,0.15194078,0.6835967,0.6937925,0.17772959,0.1409855,0.6397034,0.7343806,-1.0,0
1763544937904,1009.7531,0.34277186,4.549354,8.76132,-0.03619374,-0.007941242,-0.038331766,99.356255,-5.925,22.181252,46.950733,0.3361091,49.741684,0.16865778,0.15156655,0.68349004,0.6938469,0.17765546,0.14091276,0.63954765,0.7345481,-1.0,0
1763544937929,1009.7531,0.45224348,4.4608197,8.989237,-0.051007207,-0.105526894,-0.010537418,99.18751,-4.5750003,22.9125,46.950733,0.3361091,49.741684,0.16945788,0.15058775,0.6832908,0.6940613,0.17841308,0.13986215,0.6392348,0.7348376,-1.0,0
1763544937954,1009.7585,0.9631111,4.456034,9.396614,-0.031154104,-0.07941242,-0.017867794,98.9625,-4.2375,23.212502,46.950733,0.3361091,49.741684,0.17055379,0.14878464,0.68291426,0.69455206,0.17900093,0.13892506,0.63901556,0.73506296,-1.0,0
1763544937979,1009.7585,0.7298109,4.426722,9.304491,-0.006872229,0.011148282,-0.07024945,99.262505,-2.8312502,22.331251,46.950733,0.3361091,49.741684,0.17068651,0.14840752,0.68261546,0.6948939,0.17937806,0.13801803,0.63892335,0.73522204,-1.0,0
1763544938004,1009.76385,0.33080772,4.465007,8.86122,0.043371398,0.029779658,-0.107359484,98.08125,-4.9500003,23.04375,46.950733,0.3361091,49.741684,0.17078799,0.1486033,0.6820308,0.695401,0.17956214,0.13787283,0.63819504,0.7358367,-1.0,0
1763544938029,1009.7609,-0.0023928226,4.473382,8.36471,0.03619374,0.0059559317,-0.11423171,99.00001,-3.9750001,23.19375,46.950733,0.3361091,49.741684,0.17103927,0.14904894,0.6812341,0.6960245,0.17984127,0.13830091,0.6373562,0.736415,-1.0,0
1763544938054,1009.7609,-0.15792629,4.4081774,8.446664,-0.025045456,-0.020616686,-0.089797124,98.2125,-3.6750002,22.331251,46.950733,0.3361091,49.741684,0.1707825,0.15005542,0.67976564,0.6973058,0.17994873,0.13876016,0.63636506,0.73715913,-1.0,0
1763544938079,1009.76996,0.16749759,4.342375,9.033504,-0.031154104,-0.015882485,-0.07987057,99.637505,-4.5375004,22.3875,46.950733,0.3361091,49.741684,0.17021793,0.15058357,0.67912275,0.69795614,0.17971964,0.13922699,0.6354251,0.7379374,-1.0,0
1763544938105,1009.769,-0.26261228,4.3788652,8.740383,-0.013439025,0.076052666,-0.08704823,99.05625,-2.98125,23.75625,46.950733,0.3361091,49.741684,0.16924267,0.1513175,0.67863613,0.6985076,0.17824571,0.14060062,0.634302,0.7389999,-1.0,0
1763544938130,1009.769,-0.18664017,4.2927237,9.008379,-0.042607818,0.021227552,-0.07589995,99.825005,-4.275,22.96875,46.950733,0.3361091,49.741684,0.16749844,0.15218425,0.67761904,0.6997261,0.17657384,0.14155371,0.6331301,0.7402233,-1.0,0
1763544938156,1009.77167,-0.22372891,4.1928234,9.250652,-0.027336199,-0.009162972,-0.058795735,99.18751,-3.8437502,23.025002,46.950733,0.3361091,49.741684,0.16675462,0.15233877,0.6774393,0.70004416,0.1758165,0.14178422,0.63305885,0.74042034,-1.0,0
1763544938181,1009.77167,0.05682954,4.197609,9.243474,0.06902772,0.043218683,0.013133593,97.575005,-3.7687502,24.2625,46.950733,0.3361091,49.741684,0.1659911,0.152962,0.6775067,0.70002455,0.17505792,0.14249614,0.63330853,0.7402499,-1.0,0
1763544938206,1009.7702,-0.13579269,4.451248,8.787642,0.0923933,0.072540194,0.0012217296,97.762505,-4.2375,24.581251,46.950733,0.3361091,49.741684,0.1655029,0.15479332,0.67757267,0.69967353,0.17464842,0.14439572,0.6335729,0.7397521,-1.0,0
1763544938231,1009.7675,-0.15134603,4.720441,8.53161,0.06062833,0.05894845,0.0024434591,99.9,-3.0375001,25.218752,46.950733,0.3361091,49.741684,0.1659305,0.15569894,0.67722434,0.6997086,0.17517908,0.14521493,0.6329756,0.7399776,-1.0,0
1763544938256,1009.7675,0.010767702,4.390231,8.84806,0.0033597562,-0.057726722,-0.035582874,99.99375,-4.875,23.75625,46.950733,0.3361091,49.741684,0.16672735,0.15605575,0.6766924,0.6999542,0.17605335,0.14545318,0.6321396,0.74043775,-1.0,0
1763544938281,1009.75653,0.064008005,4.2508492,9.11127,-0.0050396346,0.0108428495,-0.016646065,100.4625,-3.9750001,24.581251,46.950733,0.3361091,49.741684,0.16625461,0.15631518,0.67663085,0.7000683,0.17558947,0.14575107,0.63211215,0.7405128,-1.0,0
1763544938306,1009.7558,0.16689938,4.226921,9.257831,0.014355322,0.037262753,0.0129808765,99.43125,-3.3187501,23.41875,46.950733,0.3361091,49.741684,0.16633193,0.15602303,0.67688745,0.69986707,0.17561245,0.1454983,0.6325644,0.7401707,-1.0,0
1763544938331,1009.7558,0.5946164,4.429713,9.040084,0.0772744,-0.11728604,0.041538805,99.61875,-3.16875,22.63125,46.950733,0.3361091,49.741684,0.16735281,0.15525334,0.67706025,0.6996276,0.1765478,0.14471158,0.6329374,0.7397835,-1.0,0
1763544938356,1009.76483,0.78364944,4.57747,8.752347,0.08659008,-0.10720677,-0.009162972,98.90626,-3.61875,24.431252,46.950733,0.3361091,49.741684,0.1690542,0.15443864,0.67690545,0.6995487,0.17817508,0.14382023,0.6328955,0.739603,-1.0,0
1763544938381,1009.76483,0.5413761,4.5876393,8.459227,0.035124727,0.0129808765,-0.06963859,100.0875,-3.6375,24.150002,46.950733,0.3361091,49.741684,0.17033723,0.15468378,0.67614,0.6999234,0.1794983,0.1439521,0.6319669,0.7400514,-1.0,0
1763544938407,1009.7619,0.1058824,4.503292,8.46461,-0.021838415,0.1385136,-0.103236146,99.037506,-4.36875,25.837502,46.950733,0.3361091,49.741684,0.16930848,0.1559125,0.67571783,0.700308,0.17857806,0.14520311,0.63136244,0.74054533,-1.0,0
1763544938432,1009.76166,-0.5180461,4.4955153,8.402995,-0.014508039,0.09575305,-0.083383046,99.975006,-4.14375,24.487501,46.950733,0.3361091,49.741684,0.1681679,0.15724659,0.67522,0.7007646,0.17754593,0.14657547,0.63071483,0.7410748,-1.0,0
1763544938458,1009.76166,-0.5054838,4.4410787,8.344969,-0.034208428,0.0048869182,-0.053145237,99.7125,-4.1625004,23.1375,46.950733,0.3361091,49.741684,0.16669516,0.15867262,0.67408645,0.70188546,0.17688079,0.14750218,0.630001,0.7416569,-1.0,0
1763544938483,1009.76215,-0.3696911,4.351348,8.590233,-0.08185588,-0.03375028,-0.06520981,100.87501,-4.1625004,23.625,46.950733,0.3361091,49.741684,0.16555461,0.15855166,0.67366934,0.70258284,0.17511682,0.14792247,0.6285595,0.7432133,-1.0,0
1763544938508,1009.7707,-0.50488555,4.133601,9.550952,-0.08261946,0.0980438,-0.025198173,101.5875,-2.8500001,23.175001,46.950733,0.3361091,49.741684,0.16357419,0.15878509,0.67366266,0.7030003,0.173137,0.1482997,0.62861603,0.74355406,-1.0,0
1763544938534,1009.7707,-0.6197411,4.0905304,9.460623,-0.018936807,0.092851445,0.012370012,100.14375,-2.625,23.925001,46.950733,0.3361091,49.741684,0.1615746,0.15922695,0.6738827,0.7031519,0.17111601,0.14892577,0.6290898,0.7434961,-1.0,0
1763544938558,1009.77924,-0.45104706,4.0911283,9.488738,0.032070402,0.041996952,0.07910699,98.11875,-4.70625,24.4125,46.950733,0.3361091,49.741684,0.15985422,0.15992072,0.67504317,0.70227396,0.1697259,0.14950123,0.6298702,0.7430384,-1.0,0
1763544938584,1009.77264,0.25244278,4.2945185,9.029316,0.11285727,-0.05054906,0.12125666,99.39375,-3.3375,25.275002,46.950733,0.3361091,49.741684,0.16049016,0.15981176,0.6757281,0.7014946,0.16990912,0.14975905,0.63183045,0.74127823,-1.0,0
1763544938609,1009.77264,0.46121657,4.284349,8.839087,0.07880156,0.0074830935,0.07971785,97.4625,-2.79375,25.143751,46.950733,0.3361091,49.741684,0.16136383,0.15974587,0.6762965,0.700761,0.1707493,0.14967199,0.6325803,0.7404628,-1.0,0
1763544938634,1009.7778,0.26979074,4.286144,8.894122,0.02443459,0.08048143,0.055283263,99.28126,-3.9750001,25.031252,46.950733,0.3361091,49.741684,0.16168281,0.15985163,0.6774926,0.6995069,0.17108817,0.14954554,0.6333213,0.7397764,-1.0,0
1763544938659,1009.7778,0.2853441,4.386642,8.836694,0.035888307,0.091782436,0.04734202,99.3375,-3.7125,24.225,46.950733,0.3361091,49.741684,0.16211434,0.15998673,0.67780405,0.6990742,0.17103744,0.14980012,0.6340313,0.7391282,-1.0,0
1763544938684,1009.7797,-0.034695927,4.508078,8.321639,0.041080657,-0.027336199,0.045509428,100.106255,-4.2562504,24.6375,46.950733,0.3361091,49.741684,0.16292973,0.16016702,0.6779722,0.6986803,0.17230755,0.15003224,0.6345281,0.7383594,-1.0,0
1763544938709,1009.779,0.21834506,4.5858445,8.272586,0.02367101,-0.08414663,0.044898562,100.68751,-4.8375,26.156252,46.950733,0.3361091,49.741684,0.16520564,0.15972933,0.6779485,0.6982689,0.17463188,0.14936556,0.63413906,0.7382827,-1.0,0
1763544938734,1009.779,0.4456632,4.6378884,8.426325,-0.024129158,-0.089033544,0.0058032153,99.80625,-4.275,24.056252,46.950733,0.3361091,49.741684,0.16520564,0.15972933,0.6779485,0.6982689,0.17463188,0.14936556,0.63413906,0.7382827,-1.0,0
1763544938759,1009.77826,0.19202402,4.6205406,9.063414,-0.108886644,0.066126116,-0.06017018,98.512505,-4.1625004,24.187502,46.950733,0.3361091,49.741684,0.1639604,0.15894324,0.67772186,0.6989615,0.17334487,0.14865236,0.6338517,0.73897636,-1.0,0
1763544938784,1009.78217,-0.101694964,4.5391846,9.293125,-0.064904384,0.03054324,-0.058337588,98.62501,-3.6562502,24.150002,46.950733,0.3361091,49.741684,0.16315967,0.15862931,0.6772101,0.69971573,0.17252502,0.14838955,0.63330233,0.73969173,-1.0,0
1763544938809,1009.78217,-0.1369891,4.5092745,9.2075815,0.011300999,-0.04535671,-0.032375835,100.33125,-3.1125002,24.562502,46.950733,0.3361091,49.741684,0.16375175,0.15854335,0.6768048,0.6999891,0.17310691,0.14827213,0.6329002,0.7399235,-1.0,0
1763544938834,1009.78754,-0.0424726,4.4207397,8.874979,-0.005497783,0.022601997,-0.075289086,97.631256,-4.14375,24.73125,46.950733,0.3361091,49.741684,0.16373946,0.1586826,0.6763166,0.700432,0.17310357,0.14841135,0.6323837,0.7403378,-1.0,0
1763544938860,1009.78754,-0.37387854,4.3040895,9.02154,-0.037262753,0.099418245,-0.057879437,100.631256,-4.4437504,25.218752,46.950733,0.3361091,49.741684,0.16373946,0.1586826,0.6763166,0.700432,0.17310357,0.14841135,0.6323837,0.7403378,-1.0,0
1763544938884,1009.78534,-0.4127619,4.3208394,9.134003,0.0058032153,0.07238748,-0.0051923506,100.818756,-2.1750002,23.831251,46.950733,0.3361091,49.741684,0.16132045,0.16061033,0.67609054,0.7007721,0.17078456,0.15050781,0.6322454,0.7405712,-1.0,0
1763544938909,1009.79193,-0.23808585,4.4039903,8.962317,0.05070178,0.020616686,0.020158539,100.012505,-4.65,25.44375,46.950733,0.3361091,49.741684,0.16124731,0.16118068,0.67611563,0.7006338,0.17074074,0.15108773,0.6323057,0.7404118,-1.0,0
1763544938934,1009.79193,-0.26919255,4.4111686,9.017352,0.016798781,0.023060145,0.037110034,99.3,-3.2062502,24.35625,46.950733,0.3361091,49.741684,0.16116235,0.16154854,0.67628026,0.70040977,0.17068334,0.15145437,0.6324588,0.7402193,-1.0,0
1763544938959,1009.79315,-0.084346995,4.3932223,9.055039,0.054672398,0.013591741,0.053450666,99.84376,-4.03125,25.125002,46.950733,0.3361091,49.741684,0.16114298,0.16211711,0.67653567,0.7000361,0.17069958,0.15202194,0.63273156,0.739866,-1.0,0
1763544938985,1009.79535,-0.017347964,4.4004006,8.736196,0.08659008,-0.0019853106,0.04291325,97.200005,-3.9375002,26.325,46.950733,0.3361091,49.741684,0.16222802,0.16263492,0.67689246,0.6993201,0.1717933,0.1524963,0.6332322,0.73908657,-1.0,0
1763544939010,1009.79535,-0.041874398,4.4925246,8.601599,-0.007788526,-0.014202606,0.03848448,99.39375,-5.68125,22.95,46.950733,0.3361091,49.741684,0.16260202,0.1627538,0.677048,0.6990549,0.1721964,0.15256678,0.63329405,0.73892516,-1.0,0
1763544939035,1009.79535,0.011964113,4.503292,8.792427,-0.023365578,-0.0018325944,0.023365578,99.95625,-4.89375,25.462502,46.950733,0.3361091,49.741684,0.16272569,0.16275296,0.677212,0.69886744,0.17233756,0.15253834,0.63338315,0.7388218,-1.0,0
1763544939060,1009.79535,-0.11485548,4.4835515,8.927023,-0.010079269,0.004734202,0.02565632,101.06251,-4.0125003,22.66875,46.950733,0.3361091,49.741684,0.16297406,0.16270122,0.6776058,0.6984398,0.17259343,0.15245897,0.63374835,0.73846513,-1.0,0
1763544939085,1009.8044,0.078963146,4.6115675,8.761918,0.02611447,-0.034361143,0.011453714,100.78126,-5.5125003,20.625,46.950733,0.3361091,49.741684,0.16352296,0.16262099,0.6776515,0.69828576,0.17314057,0.15234071,0.6337833,0.7383315,-1.0,0
1763544939113,1009.8088,0.025722843,4.51406,8.660822,-0.009315688,-0.03451386,-0.00962112,101.793755,-3.9562502,23.98125,46.950733,0.3361091,49.741684,0.16407932,0.16235103,0.67750025,0.6983649,0.17377949,0.1520361,0.633596,0.7384049,-1.0,0
1763544939137,1009.8088,-0.05682954,4.404588,8.771489,-0.04886918,0.03176497,-0.012064579,103.012505,-4.6687503,20.6625,46.950733,0.3361091,49.741684,0.16339076,0.16235283,0.6776657,0.6983654,0.17371652,0.15199491,0.6334473,0.7385558,-1.0,0
1763544939162,1009.8024,-0.06759724,4.586443,9.346964,0.011911863,-0.014355322,0.025045456,100.818756,-3.5625002,24.843752,46.950733,0.3361091,49.741684,0.163152,0.16235332,0.67782694,0.69826466,0.17278337,0.15206274,0.6338168,0.73844373,-1.0,0
1763544939187,1009.7929,0.16211374,4.587041,9.113664,0.10537417,-0.12202024,0.022601997,100.68751,-4.425,22.275002,46.950733,0.3361091,49.741684,0.16422342,0.16218987,0.677718,0.69815725,0.1738296,0.15184914,0.63377875,0.73827475,-1.0,0
1763544939213,1009.7929,0.34636107,4.582854,8.533403,0.10949751,-0.12400555,-0.0018325944,98.231255,-4.0687504,25.143751,46.950733,0.3361091,49.741684,0.16701503,0.1615929,0.67709446,0.6982384,0.17558537,0.15136641,0.6335186,0.73818165,-1.0,0
1763544939239,1009.7922,0.22253251,4.4578285,8.994022,-0.07101303,0.09392046,-0.09086613,98.81251,-4.65,26.493752,46.950733,0.3361091,49.741684,0.16683236,0.16170081,0.6767689,0.6985726,0.17657971,0.1510824,0.6331504,0.7383185,-1.0,0
1763544939264,1009.7956,-0.33140594,4.316652,8.989835,-0.024129158,0.13286309,-0.08796453,100.012505,-4.65,25.44375,46.950733,0.3361091,49.741684,0.16593428,0.1621436,0.6764834,0.69896036,0.17556664,0.1516611,0.6323404,0.73913527,-1.0,0
1763544939289,1009.7956,-0.39541394,4.375276,8.596813,0.0368046,0.034819294,-0.038026333,99.731255,-3.91875,24.206251,46.950733,0.3361091,49.741684,0.16537255,0.1629976,0.67573667,0.69961673,0.17502728,0.15258357,0.6317056,0.739616,-1.0,0
1763544939315,1009.7983,-0.26919255,4.4662037,8.248059,0.034666575,-0.1084285,-0.034819294,99.037506,-3.73125,24.2625,46.950733,0.3361091,49.741684,0.16583699,0.16269116,0.6752971,0.7000025,0.1755027,0.15221404,0.63109446,0.740101,-1.0,0
1763544939340,1009.7983,-0.1363909,4.339384,9.053245,-0.11255184,0.028863361,0.00962112,100.9875,-2.90625,23.23125,46.950733,0.3361091,49.741684,0.16489393,0.16269186,0.6753585,0.70016587,0.17459147,0.15223816,0.6309998,0.7403922,-1.0,0
1763544939365,1009.7956,-0.28953153,4.4410787,9.420543,-0.05070178,0.039858926,0.011759147,99.01875,-3.7500002,25.650002,46.950733,0.3361091,49.741684,0.16360642,0.16240443,0.67580605,0.70010275,0.17324042,0.15208557,0.63168555,0.7401561,-1.0,0
1763544939390,1009.80023,-0.3696911,4.627719,9.092128,0.046425723,-0.03924806,0.038331766,99.7125,-3.9375002,26.062502,46.950733,0.3361091,49.741684,0.1643278,0.16257375,0.67578137,0.6999183,0.1739721,0.15220894,0.63166595,0.7399758,-1.0,0
1763544939415,1009.80023,0.029312078,4.718048,8.603394,0.018784093,-0.09376775,0.011911863,97.275,-2.9250002,25.331251,46.950733,0.3361091,49.741684,0.16540965,0.16256809,0.67556375,0.69987494,0.17508826,0.15209486,0.6312729,0.7400714,-1.0,0
1763544939440,1009.80414,-0.0317049,4.625326,8.791828,-0.020769402,0.0067195124,0.0015271619,99.318756,-2.98125,25.725,46.950733,0.3361091,49.741684,0.16550654,0.1631711,0.67572176,0.69955903,0.17528905,0.15261379,0.63112515,0.7400431,-1.0,0
1763544939465,1009.80756,-0.1268196,4.6145587,9.219545,-0.03161225,0.100181825,0.027183482,99.65626,-4.18125,25.612501,46.950733,0.3361091,49.741684,0.16510575,0.16390583,0.67617214,0.6990466,0.17493364,0.1533729,0.6316106,0.73955595,-1.0,0
1763544939491,1009.80756,0.061016977,4.792824,8.883354,0.16768238,-0.018936807,0.07315106,98.90626,-3.6375,24.73125,46.950733,0.3361091,49.741684,0.1660363,0.16458803,0.676465,0.69838226,0.1758871,0.15401626,0.63202816,0.73883903,-1.0,0
1763544939516,1009.8007,0.12622139,4.965107,8.2145605,0.19944735,-0.06994402,0.11835505,100.51875,-3.7125,23.94375,46.950733,0.3361091,49.741684,0.16830593,0.16516139,0.67677015,0.69740736,0.1781937,0.1544415,0.63236475,0.73790896,-1.0,0
1763544939541,1009.8007,0.43070808,5.2827544,7.679166,0.09392046,0.037110034,0.13439025,99.731255,-4.6687503,24.093752,46.950733,0.3361091,49.741684,0.17064406,0.167541,0.6781417,0.6949349,0.18085274,0.15646617,0.63304853,0.73624736,-1.0,0
1763544939566,1009.7944,0.9523434,5.4149575,7.947162,-0.08811724,0.15760311,0.08491021,100.59376,-4.70625,24.91875,46.950733,0.3361091,49.741684,0.17064406,0.167541,0.6781417,0.6949349,0.18085274,0.15646617,0.63304853,0.73624736,-1.0,0
1763544939591,1009.8012,0.16749759,4.953741,9.052048,-0.11133011,0.062155493,-0.0009162972,100.575005,-4.70625,25.5375,46.950733,0.3361091,49.741684,0.16812716,0.16703033,0.6787836,0.6950446,0.17833436,0.15608563,0.63356113,0.73650146,-1.0,0
1763544939617,1009.8012,0.044865426,5.143372,9.142975,0.016493348,0.020769402,0.08933897,102.24375,-4.5375004,25.050001,46.950733,0.3361091,49.741684,0.16936737,0.16721016,0.6800764,0.69343454,0.1781582,0.15610372,0.634105,0.73607206,-1.0,0
1763544939642,1009.8029,0.39481574,5.346164,8.495717,0.13271037,-0.073761925,0.16920954,98.68125,-4.78125,24.50625,46.950733,0.3361091,49.741684,0.17140119,0.16723223,0.6808806,0.6921392,0.18163414,0.15605778,0.6357456,0.7338137,-1.0,0
1763544939667,1009.7895,0.97806627,5.5591254,7.7587276,0.07269291,-0.090560704,0.13698642,100.0875,-5.0062504,24.993752,46.950733,0.3361091,49.741684,0.1732016,0.16697654,0.68156487,0.6910785,0.18342972,0.15567109,0.6364251,0.73285955,-1.0,0
1763544939693,1009.7895,0.6999006,5.751149,7.780861,-0.012675445,0.011300999,0.06475167,98.55,-6.0375004,25.518751,46.950733,0.3361091,49.741684,0.17389353,0.16687183,0.68204534,0.6904556,0.18413213,0.1555009,0.6368571,0.7323441,-1.0,0
1763544939718,1009.7868,0.31286156,5.511867,8.20798,-0.09224058,0.084452055,0.023518294,99.7125,-4.6687503,25.48125,46.950733,0.3361091,49.741684,0.1719854,0.16710453,0.6830013,0.6899321,0.18363672,0.15548825,0.6371572,0.73221016,-1.0,0
1763544939743,1009.7868,0.13280165,5.2534423,8.753544,-0.11499529,0.14202607,0.032681264,101.30625,-4.9875,22.85625,46.950733,0.3361091,49.741684,0.17136171,0.16728535,0.6834723,0.689577,0.18228549,0.15580408,0.6376429,0.73205775,-1.0,0
1763544939768,1009.77704,-0.13040884,5.5513487,8.986844,0.10674862,-0.09392046,0.10491603,99.975006,-4.875,24.075,46.950733,0.3361091,49.741684,0.17254378,0.16731335,0.6838178,0.6889326,0.18287593,0.15595353,0.6384281,0.73119384,-1.0,0
1763544939793,1009.77606,0.104087785,5.556134,8.801998,0.19883649,-0.09850194,0.14446951,99.318756,-4.6875,22.743752,46.950733,0.3361091,49.741684,0.176855,0.1692092,0.68469065,0.6865051,0.1851317,0.15615319,0.6388276,0.730234,-1.0,0
1763544939818,1009.77606,0.3481557,5.5968122,8.322237,0.2698495,0.03527744,0.1339321,99.7125,-4.89375,22.25625,46.950733,0.3361091,49.741684,0.17794287,0.17162071,0.6851179,0.6851979,0.18732189,0.15754351,0.6393504,0.7289181,-1.0,0
1763544939843,1009.76996,0.3278167,5.6243296,7.5326056,0.06475167,0.033139415,-0.0067195124,97.74375,-5.2312503,22.63125,46.950733,0.3361091,49.741684,0.17845348,0.17288329,0.68517286,0.6846925,0.18919246,0.16106054,0.63976604,0.72729987,-1.0,0
1763544939868,1009.7629,0.109471634,5.619544,8.137392,-0.020769402,-0.011300999,-0.14676027,98.45625,-5.175,24.4125,46.950733,0.3361091,49.741684,0.17786273,0.17356727,0.6832408,0.6866013,0.18869254,0.16172777,0.63750935,0.7292606,-1.0,0
1763544939893,1009.7629,-0.6017949,5.447261,8.5322075,-0.057115857,0.06811142,-0.17806709,98.4,-4.8,23.456251,46.950733,0.3361091,49.741684,0.17635944,0.17466426,0.6826404,0.6873077,0.18727635,0.1629043,0.63680553,0.72997844,-1.0,0
1763544939918,1009.7546,-0.7322037,5.354539,8.240881,-0.0042760535,0.13148865,-0.03405571,98.81251,-4.14375,24.468752,46.950733,0.3361091,49.741684,0.17498106,0.17598175,0.68259615,0.6873678,0.18599541,0.16429746,0.6367157,0.730072,-1.0,0
1763544939943,1009.7546,-0.6155536,5.529215,7.757531,0.040011644,0.002290743,-0.04214967,99.450005,-6.05625,24.50625,46.950733,0.3361091,49.741684,0.17495541,0.17674075,0.6822649,0.68750846,0.18603179,0.165042,0.6363189,0.7302407,-1.0,0
1763544939968,1009.7568,-0.8458628,5.5477595,7.6127653,-0.0368046,-0.028863361,-0.046273008,100.74375,-4.05,23.79375,46.950733,0.3361091,49.741684,0.1739507,0.17711219,0.68196666,0.6879636,0.18509975,0.16542572,0.6357865,0.7308543,-1.0,0
1763544939994,1009.7641,-0.849452,5.471787,8.223534,-0.10140356,0.15149446,0.0027488915,98.568756,-5.2875004,24.862501,46.950733,0.3361091,49.741684,0.17186134,0.17888376,0.6827443,0.6872587,0.18314905,0.16730852,0.63652515,0.73027396,-1.0,0
1763544940019,1009.7641,-0.69930243,5.8839507,7.973483,0.124310985,0.20631959,0.057879437,98.9625,-4.2375,23.212502,46.950733,0.3361091,49.741684,0.17096409,0.18133315,0.6833311,0.68625665,0.18242498,0.16979858,0.63712573,0.72935617,-1.0,0
1763544940044,1009.7575,-0.5712864,5.959923,7.6887374,0.14874557,-0.009162972,0.025045456,98.68125,-4.7625003,24.206251,46.950733,0.3361091,49.741684,0.17366312,0.18362874,0.68283,0.6854669,0.18532263,0.17185436,0.6364454,0.72873783,-1.0,0
1763544940069,1009.7641,-0.67836523,5.89412,8.203195,0.17424917,-0.08536835,0.011911863,100.55625,-3.4687502,24.54375,46.950733,0.3361091,49.741684,0.1757603,0.18500938,0.68253934,0.6848503,0.18753074,0.17306751,0.6360907,0.72819537,-1.0,0
1763544940095,1009.7641,-0.16749759,6.3864436,7.280163,0.25137085,-0.0013744457,0.063377224,100.6125,-5.4375,23.268751,46.950733,0.3361091,49.741684,0.17772508,0.18685319,0.6824704,0.68391067,0.18963824,0.17475027,0.635976,0.7273474,-1.0,0
1763544940119,1009.74945,-0.18364914,6.6035924,6.995417,0.17424917,-0.0377209,-0.023060145,100.59376,-5.68125,22.2,46.950733,0.3361091,49.741684,0.18078287,0.18892029,0.68112296,0.6838846,0.19151637,0.17607234,0.6353457,0.72708726,-1.0,0
1763544940144,1009.7443,-0.6861419,6.5090756,7.4010005,0.061239194,-0.07895427,-0.07192933,100.21876,-4.4812503,23.400002,46.950733,0.3361091,49.741684,0.18140364,0.18908538,0.6805376,0.68425727,0.19358605,0.17659275,0.6334877,0.7280335,-1.0,0
1763544940169,1009.7443,-0.9762716,6.963712,9.285348,0.04734202,-0.0056504994,0.016951498,99.881256,-4.7625003,22.368752,46.950733,0.3361091,49.741684,0.18173128,0.18959484,0.6803766,0.68418956,0.1939861,0.17703626,0.6331701,0.7280956,-1.0,0
1763544940195,1009.75946,-0.91166544,7.051648,10.002597,0.2535089,-0.007941242,0.10583232,99.037506,-6.0750003,21.768751,46.950733,0.3361091,49.741684,0.18326151,0.19103347,0.68044704,0.68331057,0.19564077,0.17833468,0.6331696,0.72733605,-1.0,0
1763544940220,1009.75946,-0.46660042,7.0618176,9.201599,0.48808095,-0.09987639,0.16050471,100.350006,-4.8187504,20.79375,46.950733,0.3361091,49.741684,0.19222368,0.1955552,0.6799824,0.68002367,0.19944738,0.18054654,0.6331794,0.7257462,-1.0,0
1763544940246,1009.7592,-0.48215377,6.969096,7.454241,0.30772313,-0.2594648,0.15073088,98.64375,-5.9812503,20.8875,46.950733,0.3361091,49.741684,0.1969814,0.19624552,0.67963815,0.67880625,0.20976448,0.18251804,0.63232505,0.7230844,-1.0,0
1763544940271,1009.74725,-0.11784652,6.811768,7.8514495,0.06368265,-0.100181825,0.12568542,99.61875,-5.5125003,20.1375,46.950733,0.3361091,49.741684,0.19921494,0.1962085,0.6798721,0.6779303,0.21203144,0.18228287,0.63245517,0.7223684,-1.0,0
1763544940296,1009.74725,-0.10887343,6.823134,8.154739,-0.118202336,0.038026333,0.10949751,99.80625,-4.6312504,20.53125,46.950733,0.3361091,49.741684,0.19834216,0.19457836,0.68138725,0.67713445,0.21182568,0.18199578,0.6331757,0.72186977,-1.0,0
1763544940322,1009.7463,0.14356937,6.8225355,8.648857,-0.20418155,-0.09086613,0.053450666,96.506256,-6.4500003,20.362501,46.950733,0.3361091,49.741684,0.19883247,0.19157216,0.68115896,0.67807686,0.21112046,0.18063359,0.6337406,0.72192276,-1.0,0
1763544940346,1009.7629,0.57487565,6.399006,9.517452,-0.21242823,-0.42607817,-0.14676027,97.50001,-5.9625,18.675001,46.950733,0.3361091,49.741684,0.20013475,0.18768924,0.6799034,0.68003696,0.21249476,0.17357172,0.6318349,0.7249162,-1.0,0
1763544940371,1009.7629,0.62093747,5.930611,9.897313,-0.06918044,-0.32467464,-0.21884231,98.2125,-3.9,18.487501,46.950733,0.3361091,49.741684,0.20297132,0.1846291,0.6759097,0.6840035,0.21367456,0.17077224,0.6297867,0.7270136,-1.0,0
1763544940396,1009.76166,0.48993045,5.493921,8.762517,0.11988221,-0.14813471,-0.25014913,97.068756,-5.26875,18.84375,46.950733,0.3361091,49.741684,0.20345016,0.18606447,0.67401946,0.6853363,0.21570417,0.17170806,0.6255482,0.7298476,-1.0,0
1763544940422,1009.76166,0.34277186,4.6139603,7.5529447,-0.01847866,0.11041381,-0.22525638,99.131256,-3.91875,16.3875,46.950733,0.3361091,49.741684,0.20242372,0.18739024,0.6726931,0.6865811,0.21477902,0.17309088,0.6241054,0.7310281,-1.0,0
1763544940446,1009.7497,0.55453664,4.168297,8.94796,0.05742129,-0.033902995,-0.21838416,98.83125,-3.2062502,16.837502,46.950733,0.3361091,49.741684,0.20208144,0.1879304,0.67122895,0.68796575,0.21447688,0.17365026,0.6225399,0.7323178,-1.0,0
1763544940471,1009.7548,0.4642076,3.970291,8.639884,0.28848088,-0.12324197,-0.19837834,97.2375,-4.36875,19.087502,46.950733,0.3361091,49.741684,0.2066946,0.19026466,0.66745037,0.6896279,0.21918465,0.17573106,0.61888367,0.7335255,-1.0,0
1763544940496,1009.7548,0.7615158,4.788636,7.126424,0.25809038,-0.20479241,-0.10644319,95.90625,-5.4750004,15.1125,46.950733,0.3361091,49.741684,0.2095301,0.19091691,0.66588855,0.69010174,0.22204562,0.17620404,0.61734456,0.7338485,-1.0,0
1763544940521,1009.7436,0.8452646,4.955536,6.786643,0.14370593,-0.23991714,-0.14905101,97.12501,-5.2312503,15.6,46.950733,0.3361091,49.741684,0.21210048,0.19061436,0.66418487,0.69104123,0.22458781,0.17572922,0.61558765,0.73466414,-1.0,0
1763544940547,1009.73065,0.71365935,4.9322057,6.7148585,0.0025961753,-0.16615522,-0.18890993,97.74375,-3.6750002,14.812501,46.950733,0.3361091,49.741684,0.21355323,0.18935154,0.6609342,0.6940511,0.22596404,0.1743538,0.6120854,0.73749065,-1.0,0
1763544940571,1009.73065,0.6017949,4.8412786,7.0540414,-0.041538805,-0.084757484,-0.228158,97.856255,-3.0375001,15.543751,46.950733,0.3361091,49.741684,0.21308234,0.189419,0.6593834,0.6956507,0.225501,0.1744504,0.6104199,0.7389884,-1.0,0
1763544940596,1009.7111,0.14177474,4.9106703,6.32423,-0.22510368,0.09926552,-0.25793764,94.70625,-4.1062503,15.7875,46.950733,0.3361091,49.741684,0.21104611,0.18939161,0.65814924,0.6974453,0.22347797,0.17454866,0.6090225,0.7407307,-1.0,0
1763544940623,1009.7153,-0.17587246,4.9202414,7.896913,-0.28725916,0.116675176,-0.24556763,96.46876,-1.95,15.7875,46.950733,0.3361091,49.741684,0.20623323,0.1888274,0.6562974,0.70077515,0.21865769,0.17428927,0.60686296,0.7439956,-1.0,0
1763544940648,1009.7153,-0.23988047,4.9417768,8.751151,-0.07971785,0.033444848,-0.16050471,95.25,-2.1750002,14.681251,46.950733,0.3361091,49.741684,0.20684177,0.18969047,0.655378,0.701223,0.21931465,0.17512017,0.6059539,0.744348,-1.0,0
1763544940673,1009.7177,0.2955136,5.5447683,7.1730843,0.2283107,-0.031154104,-0.043982264,95.4375,-2.6625001,16.087502,46.950733,0.3361091,49.741684,0.20843741,0.19098425,0.65458006,0.70114464,0.22098824,0.17631039,0.6051916,0.7441922,-1.0,0
1763544940699,1009.7177,0.27038896,6.233901,7.2376904,0.21762058,0.0044287695,-0.06444623,94.950005,-2.9625,14.925,46.950733,0.3361091,49.741684,0.21158092,0.19420417,0.6529712,0.7008188,0.2226197,0.17770007,0.6043238,0.74408054,-1.0,0
1763544940724,1009.7187,-0.13998012,6.491728,7.211369,0.22754712,0.0059559317,-0.03375028,93.84375,-3.3187501,15.056251,46.950733,0.3361091,49.741684,0.21339074,0.19597849,0.6525724,0.70014715,0.22633356,0.18087646,0.6029993,0.7432689,-1.0,0
1763544940749,1009.71967,0.5024927,6.8464637,8.122437,0.33536476,-0.020922119,0.07269291,93.75,-3.825,15.39375,46.950733,0.3361091,49.741684,0.21588923,0.19791026,0.65235716,0.69903755,0.2289869,0.18259692,0.6027461,0.7422402,-1.0,0
1763544940775,1009.71967,0.9164511,7.0965137,7.7503524,0.38896814,-0.06017018,0.037110034,91.9875,-3.99375,13.593751,46.950733,0.3361091,49.741684,0.21917203,0.20005582,0.65183914,0.6978876,0.23242995,0.18448581,0.6022259,0.74112433,-1.0,0
1763544940800,1009.72723,1.1216356,7.132406,7.440482,0.25870124,-0.12064579,-0.0923933,93.39375,-4.2375,13.762501,46.950733,0.3361091,49.741684,0.22286972,0.2019523,0.6491556,0.6986711,0.23558596,0.18559104,0.6008875,0.7409382,-1.0,0
1763544940825,1009.74066,0.45104706,6.9062843,9.35474,-0.3081813,0.17241658,-0.2829831,91.8,-3.2812502,15.262501,46.950733,0.3361091,49.741684,0.22020607,0.20187242,0.6480584,0.70055485,0.23366806,0.18612473,0.59794533,0.7437864,-1.0,0
1763544940850,1009.74066,-0.44207397,6.841678,11.240284,-0.3006982,0.35353798,-0.22327107,92.49375,-3.4687502,15.50625,46.950733,0.3361091,49.741684,0.21572772,0.20241955,0.6476567,0.70216006,0.22925119,0.18696527,0.5973823,0.7454007,-1.0,0
1763544940875,1009.7695,-0.60777694,6.9338017,10.707881,-0.056810424,0.37781987,-0.083993904,92.45625,-2.9625,15.01875,46.950733,0.3361091,49.741684,0.21033381,0.2062844,0.6480943,0.7022679,0.22580935,0.18935885,0.59770674,0.74558705,-1.0,0
1763544940900,1009.7695,-0.23808585,6.923034,8.941978,-0.032070402,0.18219042,-0.066126116,93.225006,-2.775,15.39375,46.950733,0.3361091,49.741684,0.20850104,0.20550644,0.6474354,0.7036489,0.22411796,0.191219,0.5978913,0.74547464,-1.0,0
1763544940925,1009.7819,-1.0743774,5.3036914,10.622338,-0.44272426,0.21517712,-0.26740605,92.55,-2.7,13.14375,46.950733,0.3361091,49.741684,0.20433496,0.20433405,0.64674485,0.70584416,0.21802163,0.18966219,0.5962056,0.7490218,-1.0,0
1763544940950,1009.80145,-1.9519451,4.6002016,11.344372,-0.3274235,0.43799004,-0.16722423,92.7375,-2.325,15.1125,46.950733,0.3361091,49.741684,0.19844149,0.2050652,0.6469224,0.7071496,0.2121722,0.19082381,0.59637445,0.7502711,-1.0,0
1763544940976,1009.80145,-2.120041,4.371089,10.615758,0.03573559,0.21578798,-0.0025961753,92.86875,-2.41875,14.94375,46.950733,0.3361091,49.741684,0.19716337,0.2072131,0.64735746,0.7064826,0.21096098,0.19314796,0.5971844,0.74937314,-1.0,0
1763544941001,1009.79047,-1.302892,4.3447676,6.9326053,0.11896592,-0.33108872,0.15515965,91.481255,-2.8125,14.043751,46.950733,0.3361091,49.741684,0.20026642,0.20583537,0.6473713,0.70599973,0.21393886,0.19158545,0.59732115,0.74882084,-1.0,0
1763544941026,1009.77386,-0.8356933,4.3357944,7.2825556,-0.15913028,-0.17653993,0.14767656,90.9,-2.7562501,14.55,46.950733,0.3361091,49.741684,0.19950454,0.20180601,0.6494866,0.70543563,0.21290047,0.18761963,0.5994759,0.7483989,-1.0,0
1763544941052,1009.77386,-0.8979067,4.2502513,8.224132,-0.24465135,0.057726722,0.1385136,90.15,-2.0812502,14.906251,46.950733,0.3361091,49.741684,0.19717339,0.20167547,0.65142477,0.70434046,0.21055207,0.18766508,0.6015397,0.7473953,-1.0,0
1763544941077,1009.7675,-1.0366904,4.325027,7.7001033,0.027641632,0.252898,0.2535089,89.7375,-4.125,15.075001,46.950733,0.3361091,49.741684,0.19553488,0.2029312,0.6536214,0.7023988,0.20898625,0.1890495,0.6039329,0.7455535,-1.0,0
1763544941103,1009.7675,-0.58504516,4.451248,6.8464637,0.1791361,0.049174614,0.23930627,90.975006,-2.49375,13.6125,46.950733,0.3361091,49.741684,0.19607152,0.2041724,0.65524125,0.70037735,0.20959571,0.19026309,0.60573053,0.7436129,-1.0,0
1763544941128,1009.747,-0.52223355,4.4039903,6.24108,0.23121232,-0.10079269,0.15974113,90.7125,-4.3875003,14.512501,46.950733,0.3361091,49.741684,0.20018934,0.2056539,0.6560677,0.69800127,0.21381038,0.19145344,0.6066983,0.741315,-1.0,0
1763544941153,1009.7226,-0.8919246,4.213761,5.8917274,0.054672398,0.2290743,0.10216714,90.262505,-3.80625,13.9125,46.950733,0.3361091,49.741684,0.19975485,0.20735063,0.6568531,0.69688433,0.21350257,0.19316554,0.60752213,0.7402841,-1.0,0
1763544941178,1009.7226,-0.78783685,4.7078786,6.9003024,0.05253437,0.3113883,0.11041381,90.731255,-3.6375,14.00625,46.950733,0.3361091,49.741684,0.19822405,0.20955211,0.65808636,0.695498,0.21213615,0.19545615,0.6088105,0.7390162,-1.0,0
1763544941204,1009.7187,-1.4608182,5.1415777,7.181459,0.1800524,0.25885394,0.108886644,90.881256,-5.7375,14.26875,46.950733,0.3361091,49.741684,0.19825098,0.21472394,0.659901,0.69218564,0.21253067,0.2006004,0.6108012,0.735875,-1.0,0
1763544941229,1009.7182,-1.1353943,5.6123657,7.5032935,0.16997312,-0.043218683,0.27687445,89.475006,-5.26875,16.556252,46.950733,0.3361091,49.741684,0.19975103,0.21581563,0.6612024,0.69016993,0.21412234,0.20156506,0.6121646,0.7340147,-1.0,0
1763544941254,1009.7182,-0.3397808,5.64766,8.95454,0.17012584,-0.28939718,0.2751946,89.137505,-6.4125004,14.325001,46.950733,0.3361091,49.741684,0.20280683,0.21505956,0.66218007,0.6885756,0.21713579,0.20058234,0.613188,0.732543,-1.0,0
1763544941279,1009.73724,0.11425728,5.569893,10.175478,0.2272417,-0.4054615,0.2602284,88.912506,-6.05625,14.343751,46.950733,0.3361091,49.741684,0.21121696,0.21194382,0.6633216,0.6859094,0.22142376,0.19848199,0.61379135,0.7313252,-1.0,0
1763544941304,1009.77094,0.5587241,5.7338014,10.028319,0.22571453,-0.26160285,0.24846925,89.175,-6.39375,12.468751,46.950733,0.3361091,49.741684,0.21293403,0.21194156,0.66428,0.68445015,0.22696483,0.19684277,0.6157868,0.7283862,-1.0,0
1763544941330,1009.77094,-0.23509483,7.313064,10.013963,0.1339321,0.08307761,0.12675445,89.043755,-7.65,13.181251,46.950733,0.3361091,49.741684,0.21348438,0.21286137,0.6651462,0.6831508,0.22755988,0.19774236,0.6168028,0.7270961,-1.0,0
1763544941356,1009.78705,-0.1160519,7.5589266,9.500104,0.19226968,-0.08124501,0.13408482,87.318756,-7.3500004,15.656251,46.950733,0.3361091,49.741684,0.21810083,0.21262424,0.66517293,0.6817389,0.22926489,0.1984004,0.6173462,0.7259191,-1.0,0
1763544941381,1009.78705,0.9798609,7.0654073,8.858828,0.10063997,-0.33597562,0.032375835,87.9375,-6.6562505,13.2375,46.950733,0.3361091,49.741684,0.22011189,0.21006282,0.6637764,0.6832462,0.23400821,0.19446279,0.6153249,0.7271861,-1.0,0
1763544941407,1009.8073,0.80518484,5.5968122,9.771091,-0.26664248,0.0027488915,-0.19654575,87.131256,-7.8375,12.31875,46.950733,0.3361091,49.741684,0.21900748,0.2080889,0.6627684,0.68518084,0.23276894,0.19257179,0.61419433,0.7290405,-1.0,0
1763544941431,1009.81805,0.8895318,5.491528,9.622736,-0.297033,0.3168861,-0.18952079,86.90625,-5.25,12.4875,46.950733,0.3361091,49.741684,0.21484163,0.2081129,0.6628137,0.6864474,0.22859137,0.19290899,0.61424035,0.73023343,-1.0,0
1763544941456,1009.81805,0.8602197,5.131408,8.881559,-0.2695441,0.1886045,-0.22571453,87.075005,-5.86875,12.825001,46.950733,0.3361091,49.741684,0.20956296,0.20600604,0.6612929,0.6901714,0.22466832,0.1932873,0.61399835,0.7315533,-1.0,0
1763544941481,1009.8129,0.19501504,4.3944187,9.071789,-0.1669188,-0.39920014,-0.18402301,87.3375,-5.34375,12.6,46.950733,0.3361091,49.741684,0.21042544,0.20237216,0.65953916,0.6926577,0.22374345,0.18754262,0.6107401,0.7360456,-1.0,0
1763544941506,1009.8056,0.32063824,4.249653,8.885149,-0.15500695,-0.22082762,-0.07024945,85.912506,-5.1000004,12.281251,46.950733,0.3361091,49.741684,0.2107688,0.19939324,0.65870506,0.6942093,0.22387078,0.1845617,0.6098498,0.73749715,-1.0,0
1763544941531,1009.8056,0.4749753,4.3669014,8.360522,-0.09544762,-0.051923506,-0.007941242,83.83125,-5.3250003,12.056251,46.950733,0.3361091,49.741684,0.21022826,0.19750187,0.65861267,0.69500107,0.22319345,0.18315321,0.60992837,0.7379885,-1.0,0
1763544941556,1009.78265,0.9391829,4.39741,7.605587,0.035430156,-0.023060145,-0.0490219,85.40625,-5.53125,11.118751,46.950733,0.3361091,49.741684,0.21060489,0.19825667,0.65759206,0.6956382,0.22357212,0.18350926,0.6088743,0.7386555,-1.0,0
1763544941581,1009.78265,0.15254244,4.671388,5.1990056,-0.029016078,0.028252495,-0.24297146,84.80625,-4.1062503,12.337501,46.950733,0.3361091,49.741684,0.21028517,0.19890659,0.6561166,0.6969414,0.22329801,0.1841784,0.6073106,0.7398582,-1.0,0
1763544941606,1009.7475,-0.34277186,4.51406,5.959923,-0.17806709,0.06856957,-0.262061,85.350006,-4.2937503,12.6,46.950733,0.3361091,49.741684,0.20859386,0.19896142,0.6547062,0.69875807,0.22163454,0.18432362,0.6056989,0.7416413,-1.0,0
1763544941631,1009.72577,-0.50069815,4.41416,6.8979096,-0.1800524,0.12522727,-0.21700971,84.525,-4.7625003,12.562501,46.950733,0.3361091,49.741684,0.20429376,0.19978097,0.65304446,0.70134485,0.21746168,0.18536122,0.6036178,0.7443099,-1.0,0
1763544941657,1009.72577,-0.58564335,4.914858,7.5409803,0.12186752,0.012064579,-0.0490219,85.9875,-4.8562503,11.793751,46.950733,0.3361091,49.741684,0.20425501,0.20073335,0.65249366,0.7015968,0.2174841,0.18631865,0.60306686,0.7445108,-1.0,0
1763544941681,1009.7204,-0.64905316,5.3306108,6.84766,0.2310596,-0.07192933,0.029932374,86.043755,-3.8437502,11.26875,46.950733,0.3361091,49.741684,0.2060526,0.20169726,0.6519895,0.70126337,0.21935819,0.18714017,0.60252756,0.7441915,-1.0,0
1763544941706,1009.715,-0.62512493,5.751149,6.652645,0.2035707,0.020158539,0.123547405,84.881256,-5.2125,11.625,46.950733,0.3361091,49.741684,0.2087406,0.20492597,0.65323526,0.69836694,0.22231874,0.19010961,0.6037417,0.7415717,-1.0,0
1763544941731,1009.715,-0.6023931,6.0167527,7.259824,0.20631959,0.16523892,0.21135922,84.43125,-6.1125,10.650001,46.950733,0.3361091,49.741684,0.20984325,0.2076244,0.6549851,0.695595,0.22364679,0.19267637,0.6055139,0.73906076,-1.0,0
1763544941756,1009.716,-0.16271193,6.7088766,7.501499,0.25870124,0.10308343,0.3678933,85.51875,-7.1250005,11.3625,46.950733,0.3361091,49.741684,0.2115968,0.20976393,0.65706414,0.692454,0.2255912,0.19463487,0.6076244,0.73621905,-1.0,0
1763544941781,1009.716,1.0313065,6.88116,8.157132,0.18463388,-0.082466744,0.28817546,84.80625,-6.2250004,12.918751,46.950733,0.3361091,49.741684,0.21404262,0.21040685,0.65867805,0.6899695,0.22812659,0.19504753,0.6092143,0.73401135,-1.0,0
1763544941807,1009.71967,1.4189439,6.818348,9.066405,0.066736974,-0.13729186,0.06475167,83.30625,-6.4875,11.868751,46.950733,0.3361091,49.741684,0.21591891,0.2095923,0.6588678,0.68945146,0.23001263,0.19402088,0.6091719,0.73372996,-1.0,0
1763544941832,1009.7419,0.093918286,6.83091,10.402198,-0.25121814,0.4459313,-0.023823727,84.375,-6.15,13.125001,46.950733,0.3361091,49.741684,0.21194668,0.21074022,0.6600016,0.6892497,0.22615065,0.19541936,0.61024004,0.7336717,-1.0,0
1763544941857,1009.7419,-0.44207397,7.027122,11.01835,-0.2498437,0.32223117,-0.0594066,81.43125,-6.9375005,13.1625,46.950733,0.3361091,49.741684,0.20757055,0.21176581,0.66104555,0.6892666,0.22187401,0.19672883,0.61121637,0.73381484,-1.0,0
1763544941882,1009.77997,-0.90508515,6.778867,11.417354,-0.19532402,-0.07101303,-0.07941242,83.71875,-6.58125,11.981251,46.950733,0.3361091,49.741684,0.20525895,0.20898838,0.66064584,0.69118714,0.21935397,0.19414227,0.6107584,0.7356404,-1.0,0
1763544941907,1009.8156,-1.2628121,5.5453663,10.731212,-0.02443459,0.3176497,0.046731155,83.793755,-5.34375,13.9125,46.950733,0.3361091,49.741684,0.20314157,0.21001731,0.6613674,0.6908106,0.21729004,0.19534281,0.6115933,0.73524135,-1.0,0
1763544941932,1009.8156,-1.396212,5.1032925,8.832506,0.043982264,0.41935867,0.10827578,84.61875,-6.3750005,13.575001,46.950733,0.3361091,49.741684,0.2003543,0.21299517,0.6628355,0.68930423,0.21470886,0.19851674,0.6131935,0.7338153,-1.0,0
1763544941958,1009.8107,-1.4434702,4.8562336,8.009376,-0.01970039,0.08124501,0.109650224,84.76875,-6.4687505,11.868751,46.950733,0.3361091,49.741684,0.19902088,0.21276341,0.66450685,0.68815184,0.21358395,0.19959615,0.6143357,0.7328949,-1.0,0
1763544941983,1009.7978,-1.7389839,4.4751763,7.9686975,-0.24113888,-0.0151189035,0.15485422,83.700005,-5.83125,13.181251,46.950733,0.3361091,49.741684,0.1978331,0.21099725,0.66569644,0.68788844,0.21209061,0.19666047,0.6160119,0.7327152,-1.0,0
1763544942009,1009.7978,-1.0247263,4.4392843,8.246265,-0.27672175,0.037262753,0.2197586,83.943756,-6.1875005,12.543751,46.950733,0.3361091,49.741684,0.19580388,0.20920902,0.66769177,0.6870809,0.20995915,0.19499929,0.6179921,0.7321053,-1.0,0
1763544942034,1009.7873,-0.37328035,4.342375,8.195417,-0.20708317,-0.030237807,0.17715079,83.662506,-5.45625,11.606251,46.950733,0.3361091,49.741684,0.1940381,0.20582236,0.67049825,0.6858705,0.20844723,0.19322124,0.61974186,0.7315295,-1.0,0
1763544942060,1009.7873,-0.68255264,4.063611,7.517052,-0.10262528,-0.038026333,0.13530655,82.725006,-6.20625,15.000001,46.950733,0.3361091,49.741684,0.19334346,0.20557477,0.671951,0.6847183,0.20797609,0.19172792,0.6208183,0.7311436,-1.0,0
1763544942085,1009.769,-0.6873383,4.0301113,6.745965,0.017715078,0.2490801,0.3168861,82.03125,-6.76875,14.325001,46.950733,0.3361091,49.741684,0.19216417,0.20666273,0.67431897,0.682391,0.20618404,0.19267769,0.62480354,0.728,-1.0,0
1763544942110,1009.75116,0.30089745,4.2915273,7.0175505,0.15073088,0.12614357,0.3329213,83.08125,-7.4062505,14.1,46.950733,0.3361091,49.741684,0.19449304,0.20910126,0.6776045,0.67771775,0.20637187,0.19390793,0.6272832,0.72548336,-1.0,0
1763544942135,1009.75116,0.61914283,4.7024946,6.113662,0.2771799,-0.027183482,0.17348559,82.78125,-6.58125,15.468751,46.950733,0.3361091,49.741684,0.19556291,0.21039037,0.6777063,0.67690855,0.20987438,0.19611654,0.62842494,0.7228922,-1.0,0
1763544942161,1009.7221,-0.930808,5.128417,6.7890363,-0.126449,0.26343542,-0.032070402,84.318756,-7.14375,13.8,46.950733,0.3361091,49.741684,0.19360282,0.21150073,0.67805773,0.676774,0.20804825,0.19730823,0.6285981,0.7229453,-1.0,0
1763544942185,1009.72284,-1.6911274,5.0548377,8.505886,0.013133593,0.2667952,0.080176,84.693756,-6.5062504,16.2,46.950733,0.3361091,49.741684,0.192915,0.2152868,0.67981315,0.67401004,0.20769453,0.20106612,0.6303107,0.7205163,-1.0,0
1763544942210,1009.72284,-1.2843475,5.4317074,8.215756,0.35307986,-0.011759147,0.24266604,84.58125,-7.8750005,14.7375,46.950733,0.3361091,49.741684,0.19786169,0.21600567,0.68000793,0.6721469,0.21269688,0.2014143,0.630576,0.7187254,-1.0,0
1763544942236,1009.7165,0.360718,6.2344995,8.371888,0.23060146,-0.46746427,0.10445788,83.625,-6.9750004,13.087501,46.950733,0.3361091,49.741684,0.20307122,0.21473919,0.67940795,0.6716055,0.217846,0.19973472,0.6298627,0.71827716,-1.0,0
1763544942260,1009.7165,0.25603202,5.9234324,9.51805,0.050243627,-0.23808455,-0.0377209,83.5875,-6.99375,14.94375,46.950733,0.3361091,49.741684,0.20595409,0.21327429,0.67848486,0.67212737,0.22065136,0.19803032,0.62878114,0.7188402,-1.0,0
1763544942285,1009.7414,-0.51206404,5.5836515,10.359726,-0.032070402,0.18600832,-0.054825112,85.256256,-7.55625,13.406251,46.950733,0.3361091,49.741684,0.20318644,0.2154645,0.6791466,0.67160267,0.21805802,0.20040055,0.6294394,0.71839845,-1.0,0
1763544942311,1009.7663,-1.2179468,6.047261,11.083554,0.067958705,0.2591594,0.07574723,83.625,-7.5937505,14.3625,46.950733,0.3361091,49.741684,0.20474224,0.21702616,0.6798119,0.6699523,0.21971375,0.20185539,0.6302479,0.716776,-1.0,0
1763544942336,1009.7663,0.41336012,7.129415,9.101699,0.377209,-0.65851223,0.16768238,83.793755,-6.7125,14.75625,46.950733,0.3361091,49.741684,0.21089448,0.21595873,0.67914134,0.66906834,0.22578067,0.20034406,0.62961864,0.7158671,-1.0,0
1763544942361,1009.7829,1.5218352,6.652047,9.706485,0.07819069,-0.9618066,0.008857539,84.131256,-8.6625,14.83125,46.950733,0.3361091,49.741684,0.22177774,0.20533764,0.67524666,0.67282474,0.23593158,0.18890521,0.6252596,0.7195148,-1.0,0
1763544942386,1009.8068,2.4149563,5.6793647,10.793425,-0.24953826,-0.5198459,-0.16447534,83.381256,-8.75625,15.225,46.950733,0.3361091,49.741684,0.21699633,0.20404647,0.6749219,0.6750986,0.23105517,0.18797839,0.6248293,0.72171044,-1.0,0
1763544942411,1009.8068,0.07238288,4.9579287,10.66481,-0.38545567,0.80511975,-0.30711228,83.8125,-6.6937504,13.668751,46.950733,0.3361091,49.741684,0.20816745,0.20657898,0.67557544,0.6764534,0.22239809,0.19117442,0.6255064,0.72300285,-1.0,0
1763544942436,1009.8127,-0.60658056,4.703093,10.470394,0.011148282,0.11362085,-0.19700389,85.2375,-7.55625,15.1125,46.950733,0.3361091,49.741684,0.20442055,0.20819084,0.6751294,0.6775464,0.21875,0.19307937,0.62508076,0.7239771,-1.0,0
1763544942461,1009.8127,-0.27098715,4.449454,9.010174,0.4659371,-0.7487675,-0.07223476,82.18125,-7.3875003,15.731251,46.950733,0.3361091,49.741684,0.21948467,0.20380537,0.66956925,0.6796814,0.23342243,0.18768089,0.619539,0.72557646,-1.0,0
1763544942486,1009.8007,1.5948163,4.447061,5.7607207,0.07223476,-0.34574947,-0.060017463,83.4375,-7.1062503,13.743751,46.950733,0.3361091,49.741684,0.22401753,0.20157759,0.6678962,0.6805125,0.23779203,0.18512791,0.61778516,0.7263085,-1.0,0
1763544942511,1009.77094,1.6223338,4.362714,6.4869423,-0.3271181,0.2452622,-0.2196059,82.856255,-7.8,14.306251,46.950733,0.3361091,49.741684,0.22144958,0.20102917,0.6675686,0.6818354,0.23521297,0.18473633,0.6172799,0.72767633,-1.0,0
1763544942536,1009.77094,0.39182472,4.308277,7.870592,-0.3404044,0.40576693,-0.3252855,83.418755,-7.7625003,16.087502,46.950733,0.3361091,49.741684,0.21297048,0.20321406,0.66614467,0.6852729,0.22983259,0.1857044,0.61665857,0.72967327,-1.0,0
1763544942561,1009.7492,-0.3182454,4.4051867,7.5583286,-0.002290743,0.19975278,-0.2556469,83.55,-6.4875,14.775001,46.950733,0.3361091,49.741684,0.21466352,0.20429926,0.66427547,0.68623567,0.22869968,0.18845445,0.61359435,0.7319039,-1.0,0
1763544942586,1009.7209,0.19561325,4.9202414,5.3407803,0.29367325,-0.4205804,-0.11499529,84.28125,-7.1625004,14.887501,46.950733,0.3361091,49.741684,0.2189885,0.2039986,0.66200244,0.6871546,0.233013,0.18781993,0.61118,0.73272616,-1.0,0
1763544942611,1009.7209,0.77706915,5.3736815,5.5716877,0.15989386,-0.2773326,-0.13271037,84.506256,-6.0375004,16.181252,46.950733,0.3361091,49.741684,0.22238113,0.2033663,0.6600292,0.68814987,0.23639227,0.18689544,0.6089816,0.7337099,-1.0,0
1763544942636,1009.6943,0.82313097,5.54417,5.8594246,0.03924806,0.034819294,-0.21792601,82.65,-6.4687505,16.10625,46.950733,0.3361091,49.741684,0.2214093,0.20565405,0.65716887,0.69051677,0.23709035,0.18745375,0.6071916,0.7348249,-1.0,0
1763544942662,1009.6943,-0.5557331,5.555536,6.7890363,-0.10109812,0.1744019,-0.19700389,84.3375,-6.9187503,15.168751,46.950733,0.3361091,49.741684,0.2192474,0.20692688,0.6562568,0.69169277,0.23365845,0.19050431,0.60443705,0.7374061,-1.0,0
1763544942687,1009.68036,-0.6586244,5.791827,7.8029947,0.03405571,-0.011606431,-0.06902772,84.375,-8.043751,16.63125,46.950733,0.3361091,49.741684,0.21876799,0.20753716,0.6556186,0.6922667,0.23326193,0.19110201,0.6036143,0.7380506,-1.0,0
1763544942712,1009.6933,-0.357727,5.985646,7.9794655,0.2319759,-0.1339321,0.05222894,85.575005,-7.2937503,15.843751,46.950733,0.3361091,49.741684,0.22401762,0.20892784,0.65484,0.6909051,0.23863012,0.19206874,0.60281616,0.7367346,-1.0,0
1763544942737,1009.6933,0.061016977,6.4277196,7.6127653,0.32849252,-0.14798199,0.123547405,84.262505,-7.18125,16.275002,46.950733,0.3361091,49.741684,0.2269882,0.20972444,0.6548559,0.6896781,0.24168584,0.19260305,0.6027874,0.73562175,-1.0,0
1763544942762,1009.6945,0.6454639,7.262815,8.124829,0.083688475,-0.04214967,0.040317077,85.40625,-7.425,14.94375,46.950733,0.3361091,49.741684,0.22856835,0.21011798,0.6548558,0.68903625,0.24333434,0.19282496,0.60266703,0.7351186,-1.0,0
1763544942787,1009.7236,0.3152544,7.204789,8.576474,-0.0772744,-0.010690134,-0.041844238,84.356255,-8.043751,17.7,46.950733,0.3361091,49.741684,0.22732344,0.2090079,0.6546708,0.6899608,0.24209227,0.19170702,0.602105,0.73628074,-1.0,0
1763544942812,1009.7236,-0.23389842,7.02772,9.848858,-0.22876886,0.03848448,-0.058032155,85.51875,-7.5375004,16.1625,46.950733,0.3361091,49.741684,0.22492948,0.20860595,0.655422,0.69015384,0.23970143,0.19144955,0.60273904,0.73661107,-1.0,0
1763544942837,1009.7531,-0.6879365,6.984051,10.146765,-0.18875721,0.21777329,0.082466744,84.05625,-6.6000004,18.431252,46.950733,0.3361091,49.741684,0.22218691,0.20888464,0.6568028,0.68964505,0.23698981,0.19192609,0.6041423,0.7362149,-1.0,0
1763544942863,1009.7531,-0.4001996,6.4570317,9.503095,-0.35537058,-0.00763581,0.016340632,87.825005,-6.9375005,16.81875,46.950733,0.3361091,49.741684,0.2197158,0.20738,0.6578104,0.6899304,0.23442557,0.19059421,0.60508317,0.736609,-1.0,0
1763544942888,1009.7868,-0.9236295,5.556732,10.458429,-0.5196932,-0.11056653,-0.08307761,86.325005,-7.7250004,18.4125,46.950733,0.3361091,49.741684,0.21302286,0.20082675,0.65875024,0.6930642,0.22725303,0.18457027,0.60584563,0.73975736,-1.0,0
1763544942913,1009.80707,-1.7473587,4.692325,10.216156,-0.22708899,0.13240494,0.18982624,86.9625,-6.9,15.675,46.950733,0.3361091,49.741684,0.20968254,0.19980815,0.6606036,0.69261307,0.22381376,0.18384087,0.60785955,0.7393353,-1.0,0
1763544942938,1009.80707,-0.613759,4.6971107,9.080762,-0.018631376,-0.24358234,0.2715294,86.86875,-5.7937503,17.00625,46.950733,0.3361091,49.741684,0.21001466,0.19800438,0.6622586,0.69144887,0.22397916,0.18205827,0.6097301,0.7381851,-1.0,0
1763544942964,1009.799,0.11485548,4.491926,8.213364,0.045967575,-0.48594293,0.18234314,88.18125,-6.6562505,15.993751,46.950733,0.3361091,49.741684,0.21605738,0.19137196,0.66255635,0.6911693,0.22947887,0.17505278,0.6102162,0.7377887,-1.0,0
1763544942989,1009.7861,-0.2883351,4.338187,7.42433,-0.050243627,-0.39477137,0.1036943,86.3625,-6.95625,16.35,46.950733,0.3361091,49.741684,0.21579078,0.18896577,0.6634837,0.6910251,0.22902757,0.17268501,0.61119175,0.7376794,-1.0,0
1763544943015,1009.7861,-0.2219343,4.2478585,7.9680996,-0.2538143,0.33001968,0.18600832,86.756256,-7.2937503,15.093751,46.950733,0.3361091,49.741684,0.21232481,0.18874337,0.6657749,0.68995506,0.22555013,0.17272238,0.6135741,0.73676383,-1.0,0
1763544943039,1009.7724,-0.28773692,4.165904,7.6887374,-0.050396346,0.22617269,0.17379104,88.96875,-7.18125,15.01875,46.950733,0.3361091,49.741684,0.20983198,0.18957071,0.6677688,0.6885625,0.2231115,0.17374626,0.615719,0.73547506,-1.0,0
1763544943065,1009.7524,-0.42053857,4.5738807,6.035297,0.107817635,-0.023365578,0.18661919,89.4,-7.89375,15.618751,46.950733,0.3361091,49.741684,0.21199751,0.19014254,0.6696169,0.68594176,0.22529447,0.17418244,0.6178315,0.7329305,-1.0,0
1763544943090,1009.7524,0.0849452,4.7623153,6.4145594,-0.03649917,0.16004658,0.14202607,88.78125,-8.587501,18.206251,46.950733,0.3361091,49.741684,0.21147677,0.19073525,0.670888,0.68469477,0.22482996,0.1747966,0.6191415,0.73182064,-1.0,0
1763544943116,1009.74066,-0.33918262,4.666004,7.1952176,-0.07773254,0.26542073,0.054519683,88.575005,-9.731251,17.212502,46.950733,0.3361091,49.741684,0.20795524,0.19341081,0.6729958,0.68295205,0.22296432,0.17604533,0.6202042,0.731192,-1.0,0
1763544943141,1009.74066,-0.82672024,4.9286165,8.137392,0.04214967,0.23777911,0.10262528,90.28125,-7.9125004,14.925,46.950733,0.3361091,49.741684,0.20842049,0.19574241,0.67386127,0.6812905,0.22153056,0.17770015,0.62129885,0.7302976,-1.0,0
1763544943167,1009.74677,-0.81595254,5.812166,7.143772,0.43508843,0.076052666,0.1875355,90.225006,-10.181251,17.831251,46.950733,0.3361091,49.741684,0.21077487,0.19877185,0.6743727,0.67917985,0.22473092,0.18284501,0.6229611,0.7266245,-1.0,0
1763544943191,1009.7341,-0.57906306,6.0394845,6.63769,0.39095345,-0.003970621,0.21487169,90.99375,-10.725,17.625,46.950733,0.3361091,49.741684,0.21365908,0.20147306,0.67492604,0.67692935,0.22782207,0.18530704,0.6236096,0.7244788,-1.0,0
1763544943216,1009.7341,-0.0077766734,6.1680984,7.536195,0.27397284,-0.14019346,0.21655156,91.912506,-11.26875,18.1875,46.950733,0.3361091,49.741684,0.21982378,0.20248629,0.675764,0.6738099,0.23112996,0.18620642,0.62411976,0.72275907,-1.0,0
1763544943242,1009.7382,0.802792,6.026324,9.868001,0.11911863,-0.02932151,0.11117739,91.78125,-11.137501,17.71875,46.950733,0.3361091,49.741684,0.22149868,0.2024756,0.67618567,0.6728409,0.23576856,0.18566433,0.62495345,0.7206769,-1.0,0
1763544943268,1009.7592,0.17347965,6.273981,9.683753,0.117744185,0.20250167,0.022296565,91.40625,-13.1625,16.03125,46.950733,0.3361091,49.741684,0.22132218,0.20395418,0.6765729,0.67206275,0.23568466,0.18717252,0.6254598,0.7198745,-1.0,0
1763544943293,1009.7592,-0.84825563,7.038488,9.337392,0.06658426,0.28069237,0.07101303,92.137505,-12.243751,18.825,46.950733,0.3361091,49.741684,0.21904038,0.20743972,0.67842644,0.66987133,0.23365746,0.19082484,0.6274962,0.7178013,-1.0,0
1763544943319,1009.78046,0.32183465,7.1216383,9.070593,-0.16966769,-0.15103632,0.0650571,92.606255,-12.918751,17.118752,46.950733,0.3361091,49.741684,0.21893993,0.20628834,0.67896134,0.66971785,0.2334945,0.18965727,0.627959,0.71775895,-1.0,0
1763544943344,1009.78046,0.88354975,6.1944194,10.359127,-0.36086836,-0.35628688,-0.03848448,93.39375,-12.712501,16.875,46.950733,0.3361091,49.741684,0.21917407,0.20222126,0.6787228,0.67112195,0.23345034,0.1855577,0.627537,0.7192125,-1.0,0
1763544943369,1009.7858,1.3046865,5.2199426,11.471191,-0.46242464,-0.19379686,-0.08704823,93.262505,-13.2375,18.768751,46.950733,0.3361091,49.741684,0.214468,0.19483331,0.67894,0.6745991,0.22816497,0.17859809,0.6276952,0.7225249,-1.0,0
1763544943396,1009.80585,0.87218386,4.2370906,10.87179,-0.15882485,0.26358816,-0.025809037,92.26875,-13.087501,17.775002,46.950733,0.3361091,49.741684,0.2109311,0.19460848,0.67978364,0.6749295,0.22456111,0.17870843,0.6287553,0.7227049,-1.0,0
1763544943420,1009.80585,0.92183495,4.1790648,9.438489,-0.0024434591,0.014355322,0.019547673,92.756256,-12.7875,18.487501,46.950733,0.3361091,49.741684,0.20975542,0.19452454,0.6803325,0.6747671,0.22332239,0.1787855,0.62955725,0.72237146,-1.0,0
1763544943445,1009.80145,0.9924232,4.0301113,8.819346,0.06093376,-0.25610507,0.0013744457,94.725006,-14.062501,16.650002,46.950733,0.3361091,49.741684,0.21303618,0.19164093,0.67946166,0.67544144,0.22630815,0.17577057,0.6289566,0.7227053,-1.0,0
1763544943471,1009.78094,1.1096715,4.104887,7.9633136,0.05818487,-0.16294818,-0.013744458,95.193756,-13.1625,17.643751,46.950733,0.3361091,49.741684,0.21227367,0.19228373,0.6795081,0.6754522,0.22556666,0.17650162,0.629114,0.7226219,-1.0,0
1763544943496,1009.78094,1.0342976,4.6085763,5.836693,-0.023365578,0.47632182,-0.110871956,94.125,-12.637501,17.25,46.950733,0.3361091,49.741684,0.20920624,0.19492085,0.67989,0.67526895,0.22268803,0.17936394,0.62954444,0.72243506,-1.0,0
1763544943522,1009.75604,0.67776704,4.8035913,4.879564,0.01847866,0.44272426,-0.17318016,96.037506,-13.950001,18.35625,46.950733,0.3361091,49.741684,0.20505261,0.20025185,0.6788396,0.67603946,0.21896106,0.1849417,0.62831503,0.72323775,-1.0,0
1763544943547,1009.7177,0.29850462,4.9752765,4.4075794,0.038331766,0.0697913,-0.18845178,95.53125,-14.475,16.44375,46.950733,0.3361091,49.741684,0.20636067,0.19975981,0.6771218,0.6775082,0.2202683,0.18431115,0.6263461,0.7247081,-1.0,0
1763544943573,1009.7177,0.92183495,5.13081,5.3066826,-0.11484258,-0.262061,-0.25625777,96.506256,-14.64375,17.737501,46.950733,0.3361091,49.741684,0.20759502,0.19809741,0.67509365,0.6796398,0.22141396,0.18252163,0.6240306,0.7268064,-1.0,0
1763544943598,1009.69574,0.44985065,5.441877,6.518049,-0.26160285,-0.056199558,-0.32100943,95.15625,-14.6625,18.806252,46.950733,0.3361091,49.741684,0.20398138,0.19604008,0.6719877,0.684392,0.22037213,0.18097538,0.6218166,0.72940266,-1.0,0
1763544943623,1009.69574,-0.23030917,5.6596236,7.9220376,-0.24388777,0.123852834,-0.25335616,95.325005,-13.275001,17.475,46.950733,0.3361091,49.741684,0.20248137,0.19679683,0.6714464,0.6851511,0.21628699,0.18151484,0.61972094,0.7322692,-1.0,0
1763544943648,1009.6999,0.26081768,6.1794643,7.932207,0.2950477,-0.051159926,0.014660755,95.0625,-14.55,17.8875,46.950733,0.3361091,49.741684,0.20404847,0.19837919,0.67094606,0.6847198,0.2179702,0.1829729,0.6192336,0.7318194,-1.0,0
1763544943673,1009.70917,0.47976094,6.515656,7.17787,0.36606073,-0.16829325,0.021380268,95.006256,-15.543751,17.79375,46.950733,0.3361091,49.741684,0.20766039,0.19978148,0.6700599,0.6840938,0.22168656,0.18409383,0.6183484,0.7311701,-1.0,0
1763544943698,1009.70917,0.34456646,6.7387867,7.223932,0.25885394,-0.06811142,0.0010690134,95.49375,-15.88125,18.993752,46.950733,0.3361091,49.741684,0.21136509,0.20250583,0.66901803,0.6831772,0.224772,0.18515961,0.6174592,0.7307104,-1.0,0
1763544943723,1009.7094,0.61914283,6.8632135,9.88834,-0.08613193,0.088269964,-0.10506874,96.731255,-16.987501,19.087502,46.950733,0.3361091,49.741684,0.21027829,0.20321086,0.6688363,0.68348104,0.22464536,0.18720596,0.616792,0.73079133,-1.0,0
1763544943749,1009.7348,-0.0741775,6.619744,11.879168,0.056810424,-0.08491021,-0.17333288,96.450005,-15.637501,17.962502,46.950733,0.3361091,49.741684,0.21052364,0.20313306,0.6676128,0.6846239,0.22489472,0.18709785,0.61544716,0.73187536,-1.0,0
1763544943775,1009.7348,-0.89312106,6.6406813,11.318649,0.2784016,-0.07177661,-0.13500112,95.325005,-16.7625,18.75,46.950733,0.3361091,49.741684,0.21217023,0.20423745,0.66602737,0.6853308,0.2265943,0.18810682,0.6139068,0.73238605,-1.0,0
1763544943800,1009.7697,-1.3950156,6.9009004,9.650253,0.24373505,-0.04382955,-0.039095346,97.55625,-17.175001,21.018751,46.950733,0.3361091,49.741684,0.21491222,0.20571326,0.66469055,0.68533295,0.22836429,0.18959029,0.6129646,0.73224294,-1.0,0
1763544943826,1009.7697,-1.1162517,6.9098735,9.592826,0.01527162,-0.16157374,0.037262753,98.34376,-17.0625,18.150002,46.950733,0.3361091,49.741684,0.21592344,0.20315918,0.66446537,0.68599504,0.22941762,0.18940106,0.6126492,0.73222655,-1.0,0
1763544943853,1009.78217,-0.2835495,5.45085,11.677572,-0.15500695,-0.17424917,-0.05589413,97.55625,-15.918751,18.7875,46.950733,0.3361091,49.741684,0.21471548,0.20064506,0.6643738,0.68720174,0.22881325,0.18440625,0.6123418,0.7339457,-1.0,0
1763544943878,1009.8044,-0.87637126,5.1158547,9.205787,0.24556763,0.13912445,0.20616686,98.2125,-17.587502,19.575,46.950733,0.3361091,49.741684,0.21442166,0.20270929,0.66563904,0.6854611,0.22862385,0.18654448,0.6139167,0.73214656,-1.0,0
1763544943903,1009.8044,-0.07238288,5.263612,7.3292155,0.3358229,-0.26633704,0.21991132,97.443756,-18.65625,17.71875,46.950733,0.3361091,49.741684,0.21768095,0.20327,0.6662092,0.68371165,0.2318889,0.18689896,0.61471605,0.7303564,-1.0,0
1763544943928,1009.7985,0.19381863,5.029713,5.8827543,0.17760894,-0.46456265,0.11148282,98.53126,-19.050001,18.54375,46.950733,0.3361091,49.741684,0.22394915,0.19891186,0.66534346,0.6838121,0.23783764,0.18207803,0.61378866,0.7304412,-1.0,0
1763544943953,1009.76996,0.053240303,4.6498528,6.053841,-0.19929464,-0.22021675,0.007941242,99.01875,-19.612501,17.60625,46.950733,0.3361091,49.741684,0.22071122,0.196954,0.66620785,0.6845895,0.23448016,0.18034235,0.61453575,0.7313286,-1.0,0
1763544943978,1009.76996,-0.8530413,4.017549,8.654242,-0.27030766,0.2790125,0.056352276,97.481255,-19.1625,18.975,46.950733,0.3361091,49.741684,0.21649496,0.19654769,0.66769314,0.68460554,0.2302369,0.18025552,0.616051,0.7314233,-1.0,0
1763544944003,1009.7641,-0.8919246,4.0827537,7.600203,0.07116575,0.11285727,0.16707152,99.28126,-19.59375,19.743752,46.950733,0.3361091,49.741684,0.21699741,0.19801436,0.6699395,0.6818237,0.23079477,0.18174526,0.61869466,0.7286421,-1.0,0
1763544944029,1009.7475,-0.3475575,4.3208394,5.9760747,0.25106543,-0.07895427,0.21716243,97.8375,-19.612501,18.337502,46.950733,0.3361091,49.741684,0.2196442,0.19824277,0.67038053,0.680475,0.23345235,0.18177943,0.6192276,0.7273331,-1.0,0
1763544944054,1009.7475,0.12143575,4.531408,5.5944195,0.058337588,0.010995566,0.056046844,98.3625,-21.4125,17.775002,46.950733,0.3361091,49.741684,0.2207283,0.19851896,0.670614,0.6798133,0.23456979,0.18195541,0.61944395,0.72674507,-1.0,0
1763544944079,1009.72406,-0.552742,4.5559344,6.018547,0.003817905,0.18203771,0.015424335,98.30625,-22.40625,16.9125,46.950733,0.3361091,49.741684,0.21997024,0.19963688,0.6709785,0.67937183,0.23390971,0.18310662,0.61978114,0.7263811,-1.0,0
1763544944104,1009.71576,-0.85902333,4.6636114,6.617949,0.02932151,0.16462806,0.07177661,97.68751,-22.3875,20.362501,46.950733,0.3361091,49.741684,0.21961227,0.20192088,0.67227024,0.6775331,0.23373689,0.18538782,0.62113255,0.7247018,-1.0,0
1763544944129,1009.71576,-0.8644072,5.1092744,7.04447,0.15500695,-0.026572619,0.14584397,98.925,-22.875,19.181252,46.950733,0.3361091,49.741684,0.22227558,0.20187525,0.67259544,0.6763544,0.23639551,0.18514109,0.62152064,0.723569,-1.0,0
1763544944154,1009.72064,-0.36430725,6.0376897,8.180463,0.13942988,-0.22601996,0.20448698,96.3375,-24.018751,19.987501,46.950733,0.3361091,49.741684,0.22506784,0.2011524,0.6730461,0.67519706,0.23914322,0.18419646,0.6219933,0.72250015,-1.0,0
1763544944179,1009.72064,-0.13339986,6.2027946,9.203394,0.16508621,-0.21746786,0.21914774,97.068756,-26.062502,21.2625,46.950733,0.3361091,49.741684,0.2312163,0.1998201,0.6740804,0.67247796,0.24177064,0.183339,0.6226016,0.7213189,-1.0,0
1763544944204,1009.7292,0.6556334,6.4121666,9.775279,0.24449863,-0.26511532,0.22953244,99.46876,-25.06875,20.79375,46.950733,0.3361091,49.741684,0.2344207,0.1999188,0.67444724,0.6709697,0.2483782,0.1822878,0.6237107,0.7183762,-1.0,0
1763544944230,1009.75433,0.3278167,7.772486,8.86122,0.1621846,0.09773836,0.13942988,99.3375,-25.931252,18.243752,46.950733,0.3361091,49.741684,0.23572612,0.2011058,0.6751415,0.6694577,0.24976133,0.18338381,0.62453455,0.71690047,-1.0,0
1763544944256,1009.75433,0.2865405,8.003992,8.288139,-0.0820086,0.12751803,0.11911863,97.443756,-26.493752,19.3875,46.950733,0.3361091,49.741684,0.23364986,0.19979133,0.6770329,0.66866857,0.24913786,0.18422705,0.625674,0.715907,-1.0,0
1763544944281,1009.76556,1.0289137,7.6420774,9.5964155,-0.3744601,-0.09834923,0.024129158,96.412506,-27.35625,18.618752,46.950733,0.3361091,49.741684,0.23132372,0.19628942,0.6771438,0.6703999,0.24510053,0.17879014,0.6261374,0.71827,-1.0,0
1763544944306,1009.76556,0.96550393,6.7447686,11.172688,-0.4951059,-0.04291325,-0.092851445,97.4625,-26.268751,21.225,46.950733,0.3361091,49.741684,0.22600058,0.19498028,0.67819643,0.67153263,0.23968393,0.17789094,0.62715167,0.71943533,-1.0,0
1763544944331,1009.7961,1.0271192,5.8169518,11.106286,-0.29168794,0.53511757,-0.07849612,95.49375,-27.337502,21.1875,46.950733,0.3361091,49.741684,0.21968652,0.19618355,0.6796995,0.67175776,0.23343796,0.17960197,0.6287828,0.7196402,-1.0,0
1763544944357,1009.81024,0.61854464,5.5429735,9.896116,-0.040622506,0.067653276,-0.05329795,96.9,-28.44375,20.493752,46.950733,0.3361091,49.741684,0.22000706,0.19472198,0.6791584,0.67262477,0.23111379,0.18029603,0.6292813,0.7197811,-1.0,0
1763544944382,1009.81024,0.7070791,4.3555355,7.483553,0.018325943,-0.5369501,0.100181825,97.762505,-27.73125,20.98125,46.950733,0.3361091,49.741684,0.22399166,0.19116531,0.6784167,0.67307824,0.23729208,0.1743815,0.62770766,0.7206016,-1.0,0
1763544944409,1009.80804,1.1252248,4.106682,6.773483,-0.14126249,-0.2762636,0.1707367,97.575005,-28.10625,19.3125,46.950733,0.3361091,49.741684,0.22598659,0.18769144,0.6788877,0.6729141,0.23901676,0.17078935,0.62824225,0.720426,-1.0,0
1763544944434,1009.78973,1.8526429,4.107878,6.5114684,-0.30665413,0.06811142,0.11911863,95.64375,-27.206251,22.40625,46.950733,0.3361091,49.741684,0.2214304,0.1839077,0.681299,0.6730366,0.23417978,0.16737175,0.63071626,0.7206549,-1.0,0
1763544944459,1009.78973,0.5306084,4.2520456,6.4235325,-0.26511532,0.004581486,-0.15027274,96.075005,-28.143751,20.71875,46.950733,0.3361091,49.741684,0.21920772,0.18235174,0.6810602,0.67442775,0.23184545,0.16598758,0.63039774,0.7220073,-1.0,0
1763544944484,1009.76263,0.14476576,4.4374895,6.3661046,-0.1432478,-0.13545926,-0.12965605,95.9625,-30.150002,20.212502,46.950733,0.3361091,49.741684,0.21866402,0.18073218,0.68019295,0.6759139,0.23118664,0.16441049,0.6294213,0.72342986,-1.0,0
1763544944509,1009.7441,0.762114,4.8442693,6.416952,-0.08918626,-0.17577635,-0.09498947,95.45625,-28.331251,20.325,46.950733,0.3361091,49.741684,0.21974352,0.17789595,0.6780859,0.6784286,0.2320741,0.16148007,0.6270643,0.7258486,-1.0,0
1763544944534,1009.7441,1.0875379,4.996812,6.8279195,-0.060781047,-0.20387612,-0.16615522,96.93751,-28.181252,20.775002,46.950733,0.3361091,49.741684,0.22022025,0.17692113,0.6763463,0.68026286,0.23248746,0.16046073,0.625157,0.7275855,-1.0,0
1763544944560,1009.7299,0.16031912,5.1529436,7.893324,0.035124727,-0.14844014,-0.18997894,96.168755,-29.250002,19.06875,46.950733,0.3361091,49.741684,0.22100529,0.17640667,0.6745956,0.6818783,0.23323968,0.15988092,0.6232634,0.72909534,-1.0,0
1763544944585,1009.7348,0.3702893,5.346762,7.9764743,0.19226968,-0.1226311,-0.077121675,95.15625,-29.737501,21.525002,46.950733,0.3361091,49.741684,0.22499691,0.17813425,0.67239314,0.682299,0.23735094,0.16130704,0.62101525,0.72937274,-1.0,0
1763544944610,1009.7348,0.9403793,5.638088,7.2006016,0.2838994,-0.09666935,-0.045814857,93.356255,-31.29375,22.25625,46.950733,0.3361091,49.741684,0.22712138,0.17918245,0.67108387,0.6826096,0.23955618,0.16218302,0.61964107,0.72962624,-1.0,0
1763544944636,1009.7321,0.2727818,5.998208,8.426325,0.05574141,-0.116217025,-0.16081016,95.25,-29.23125,21.7875,46.950733,0.3361091,49.741684,0.22835568,0.17937659,0.66958344,0.6836196,0.2408191,0.16226038,0.61799085,0.73059225,-1.0,0
1763544944661,1009.7321,-0.5988039,5.8911295,10.015758,0.07315106,-0.04092794,-0.011148282,95.287506,-31.218752,21.900002,46.950733,0.3361091,49.741684,0.22907878,0.17950992,0.6688435,0.68406683,0.24156177,0.16232319,0.61716735,0.7310291,-1.0,0
1763544944686,1009.7519,0.21535404,6.1567326,10.5487585,0.23044874,0.087506376,0.22769985,95.64375,-31.575,22.5,46.950733,0.3361091,49.741684,0.23148967,0.18312134,0.67125124,0.67992705,0.24420893,0.1657797,0.6199617,0.7269984,-1.0,0
1763544944711,1009.7751,0.5593223,6.8392854,10.197014,0.3498728,0.108123064,0.17180572,93.5625,-33.037502,24.50625,46.950733,0.3361091,49.741684,0.23333533,0.18559423,0.67211473,0.6777693,0.24621595,0.16813177,0.6210392,0.7248584,-1.0,0
1763544944737,1009.7751,0.14177474,6.7483582,9.465408,0.3045161,0.025809037,0.21884231,93.84375,-33.131252,24.018751,46.950733,0.3361091,49.741684,0.2354627,0.18756807,0.6729754,0.6756328,0.24847539,0.16995424,0.62207794,0.72276866,-1.0,0
1763544944761,1009.7836,1.0043873,6.6370916,8.523832,0.011911863,-0.0697913,0.19165882,92.287506,-33.54375,24.206251,46.950733,0.3361091,49.741684,0.23550725,0.18477818,0.6746189,0.67474633,0.24833141,0.1671471,0.62371945,0.72205776,-1.0,0
1763544944786,1009.77924,0.4648058,4.9142594,12.332608,-0.52977246,0.16752967,-0.19272783,92.4375,-34.275,24.375002,46.950733,0.3361091,49.741684,0.23107757,0.18202199,0.6747705,0.67687213,0.24370654,0.16472995,0.62374365,0.7241651,-1.0,0
1763544944812,1009.77924,-0.590429,4.369892,11.958131,-0.24449863,0.32940882,-0.16997312,92.850006,-33.61875,24.6,46.950733,0.3361091,49.741684,0.22608815,0.18201265,0.67494106,0.6783879,0.23868163,0.16515307,0.62401456,0.7255077,-1.0,0
1763544944836,1009.80975,-0.738784,4.3872404,9.906884,-0.010079269,0.13790272,-0.04734202,92.381256,-36.018753,24.16875,46.950733,0.3361091,49.741684,0.22360502,0.18266866,0.6750105,0.6789653,0.23615718,0.16631968,0.62443197,0.7257081,-1.0,0
1763544944861,1009.80975,-0.4660022,4.4674,8.365906,0.034208428,-0.113162704,0.013744458,94.55625,-34.800003,22.95,46.950733,0.3361091,49.741684,0.2243623,0.18098898,0.6749837,0.6791918,0.23615475,0.16612639,0.6244695,0.7257209,-1.0,0
1763544944886,1009.81146,-0.26799613,4.6139603,6.999604,-0.2764163,0.07589995,0.10766492,93.225006,-36.075,25.95,46.950733,0.3361091,49.741684,0.2228711,0.17932728,0.67596334,0.6791492,0.23515992,0.16287914,0.6255079,0.72588575,-1.0,0
1763544944911,1009.78827,-0.10229317,4.706682,7.3142605,-0.33689192,0.2988656,0.14416409,92.325005,-35.53125,24.300001,46.950733,0.3361091,49.741684,0.216274,0.17851855,0.67962945,0.6778352,0.23116344,0.16255043,0.6275987,0.7254383,-1.0,0
1763544944936,1009.78827,0.19501504,4.579264,7.146763,-0.15775582,0.1414152,0.111635536,92.90625,-36.225002,25.218752,46.950733,0.3361091,49.741684,0.2165213,0.17796189,0.67996794,0.677563,0.22852965,0.16253464,0.6292235,0.72486854,-1.0,0
1763544944961,1009.7697,0.41575295,4.3172503,5.9671016,-0.013439025,-0.019547673,0.011759147,90.318756,-35.86875,26.081251,46.950733,0.3361091,49.741684,0.21708031,0.17753251,0.67991793,0.67754704,0.22927064,0.16148257,0.62949824,0.7246312,-1.0,0
1763544944986,1009.75116,0.30508488,4.255037,6.224928,-0.059101168,0.22739442,-0.022907428,90.9375,-37.18125,26.718752,46.950733,0.3361091,49.741684,0.21556634,0.17844911,0.68025905,0.6774472,0.22783567,0.16249259,0.62980443,0.7245919,-1.0,0
1763544945012,1009.75116,-0.025124637,4.1665025,6.61436,0.0044287695,0.23426664,-0.043218683,91.05,-36.5625,27.281252,46.950733,0.3361091,49.741684,0.21360894,0.18180421,0.6804299,0.67700344,0.2261329,0.16596822,0.62996995,0.7241936,-1.0,0
1763544945037,1009.73114,-0.6197411,4.371089,6.8853474,0.16249003,0.08002329,-0.0056504994,89.793755,-37.800003,26.400002,46.950733,0.3361091,49.741684,0.21598822,0.18323201,0.68009233,0.6762023,0.22860882,0.16722107,0.6296905,0.72337055,-1.0,0
1763544945063,1009.73114,-0.14955142,5.572884,7.0169525,0.41309732,-0.27305657,0.07101303,87.09375,-39.975002,29.906252,46.950733,0.3361091,49.741684,0.22038661,0.18424979,0.6792487,0.67535394,0.23307784,0.16790758,0.62887216,0.7224968,-1.0,0
1763544945088,1009.71356,-0.30089745,5.8618174,7.332805,0.3498728,-0.16081016,0.064904384,89.887505,-37.912502,27.6375,46.950733,0.3361091,49.741684,0.22651571,0.18722168,0.6783832,0.67337584,0.23944083,0.17038022,0.6279997,0.7205935,-1.0,0
1763544945113,1009.7221,-0.18245272,6.2291155,7.800602,0.2678642,0.0015271619,0.09666935,88.875,-38.53125,28.3875,46.950733,0.3361091,49.741684,0.22812988,0.18862337,0.6786515,0.67216814,0.24117093,0.17163509,0.6282753,0.7194777,-1.0,0
1763544945138,1009.7221,0.72323066,6.445666,9.262616,0.19501857,-0.27870706,0.06062833,86.418755,-39.787502,29.19375,46.950733,0.3361091,49.741684,0.23106216,0.18848461,0.67823917,0.67162156,0.24409789,0.171267,0.62785125,0.7189483,-1.0,0
1763544945164,1009.7316,0.634098,6.7034926,9.232706,0.062155493,-0.19593488,-0.0036651888,88.5,-38.831253,29.531252,46.950733,0.3361091,49.741684,0.23214515,0.18757027,0.6777712,0.6719764,0.24511762,0.17026834,0.6273345,0.71928954,-1.0,0
1763544945189,1009.7817,-0.22851457,7.246065,10.05165,-0.1470657,0.1838703,-0.018631376,88.575005,-39.9375,29.268751,46.950733,0.3361091,49.741684,0.22990869,0.18786928,0.67859423,0.671831,0.24291916,0.17071371,0.62812203,0.7192426,-1.0,0
1763544945214,1009.7817,0.21595225,7.5900335,10.7635145,-0.07055488,-0.2290743,0.088269964,84.450005,-39.881252,31.087502,46.950733,0.3361091,49.741684,0.23027365,0.18659021,0.67893517,0.6717181,0.2431978,0.16940099,0.62843895,0.7191819,-1.0,0
1763544945239,1009.8166,1.0025927,7.1228347,11.968899,-0.11377356,-0.3178024,0.008399391,87.46875,-39.675003,28.44375,46.950733,0.3361091,49.741684,0.2317929,0.18374892,0.6784388,0.67247987,0.24451569,0.1664443,0.62785125,0.71993834,-1.0,0
1763544945264,1009.82635,1.3417753,6.302695,12.70529,-0.027336199,0.045051277,0.038026333,84.637505,-40.4625,30.187502,46.950733,0.3361091,49.741684,0.23119126,0.18463811,0.6794428,0.6714289,0.24393296,0.16744354,0.6291315,0.7187857,-1.0,0
1763544945289,1009.82635,2.2582264,5.471787,9.031111,0.24541493,0.068416856,0.03527744,83.662506,-40.3125,29.5125,46.950733,0.3361091,49.741684,0.23207146,0.18653396,0.67974937,0.67029005,0.24490446,0.16933364,0.6297036,0.7175105,-1.0,0
1763544945315,1009.8112,2.1894326,4.9286165,8.411369,0.09300416,-0.09957096,-0.06536253,82.950005,-41.53125,31.500002,46.950733,0.3361091,49.741684,0.23339607,0.18666224,0.67921036,0.6703408,0.24621339,0.16939746,0.62925345,0.7174424,-1.0,0
1763544945340,1009.8112,1.698904,4.3764725,8.292327,0.047494736,-0.109344795,-0.11866048,82.55625,-40.6875,29.643751,46.950733,0.3361091,49.741684,0.23507468,0.18612795,0.6773108,0.6718232,0.24718277,0.16873965,0.62831163,0.7180892,-1.0,0
1763544945365,1009.7829,1.282553,4.305286,7.2825556,0.09392046,0.031001387,-0.18157956,82.537506,-40.6875,31.181252,46.950733,0.3361091,49.741684,0.2352936,0.18706353,0.676175,0.6726303,0.24806881,0.16975783,0.62634134,0.719264,-1.0,0
1763544945390,1009.73627,0.24047868,4.1635113,5.083552,0.0035124724,-0.008552107,-0.20433427,84.01875,-40.78125,29.025002,46.950733,0.3361091,49.741684,0.23509547,0.18769781,0.67484957,0.6738528,0.24791494,0.17040697,0.6249387,0.7203827,-1.0,0
1763544945415,1009.73627,0.08793623,3.9661036,5.1457653,-0.04214967,-0.111635536,-0.18188499,80.9625,-42.7125,30.54375,46.950733,0.3361091,49.741684,0.2356769,0.18679965,0.67215526,0.6765867,0.247957,0.1700826,0.6233826,0.72179174,-1.0,0
1763544945441,1009.6943,0.14356937,3.9391842,5.046463,-0.0140498895,-0.13515383,-0.1357647,81.506256,-41.53125,29.643751,46.950733,0.3361091,49.741684,0.23586178,0.1863032,0.6711715,0.67763495,0.24860731,0.1689203,0.6208806,0.7239942,-1.0,0
1763544945467,1009.6696,0.67178494,4.490132,5.788238,-0.10308343,-0.0061086477,-0.20021093,81.506256,-42.28125,29.531252,46.950733,0.3361091,49.741684,0.23516032,0.18597661,0.67007524,0.67905194,0.24789594,0.16862765,0.6196354,0.72537184,-1.0,0
1763544945492,1009.6696,-0.14476576,4.644469,6.227919,-0.06704241,0.023976443,-0.19883649,80.175,-41.4375,31.63125,46.950733,0.3361091,49.741684,0.23415267,0.18616153,0.6682125,0.68118167,0.24697605,0.16886017,0.61827606,0.7267901,-1.0,0
1763544945518,1009.67303,-0.12861422,4.9286165,6.8602223,0.0097738365,-0.051923506,-0.04016436,80.4375,-41.662502,31.312502,46.950733,0.3361091,49.741684,0.23547843,0.1863888,0.66814566,0.6807279,0.24692096,0.16885985,0.61755234,0.72742385,-1.0,0
1763544945543,1009.67303,0.7471589,5.4783673,7.5996046,0.1640172,-0.08811724,0.07284562,80.0625,-39.956253,30.7875,46.950733,0.3361091,49.741684,0.23824456,0.18748073,0.66776395,0.67983943,0.24826612,0.16898172,0.61749023,0.7269903,-1.0,0
1763544945568,1009.6723,0.52163535,6.1292152,7.385447,0.3260491,-0.0962112,0.055283263,77.943756,-40.800003,32.60625,46.950733,0.3361091,49.741684,0.24142003,0.18880817,0.66718566,0.6789191,0.2543749,0.17095485,0.61662596,0.7251485,-1.0,0
1763544945593,1009.6945,0.90029955,6.5054865,8.1230345,0.24190246,0.005497783,0.08032872,78.975006,-41.68125,30.54375,46.950733,0.3361091,49.741684,0.24498446,0.19157033,0.66707677,0.6769727,0.25815445,0.17341529,0.6165502,0.72329056,-1.0,0
1763544945618,1009.6945,1.2424731,7.1048884,9.747163,0.16859868,-0.087506376,-0.04046979,79.200005,-41.287502,30.6375,46.950733,0.3361091,49.741684,0.24669032,0.19223075,0.6664451,0.67678815,0.25990662,0.17394632,0.61592036,0.7230722,-1.0,0
1763544945643,1009.71893,0.9667004,7.253842,10.066605,0.09773836,0.00076358096,-0.1311832,76.93125,-42.2625,31.706251,46.950733,0.3361091,49.741684,0.24765469,0.19288042,0.66538626,0.6772927,0.26091245,0.17452905,0.6148398,0.723489,-1.0,0
1763544945668,1009.75385,0.021535404,7.4697943,9.978668,-0.032833982,0.36636615,-0.12950334,74.30625,-41.41875,32.550003,46.950733,0.3361091,49.741684,0.24114193,0.19772397,0.6662654,0.6773819,0.25476372,0.17983228,0.61571836,0.72363436,-1.0,0
1763544945693,1009.75385,-0.4444668,7.7312098,10.254441,-0.17043127,0.54290605,-0.03161225,75.600006,-40.162502,32.04375,46.950733,0.3361091,49.741684,0.23722671,0.1994758,0.6674591,0.6770755,0.2509966,0.18184568,0.61688477,0.72345424,-1.0,0
1763544945718,1009.7861,0.3822534,6.450452,10.86162,-0.11331542,0.03375028,-0.19578215,74.71875,-39.393753,33.16875,46.950733,0.3361091,49.741684,0.23554334,0.199547,0.66688406,0.6782079,0.24932061,0.18204096,0.616238,0.7245351,-1.0,0
1763544945743,1009.7978,-0.8243274,5.3240304,10.208978,-0.15164718,0.10430516,-0.28512114,73.03125,-39.825,32.60625,46.950733,0.3361091,49.741684,0.22954887,0.20039083,0.6652115,0.6816484,0.24335155,0.18338259,0.6145241,0.727675,-1.0,0
1763544945768,1009.7978,-1.6031911,4.6881375,9.622736,-0.24022257,0.3272708,-0.16340633,74.25,-37.96875,34.36875,46.950733,0.3361091,49.741684,0.22503708,0.20093219,0.6662592,0.68197006,0.23885939,0.1842868,0.6156684,0.7279677,-1.0,0
1763544945793,1009.7944,-0.5270192,4.6953163,9.286545,-0.10644319,0.05589413,0.11194097,73.387505,-38.550003,34.800003,46.950733,0.3361091,49.741684,0.22295335,0.20046593,0.66744334,0.68163383,0.23671566,0.18401216,0.6169996,0.72761023,-1.0,0
1763544945818,1009.7944,-0.54317075,4.699504,7.9884386,0.016187917,-0.06933315,0.16569707,72.637505,-37.256252,34.5,46.950733,0.3361091,49.741684,0.22313198,0.19973858,0.66836745,0.68088293,0.23680992,0.18331514,0.61810166,0.72681975,-1.0,0
1763544945844,1009.7714,-0.6023931,4.6612186,6.827321,-0.022907428,-0.06185006,0.26267186,72.65625,-36.506252,33.525,46.950733,0.3361091,49.741684,0.22317348,0.19764277,0.6721969,0.6777037,0.23668411,0.18124482,0.6222189,0.72386086,-1.0,0
1763544945869,1009.7514,0.6239285,4.6325045,6.5515485,-0.11682789,0.03451386,0.27962336,71.793755,-37.8375,33.84375,46.950733,0.3361091,49.741684,0.22234735,0.19661225,0.6745871,0.67589766,0.23579372,0.18026656,0.6247033,0.72225416,-1.0,0
1763544945895,1009.7514,0.50428736,4.2460637,5.937191,-0.0004581486,-0.17043127,0.14905101,70.51875,-36.956253,32.7,46.950733,0.3361091,49.741684,0.22337759,0.19527952,0.6755354,0.67499655,0.23672861,0.17886087,0.6257046,0.72143066,-1.0,0
1763544945921,1009.72626,0.36131623,3.9954157,5.326423,-0.00320704,-0.24572036,0.07147118,69.693756,-34.55625,32.025,46.950733,0.3361091,49.741684,0.22565891,0.19188903,0.67559034,0.67515504,0.23876972,0.17530653,0.62571824,0.72161853,-1.0,0
1763544945947,1009.7148,0.06699903,4.01396,6.678966,-0.1499673,0.06383537,-0.00320704,69.43125,-35.71875,34.29375,46.950733,0.3361091,49.741684,0.22437505,0.19103786,0.6759228,0.67549145,0.2374328,0.17454313,0.6260078,0.7219935,-1.0,0
1763544945972,1009.7148,-0.13878371,4.29392,6.806384,0.011911863,0.08842268,0.03084867,69.39375,-36.1875,30.618752,46.950733,0.3361091,49.741684,0.22349189,0.19132967,0.67634076,0.6752833,0.23656596,0.1749063,0.6264672,0.7217916,-1.0,0
1763544945997,1009.6984,-0.65324056,5.032106,5.7409797,0.113926284,0.08048143,0.056046844,68.9625,-36.0,32.193752,46.950733,0.3361091,49.741684,0.22349828,0.19358757,0.6772064,0.67376834,0.23679563,0.17603262,0.62683386,0.7211239,-1.0,0
1763544946022,1009.7072,-0.74835527,5.8749776,6.6053867,-0.0108428495,-0.123852834,0.13026692,67.950005,-35.11875,33.487503,46.950733,0.3361091,49.741684,0.22402118,0.19347759,0.67774874,0.6730806,0.23729159,0.17695132,0.6278477,0.7198529,-1.0,0
1763544946047,1009.7072,-0.07776674,6.0634127,8.175676,0.01725693,-0.41615164,0.17195843,68.0625,-33.3375,31.2,46.950733,0.3361091,49.741684,0.22675563,0.19116704,0.6778879,0.6726849,0.23988637,0.17440613,0.62788016,0.7195857,-1.0,0
1763544946073,1009.7358,0.45702913,6.3308105,8.899506,0.058795735,-0.36331183,0.16615522,67.96875,-35.11875,33.018753,46.950733,0.3361091,49.741684,0.23008801,0.1887453,0.6778945,0.6722305,0.24305066,0.17173134,0.6278595,0.7191851,-1.0,0
1763544946098,1009.7358,0.9206385,6.669993,9.5455675,0.0030543238,-0.07849612,0.1311832,68.100006,-34.48125,32.662502,46.950733,0.3361091,49.741684,0.23104495,0.18786494,0.67900145,0.6710306,0.24432313,0.17053317,0.628443,0.7185291,-1.0,0
1763544946123,1009.757,0.12921242,7.629515,9.793225,-0.046273008,0.050243627,-0.05497783,70.18125,-33.112503,29.118752,46.950733,0.3361091,49.741684,0.23033507,0.18830174,0.6789516,0.67120254,0.24327649,0.17125522,0.6289406,0.71827704,-1.0,0
1763544946148,1009.79047,-0.09092726,7.4979095,10.319646,-0.18585561,-0.09987639,-0.06704241,67.575005,-32.025,31.500002,46.950733,0.3361091,49.741684,0.22872105,0.18452324,0.678412,0.6733461,0.24142861,0.16755413,0.62810385,0.7205022,-1.0,0
1763544946173,1009.79047,0.59700924,7.0145597,11.575878,-0.34055713,-0.17455462,-0.028710645,68.3625,-33.318752,30.712502,46.950733,0.3361091,49.741684,0.22721858,0.18121438,0.67848176,0.67468184,0.23968843,0.16436665,0.6280905,0.7218278,-1.0,0
1763544946198,1009.8337,1.7060826,5.7762737,13.609179,-0.1178969,0.018173227,-0.048258316,68.3625,-31.931252,29.550001,46.950733,0.3361091,49.741684,0.22587655,0.1795642,0.6785605,0.6754941,0.23819499,0.1628701,0.62827,0.72250485,-1.0,0
1763544946223,1009.8337,1.2634103,5.601598,11.5932255,0.11911863,0.13439025,-0.04367683,69.731255,-31.781252,28.0125,46.950733,0.3361091,49.741684,0.22512046,0.18039139,0.67860985,0.67547643,0.23744237,0.16383345,0.6285761,0.7222685,-1.0,0
1763544946249,1009.841,1.018146,5.163711,9.519247,0.17898338,0.10140356,-0.021991132,68.700005,-30.393751,28.500002,46.950733,0.3361091,49.741684,0.22587305,0.18296795,0.6783598,0.674783,0.23830797,0.16644883,0.62867653,0.7212974,-1.0,0
1763544946275,1009.8078,0.7938189,4.4464626,6.9936223,0.076816246,-0.205556,0.06658426,68.3625,-29.812502,28.968752,46.950733,0.3361091,49.741684,0.2274941,0.1824371,0.6782339,0.67450863,0.23987167,0.16582651,0.6286379,0.72095597,-1.0,0
1763544946301,1009.8078,1.7838492,4.319643,6.8488564,-0.06734784,-0.35705048,0.06398808,67.70625,-28.743752,28.050001,46.950733,0.3361091,49.741684,0.2296596,0.1797665,0.6780574,0.6746693,0.24183644,0.1630174,0.62847567,0.72108173,-1.0,0
1763544946328,1009.7807,2.1720848,4.3064823,7.196414,-0.17883067,-0.20326525,-0.045814857,68.11875,-29.587502,28.518751,46.950733,0.3361091,49.741684,0.22937718,0.17555349,0.67717415,0.6767586,0.24123774,0.15886246,0.6275286,0.72303176,-1.0,0
1763544946353,1009.7487,0.8955139,4.662415,6.5724854,-0.019089524,0.088269964,-0.17806709,69.225006,-27.843752,27.225,46.950733,0.3361091,49.741684,0.22821675,0.17596407,0.6763824,0.6778352,0.240099,0.15936977,0.6267094,0.72400904,-1.0,0
1763544946379,1009.7487,0.90089774,4.805386,5.8247285,0.064140804,-0.00641408,-0.17409647,70.387505,-26.362501,28.556252,46.950733,0.3361091,49.741684,0.22827522,0.17674825,0.6752217,0.6787681,0.2402136,0.16014658,0.6254819,0.72486055,-1.0,0
1763544946404,1009.7238,0.95712906,4.895715,5.555536,0.044134982,-0.06459895,-0.24495678,70.18125,-26.868752,26.2875,46.950733,0.3361091,49.741684,0.22870216,0.17779657,0.67151684,0.6820182,0.24074468,0.16111575,0.6214163,0.7279599,-1.0,0
1763544946430,1009.71893,0.49351966,4.786842,6.451648,-0.049938194,0.15775582,-0.2782489,71.700005,-26.587502,25.968752,46.950733,0.3361091,49.741684,0.22720838,0.1790081,0.66997343,0.6837163,0.2393589,0.1624034,0.61967444,0.7296136,-1.0,0
1763544946455,1009.71893,0.30209386,4.889135,6.7178497,0.06536253,0.15622866,-0.25076,71.887505,-25.687502,25.425001,46.950733,0.3361091,49.741684,0.22594278,0.1809919,0.6685698,0.6849863,0.23824844,0.1644564,0.61813563,0.73082155,-1.0,0
1763544946480,1009.71405,-0.21954148,5.113462,6.297311,0.18157956,0.08124501,-0.1913534,71.08125,-25.275002,26.1,46.950733,0.3361091,49.741684,0.22677527,0.185272,0.6661874,0.68588746,0.23852877,0.16661853,0.6165394,0.7315883,-1.0,0
1763544946505,1009.7126,-0.41455653,5.6410794,6.157929,0.1875355,0.06918044,-0.05253437,73.350006,-24.187502,26.587502,46.950733,0.3361091,49.741684,0.22787817,0.1868928,0.6661387,0.68512905,0.24064773,0.17013533,0.61549014,0.7309682,-1.0,0
1763544946530,1009.7126,0.6867401,6.3996043,7.9477606,0.30482152,-0.10583232,0.100487255,72.1125,-24.431252,27.187502,46.950733,0.3361091,49.741684,0.23051709,0.1881431,0.6660278,0.68401104,0.24339437,0.1711582,0.61535215,0.72993547,-1.0,0
1763544946555,1009.7133,0.76749784,6.6281185,7.7820573,0.3675879,-0.105526894,0.09025527,72.15,-25.1625,25.218752,46.950733,0.3361091,49.741684,0.23398304,0.18964304,0.66567,0.6827671,0.24697383,0.1723847,0.61502093,0.72872263,-1.0,0
1763544946581,1009.7133,0.91465646,6.7782683,7.9836526,0.2689332,-0.091477,0.074067354,74.231255,-22.81875,24.393751,46.950733,0.3361091,49.741684,0.23885414,0.19118147,0.6650765,0.681228,0.25197914,0.17351703,0.61438644,0.7272741,-1.0,0
1763544946606,1009.7299,1.1318051,7.1545396,9.863813,-0.076358095,-0.06307179,-0.097432934,74.043755,-23.94375,22.63125,46.950733,0.3361091,49.741684,0.23937717,0.19048813,0.66440165,0.68189687,0.25246364,0.17276937,0.6136118,0.72793776,-1.0,0
1763544946632,1009.7695,0.10049855,7.388438,10.871191,-0.17211115,0.25625777,-0.119271345,74.68125,-22.143751,23.550001,46.950733,0.3361091,49.741684,0.23295003,0.19274548,0.6652306,0.6826798,0.25030997,0.1731667,0.61338526,0.7287775,-1.0,0
1763544946656,1009.7695,-0.68494546,7.5086775,10.391431,-0.17684536,0.46838057,-0.035124727,74.100006,-21.35625,24.337502,46.950733,0.3361091,49.741684,0.22902246,0.19407527,0.66638416,0.68250686,0.24621609,0.17548266,0.6143803,0.72878,-1.0,0
1763544946682,1009.7968,-0.037686955,6.468996,10.710274,-0.3677406,-0.057268575,-0.09224058,75.600006,-22.9125,21.018751,46.950733,0.3361091,49.741684,0.22645889,0.19238012,0.66656053,0.68366903,0.2397371,0.17555587,0.6155458,0.7299381,-1.0,0
1763544946708,1009.8378,-0.552742,5.538188,12.162119,-0.31077746,-0.08659008,-0.13775001,76.9875,-21.7875,22.050001,46.950733,0.3361091,49.741684,0.22447868,0.18974514,0.665997,0.6856049,0.23756987,0.17307355,0.6148536,0.7318204,-1.0,0
1763544946733,1009.8378,-1.1659029,4.8825545,11.776875,-0.037110034,0.12049308,0.004123337,75.543755,-21.5625,22.650002,46.950733,0.3361091,49.741684,0.22223245,0.19076324,0.667311,0.684776,0.23531368,0.17437132,0.6165979,0.730773,-1.0,0
1763544946758,1009.8327,-0.84107715,4.996214,9.625728,0.16630794,0.10873393,0.19058982,77.287506,-20.362501,20.081251,46.950733,0.3361091,49.741684,0.22369505,0.19104314,0.66829556,0.6832599,0.2367636,0.17458512,0.6178094,0.7292288,-1.0,0
1763544946784,1009.811,-0.1160519,4.7288156,7.0325055,0.0009162972,-0.21181737,0.12186752,79.0875,-21.54375,20.737501,46.950733,0.3361091,49.741684,0.22541496,0.18970197,0.6686457,0.68272555,0.23837541,0.17313556,0.61823034,0.72869235,-1.0,0
1763544946809,1009.811,-0.20518455,4.3274198,7.02772,-0.12660173,-0.11575887,0.15515965,79.0875,-21.54375,20.737501,46.950733,0.3361091,49.741684,0.22588296,0.18776205,0.66939104,0.68237674,0.23785019,0.17013693,0.62068313,0.7274841,-1.0,0
1763544946835,1009.7807,0.66341007,4.2556353,6.0436716,-0.09224058,0.11148282,0.19761476,78.037506,-21.675001,21.618752,46.950733,0.3361091,49.741684,0.22395054,0.18641074,0.672836,0.67999184,0.23667404,0.16996528,0.6226298,0.72624326,-1.0,0
1763544946860,1009.7807,0.7328019,4.273581,5.985048,-0.09117157,-0.007788526,0.11377356,79.256256,-20.681252,22.050001,46.950733,0.3361091,49.741684,0.22355124,0.1856101,0.6739369,0.67925155,0.23622014,0.16919315,0.6237746,0.7255887,-1.0,0
1763544946886,1009.75385,0.34576288,4.185645,5.933004,-0.08231403,0.08277218,0.03573559,79.9875,-18.6,20.775002,46.950733,0.3361091,49.741684,0.22083458,0.18632658,0.6753408,0.6785494,0.23356962,0.17009036,0.6251902,0.72501844,-1.0,0
1763544946910,1009.7338,-0.465404,4.2161536,5.6739807,-0.07513637,0.31566438,0.029474225,77.943756,-22.050001,21.956251,46.950733,0.3361091,49.741684,0.21823454,0.18851393,0.67677826,0.67735326,0.23114187,0.1724449,0.6266693,0.72396255,-1.0,0
1763544946936,1009.7338,-0.6442675,4.701298,6.0801625,0.118507765,0.09544762,0.20723587,79.9875,-20.081251,20.25,46.950733,0.3361091,49.741684,0.217792,0.19013676,0.6782017,0.6756161,0.23082903,0.1740785,0.6281609,0.722377,-1.0,0
1763544946961,1009.72235,-0.18065812,5.255835,6.3182483,0.18157956,-0.21945317,0.19746204,80.3625,-20.306252,21.300001,46.950733,0.3361091,49.741684,0.22031009,0.19008103,0.67879236,0.67422074,0.23335034,0.17382447,0.628793,0.72107697,-1.0,0
1763544946986,1009.72577,-0.0951147,5.688338,7.0414786,0.14019346,-0.18264857,0.1640172,80.662506,-20.268751,20.79375,46.950733,0.3361091,49.741684,0.22447385,0.1898789,0.6797201,0.6719658,0.23752794,0.17327143,0.62971824,0.71903574,-1.0,0
1763544947012,1009.72577,0.6903293,6.4067826,7.844869,0.042760536,-0.13194679,0.10461059,82.36875,-20.7,19.25625,46.950733,0.3361091,49.741684,0.22573677,0.18978171,0.6801815,0.67110276,0.2387997,0.17305745,0.630161,0.71827775,-1.0,0
1763544947038,1009.7421,1.1647065,6.541379,9.182457,-0.10399973,-0.28725916,-0.066126116,81.80625,-19.143751,19.3875,46.950733,0.3361091,49.741684,0.22717956,0.18780465,0.6794836,0.67187864,0.24011761,0.1709522,0.62932074,0.7190788,-1.0,0
1763544947064,1009.7756,0.8602197,6.422934,10.682756,-0.17730351,-0.103236146,-0.13897173,80.86875,-20.85,19.10625,46.950733,0.3361091,49.741684,0.22532576,0.18585993,0.6782882,0.6742473,0.23812725,0.16914798,0.6279634,0.7213503,-1.0,0
1763544947089,1009.7756,-0.036490545,7.7473617,10.758729,0.012675445,0.09040799,-0.016951498,83.043755,-21.0,18.581251,46.950733,0.3361091,49.741684,0.2241054,0.18669662,0.6783878,0.67432266,0.23695889,0.17008623,0.62810576,0.72139055,-1.0,0
1763544947114,1009.8027,0.7537391,8.005188,10.21137,0.062002774,-0.27351472,0.01282816,84.168755,-19.875,17.175001,46.950733,0.3361091,49.741684,0.22555347,0.18618903,0.67797977,0.6743907,0.23837498,0.16946411,0.6276584,0.72145975,-1.0,0
1763544947140,1009.8027,1.4542379,7.5475607,10.639686,-0.040317077,-0.5878046,-0.077121675,85.200005,-19.78125,18.13125,46.950733,0.3361091,49.741684,0.2316616,0.17922108,0.67433596,0.67785233,0.24166156,0.16588397,0.62591124,0.72271526,-1.0,0
1763544947165,1009.83246,1.1724831,5.5800624,10.254441,-0.20295982,0.091782436,-0.2556469,84.168755,-20.625,17.0625,46.950733,0.3361091,49.741684,0.2303915,0.17813428,0.6729563,0.67993945,0.2426358,0.16105884,0.62217945,0.72669154,-1.0,0
1763544947190,1009.83344,0.6269195,5.0823555,9.826126,-0.28939718,0.28878632,-0.20280711,83.45625,-20.56875,16.96875,46.950733,0.3361091,49.741684,0.22618908,0.17845315,0.67274964,0.6814697,0.23844492,0.16171281,0.62196356,0.728117,-1.0,0
1763544947215,1009.83344,0.4977071,4.523033,9.688539,-0.16859868,0.009468404,-0.15592323,85.33125,-19.143751,17.775002,46.950733,0.3361091,49.741684,0.2249493,0.17555422,0.67092806,0.68442243,0.23580852,0.16138111,0.6215365,0.7294127,-1.0,0
1763544947240,1009.8078,0.49232325,4.252644,8.435298,-0.031154104,-0.43325585,-0.11759147,85.59375,-18.73125,16.03125,46.950733,0.3361091,49.741684,0.22767022,0.17107289,0.66939926,0.6861523,0.23695107,0.15898325,0.62015814,0.730741,-1.0,0
1763544947266,1009.7885,1.6301104,3.8709888,8.878569,-0.27427828,-0.205556,-0.108581215,84.05625,-19.7625,17.025002,46.950733,0.3361091,49.741684,0.22771023,0.1673387,0.66857076,0.68786544,0.2390754,0.15065572,0.61775887,0.7338391,-1.0,0
1763544947290,1009.7885,1.3334004,3.9302113,8.812766,-0.21578798,0.16416991,-0.14844014,86.100006,-20.550001,16.6875,46.950733,0.3361091,49.741684,0.22514106,0.16629066,0.66838187,0.6891477,0.23640876,0.14983983,0.61762214,0.7349843,-1.0,0
1763544947316,1009.7631,1.1078769,4.033701,7.914261,-0.07742711,0.20723587,-0.18234314,86.625,-18.6375,16.6875,46.950733,0.3361091,49.741684,0.2215835,0.16845836,0.666888,0.69121844,0.23296352,0.15233341,0.6162316,0.73673683,-1.0,0
1763544947341,1009.7631,0.47856453,3.976273,6.302695,0.32253662,0.16523892,-0.2244928,86.100006,-20.550001,16.3875,46.950733,0.3361091,49.741684,0.22205785,0.17151293,0.66530997,0.6918354,0.23363596,0.15537243,0.61469513,0.73717266,-1.0,0
1763544947366,1009.72845,0.1274178,4.341777,4.415356,0.32833982,0.23472479,-0.2376264,87.1125,-21.206251,17.868752,46.950733,0.3361091,49.741684,0.22211036,0.17928673,0.6621706,0.6928589,0.23424986,0.16310656,0.6114392,0.73801446,-1.0,0
1763544947391,1009.69476,0.1698904,4.8239303,4.4602213,0.16478078,0.23060146,-0.23900084,87.20625,-19.44375,16.368752,46.950733,0.3361091,49.741684,0.2218568,0.18180288,0.66053927,0.6938408,0.23420927,0.16558607,0.6095903,0.739004,-1.0,0
1763544947417,1009.69476,0.6269195,5.1415777,5.924031,0.20051636,-0.11056653,-0.27000225,88.03125,-21.956251,15.01875,46.950733,0.3361091,49.741684,0.22324304,0.18331946,0.6582603,0.6951618,0.23572598,0.1669633,0.6071066,0.74025536,-1.0,0
1763544947443,1009.6901,-0.05742774,5.3790655,5.7984076,0.1876882,-0.21013749,-0.2490801,87.787506,-23.118752,16.518751,46.950733,0.3361091,49.741684,0.2274023,0.18373494,0.65408117,0.69764423,0.23994808,0.16701877,0.60256684,0.742592,-1.0,0
1763544947469,1009.6967,-0.3924229,5.796015,6.8345,0.058490302,-0.1763872,-0.07895427,88.0875,-22.331251,16.275002,46.950733,0.3361091,49.741684,0.22920264,0.18315306,0.65382016,0.6974527,0.2417299,0.16626956,0.60219663,0.74248254,-1.0,0
1763544947494,1009.6967,1.5559329,6.573084,8.974879,0.34681848,-0.3347539,0.024281874,86.83125,-22.837502,15.825001,46.950733,0.3361091,49.741684,0.2332035,0.1829241,0.65296674,0.69698584,0.24571276,0.16574179,0.6013401,0.74198717,-1.0,0
1763544947520,1009.7094,1.2987045,6.8219376,7.6067834,0.32467464,-0.37995788,-0.07956514,86.83125,-22.837502,15.50625,46.950733,0.3361091,49.741684,0.23819144,0.18272147,0.6510728,0.697124,0.25067145,0.16518508,0.5994495,0.74198246,-1.0,0
1763544947545,1009.72943,1.5804594,6.8925257,8.145168,-0.056046844,-0.21135922,-0.16722423,88.18125,-24.056252,15.900001,46.950733,0.3361091,49.741684,0.23788005,0.18078871,0.6482097,0.70039475,0.25026026,0.16322155,0.5961865,0.7451779,-1.0,0
1763544947570,1009.72943,-1.4530416,6.926025,10.818549,-0.2509127,0.54183704,-0.1763872,86.49375,-23.625,17.60625,46.950733,0.3361091,49.741684,0.23266019,0.18262832,0.6482442,0.7016378,0.24518849,0.16542815,0.596121,0.7464287,-1.0,0
1763544947595,1009.75433,-1.9435701,7.5296144,9.512068,-0.13683371,0.42562005,0.06856957,88.3125,-21.9375,16.6875,46.950733,0.3361091,49.741684,0.22815853,0.18534458,0.6497311,0.7010282,0.24089177,0.1684639,0.5976568,0.74592054,-1.0,0
1763544947621,1009.75433,-1.2299109,7.565507,9.5252285,-0.19837834,-0.17776164,0.108123064,87.20625,-26.025002,15.95625,46.950733,0.3361091,49.741684,0.22812086,0.17975222,0.6503026,0.70196617,0.24051201,0.16280039,0.597885,0.7471168,-1.0,0
1763544947647,1009.78094,-0.5587241,5.797211,11.902498,-0.3420843,-0.24816382,0.016798781,85.950005,-26.306252,17.8125,46.950733,0.3361091,49.741684,0.22766681,0.17552406,0.65020305,0.7032746,0.23976147,0.15860425,0.5976542,0.7484441,-1.0,0
1763544947672,1009.8039,-0.4456632,5.1026945,11.911471,-0.21410811,0.045662142,0.06108648,86.83125,-25.575,16.9125,46.950733,0.3361091,49.741684,0.2256184,0.17373966,0.6509652,0.70367265,0.23756999,0.15700202,0.5984783,0.74882215,-1.0,0
1763544947697,1009.8039,-0.18125631,4.8472605,10.606785,-0.03497201,0.02611447,0.06185006,87.1875,-25.06875,19.3125,46.950733,0.3361091,49.741684,0.22491765,0.17271739,0.6518116,0.703365,0.23613197,0.15683113,0.5994931,0.748501,-1.0,0
1763544947722,1009.8005,-0.465404,4.5822554,8.876774,0.065667965,-0.1472184,0.045051277,87.506256,-27.2625,18.018751,46.950733,0.3361091,49.741684,0.22636695,0.17157789,0.65190995,0.70308775,0.23807497,0.15492344,0.5998763,0.7479756,-1.0,0
1763544947747,1009.778,-0.27816564,4.3561335,6.7316084,0.0030543238,-0.12247839,0.24220788,85.65,-27.712502,19.0125,46.950733,0.3361091,49.741684,0.22746491,0.17033318,0.65297747,0.7020446,0.239078,0.1536079,0.6010302,0.74700004,-1.0,0
1763544947772,1009.778,0.37806597,4.3818564,6.3601227,0.012064579,-0.07284562,0.29290965,86.83125,-28.44375,18.150002,46.950733,0.3361091,49.741684,0.22906975,0.16854286,0.65637475,0.6987793,0.23983991,0.15256147,0.60289323,0.74546736,-1.0,0
1763544947797,1009.7487,0.6436693,4.165306,5.669195,-0.0108428495,-0.031306818,0.24785839,84.99375,-30.2625,18.6,46.950733,0.3361091,49.741684,0.22889428,0.16793445,0.65786076,0.69758487,0.24055803,0.15169536,0.6046157,0.7440163,-1.0,0
1763544947822,1009.7387,0.031106694,3.8273199,6.791429,0.01924224,0.06887501,0.23426664,87.01875,-31.275002,15.825001,46.950733,0.3361091,49.741684,0.22868292,0.16785501,0.65945077,0.6961706,0.24013276,0.15102132,0.6078223,0.74167436,-1.0,0
1763544947847,1009.7387,1.0067801,3.9780676,7.1946197,0.26282457,-0.033444848,0.3006982,85.387505,-31.968752,18.35625,46.950733,0.3361091,49.741684,0.23027183,0.16845065,0.6611642,0.693874,0.2417554,0.15150931,0.60972,0.7394868,-1.0,0
1763544947872,1009.7211,0.98943216,4.3465624,6.227919,0.50213087,-0.1744019,0.19669846,84.225006,-32.362503,21.73125,46.950733,0.3361091,49.741684,0.23887037,0.17151734,0.6613054,0.6900709,0.25053218,0.1539834,0.6102266,0.73562646,-1.0,0
1763544947898,1009.7211,-0.82013994,5.4107704,5.256433,-0.045509428,0.33780822,0.023365578,85.575005,-32.2125,21.581251,46.950733,0.3361091,49.741684,0.2380544,0.17367063,0.6618027,0.6893372,0.24989524,0.156153,0.61066765,0.7350195,-1.0,0
1763544947923,1009.716,-1.2562319,5.645267,8.033902,-0.22510368,0.51358455,0.13408482,84.9375,-35.381252,20.75625,46.950733,0.3361091,49.741684,0.23350899,0.17588976,0.66385424,0.6883559,0.2455606,0.15863055,0.61259943,0.7343421,-1.0,0
1763544947948,1009.748,-0.52342993,5.98086,9.839287,0.055130545,0.08384119,0.25534147,84.5625,-34.425003,20.587502,46.950733,0.3361091,49.741684,0.23723601,0.17629573,0.6657786,0.68511146,0.24932449,0.15874007,0.6146725,0.73131156,-1.0,0
1763544947973,1009.748,1.0725827,6.081957,9.7908325,0.45967576,-0.5829177,0.20326525,82.856255,-35.5875,19.893751,46.950733,0.3361091,49.741684,0.24566796,0.17447618,0.663717,0.68460584,0.25759003,0.15633959,0.612715,0.7306064,-1.0,0
1763544947998,1009.76434,1.0540384,6.672386,7.725228,0.108581215,-0.2083049,0.020005822,83.512505,-35.90625,20.925001,46.950733,0.3361091,49.741684,0.24969906,0.1734017,0.6625552,0.6845457,0.26153177,0.15498032,0.611568,0.7304566,-1.0,0
1763544948023,1009.7966,1.0025927,7.456035,9.803394,-0.27382013,0.26190826,0.074830934,81.24375,-37.65,22.5,46.950733,0.3361091,49.741684,0.24460998,0.17283545,0.6649525,0.6842017,0.25644928,0.15472522,0.6138225,0.7304216,-1.0,0
1763544948048,1009.7966,1.4518452,7.7425756,11.264213,-0.22586726,0.09269873,0.03604102,78.975006,-38.006252,22.143751,46.950733,0.3361091,49.741684,0.24519074,0.17050226,0.6642652,0.68524605,0.2568617,0.1523535,0.61305404,0.73142004,-1.0,0
1763544948074,1009.83636,2.3754747,6.7836523,12.005389,-0.08933897,-0.45097092,-0.19226968,80.137505,-38.006252,22.63125,46.950733,0.3361091,49.741684,0.24742079,0.16708633,0.66215914,0.6873211,0.25883254,0.14879718,0.6108368,0.73331,-1.0,0
1763544948099,1009.83636,2.3724837,6.058627,11.956935,-0.13316852,-0.11835505,-0.19501857,80.11875,-37.3875,21.993752,46.950733,0.3361091,49.741684,0.24770132,0.16495255,0.66057676,0.6892554,0.2589365,0.14668731,0.60922855,0.7350342,-1.0,0
1763544948124,1009.8698,2.2648067,5.5675,11.162518,-0.16737695,0.2554942,-0.13500112,79.668755,-38.925003,22.425001,46.950733,0.3361091,49.741684,0.24238375,0.16561253,0.6607015,0.69086623,0.25361162,0.14784627,0.6095788,0.736367,-1.0,0
1763544948149,1009.8691,2.1637099,4.590032,9.489935,0.16814053,-0.29642212,-0.08429934,79.36875,-38.100002,23.493752,46.950733,0.3361091,49.741684,0.24385664,0.1648525,0.65977615,0.6914138,0.254991,0.14704421,0.60879415,0.73670024,-1.0,0
1763544948174,1009.8691,2.236691,4.226921,7.585248,0.32421649,-0.6849321,-0.12812889,78.28125,-37.818752,21.900002,46.950733,0.3361091,49.741684,0.24960436,0.16247387,0.65718144,0.69239616,0.26051974,0.14432447,0.6063134,0.7373493,-1.0,0
1763544948200,1009.8444,2.3150558,4.106084,5.9377894,0.10613775,-0.5050325,-0.22968516,77.793755,-38.006252,23.19375,46.950733,0.3361091,49.741684,0.25320804,0.15884565,0.65230364,0.6965298,0.26514843,0.14129001,0.6033316,0.7387316,-1.0,0
1763544948226,1009.8195,0.32303107,3.6335013,6.7022963,-0.3188714,0.5422952,-0.31291547,76.5,-40.0125,23.2875,46.950733,0.3361091,49.741684,0.24750692,0.16055304,0.651816,0.6986408,0.25825274,0.14262705,0.60071754,0.7430353,-1.0,0
1763544948252,1009.8195,-0.0029910284,3.6317065,6.334998,-0.086742796,0.46089748,-0.20402883,76.912506,-39.35625,24.6,46.950733,0.3361091,49.741684,0.24264473,0.16357294,0.6517589,0.6996983,0.25360575,0.14600241,0.600641,0.7440415,-1.0,0
1763544948277,1009.7836,0.4971089,3.9008992,5.256433,0.14920372,0.108581215,-0.13209951,76.6875,-38.8875,25.66875,46.950733,0.3361091,49.741684,0.24297161,0.1670541,0.6496243,0.7007468,0.252807,0.14842093,0.60002875,0.7443288,-1.0,0
1763544948302,1009.7836,0.7639086,4.3334017,4.4632125,0.1517999,-0.07131846,-0.17211115,74.15625,-41.1375,27.150002,46.950733,0.3361091,49.741684,0.24305415,0.16784869,0.64825445,0.70179605,0.2543264,0.15022169,0.5969477,0.74592555,-1.0,0
1763544948327,1009.74994,0.12801601,4.6582274,6.0987067,-0.024129158,0.35017824,-0.10262528,73.275,-41.11875,27.862501,46.950733,0.3361091,49.741684,0.2409542,0.17005084,0.64806074,0.7021688,0.25240576,0.15253699,0.59663945,0.7463546,-1.0,0
1763544948352,1009.73553,0.4121637,5.337191,6.0490556,0.061544627,0.29550585,-0.013439025,73.5,-39.225002,28.2,46.950733,0.3361091,49.741684,0.23998533,0.17376104,0.6481957,0.7014674,0.25064102,0.15551606,0.59716654,0.74591285,-1.0,0
1763544948377,1009.73553,0.74536425,5.8749776,6.6598234,0.14569125,-0.13561198,-0.021380268,74.418755,-40.725002,24.7875,46.950733,0.3361091,49.741684,0.24423996,0.17282106,0.646472,0.70182174,0.25172997,0.15626223,0.59669244,0.74576956,-1.0,0
1763544948402,1009.7402,0.55513483,6.0711894,7.370492,0.2686278,-0.2855793,-0.0108428495,73.575005,-39.600002,28.518751,46.950733,0.3361091,49.741684,0.2485445,0.172313,0.64488673,0.70189387,0.26020187,0.15414645,0.59318084,0.7461034,-1.0,0
1763544948427,1009.75726,0.4971089,6.2883377,7.776674,0.10506874,0.0754418,0.09193515,68.90625,-41.475002,30.956251,46.950733,0.3361091,49.741684,0.24977787,0.17330843,0.645007,0.70109993,0.26151812,0.15502608,0.59328544,0.7453775,-1.0,0
1763544948452,1009.75726,1.2927225,6.730412,9.55155,-0.02443459,0.045509428,0.1594357,69.76875,-41.737503,28.575,46.950733,0.3361091,49.741684,0.25070876,0.17261793,0.6464309,0.6996251,0.2624162,0.15423861,0.5947197,0.7440811,-1.0,0
1763544948477,1009.7817,2.0135603,7.7162547,10.375279,0.0003054324,-0.057574004,-0.16982041,69.58125,-41.25,28.575,46.950733,0.3361091,49.741684,0.25169992,0.17195709,0.64525616,0.7005158,0.26334846,0.15352418,0.5935284,0.7448503,-1.0,0
1763544948502,1009.7817,-0.58504516,7.730612,10.102497,-0.16829325,0.53038335,-0.1802051,69.1875,-40.18125,29.775002,46.950733,0.3361091,49.741684,0.24832362,0.17410238,0.64499235,0.70143324,0.26013464,0.15590455,0.59319746,0.7457483,-1.0,0
1763544948527,1009.811,-1.3226327,7.60798,9.935597,-0.27947062,0.7180715,-0.015577052,66.1875,-41.98125,30.206251,46.950733,0.3361091,49.741684,0.23789923,0.17862867,0.64834285,0.70081896,0.25010097,0.16110168,0.59639615,0.7455249,-1.0,0
1763544948554,1009.8337,-1.2065809,7.6193457,10.743773,-0.24724752,0.12110394,0.10476331,67.05,-41.287502,30.525002,46.950733,0.3361091,49.741684,0.2385615,0.17614785,0.6486701,0.70091903,0.25060353,0.15854815,0.5966213,0.7457234,-1.0,0
1763544948579,1009.8337,0.25064817,5.960521,10.65823,-0.009162972,-0.17684536,0.0042760535,66.09375,-41.625,31.10625,46.950733,0.3361091,49.741684,0.23975165,0.17452064,0.6482775,0.7012831,0.25166664,0.15685093,0.596237,0.7460316,-1.0,0
1763544948604,1009.84906,0.1692922,5.322834,9.6580305,-0.10415245,0.092087865,0.009468404,62.718754,-42.35625,31.66875,46.950733,0.3361091,49.741684,0.23580466,0.17424701,0.64941984,0.7016324,0.24767527,0.1569166,0.5975175,0.746329,-1.0,0
1763544948629,1009.8383,0.37806597,4.879564,8.807382,-0.24159703,0.22647811,-0.013286309,63.675003,-40.74375,29.00625,46.950733,0.3361091,49.741684,0.2319807,0.17385235,0.650018,0.70245063,0.24381864,0.1568189,0.5981233,0.74713373,-1.0,0
1763544948655,1009.8383,-0.68075806,4.068995,7.4063845,-0.3781253,0.24770567,-0.057115857,62.381252,-41.775,32.1375,46.950733,0.3361091,49.741684,0.22766808,0.17326012,0.65066797,0.70340556,0.23946044,0.15655841,0.5987715,0.7480781,-1.0,0
1763544948680,1009.82294,-0.8985049,3.6520455,7.201798,-0.3611738,0.28069237,0.09651663,62.250004,-42.0,28.29375,46.950733,0.3361091,49.741684,0.22318348,0.17269392,0.6522404,0.7035257,0.2349398,0.15632448,0.60036504,0.7482832,-1.0,0
1763544948705,1009.80634,-0.35832518,3.4851463,6.8572316,-0.18646647,0.205556,0.26450446,61.275,-40.36875,27.993752,46.950733,0.3361091,49.741684,0.21982813,0.17216972,0.6569343,0.7003359,0.23153722,0.15606837,0.60536253,0.74536526,-1.0,0
1763544948730,1009.80634,0.5988039,3.7459638,4.7431726,0.08277218,-0.11270455,0.24174973,60.131252,-40.74375,29.98125,46.950733,0.3361091,49.741684,0.22145358,0.17154807,0.6583495,0.6986455,0.23310664,0.15534389,0.606931,0.7437502,-1.0,0
1763544948755,1009.7778,0.7932207,3.9110687,4.825725,-0.084757484,-0.07620538,0.13942988,57.35625,-39.28125,29.737501,46.950733,0.3361091,49.741684,0.22221443,0.1703208,0.65931535,0.6977929,0.2337858,0.15405397,0.6079182,0.74299866,-1.0,0
1763544948780,1009.7778,0.8632108,3.8775692,5.95095,-0.17241658,0.018784093,0.021685699,54.43125,-40.706253,29.812502,46.950733,0.3361091,49.741684,0.22041246,0.1685877,0.66000587,0.69813234,0.23188218,0.15242746,0.60849875,0.7434553,-1.0,0
1763544948806,1009.7702,0.6233303,3.8099718,6.62094,0.020769402,-0.021991132,-0.047647454,56.943752,-39.1875,29.306252,46.950733,0.3361091,49.741684,0.22045586,0.16839872,0.65967935,0.69847274,0.23190655,0.15224406,0.60817504,0.7437501,-1.0,0
1763544948831,1009.7685,-0.40438703,5.0309095,6.7579293,-0.0027488915,0.10262528,-0.035582874,55.95,-40.425003,30.093752,46.950733,0.3361091,49.741684,0.22010438,0.16897744,0.65948534,0.69862705,0.23159178,0.15285474,0.60799736,0.74386823,-1.0,0
1763544948856,1009.7685,-0.93619186,5.6614184,7.716853,-0.07391464,0.22464553,0.07223476,55.425003,-40.21875,28.7625,46.950733,0.3361091,49.741684,0.21778074,0.17087513,0.66153795,0.69695103,0.2298972,0.15406047,0.60871834,0.7435554,-1.0,0
1763544948881,1009.7751,-0.5210371,6.126224,8.5681,0.047189303,0.026572619,0.19715661,53.906254,-40.612503,27.862501,46.950733,0.3361091,49.741684,0.22137615,0.16972038,0.66183597,0.6958166,0.23296483,0.15342683,0.61029327,0.7414376,-1.0,0
1763544948906,1009.79144,0.5407779,6.7782683,9.012567,0.16814053,-0.717308,0.12705988,53.79375,-38.1375,28.500002,46.950733,0.3361091,49.741684,0.22742501,0.16623841,0.6608565,0.69563735,0.23876363,0.14949676,0.60925543,0.74124926,-1.0,0
1763544948931,1009.79144,0.6478567,7.09771,9.725628,-0.04978548,-0.3564396,0.11423171,50.11875,-39.412502,31.743752,46.950733,0.3361091,49.741684,0.23102836,0.16284096,0.6604159,0.69567204,0.24213141,0.14582063,0.6087248,0.7413251,-1.0,0
1763544948956,1009.8359,0.22671995,7.303493,10.876575,-0.18555018,0.15683953,0.1385136,49.987503,-40.162502,30.4125,46.950733,0.3361091,49.741684,0.22854584,0.16190685,0.66320574,0.6940541,0.24072696,0.14519511,0.6099234,0.74091995,-1.0,0
1763544948982,1009.8359,1.2610176,7.236494,11.757732,0.19272783,-0.59391326,0.1631009,47.737503,-39.2625,27.656252,46.950733,0.3361091,49.741684,0.23240574,0.15968792,0.6631873,0.69330364,0.24331163,0.14252059,0.6114884,0.73930323,-1.0,0
1763544949007,1009.8813,2.137389,6.471389,11.785848,0.2667952,-0.85673785,0.022601997,51.768753,-36.84375,26.00625,46.950733,0.3361091,49.741684,0.23966993,0.15547135,0.6612196,0.69366825,0.25025034,0.13779618,0.60951376,0.73951334,-1.0,0
1763544949032,1009.915,2.3569303,5.5513487,10.682756,0.16997312,-0.44455683,-0.10506874,47.90625,-38.1375,30.825,46.950733,0.3361091,49.741684,0.2439027,0.15241235,0.65803707,0.6958945,0.25421163,0.13451576,0.6063998,0.741324,-1.0,0
1763544949057,1009.915,1.183849,4.543372,10.774282,-0.41034842,0.31520623,-0.21105379,46.425003,-37.66875,29.250002,46.950733,0.3361091,49.741684,0.2389863,0.15214668,0.65791,0.6977761,0.24927038,0.13463786,0.60624,0.74310833,-1.0,0
1763544949082,1009.9333,0.8596215,4.2311087,10.89512,-0.19501857,0.1999055,-0.12171481,46.425003,-37.03125,27.975,46.950733,0.3361091,49.741684,0.23507123,0.15209968,0.6580057,0.6990248,0.2453341,0.13492212,0.60639995,0.7442354,-1.0,0
1763544949107,1009.9172,0.51206404,4.039683,8.623733,0.114689864,0.004123337,0.016646065,46.6875,-37.237503,27.187502,46.950733,0.3361091,49.741684,0.23635566,0.15206592,0.6583445,0.6982796,0.24655093,0.13490987,0.6071323,0.74323773,-1.0,0
1763544949132,1009.9172,1.1641082,4.3208394,6.070591,0.11056653,-0.19532402,0.13087778,45.05625,-35.175003,26.925001,46.950733,0.3361091,49.741684,0.23778844,0.14920048,0.658454,0.6983081,0.2477777,0.13194828,0.60723436,0.7432781,-1.0,0
1763544949157,1009.86566,2.268994,4.56072,6.9708905,-0.46792242,-0.11804962,-0.09529491,42.862503,-34.912502,29.456251,46.950733,0.3361091,49.741684,0.2363717,0.14533356,0.65825474,0.6997909,0.24610187,0.12816902,0.60686177,0.74479884,-1.0,0
1763544949183,1009.8378,1.463211,4.2317066,8.319844,-0.37293294,0.17195843,-0.19822562,44.325,-34.5,26.343752,46.950733,0.3361091,49.741684,0.23028481,0.14462894,0.65728784,0.70286846,0.239972,0.12791428,0.605727,0.7477608,-1.0,0
1763544949208,1009.8378,0.69272214,4.2245283,7.4344997,-0.034208428,0.2196059,-0.19471315,43.10625,-33.99375,26.1375,46.950733,0.3361091,49.741684,0.23011717,0.1465752,0.6561314,0.7036003,0.2399353,0.12988171,0.6045658,0.7483729,-1.0,0
1763544949233,1009.8073,0.8781659,4.718048,5.3904314,0.16814053,-0.08964441,-0.24404047,44.850002,-32.79375,23.8875,46.950733,0.3361091,49.741684,0.23154467,0.1478029,0.6541415,0.7047271,0.24145456,0.13098983,0.6024538,0.7493936,-1.0,0
1763544949258,1009.8073,0.654437,4.7982078,5.6063833,0.07498365,0.0044287695,-0.27351472,42.487503,-34.818752,27.187502,46.950733,0.3361091,49.741684,0.23235476,0.14889741,0.65198493,0.70622694,0.24235797,0.13199161,0.6000957,0.7508169,-1.0,0
1763544949283,1009.7839,0.35413775,4.69412,5.782854,-0.024129158,0.29596397,-0.23976442,42.506252,-32.568752,26.587502,46.950733,0.3361091,49.741684,0.22746311,0.15411139,0.65036416,0.7081926,0.23788746,0.13747491,0.598132,0.75282687,-1.0,0
1763544949308,1009.7631,0.6735796,5.186443,7.257431,-0.09269873,0.23564109,-0.20983206,41.943752,-33.24375,25.44375,46.950733,0.3361091,49.741684,0.22474532,0.15605344,0.64973027,0.7092161,0.23533387,0.13957474,0.5973262,0.7538821,-1.0,0
1763544949334,1009.7631,0.33379877,5.200202,7.8346996,0.006261364,0.07910699,-0.18524474,42.3375,-32.7,26.156252,46.950733,0.3361091,49.741684,0.2238461,0.15719981,0.6485587,0.71031874,0.23453176,0.14076117,0.5960102,0.7549523,-1.0,0
1763544949359,1009.7729,0.07597212,5.421538,8.560922,0.0697913,0.032986697,-0.0772744,43.893753,-33.2625,22.931252,46.950733,0.3361091,49.741684,0.2250024,0.15916497,0.647657,0.71033853,0.23456578,0.14165933,0.5951516,0.7554509,-1.0,0
1763544949385,1009.78925,0.30029923,5.94437,9.0341015,0.19883649,-0.042302385,0.054061532,41.193752,-30.45,25.050001,46.950733,0.3361091,49.741684,0.22773667,0.1592145,0.6475052,0.70959413,0.23857436,0.14246239,0.5949177,0.7542279,-1.0,0
1763544949410,1009.78925,1.6689938,6.6089764,10.090533,0.08949169,-0.22464553,-0.0140498895,40.66875,-30.88125,25.44375,46.950733,0.3361091,49.741684,0.23033625,0.15822122,0.64688694,0.709541,0.24110532,0.14126916,0.5942551,0.7541698,-1.0,0
1763544949435,1009.81854,0.51146585,6.674779,10.7431755,-0.044134982,0.13668099,-0.13698642,40.162502,-31.29375,24.6,46.950733,0.3361091,49.741684,0.22639374,0.1607258,0.64673537,0.7103847,0.2408721,0.14157712,0.5934301,0.7548359,-1.0,0
1763544949460,1009.81854,-0.8285148,6.876972,10.76471,-0.16340633,0.4715876,-0.041538805,40.96875,-29.7,21.7875,46.950733,0.3361091,49.741684,0.22224754,0.16240562,0.6482633,0.70991915,0.2373536,0.1440492,0.5940392,0.75500363,-1.0,0
1763544949485,1009.84296,-0.27996024,6.527022,10.977672,-0.23976442,-0.03619374,0.037415467,41.25,-28.931252,22.650002,46.950733,0.3361091,49.741684,0.22031525,0.16141984,0.6489856,0.7100863,0.23136103,0.14514561,0.5961992,0.7549512,-1.0,0
1763544949510,1009.87274,-0.2548356,5.7577295,11.01177,-0.32788166,-0.01924224,-0.021838415,38.925003,-28.800001,22.893751,46.950733,0.3361091,49.741684,0.21844137,0.15935658,0.6491925,0.7109416,0.22934933,0.14321327,0.59631336,0.7558434,-1.0,0
1763544949535,1009.87274,-0.6257231,4.9202414,11.269596,-0.4169152,0.15363249,0.003817905,38.5125,-28.706251,22.3125,46.950733,0.3361091,49.741684,0.21075064,0.15656623,0.651305,0.71195006,0.22543338,0.14190477,0.5970514,0.7566852,-1.0,0
1763544949560,1009.88617,-0.38524446,4.2047877,10.351949,-0.118202336,0.10155627,0.114079,40.2,-27.88125,18.993752,46.950733,0.3361091,49.741684,0.2086052,0.15595786,0.6525361,0.71158814,0.22145733,0.14101586,0.5984569,0.75691515,-1.0,0
1763544949586,1009.8776,-0.22253251,4.3058844,8.705687,-0.044898562,0.08811724,0.1594357,38.550003,-25.725,21.975,46.950733,0.3361091,49.741684,0.20736507,0.15593068,0.65391034,0.71069443,0.2179795,0.14071101,0.601443,0.75561345,-1.0,0
1763544949610,1009.8776,-0.12981063,4.2047877,7.85444,-0.019394957,-0.053908817,0.17195843,38.925003,-24.675001,20.643751,46.950733,0.3361091,49.741684,0.20848368,0.15414822,0.6561561,0.7086833,0.21895482,0.13887371,0.60389733,0.7537114,-1.0,0
1763544949635,1009.8493,-0.0077766734,3.9678981,7.288538,0.045509428,-0.1472184,0.21930045,37.800003,-25.893751,20.0625,46.950733,0.3361091,49.741684,0.209047,0.1542287,0.65766406,0.7071003,0.2195208,0.13891639,0.6055235,0.7522328,-1.0,0
1763544949660,1009.8493,0.64606214,3.7052858,5.191827,-0.10109812,0.35139996,0.16142102,39.506252,-23.362501,18.806252,46.950733,0.3361091,49.741684,0.20686488,0.15565763,0.65964544,0.7055817,0.21745086,0.1404902,0.6075833,0.7508796,-1.0,0
1763544949685,1009.80927,0.317049,3.62393,6.0807605,-0.12370012,0.26053384,0.07987057,36.956253,-22.875,19.96875,46.950733,0.3361091,49.741684,0.2036786,0.1572021,0.6616626,0.7042763,0.21439876,0.14223447,0.6096055,0.74978906,-1.0,0
1763544949710,1009.7824,0.05742774,3.6251264,6.829714,0.026572619,0.052687086,0.050854493,37.893753,-22.650002,19.40625,46.950733,0.3361091,49.741684,0.20464626,0.15798067,0.66189337,0.70360434,0.21541682,0.14294608,0.60989845,0.7491234,-1.0,0
1763544949735,1009.7824,-0.44147578,3.9948175,5.9138613,0.14676027,0.17944153,0.09498947,38.4,-22.987501,19.837502,46.950733,0.3361091,49.741684,0.20487891,0.15982203,0.66253364,0.7025174,0.21577981,0.14476715,0.6106183,0.7480821,-1.0,0
1763544949760,1009.7646,-0.6436693,4.592425,6.1794643,0.08872811,0.2112065,0.11178826,39.45,-22.125,19.368752,46.950733,0.3361091,49.741684,0.20425044,0.16194656,0.66350114,0.70129967,0.21531421,0.14691736,0.61162263,0.7469758,-1.0,0
1763544949786,1009.7629,-0.78364944,4.983053,7.075577,0.07574723,0.10598504,0.13561198,39.600002,-21.69375,15.3,46.950733,0.3361091,49.741684,0.2053966,0.16404521,0.6653625,0.69870895,0.21664692,0.14887142,0.6134678,0.74468696,-1.0,0
1763544949812,1009.7629,-0.046660043,5.6745787,8.837891,0.28206682,-0.23869541,0.29260424,38.456253,-20.71875,17.53125,46.950733,0.3361091,49.741684,0.20871986,0.1640957,0.6663971,0.6967234,0.21997859,0.14866337,0.61457574,0.742836,-1.0,0
1763544949837,1009.77826,0.79740816,6.0574307,8.882157,0.286801,-0.32696536,0.24449863,36.300003,-21.9375,17.98125,46.950733,0.3361091,49.741684,0.21315908,0.16361593,0.6669909,0.69492173,0.22438093,0.14785182,0.6152519,0.7411195,-1.0,0
1763544949863,1009.80585,1.5523437,6.390631,9.723235,0.077579826,-0.19211698,0.10354158,36.300003,-19.59375,20.325,46.950733,0.3361091,49.741684,0.21537179,0.1629599,0.66720486,0.69418776,0.22655773,0.14701203,0.61543244,0.74047416,-1.0,0
1763544949888,1009.80585,1.1144571,6.4402823,10.613365,-0.053603385,0.17852524,-0.07101303,37.74375,-19.050001,18.28125,46.950733,0.3361091,49.741684,0.21300794,0.16416,0.66713625,0.6947002,0.22428559,0.1483808,0.6153316,0.74097645,-1.0,0
1763544949913,1009.82904,0.6652047,6.134001,11.322239,-0.18341215,0.013286309,-0.12278382,38.8125,-19.6875,17.587502,46.950733,0.3361091,49.741684,0.21126203,0.16383107,0.6667288,0.6957014,0.2225226,0.14817542,0.6148426,0.7419544,-1.0,0
1763544949938,1009.82904,0.971486,5.608178,12.323036,-0.2535089,-0.09529491,-0.1545488,37.78125,-19.03125,16.893751,46.950733,0.3361091,49.741684,0.2080717,0.1606313,0.6653165,0.69875443,0.22100165,0.14635341,0.6139973,0.7434691,-1.0,0
1763544949963,1009.861,0.7280163,5.1361938,13.311273,-0.17424917,0.05222894,-0.13927718,37.8375,-18.0375,16.2,46.950733,0.3361091,49.741684,0.20609592,0.16207254,0.6655473,0.6987873,0.21717599,0.1468933,0.6137826,0.7446663,-1.0,0
1763544949988,1009.8803,0.22791636,5.00399,11.082956,0.30558512,0.4083631,0.13454297,40.0125,-18.300001,15.075001,46.950733,0.3361091,49.741684,0.20490868,0.16591707,0.666741,0.69709426,0.21621817,0.1508832,0.61533576,0.7428633,-1.0,0
1763544950013,1009.8803,0.55453664,5.160122,8.931808,0.3901899,0.24785839,0.22479823,40.875,-17.587502,15.712501,46.950733,0.3361091,49.741684,0.20549394,0.16982317,0.6682829,0.6945001,0.21704826,0.15478282,0.6172128,0.7402572,-1.0,0
1763544950038,1009.86395,0.74416786,5.032106,7.4249287,0.30711228,-0.12034036,0.18692462,39.131252,-16.78125,15.993751,46.950733,0.3361091,49.741684,0.2112336,0.17013797,0.6692244,0.6917891,0.21986753,0.15616956,0.61816424,0.7383375,-1.0,0
1763544950063,1009.86395,1.1670992,4.706084,7.938189,-0.109039366,-0.052076224,0.06780599,38.756252,-17.41875,13.14375,46.950733,0.3361091,49.741684,0.2117405,0.16860296,0.6696902,0.69155914,0.22319245,0.15312128,0.6188247,0.73742455,-1.0,0
1763544950088,1009.8427,0.9882358,4.88076,7.8963146,-0.09483676,0.14950916,0.011606431,40.55625,-16.368752,13.668751,46.950733,0.3361091,49.741684,0.21040465,0.16842408,0.6703089,0.691411,0.22184353,0.15304329,0.6194704,0.73730564,-1.0,0
1763544950113,1009.81244,0.95712906,4.928018,6.8781686,0.046883874,0.2762636,-0.05497783,40.3125,-14.64375,13.89375,46.950733,0.3361091,49.741684,0.2076849,0.1729539,0.6701954,0.691225,0.22044612,0.15483958,0.619763,0.7371038,-1.0,0
1763544950138,1009.81244,0.7890333,5.0620165,5.1182475,0.10491603,0.2623664,-0.14309508,40.068752,-15.806251,14.75625,46.950733,0.3361091,49.741684,0.20780629,0.17444421,0.6688193,0.6921463,0.21945629,0.15774985,0.61935335,0.7371264,-1.0,0
1763544950163,1009.7675,0.65024954,4.4482574,5.440082,0.011911863,-0.13255766,-0.21792601,38.86875,-13.8,14.306251,46.950733,0.3361091,49.741684,0.20888774,0.17430124,0.6669632,0.69364625,0.2208135,0.15892266,0.61567044,0.7395505,-1.0,0
1763544950188,1009.74457,0.7160522,4.262215,6.134001,0.031459536,0.12767074,-0.26816964,40.7625,-13.968751,13.500001,46.950733,0.3361091,49.741684,0.20713317,0.17826557,0.6637838,0.69620997,0.2193761,0.16296284,0.61218256,0.7419904,-1.0,0
1763544950213,1009.74457,0.27936205,4.359723,6.020342,0.110871956,0.25595233,-0.27091852,41.49375,-14.64375,14.08125,46.950733,0.3361091,49.741684,0.2073571,0.18078761,0.6618819,0.6973028,0.21978985,0.16544949,0.6101639,0.7429797,-1.0,0
1763544950238,1009.7282,-0.096909314,4.7898326,5.7146587,0.2800815,-0.091782436,-0.27550003,40.59375,-13.875001,15.225,46.950733,0.3361091,49.741684,0.20943254,0.18262635,0.6593347,0.69861525,0.22200005,0.16712381,0.6074928,0.7441358,-1.0,0
1763544950263,1009.7282,-1.012164,4.9531426,5.63091,0.14080434,0.028252495,-0.17699806,40.800003,-12.975,14.38125,46.950733,0.3361091,49.741684,0.2105416,0.18430108,0.6574729,0.69959605,0.22324401,0.16869135,0.6054877,0.7450436,-1.0,0
1763544950288,1009.71893,-1.198206,5.00758,7.159325,0.058795735,0.1669188,0.011911863,40.912502,-13.106251,14.83125,46.950733,0.3361091,49.741684,0.21049368,0.18798558,0.65803814,0.69809717,0.22351079,0.17230527,0.6059446,0.7437641,-1.0,0
1763544950313,1009.7192,-0.6789634,5.3563333,8.04108,0.2244928,0.055283263,0.16096286,41.79375,-13.2375,12.431251,46.950733,0.3361091,49.741684,0.2144841,0.1886802,0.65815216,0.69658595,0.22754735,0.17270164,0.6061398,0.74228764,-1.0,0
1763544950338,1009.7192,-0.09750752,5.9114685,8.646464,0.38255405,-0.59391326,0.17883067,41.68125,-13.762501,13.2375,46.950733,0.3361091,49.741684,0.22087616,0.1872926,0.6574184,0.6956553,0.23382986,0.17084607,0.6054431,0.7413325,-1.0,0
1763544950363,1009.7458,0.5180461,6.524629,8.903693,0.22403465,-0.49174616,0.2046397,41.8125,-12.4875,12.543751,46.950733,0.3361091,49.741684,0.22722334,0.18370996,0.65788794,0.6941208,0.239914,0.16679648,0.6059675,0.7398808,-1.0,0
1763544950388,1009.778,0.846461,7.515856,9.869795,-0.15714496,0.05665771,0.12217296,42.6375,-13.293751,14.3625,46.950733,0.3361091,49.741684,0.2229038,0.18378031,0.6596133,0.69386524,0.23562735,0.1671558,0.6076338,0.73981065,-1.0,0
