timestamp,pressure,acc_x,acc_y,acc_z,gyro_x,gyro_y,gyro_z,mag_x,mag_y,mag_z,mag_bias_x,mag_bias_y,mag_bias_z,game_x,game_y,game_z,game_w,rot_x,rot_y,rot_z,rot_w,rot_accuracy,step
1763545244980,1009.8166,-0.20877378,2.5866413,9.601201,-0.14454588,-0.08735366,0.03138318,101.71876,-0.6,24.581251,46.950733,0.3361091,49.741684,0.0778931,0.11136078,0.745378,0.65264314,0.09158955,0.100398764,0.6550943,0.7432246,-1.0,0
1763545245005,1009.81366,-0.061615184,2.5489542,9.783055,-0.10881029,-0.042760536,0.018707734,102.76875,-0.4875,24.0,46.950733,0.3361091,49.741684,0.07749291,0.1104109,0.7455601,0.65264416,0.091059476,0.09951831,0.6553559,0.7431776,-1.0,0
1763545245030,1009.81366,-0.078963146,2.5555346,9.757333,-0.012904518,0.0013744457,-0.022220206,101.381256,-1.63125,24.056252,46.950733,0.3361091,49.741684,0.0773572,0.10970825,0.7455932,0.65274096,0.090822585,0.09884988,0.6554656,0.74319905,-1.0,0
1763545245055,1009.8105,-0.23090738,2.6315067,9.636495,0.033063058,0.008093959,-0.027107125,99.95625,0.1875,26.250002,46.950733,0.3361091,49.741684,0.07751506,0.10945639,0.74546003,0.65291655,0.09093461,0.09859097,0.65540236,0.74327546,-1.0,0
1763545245080,1009.8105,-0.36311084,2.6374888,9.508479,0.057192214,0.0151189035,-0.02008218,103.31251,0.675,23.868752,46.950733,0.3361091,49.741684,0.077965766,0.110351585,0.745102,0.65312093,0.091486305,0.09943033,0.65509784,0.74336445,-1.0,0
1763545245105,1009.8066,-0.360718,2.6374888,9.456435,0.021456625,-0.01527162,-0.0080176005,102.05625,0.41250002,25.725,46.950733,0.3361091,49.741684,0.078208394,0.11064128,0.7449688,0.65319484,0.0917648,0.09968582,0.6549511,0.7434252,-1.0,0
1763545245130,1009.8095,-0.2434697,2.6668007,9.445069,-0.01886045,-0.008093959,-0.019165883,102.037506,0.41250002,26.343752,46.950733,0.3361091,49.741684,0.07819492,0.11069377,0.7448683,0.6533022,0.09176181,0.09973628,0.65481055,0.7435426,-1.0,0
1763545245155,1009.8095,-0.24466611,2.6662025,9.472587,-0.044516772,0.0009162972,-0.028328855,99.95625,0.20625001,25.95,46.950733,0.3361091,49.741684,0.07779757,0.11020921,0.74459773,0.65373975,0.09160369,0.0995502,0.65466297,0.74371696,-1.0,0
1763545245180,1009.8095,-0.25124636,2.664408,9.482756,-0.04925097,0.0030543238,-0.029245151,101.025,1.06875,25.1625,46.950733,0.3361091,49.741684,0.07756853,0.10996368,0.744486,0.65393555,0.09104545,0.09909399,0.65436083,0.74411225,-1.0,0
1763545245205,1009.799,-0.28055847,2.6793633,9.575478,-0.025427246,0.0059559317,-0.010919208,101.45625,-0.28125,27.35625,46.950733,0.3361091,49.741684,0.07741703,0.109807186,0.74441344,0.6540624,0.090880364,0.09895338,0.654233,0.7442635,-1.0,0
1763545245230,1009.799,-0.3397808,2.6656044,9.597013,0.003130682,0.029168794,0.0049632764,101.64375,0.50625,25.143751,46.950733,0.3361091,49.741684,0.07728722,0.10986186,0.7444122,0.65406996,0.09076409,0.0990193,0.65418994,0.7443068,-1.0,0
1763545245255,1009.79877,-0.36789647,2.6267211,9.653245,0.029550584,0.028557928,0.008933897,99.65626,0.91875005,25.781252,46.950733,0.3361091,49.741684,0.07721256,0.11067165,0.74446416,0.6538831,0.0906685,0.09947104,0.65423584,0.7442178,-1.0,0
1763545245280,1009.79877,-0.32123643,2.6368906,9.594023,0.008170316,-0.025045456,-0.0240528,99.39375,1.7625,26.081251,46.950733,0.3361091,49.741684,0.077340804,0.11074267,0.7443473,0.65398896,0.09092255,0.09989311,0.6541946,0.7441666,-1.0,0
1763545245305,1009.78876,-0.22013968,2.690131,9.49472,-0.026954409,-0.00076358096,-0.042378742,100.21876,0.95625,27.88125,46.950733,0.3361091,49.741684,0.07732239,0.110622436,0.74411315,0.6542779,0.090884864,0.09977983,0.65395486,0.74439704,-1.0,0
1763545245330,1009.79144,-0.24047868,2.708077,9.580264,-0.05093085,0.016798781,-0.033979353,100.575005,0.39375,26.025002,46.950733,0.3361091,49.741684,0.07680958,0.11029018,0.7437956,0.6547554,0.09064944,0.09961902,0.6537019,0.74466944,-1.0,0
1763545245355,1009.79144,-0.23449662,2.6428726,9.642477,-0.04176788,0.014660755,-0.02328922,100.78126,0.65625,25.837502,46.950733,0.3361091,49.741684,0.07671421,0.11015186,0.74368477,0.65491563,0.09033526,0.09951471,0.6535664,0.74484044,-1.0,0
1763545245380,1009.7917,-0.29671,2.565704,9.687941,0.009086614,-0.0044287695,-0.019013166,101.418755,0.95625,26.831251,46.950733,0.3361091,49.741684,0.07678546,0.11002611,0.74355525,0.6550754,0.09028073,0.09925292,0.65326244,0.7451486,-1.0,0
1763545245406,1009.78827,-0.27876383,2.5543382,9.552746,0.033979353,0.0033597562,-0.019471316,100.068756,0.09375,26.1,46.950733,0.3361091,49.741684,0.0769244,0.11025909,0.7432828,0.65532917,0.09043308,0.099480085,0.65307456,0.74526453,-1.0,0
1763545245431,1009.78827,-0.2847459,2.5956144,9.425926,0.040240716,0.009010255,-0.022983788,100.40626,1.10625,28.0125,46.950733,0.3361091,49.741684,0.07699479,0.11050308,0.74310285,0.65548384,0.09052778,0.09971885,0.65292424,0.7453528,-1.0,0
1763545245456,1009.78436,-0.3056831,2.5998018,9.419347,7.63581e-05,0.0027488915,-0.029092435,100.87501,1.1625,26.1,46.950733,0.3361091,49.741684,0.07703561,0.11067695,0.74291486,0.6556628,0.0905887,0.099887736,0.6527288,0.74549395,-1.0,0
1763545245481,1009.78436,-0.32841492,2.6069803,9.404989,-0.03886627,-0.00320704,-0.028328855,101.025,1.8000001,24.975,46.950733,0.3361091,49.741684,0.076901,0.11056626,0.7427474,0.65588695,0.09044058,0.099795595,0.6525371,0.7456921,-1.0,0
1763545245507,1009.78534,-0.28175488,2.5806592,9.47139,-0.07994693,0.006872229,-0.028023422,101.100006,2.30625,26.325,46.950733,0.3361091,49.741684,0.07579596,0.10966118,0.74255615,0.6563839,0.08923246,0.099036194,0.65225494,0.74618554,-1.0,0
1763545245532,1009.79877,-0.2847459,2.6129622,9.632308,-0.08895718,0.02611447,-0.038560838,100.33125,0.61875004,25.893751,46.950733,0.3361091,49.741684,0.07579596,0.10966118,0.74255615,0.6563839,0.08923246,0.099036194,0.65225494,0.74618554,-1.0,0
1763545245557,1009.79877,-0.38165522,2.5734808,9.719048,-0.06589704,0.011911863,-0.026038112,100.93125,1.4250001,25.781252,46.950733,0.3361091,49.741684,0.074448526,0.108697444,0.74233156,0.65695214,0.08776902,0.09825637,0.6519863,0.7466968,-1.0,0
1763545245583,1009.8183,-0.34576288,2.5627131,9.730413,-0.025427246,-0.01924224,-0.011377357,100.481255,1.3687501,26.437502,46.950733,0.3361091,49.741684,0.074225746,0.10814415,0.7421589,0.6572637,0.08747988,0.097733766,0.6517542,0.7470019,-1.0,0
1763545245608,1009.84,-0.34037903,2.5226333,9.652647,0.068340495,-0.07651082,-0.013515383,100.162506,1.3312501,26.94375,46.950733,0.3361091,49.741684,0.074995235,0.10801918,0.7419597,0.65742177,0.08822922,0.09750913,0.65151936,0.747148,-1.0,0
1763545245634,1009.84,-0.3475575,2.492723,9.592228,0.075670876,-0.04459313,-0.0049632764,100.36875,0.8625,26.493752,46.950733,0.3361091,49.741684,0.07579543,0.10811013,0.741772,0.65752685,0.08902849,0.09750217,0.6513655,0.7471882,-1.0,0
1763545245659,1009.8576,-0.34576288,2.5208387,9.440284,0.050472703,-0.02535089,0.0026725335,99.95625,0.93750006,26.062502,46.950733,0.3361091,49.741684,0.07641914,0.10838122,0.74163175,0.6575683,0.08966907,0.09770278,0.6513185,0.7471264,-1.0,0
1763545245684,1009.8671,-0.33320054,2.5022943,9.343374,-0.0561232,-0.027641632,-0.01886045,100.31251,0.6,27.281252,46.950733,0.3361091,49.741684,0.076355696,0.10801341,0.7415361,0.657744,0.08955998,0.09734526,0.65119404,0.74729466,-1.0,0
1763545245709,1009.8671,-0.29012975,2.5058835,9.226724,-0.12530364,0.028405212,-0.02008218,100.012505,1.2,26.343752,46.950733,0.3361091,49.741684,0.07575789,0.10741662,0.74147904,0.6579752,0.08888998,0.09683058,0.6511131,0.747512,-1.0,0
1763545245734,1009.8649,-0.34037903,2.477768,9.186645,-0.23006694,0.06933315,-0.005726857,100.162506,1.3312501,27.562502,46.950733,0.3361091,49.741684,0.07207357,0.10526471,0.7418929,0.65827024,0.08731375,0.096247904,0.6512039,0.7476939,-1.0,0
1763545245760,1009.8649,-0.31585258,2.4867408,9.526425,-0.31665704,0.051159926,-0.0043524117,100.87501,1.8937501,27.000002,46.950733,0.3361091,49.741684,0.06981931,0.103384204,0.7421568,0.6585136,0.082505055,0.09357321,0.6515473,0.7482801,-1.0,0
1763545245785,1009.8669,-0.41934216,2.3868406,9.984053,-0.23846634,0.034819294,-0.013973532,99.918755,0.69375,25.7625,46.950733,0.3361091,49.741684,0.06784997,0.101765,0.74233365,0.65877235,0.08035332,0.092212126,0.6516159,0.7486234,-1.0,0
1763545245811,1009.88104,-0.2853441,2.3282163,10.371092,-0.107435845,0.010690134,0.0034361144,101.512505,3.6937501,28.218752,46.950733,0.3361091,49.741684,0.06587189,0.10020933,0.7425436,0.65897495,0.07876331,0.0912893,0.6517455,0.74879265,-1.0,0
1763545245835,1009.88104,-0.2416751,2.4059832,10.22154,0.04940369,-0.029932374,-0.008933897,101.26875,2.4375,27.225,46.950733,0.3361091,49.741684,0.0668794,0.10037722,0.74229854,0.6591239,0.07818215,0.09093166,0.65187836,0.7487814,-1.0,0
1763545245861,1009.8852,-0.25902304,2.475375,10.277771,0.33589926,-0.06536253,-0.037644543,101.006256,1.0500001,25.63125,46.950733,0.3361091,49.741684,0.069047704,0.101442836,0.74181104,0.6592862,0.08146439,0.09177029,0.65132046,0.74881464,-1.0,0
1763545245886,1009.88007,-0.24227329,2.5956144,10.022338,0.450131,-0.045967575,-0.042226028,98.793755,2.4375,26.250002,46.950733,0.3361091,49.741684,0.071833916,0.10375868,0.7411419,0.6593806,0.0845132,0.09372028,0.65073186,0.748747,-1.0,0
1763545245913,1009.88007,-0.47736812,2.7559335,9.02154,0.46677706,-0.015882485,-0.0240528,102.037506,1.8937501,26.718752,46.950733,0.3361091,49.741684,0.07771956,0.10998091,0.73991454,0.65908295,0.088116944,0.09630716,0.65007997,0.74856955,-1.0,0
1763545245937,1009.8393,-0.6562316,2.958127,8.542975,0.08132137,0.14920372,0.043142326,100.293755,1.21875,27.093752,46.950733,0.3361091,49.741684,0.0784163,0.11273297,0.73984647,0.65861166,0.09220368,0.10176601,0.64943933,0.7479109,-1.0,0
1763545245962,1009.7885,-0.4851448,2.8863423,8.491529,-0.24274239,0.10873393,0.067118764,100.256256,0.975,25.725,46.950733,0.3361091,49.741684,0.07713456,0.11407164,0.7402702,0.6580562,0.0911493,0.10321764,0.64960164,0.7477003,-1.0,0
1763545245988,1009.7885,-0.19920248,3.0053852,9.51147,-0.52114403,-0.03084867,0.0184023,98.90626,1.575,26.60625,46.950733,0.3361091,49.741684,0.07172988,0.107594065,0.7415537,0.65831333,0.08499524,0.09745494,0.65055,0.74837357,-1.0,0
1763545246013,1009.7011,-0.86560357,2.8378878,10.473983,-0.5779544,0.0048869182,-0.0014508038,101.043755,2.04375,26.812502,46.950733,0.3361091,49.741684,0.06964532,0.10439939,0.7422671,0.65824765,0.0825519,0.09452453,0.65098506,0.7486446,-1.0,0
1763545246038,1009.7011,-0.21894327,2.224727,10.4016,-0.08620829,-0.054061532,0.057344932,100.31251,1.9687501,26.118752,46.950733,0.3361091,49.741684,0.06964532,0.10439939,0.7422671,0.65824765,0.0825519,0.09452453,0.65098506,0.7486446,-1.0,0
1763545246063,1009.67865,-0.039481573,2.216352,10.112667,0.20670137,-0.07284562,0.0005345067,100.18125,2.0812502,25.968752,46.950733,0.3361091,49.741684,0.07177201,0.10460335,0.7427159,0.65748006,0.0846795,0.0944588,0.6515897,0.74788886,-1.0,0
1763545246088,1009.66815,0.02751746,2.2725832,10.201201,0.4672352,0.09422589,0.0029779659,99.76875,1.5375,26.812502,46.950733,0.3361091,49.741684,0.07415687,0.10939404,0.7421864,0.6570335,0.08765698,0.098906785,0.6511682,0.7473377,-1.0,0
1763545246113,1009.66815,-0.07477571,2.3138595,10.065409,0.7282272,0.26480988,-0.0075594517,100.012505,1.2,26.343752,46.950733,0.3361091,49.741684,0.076775864,0.11565122,0.7415476,0.6563822,0.09105038,0.104783416,0.65069956,0.74653894,-1.0,0
1763545246138,1009.6623,0.4851448,2.2761726,9.08794,0.54206616,0.15073088,-0.13034327,100.36875,0.8625,26.493752,46.950733,0.3361091,49.741684,0.08045041,0.12490228,0.73907334,0.65703714,0.09587661,0.113492385,0.64823234,0.7468079,-1.0,0
1763545246164,1009.6945,-0.7513463,3.0867412,7.966305,0.11232276,0.20647229,-0.23739733,99.262505,-0.88125,27.618752,46.950733,0.3361091,49.741684,0.07749031,0.12683249,0.7380118,0.6582153,0.0931952,0.11578379,0.64699405,0.7478686,-1.0,0
1763545246189,1009.6945,-0.75613195,2.9521449,8.4909315,-0.34658942,0.4489856,-0.19891284,99.56251,0.63750005,28.275002,46.950733,0.3361091,49.741684,0.07206863,0.12795433,0.73740584,0.65929246,0.08796957,0.117590606,0.64621484,0.74889266,-1.0,0
1763545246214,1009.7497,-0.8554341,2.970091,9.694521,-0.30566147,0.2849684,-0.13889538,102.037506,1.8937501,27.337502,46.950733,0.3361091,49.741684,0.06695796,0.12820569,0.73695177,0.66028935,0.0829445,0.11849167,0.6455697,0.7498798,-1.0,0
1763545246239,1009.7497,-0.1902294,2.1260228,11.83191,-0.14958552,-0.15225805,-0.04848739,101.418755,1.2,28.987501,46.950733,0.3361091,49.741684,0.068383574,0.123780325,0.73634726,0.66166073,0.08378634,0.11391987,0.64479786,0.7511577,-1.0,0
1763545246264,1009.789,-0.5084748,2.7966115,11.470593,0.24060437,-0.8794926,0.02481638,100.387505,1.8375001,28.44375,46.950733,0.3361091,49.741684,0.07851421,0.12064592,0.7351866,0.66240525,0.0934108,0.10951869,0.6436671,0.75164664,-1.0,0
1763545246289,1009.7907,-1.07019,3.0670004,9.951151,0.78091425,-1.1905755,0.041920595,100.481255,2.6437502,23.587502,46.950733,0.3361091,49.741684,0.09124358,0.11861467,0.73340595,0.66311455,0.105763815,0.10587188,0.6418691,0.75206995,-1.0,0
1763545246314,1009.7907,0.3068795,3.1561332,8.29113,0.7237984,-1.1872157,0.015958842,97.8,1.85625,25.462502,46.950733,0.3361091,49.741684,0.11568886,0.11457387,0.7294706,0.66435045,0.11878883,0.101954654,0.6402089,0.75208175,-1.0,0
1763545246339,1009.788,-0.33320054,3.2015967,7.606185,0.5344303,-0.7371611,-0.11247548,99.09376,0.01875,22.96875,46.950733,0.3361091,49.741684,0.12203683,0.11410331,0.7280782,0.664823,0.13572496,0.09742325,0.63632184,0.7531148,-1.0,0
1763545246364,1009.7834,0.19680966,3.4211383,7.34118,-0.092469655,0.0481056,0.072921984,99.543755,0.80625004,22.706251,46.950733,0.3361091,49.741684,0.12366207,0.11369013,0.72815275,0.66451174,0.13729085,0.09679344,0.63637775,0.75286496,-1.0,0
1763545246389,1009.7834,0.5066802,3.379862,7.467401,-0.38110328,0.45203993,0.089415334,99.46876,-0.20625001,23.7,46.950733,0.3361091,49.741684,0.12046084,0.11366455,0.7292237,0.6639294,0.13412414,0.09716563,0.6374291,0.75249827,-1.0,0
1763545246414,1009.80096,0.47916272,3.0053852,9.922438,-0.4880046,0.6717985,0.09491312,100.6125,3.16875,21.69375,46.950733,0.3361091,49.741684,0.10610449,0.115441166,0.73274976,0.66218805,0.12740824,0.098530956,0.6392371,0.75195396,-1.0,0
1763545246439,1009.80096,0.40259242,2.7852457,10.261022,-0.15263984,0.54764026,-0.026648976,99.95625,0.71250004,23.1375,46.950733,0.3361091,49.741684,0.10025698,0.11759256,0.73371935,0.6616468,0.11461012,0.103653215,0.64208144,0.75090075,-1.0,0
1763545246464,1009.8166,-0.20398813,3.0125637,9.836894,-0.09750929,0.40668324,-0.020998476,101.15626,0.95625,25.0125,46.950733,0.3361091,49.741684,0.096232094,0.119690105,0.73407716,0.66147137,0.11088398,0.106259525,0.6425015,0.75073665,-1.0,0
1763545246489,1009.81635,-0.61794645,3.1740792,9.643674,-0.14622575,0.33246315,0.046349365,101.68125,0.52500004,22.35,46.950733,0.3361091,49.741684,0.08989777,0.12183305,0.73557585,0.66030544,0.10774917,0.10817078,0.6431442,0.7503697,-1.0,0
1763545246514,1009.81635,-0.49292147,2.9126635,10.310673,-0.15874848,0.23976442,0.1155298,102.356255,0.95625,23.34375,46.950733,0.3361091,49.741684,0.08762615,0.12234206,0.7368157,0.6591333,0.104870975,0.10921072,0.64419633,0.74972403,-1.0,0
1763545246539,1009.82855,-0.22313072,2.78046,10.591231,0.118889555,0.24220788,0.18318307,100.012505,1.2,25.725,46.950733,0.3361091,49.741684,0.086145304,0.1239257,0.738154,0.65753335,0.10142049,0.11176974,0.64710736,0.7473108,-1.0,0
1763545246564,1009.81854,-0.31226337,3.196811,9.11127,0.24304782,0.1443168,0.13996439,100.631256,2.0062501,25.312502,46.950733,0.3361091,49.741684,0.087200016,0.12849307,0.739711,0.65476215,0.103045896,0.11617167,0.6490733,0.7447077,-1.0,0
1763545246589,1009.81854,-0.39361933,3.3146574,8.971889,0.2163225,0.0537561,0.1098793,101.5875,0.24375,25.1625,46.950733,0.3361091,49.741684,0.088201135,0.1299175,0.7401662,0.6538318,0.10422371,0.11745389,0.6496364,0.7438512,-1.0,0
1763545246615,1009.8083,-0.25782663,3.2368908,9.035896,0.08315397,0.03940078,0.04818196,99.75001,0.7875,27.6375,46.950733,0.3361091,49.741684,0.08883545,0.13088499,0.7404488,0.65323275,0.10498943,0.11832091,0.64991915,0.7433589,-1.0,0
1763545246640,1009.8083,-0.2757728,3.2596226,8.801998,0.008475749,0.09605849,0.03932442,99.43125,0.50625,26.60625,46.950733,0.3361091,49.741684,0.08880939,0.13163799,0.7406953,0.6528053,0.10506711,0.11906541,0.65017945,0.74300134,-1.0,0
1763545246665,1009.80707,-0.32004002,3.161517,9.500104,-0.037491824,0.1470657,0.04619665,101.512505,-0.01875,27.0375,46.950733,0.3361091,49.741684,0.0867539,0.13306084,0.7415396,0.6518341,0.10321885,0.120736495,0.65110373,0.74218094,-1.0,0
1763545246690,1009.8105,-0.5138587,3.1591241,9.5348,0.033521205,0.10567961,0.047265664,100.200005,0.71250004,26.812502,46.950733,0.3361091,49.741684,0.08609369,0.1339317,0.74185616,0.65138286,0.10267743,0.12168468,0.6514713,0.7417785,-1.0,0
1763545246715,1009.8105,-0.35473597,3.2099717,9.304491,0.022220206,0.097432934,0.06406444,99.75001,0.0375,27.525002,46.950733,0.3361091,49.741684,0.08567141,0.13476324,0.742269,0.65079635,0.102361865,0.122567445,0.65198255,0.7412274,-1.0,0
1763545246740,1009.8039,-0.4031906,3.2913275,8.985647,-0.0240528,0.080634154,0.06101012,101.53126,-0.0,25.181252,46.950733,0.3361091,49.741684,0.084541515,0.13530989,0.74327815,0.649678,0.10133166,0.12323932,0.6530098,0.74035275,-1.0,0
1763545246765,1009.7983,-0.2644069,3.313461,9.156734,-0.076739885,0.049327333,0.07918335,100.068756,0.09375,26.1,46.950733,0.3361091,49.741684,0.08374829,0.13490552,0.74398136,0.6490597,0.10049843,0.1229363,0.6537531,0.73986053,-1.0,0
1763545246791,1009.7983,-0.07178468,3.3230324,9.374481,-0.114308074,0.11300998,0.07353285,100.200005,-1.29375,28.0125,46.950733,0.3361091,49.741684,0.08255293,0.13462205,0.74472344,0.6484203,0.0992798,0.122807205,0.6545516,0.7393403,-1.0,0
1763545246817,1009.7985,-0.20937198,3.3499517,9.837492,-0.068340495,0.13148865,0.06269,101.700005,0.13125001,26.38125,46.950733,0.3361091,49.741684,0.080322415,0.13529359,0.7458743,0.64723676,0.09799515,0.122942545,0.655247,0.7388731,-1.0,0
1763545246843,1009.79706,-0.39361933,3.4211383,9.509077,0.03489565,0.14538582,0.044516772,99.543755,-0.35625002,26.643751,46.950733,0.3361091,49.741684,0.07988234,0.13662337,0.7460823,0.6467721,0.09690574,0.1251256,0.6560232,0.737961,-1.0,0
1763545246870,1009.79706,-0.55812585,3.5407794,9.004789,-0.013209951,0.15439607,0.010613776,100.18125,0.71250004,27.431252,46.950733,0.3361091,49.741684,0.07921891,0.13781835,0.74621814,0.64644337,0.09641104,0.12639004,0.6561516,0.7376961,-1.0,0
1763545246894,1009.79315,-0.4977071,3.5389848,9.055637,-0.11766783,0.27229297,0.012751802,99.99375,-0.1875,27.975,46.950733,0.3361091,49.741684,0.07751678,0.13861853,0.7464947,0.6461592,0.09484419,0.12739125,0.65636307,0.7375389,-1.0,0
1763545246919,1009.79315,-0.8147561,3.510869,10.003794,-0.15279256,0.5059488,0.017791437,101.68125,0.112500004,27.16875,46.950733,0.3361091,49.741684,0.07394216,0.14008406,0.7471108,0.6455498,0.09150042,0.12930065,0.656993,0.737068,-1.0,0
1763545246944,1009.7834,-0.9870393,3.4624143,10.272985,0.09430225,0.26740605,0.014126248,102.15,1.03125,27.825,46.950733,0.3361091,49.741684,0.06706408,0.1454604,0.7480326,0.64404255,0.08544079,0.13548502,0.657764,0.735996,-1.0,0
1763545246969,1009.7768,-1.683949,2.7158537,10.010972,0.3418552,-0.010231985,0.16653702,101.175,1.4250001,28.987501,46.950733,0.3361091,49.741684,0.067924105,0.14779489,0.74826556,0.6431498,0.08661321,0.13767774,0.65802777,0.7352159,-1.0,0
1763545246994,1009.7768,-0.7513463,3.4612179,8.846265,0.46479174,-0.26374087,0.20899211,101.137505,-0.20625001,29.400002,46.950733,0.3361091,49.741684,0.077015445,0.15121238,0.7491284,0.64032024,0.08661321,0.13767774,0.65802777,0.7352159,-1.0,0
1763545247019,1009.76385,-0.7256235,3.6161532,8.239685,0.42432195,-0.3028362,0.18608469,101.9625,-1.35,27.225,46.950733,0.3361091,49.741684,0.08101573,0.15225874,0.7495418,0.6390937,0.0960707,0.13988203,0.65926164,0.7325145,-1.0,0
1763545247044,1009.7502,-0.8961121,3.8530426,7.9686975,-0.046349365,0.14004076,0.19738568,100.6125,-1.48125,27.675001,46.950733,0.3361091,49.741684,0.081675746,0.15306215,0.7505774,0.6376007,0.100955494,0.14109193,0.66093314,0.73011535,-1.0,0
1763545247070,1009.7502,-0.78664047,3.8638103,9.756734,-0.1503491,0.2498437,0.2013563,100.74375,-0.112500004,28.2,46.950733,0.3361091,49.741684,0.07767302,0.15422827,0.75362885,0.6342114,0.09909581,0.14174806,0.6626243,0.72870886,-1.0,0
1763545247095,1009.7546,-0.8536395,4.0031924,9.906285,-0.02573268,0.19349141,0.16898046,101.475006,-0.7875,28.63125,46.950733,0.3361091,49.741684,0.07755703,0.15535818,0.7545354,0.63287055,0.09717713,0.14274473,0.6642077,0.72732985,-1.0,0
1763545247120,1009.7546,-1.0133604,4.127021,9.409177,0.17081307,-0.04382955,0.12102758,99.61875,-1.9875001,29.19375,46.950733,0.3361091,49.741684,0.07902588,0.15649183,0.7549969,0.6318582,0.09882355,0.14480568,0.6658261,0.72521776,-1.0,0
1763545247145,1009.7614,-1.1330016,4.174877,9.050852,0.085292,0.014966187,0.12759438,100.387505,-1.1437501,27.675001,46.950733,0.3361091,49.741684,0.08035049,0.15737537,0.7554974,0.6308727,0.10026795,0.14549758,0.6663738,0.7243775,-1.0,0
1763545247170,1009.77216,-1.3710874,4.24726,9.306286,-0.028023422,0.1472184,0.14103341,100.275,-1.5562501,30.337502,46.950733,0.3361091,49.741684,0.07864726,0.1590286,0.7574313,0.6283489,0.098836094,0.14733268,0.66842455,0.72231096,-1.0,0
1763545247195,1009.77216,-1.0767702,4.256233,9.996614,0.05627592,0.19196425,0.17081307,99.93751,-2.5687501,29.19375,46.950733,0.3361091,49.741684,0.07720434,0.16027865,0.7586661,0.62671846,0.0975913,0.14874707,0.6697577,0.7209541,-1.0,0
1763545247221,1009.7756,-0.910469,4.402794,10.0672035,0.23220497,0.039553493,0.14515674,101.943756,-2.8500001,27.91875,46.950733,0.3361091,49.741684,0.07745477,0.16218391,0.7594633,0.62523,0.09810237,0.15059479,0.6706839,0.71963894,-1.0,0
1763545247245,1009.77606,-0.6771688,4.7341995,9.123833,0.28596106,-0.1348484,0.117056966,101.606255,-1.63125,27.581251,46.950733,0.3361091,49.741684,0.08291689,0.16493613,0.7597986,0.62339956,0.10391347,0.15258156,0.6710941,0.71802056,-1.0,0
1763545247270,1009.77606,-0.53300124,4.694718,8.813962,0.08452842,0.066889696,0.028481571,101.137505,-2.5500002,27.675001,46.950733,0.3361091,49.741684,0.084347434,0.1659821,0.75983226,0.62288874,0.10549855,0.1534099,0.6710579,0.7176467,-1.0,0
1763545247296,1009.7756,-0.72323066,4.7575297,8.699705,-0.01962403,0.17760894,-0.01687514,102.43125,-1.9125,27.0375,46.950733,0.3361091,49.741684,0.08369179,0.16722062,0.75991553,0.6225442,0.10504379,0.15470247,0.6710383,0.7174542,-1.0,0
1763545247320,1009.77045,-1.2837493,4.5397825,9.040084,-0.052305296,0.108123064,-0.057192214,100.89375,-1.4625001,28.425001,46.950733,0.3361091,49.741684,0.08191292,0.16836432,0.75953496,0.62293684,0.10348368,0.15603653,0.67036945,0.7180171,-1.0,0
1763545247345,1009.77045,-1.2813566,4.523033,9.030513,-0.020387612,-0.025045456,-0.051541716,102.168755,-2.4562502,27.562502,46.950733,0.3361091,49.741684,0.08247051,0.16817103,0.7591947,0.6233302,0.10403942,0.15575199,0.6698479,0.7184852,-1.0,0
1763545247370,1009.75824,-1.2005987,4.5535417,8.760722,-0.04329504,-0.092546016,-0.02649626,101.475006,-1.5375,28.518751,46.950733,0.3361091,49.741684,0.08324981,0.16770905,0.7589087,0.62369925,0.104773,0.15517563,0.6694116,0.71890974,-1.0,0
1763545247395,1009.75824,-1.0959128,4.5188456,8.740981,-0.09964732,-0.01847866,-0.021151192,99.3375,-2.7375002,27.88125,46.950733,0.3361091,49.741684,0.08324733,0.1670424,0.7588049,0.6240046,0.104712956,0.15449427,0.6691244,0.71933246,-1.0,0
1763545247420,1009.76215,-0.79860455,4.2484565,9.649057,0.0037415468,0.03252855,-0.053221595,101.68125,-2.0062501,27.900002,46.950733,0.3361091,49.741684,0.0832,0.16803673,0.75808156,0.62462294,0.10484278,0.15545604,0.66811895,0.7200406,-1.0,0
1763545247445,1009.76263,-1.1240284,4.322036,8.933005,0.35300347,-0.06627883,-0.061162837,100.425,-2.60625,25.593752,46.950733,0.3361091,49.741684,0.08520648,0.1701889,0.7570964,0.6249645,0.10713112,0.15731286,0.66703737,0.72030324,-1.0,0
1763545247470,1009.76263,-1.1706885,4.4691944,8.0715885,0.35666868,-0.098960094,-0.0410043,101.137505,-2.5500002,27.056252,46.950733,0.3361091,49.741684,0.088052094,0.17257868,0.75608516,0.62513894,0.110295035,0.15928458,0.665898,0.7204465,-1.0,0
1763545247495,1009.7475,-1.1072787,4.5451665,7.181459,0.28672466,-0.10354158,-0.03489565,100.162506,-2.2687502,27.150002,46.950733,0.3361091,49.741684,0.0930649,0.17617592,0.75438243,0.6254662,0.11331922,0.16093569,0.66485506,0.72057354,-1.0,0
1763545247520,1009.7475,-1.2819548,4.621737,6.969694,0.18868086,-0.09651663,-0.042836893,99.787506,-2.0625,26.718752,46.950733,0.3361091,49.741684,0.094533466,0.17682335,0.753799,0.62576663,0.11738064,0.16255724,0.6631241,0.7211542,-1.0,0
1763545247545,1009.73456,-1.0893325,4.666602,7.4626155,-0.030619597,-0.11300998,-0.01763872,100.74375,-1.5937501,27.206251,46.950733,0.3361091,49.741684,0.095302075,0.17659742,0.7535538,0.6260092,0.11814954,0.162203,0.6626816,0.72151506,-1.0,0
1763545247570,1009.73773,-0.9696914,4.7784667,8.73799,-0.0025198173,-0.17287473,-0.064522594,100.12501,-1.8937501,25.893751,46.950733,0.3361091,49.741684,0.097928844,0.17539327,0.75238067,0.62735194,0.11902233,0.16137545,0.66206235,0.7221254,-1.0,0
1763545247595,1009.73773,-1.1431711,4.8658047,8.586046,0.09552398,-0.194255,-0.091400646,99.731255,-1.6875001,24.843752,46.950733,0.3361091,49.741684,0.09998562,0.17557767,0.7513237,0.6282421,0.12066528,0.16060124,0.6610041,0.72299427,-1.0,0
1763545247621,1009.7441,-1.3316058,5.1343994,8.520842,0.06589704,-0.16752967,-0.10483967,99.600006,-1.575,25.63125,46.950733,0.3361091,49.741684,0.101726346,0.17577766,0.75026923,0.6291662,0.1245551,0.16041216,0.6583278,0.72481614,-1.0,0
1763545247645,1009.7585,-1.3734802,5.148756,9.162118,0.012751802,-0.20112723,-0.09078978,99.20625,-2.8500001,24.975,46.950733,0.3361091,49.741684,0.103114136,0.17536725,0.74935305,0.63014585,0.12591481,0.15978628,0.65710545,0.725828,-1.0,0
1763545247670,1009.7585,-0.9379865,4.895715,10.846665,0.057344932,-0.27427828,-0.043753188,100.068756,-2.15625,25.9125,46.950733,0.3361091,49.741684,0.10764998,0.17377809,0.74793845,0.63150674,0.13023683,0.15756173,0.6553202,0.7271644,-1.0,0
1763545247695,1009.7807,-0.42412782,4.759324,10.86162,0.19005531,-0.28130323,0.006185006,100.50001,-1.5937501,23.98125,46.950733,0.3361091,49.741684,0.111046,0.17419496,0.74734527,0.631506,0.13367411,0.1575003,0.6546584,0.7271501,-1.0,0
1763545247720,1009.7807,0.09930214,4.625326,10.2317095,0.32704175,-0.037262753,-0.024205517,99.99375,-2.7562501,23.025002,46.950733,0.3361091,49.741684,0.11396595,0.17595513,0.7467214,0.63123584,0.13681376,0.15884092,0.6540416,0.7268295,-1.0,0
1763545247745,1009.78656,-0.123828575,4.45065,9.007781,0.15218168,0.08170316,-0.14515674,99.600006,-1.0500001,22.96875,46.950733,0.3361091,49.741684,0.11442435,0.17893924,0.74470925,0.63268954,0.137697,0.16171491,0.65174395,0.7280918,-1.0,0
1763545247770,1009.7873,-0.7812566,3.926622,9.646665,-0.13125958,0.1424842,-0.25648686,98.68125,-1.2750001,22.612501,46.950733,0.3361091,49.741684,0.11153696,0.1785697,0.7435451,0.6346755,0.13480574,0.16172525,0.6502325,0.7299795,-1.0,0
1763545247796,1009.7873,-1.338186,3.3086755,10.342976,-0.2352593,0.06352994,-0.21036656,99.037506,-0.24375,22.66875,46.950733,0.3361091,49.741684,0.10841306,0.17768651,0.74254096,0.6366373,0.131597,0.16127035,0.648942,0.7318117,-1.0,0
1763545247821,1009.799,-1.3980067,2.7397819,10.654043,-0.11384992,-0.11682789,-0.0410043,98.2125,-1.44375,22.050001,46.950733,0.3361091,49.741684,0.10698636,0.17624687,0.7420213,0.6378835,0.12998235,0.1600426,0.6482813,0.7329545,-1.0,0
1763545247846,1009.79974,-0.0526421,2.6117659,10.143773,0.03489565,-0.20219624,0.12148573,98.606255,-0.90000004,22.7625,46.950733,0.3361091,49.741684,0.10949262,0.17377831,0.7430135,0.63698,0.13209243,0.15728673,0.6495585,0.7320425,-1.0,0
1763545247872,1009.79974,0.4959125,3.057429,9.15135,0.23098324,0.07315106,0.24167338,97.725006,-0.35625002,20.962502,46.950733,0.3361091,49.741684,0.110976435,0.17458268,0.7441923,0.6351243,0.13365611,0.15789528,0.65105116,0.7302996,-1.0,0
1763545247897,1009.76483,0.82313097,3.5653057,8.05783,0.24350597,0.11896592,0.19341506,99.168755,-0.975,23.625,46.950733,0.3361091,49.741684,0.112078294,0.17647795,0.7453695,0.63302314,0.13500248,0.15962565,0.652515,0.7283668,-1.0,0
1763545247922,1009.74384,0.9936196,4.342375,6.632306,0.22701262,0.0377209,0.09277509,98.381256,-0.5625,22.7625,46.950733,0.3361091,49.741684,0.11536322,0.17951417,0.7457481,0.6311305,0.1387111,0.1621519,0.65295947,0.72671175,-1.0,0
1763545247948,1009.74384,0.96729857,4.543372,5.8827543,0.03413207,-0.2944368,-0.2609156,96.43125,-0.99375004,20.98125,46.950733,0.3361091,49.741684,0.11800709,0.17916964,0.7442064,0.63255775,0.1413175,0.1614212,0.6510848,0.728053,-1.0,0
1763545247973,1009.7182,0.5778667,4.485346,5.534599,-0.24152066,-0.3019199,-0.34246606,98.943756,-0.8625,20.868752,46.950733,0.3361091,49.741684,0.11965383,0.17706068,0.7420367,0.635385,0.14269908,0.15907389,0.6483777,0.73071116,-1.0,0
1763545247998,1009.7182,0.10049855,4.1018963,7.4823565,-0.55077094,-0.19792019,-0.326889,97.481255,-0.13125001,20.6625,46.950733,0.3361091,49.741684,0.115489915,0.16844252,0.73930275,0.6416546,0.13747865,0.15103123,0.64442015,0.73689336,-1.0,0
1763545248023,1009.71234,0.14476576,3.6089747,8.863613,-0.6886737,0.022143848,-0.2880991,96.412506,1.2375001,22.85625,46.950733,0.3361091,49.741684,0.110190675,0.16502717,0.7387531,0.64410245,0.13178794,0.14835058,0.64340824,0.73935777,-1.0,0
1763545248048,1009.7292,-0.41455653,3.603591,9.24826,-0.3991238,0.29871288,-0.22441645,96.3,0.61875004,21.056252,46.950733,0.3361091,49.741684,0.10494057,0.16327249,0.7381901,0.6460688,0.12635794,0.14732312,0.6425246,0.7412771,-1.0,0
1763545248073,1009.7292,-1.1437693,3.9774694,8.967103,-0.24258968,0.27198756,-0.09445497,95.55,1.9125,20.2875,46.950733,0.3361091,49.741684,0.09789884,0.16313016,0.73833257,0.64704674,0.122001365,0.14773257,0.6420822,0.742308,-1.0,0
1763545248098,1009.7421,-0.93320084,4.1018963,9.155538,-0.13660464,0.11866048,0.066049755,96.8625,0.43125,20.23125,46.950733,0.3361091,49.741684,0.09717347,0.16279115,0.7394173,0.64600194,0.11866408,0.14785968,0.64341944,0.74166554,-1.0,0
1763545248123,1009.7624,-0.4331009,4.2185464,9.445667,0.04405862,0.0386372,0.31680974,94.950005,1.10625,20.081251,46.950733,0.3361091,49.741684,0.09750473,0.16267708,0.74115354,0.64398795,0.11900383,0.147679,0.6452793,0.7400295,-1.0,0
1763545248148,1009.7624,0.08315059,4.3944187,9.823135,0.18364123,0.15775582,0.34032804,95.7375,1.4250001,21.375,46.950733,0.3361091,49.741684,0.09816524,0.16375682,0.743156,0.6413006,0.119813435,0.14865212,0.6476009,0.73767227,-1.0,0
1763545248174,1009.77386,0.11545369,4.8771706,9.144172,0.32215482,0.2535089,0.30001098,94.5,1.8000001,21.1875,46.950733,0.3361091,49.741684,0.09988156,0.17046888,0.7463154,0.63559204,0.12100656,0.15133685,0.6497993,0.7349935,-1.0,0
1763545248199,1009.77386,0.08793623,4.981857,8.834899,0.3314705,0.25579962,0.22533275,96.731255,0.52500004,21.16875,46.950733,0.3361091,49.741684,0.10059876,0.17371345,0.74719566,0.633563,0.12245261,0.15505265,0.65145385,0.7325107,-1.0,0
1763545248224,1009.7751,-0.020338992,4.8640103,9.074182,0.024663666,0.15714496,0.015653409,96.7125,0.52500004,21.6375,46.950733,0.3361091,49.741684,0.10056016,0.17557421,0.7476031,0.63257486,0.123863176,0.15998925,0.6529911,0.7298383,-1.0,0
1763545248249,1009.7973,-1.4279169,4.645665,10.158729,-0.15309799,0.18906265,-0.037949976,94.425,-0.6,23.325,46.950733,0.3361091,49.741684,0.09624947,0.17608415,0.74821687,0.63237804,0.11969037,0.1610708,0.6535083,0.7298338,-1.0,0
1763545248274,1009.7973,-1.5661024,4.694718,10.846066,-0.2738965,0.27855435,0.032299474,94.875,0.09375,21.393751,46.950733,0.3361091,49.741684,0.09254361,0.17583004,0.74942577,0.6315699,0.11599327,0.16132602,0.65478,0.7292343,-1.0,0
1763545248300,1009.81244,-0.9391829,4.3890347,10.987244,-0.3407862,-0.11133011,0.03046688,95.325005,0.13125001,21.337502,46.950733,0.3361091,49.741684,0.09012728,0.17434296,0.7504932,0.6310638,0.11339993,0.1601838,0.6558818,0.7289037,-1.0,0
1763545248325,1009.8454,-1.5020944,2.6739793,13.001402,-0.42355835,-0.49724394,-0.05016727,94.21875,-0.3375,20.400002,46.950733,0.3361091,49.741684,0.09166224,0.16320519,0.7507678,0.63349015,0.113362625,0.14895241,0.6558927,0.7312775,-1.0,0
1763545248350,1009.8454,-2.003989,2.0045872,12.685549,-0.21998768,-0.481056,0.10147991,94.2375,0.41250002,19.893751,46.950733,0.3361091,49.741684,0.09378798,0.16072233,0.7523457,0.63194,0.11508996,0.14622638,0.65784174,0.7298057,-1.0,0
1763545248375,1009.85297,-1.2496517,2.0518453,10.509875,0.647593,0.5355757,0.66500264,94.96875,0.375,19.2,46.950733,0.3361091,49.741684,0.09463142,0.16516937,0.75592774,0.6263683,0.1164944,0.15054925,0.6623765,0.72458357,-1.0,0
1763545248401,1009.821,0.01375873,3.429513,6.9009004,0.67905253,0.30757043,0.39118254,94.125,-2.11875,22.368752,46.950733,0.3361091,49.741684,0.099000305,0.176572,0.759,0.6188216,0.12234364,0.16127853,0.6666807,0.7173271,-1.0,0
1763545248426,1009.821,-0.65982085,3.0311081,6.869794,0.36186102,-0.18524474,0.0067958706,92.9625,-2.9625,20.681252,46.950733,0.3361091,49.741684,0.10196376,0.17611073,0.7575138,0.6202913,0.12522253,0.16040859,0.66497487,0.71860754,-1.0,0
1763545248451,1009.8049,-1.7599211,2.2935205,7.9022965,-0.2164752,0.017409647,-0.19295691,93.037506,-2.68125,18.50625,46.950733,0.3361091,49.741684,0.10156609,0.17441417,0.7561382,0.62251025,0.1245973,0.15878125,0.6632978,0.7206248,-1.0,0
1763545248476,1009.8049,-2.1595225,2.0685952,8.5346,-0.17905974,0.23518294,-0.04772381,93.412506,-0.675,20.5125,46.950733,0.3361091,49.741684,0.098543584,0.17393288,0.755939,0.6233721,0.12152239,0.15873182,0.6630497,0.7213887,-1.0,0
1763545248501,1009.79266,-2.0697916,2.4544377,8.343773,-0.09613484,0.14798199,0.056428634,92.887505,-1.10625,21.206251,46.950733,0.3361091,49.741684,0.09468557,0.17404349,0.75714487,0.622475,0.117676355,0.15940128,0.6645476,0.72049975,-1.0,0
1763545248526,1009.78827,-1.7778672,2.5704896,8.322835,0.12789981,-0.21945317,0.23831362,92.49375,-2.2687502,21.150002,46.950733,0.3361091,49.741684,0.09616347,0.1734472,0.75804985,0.6213124,0.119043805,0.15861881,0.66567004,0.7194109,-1.0,0
1763545248551,1009.78827,-1.4213367,2.8085756,7.867601,0.18425208,-0.2121228,0.29130614,93.225006,-1.575,21.65625,46.950733,0.3361091,49.741684,0.09901343,0.17304178,0.7591399,0.6196447,0.12179784,0.15783663,0.66703933,0.71785194,-1.0,0
1763545248576,1009.77386,-0.80877405,3.3714871,6.934998,0.11339177,-0.06734784,0.3154353,92.68125,-2.98125,19.331251,46.950733,0.3361091,49.741684,0.101894274,0.17329645,0.7622993,0.6152119,0.12412053,0.15758461,0.6687497,0.7159155,-1.0,0
1763545248601,1009.77386,-0.58923256,3.650251,7.2418776,-0.0353538,0.07315106,0.28779367,91.51875,-3.7125,18.4125,46.950733,0.3361091,49.741684,0.10097487,0.17301728,0.7640793,0.61323076,0.12373878,0.15754242,0.6728051,0.71218145,-1.0,0
1763545248626,1009.76996,-0.573081,3.9493537,7.9034934,-0.15263984,0.04703659,0.13614649,89.49375,-2.7,20.8875,46.950733,0.3361091,49.741684,0.09980854,0.17220514,0.7654632,0.6119231,0.122482225,0.15688993,0.6743093,0.7111193,-1.0,0
1763545248651,1009.77167,-0.9529416,4.1180477,8.410771,-0.09582941,0.004734202,0.10560325,90.95625,-2.90625,18.73125,46.950733,0.3361091,49.741684,0.099178135,0.17142436,0.7663111,0.61118305,0.121761374,0.15619467,0.67520225,0.71054864,-1.0,0
1763545248676,1009.77167,-0.71007013,4.4243293,9.01795,-0.04940369,0.0058032153,0.13171771,90.75,-3.80625,19.893751,46.950733,0.3361091,49.741684,0.09892776,0.17093912,0.76787245,0.6093972,0.12148975,0.1557695,0.67604446,0.7098873,-1.0,0
1763545248702,1009.78314,-0.5270192,4.6205406,9.270991,0.08666644,-0.015729768,0.026648976,91.74375,-1.8375001,19.518751,46.950733,0.3361091,49.741684,0.09942235,0.17142151,0.7681885,0.60878277,0.1220357,0.15613273,0.67724234,0.7085709,-1.0,0
1763545248727,1009.7907,-0.7190432,4.7102714,9.053843,0.050014555,-0.062155493,-0.051999863,91.875,-1.95,19.050001,46.950733,0.3361091,49.741684,0.10027772,0.17202558,0.7678852,0.6088546,0.12297776,0.15660422,0.67687863,0.7086515,-1.0,0
1763545248752,1009.7907,-0.485743,4.3316073,10.290932,-0.101632625,-0.12492185,-0.106672265,90.9,-3.15,18.45,46.950733,0.3361091,49.741684,0.10050417,0.16991475,0.76667404,0.6109327,0.123517245,0.15602633,0.6761351,0.7093945,-1.0,0
1763545248777,1009.821,-0.6879365,4.3070807,11.412567,-0.21464261,-0.045051277,-0.16134466,91.14375,-2.0062501,18.35625,46.950733,0.3361091,49.741684,0.098635025,0.16873898,0.76597065,0.6124437,0.12293816,0.1544614,0.67527235,0.71065825,-1.0,0
1763545248803,1009.84735,-1.4536397,4.558925,11.864213,-0.039935283,0.14737113,-0.1437823,89.8125,-2.6625001,19.7625,46.950733,0.3361091,49.741684,0.09641384,0.16896044,0.76522505,0.6136672,0.11875136,0.15408236,0.67347926,0.71314967,-1.0,0
1763545248827,1009.84735,-0.63230336,4.490132,11.171491,0.067271486,-0.008399391,-0.026648976,92.53125,-0.8625,18.300001,46.950733,0.3361091,49.741684,0.096756265,0.16984029,0.76443684,0.6143523,0.119207464,0.15490992,0.67262363,0.7137016,-1.0,0
1763545248852,1009.8549,0.096909314,4.156931,10.895718,0.06391173,-0.21044292,-0.040393434,89.793755,-3.6375,17.8125,46.950733,0.3361091,49.741684,0.09854156,0.16838856,0.76359105,0.6155189,0.12077457,0.15322745,0.6716319,0.71473455,-1.0,0
1763545248877,1009.8549,-0.19860429,3.577868,11.276775,-0.19112432,0.04046979,-0.18119776,88.59375,-3.1312501,16.21875,46.950733,0.3361091,49.741684,0.09831297,0.16646145,0.7626373,0.6172596,0.12027807,0.15135403,0.67047095,0.7163057,-1.0,0
1763545248902,1009.8693,-0.8895318,3.0005996,11.729616,-0.032452192,0.297033,-0.046349365,90.037506,-0.24375,17.4375,46.950733,0.3361091,49.741684,0.09566794,0.16644868,0.76233923,0.6180464,0.11764096,0.15171726,0.6701406,0.7169756,-1.0,0
1763545248927,1009.8571,0.29252258,2.5788646,9.860224,0.29420775,0.09636392,0.08040508,88.256256,-1.8000001,17.868752,46.950733,0.3361091,49.741684,0.09758474,0.17046067,0.76234394,0.616646,0.12003166,0.15547356,0.6706111,0.71533287,-1.0,0
1763545248952,1009.8571,0.95832545,2.4951158,8.490333,0.29329145,-0.4375319,-0.12438734,88.350006,-2.90625,16.21875,46.950733,0.3361091,49.741684,0.10314784,0.17046468,0.76102024,0.6173739,0.12551703,0.15473576,0.66931945,0.715761,-1.0,0
1763545248978,1009.84564,0.7938189,2.3688943,7.9226356,-0.026343543,-0.18692462,-0.19158247,89.49375,-2.9250002,17.962502,46.950733,0.3361091,49.741684,0.10627353,0.16920318,0.7595083,0.61905026,0.1284218,0.15307389,0.66768014,0.7171328,-1.0,0
1763545249002,1009.8283,-0.17347965,2.5411777,8.534002,-0.2409098,0.115911596,-0.1796706,87.356255,-2.7562501,16.3125,46.950733,0.3361091,49.741684,0.102135636,0.16681682,0.7584241,0.62171805,0.1239646,0.15130207,0.6663921,0.7194873,-1.0,0
1763545249028,1009.8283,-0.253041,2.7385855,8.485547,-0.21525347,0.1744019,-0.109268434,87.7125,-0.975,16.181252,46.950733,0.3361091,49.741684,0.10035297,0.16639665,0.7583682,0.62218904,0.12212618,0.1511415,0.66634405,0.71987987,-1.0,0
1763545249054,1009.81,-0.008374879,3.065804,7.932805,0.10621411,-0.15256348,-0.041920595,87.9375,-1.2,17.25,46.950733,0.3361091,49.741684,0.10109185,0.16617607,0.7580379,0.62253076,0.12281638,0.15083161,0.6660259,0.72012186,-1.0,0
1763545249080,1009.81,0.19082761,3.3242288,7.400402,0.13660464,-0.16569707,-0.09506583,86.83125,-1.575,18.0,46.950733,0.3361091,49.741684,0.10320036,0.16601764,0.75727403,0.6231564,0.12487994,0.15039006,0.6652011,0.72062147,-1.0,0
1763545249105,1009.7863,-0.21774685,3.5449667,6.725028,0.07918335,-0.04856375,-0.14362958,87.4875,-2.11875,16.275002,46.950733,0.3361091,49.741684,0.10477407,0.16676606,0.7552773,0.62511426,0.12655358,0.15090631,0.6628959,0.72234374,-1.0,0
1763545249130,1009.76556,-0.37507495,3.6424742,6.823134,-0.098272875,0.04535671,-0.11919499,87.5625,-0.88125,18.0375,46.950733,0.3361091,49.741684,0.104003966,0.1669218,0.7545945,0.6260251,0.12582354,0.15115605,0.6620399,0.72320366,-1.0,0
1763545249155,1009.76556,-0.27158538,3.8111682,7.7587276,-0.19204062,0.027947064,-0.10392337,86.90625,-2.0625,16.48125,46.950733,0.3361091,49.741684,0.101219796,0.1651099,0.75396794,0.6277146,0.12460072,0.15070383,0.66144365,0.72405475,-1.0,0
1763545249180,1009.7597,-0.43429732,3.8464625,8.449057,-0.22731806,0.048258316,-0.07612903,87.84375,-1.0875001,15.8625,46.950733,0.3361091,49.741684,0.09962165,0.1641767,0.7540585,0.6281061,0.12114314,0.14900604,0.66105086,0.7253505,-1.0,0
1763545249205,1009.76385,-0.56769717,3.949952,8.867203,-0.012140937,0.028405212,0.112017326,86.8125,-1.1812501,15.356251,46.950733,0.3361091,49.741684,0.098857775,0.163907,0.75455785,0.62769747,0.12035652,0.14883772,0.66156733,0.725045,-1.0,0
1763545249230,1009.76385,-0.4671986,4.174877,9.124431,0.13293944,-0.04367683,0.20975569,88.0875,-0.5625,16.425001,46.950733,0.3361091,49.741684,0.09960755,0.16426307,0.75544125,0.62642205,0.12115389,0.14908305,0.6625882,0.72392875,-1.0,0
1763545249255,1009.77606,-0.25244278,4.6504507,9.527621,0.20715952,-0.13820815,0.27068946,86.4375,-0.73125005,16.9125,46.950733,0.3361091,49.741684,0.104957275,0.16525893,0.75780034,0.6224244,0.12347968,0.14934856,0.66371286,0.7224493,-1.0,0
1763545249280,1009.77606,0.56769717,4.831707,9.729217,0.14714205,-0.07834341,0.28397575,85.725006,-2.2875001,14.606251,46.950733,0.3361091,49.741684,0.1077609,0.16566375,0.7593159,0.6199859,0.12954263,0.14925012,0.66672814,0.7186214,-1.0,0
1763545249305,1009.78876,1.329213,5.0943193,9.848858,-0.03978257,0.020158539,0.07246383,85.818756,-1.66875,16.425001,46.950733,0.3361091,49.741684,0.10893852,0.1657604,0.76033294,0.618506,0.13073273,0.1491746,0.66788924,0.71734226,-1.0,0
1763545249330,1009.81586,0.022731815,4.386642,11.559128,-0.2239583,0.13637556,-0.12133302,85.21875,-3.2062502,15.4875,46.950733,0.3361091,49.741684,0.10494692,0.16444598,0.7601783,0.61973584,0.12973483,0.1485846,0.66774344,0.7177814,-1.0,0
1763545249356,1009.81586,-0.9942178,4.237689,11.806187,-0.25709772,0.30726498,-0.14317143,85.21875,-1.725,16.48125,46.950733,0.3361091,49.741684,0.100781515,0.16507675,0.76034343,0.6200569,0.12668309,0.14835003,0.6671552,0.7189211,-1.0,0
1763545249381,1009.83417,-1.0199406,4.2006,10.974681,-0.14317143,0.14370593,-0.0066431547,87.05625,-1.40625,15.656251,46.950733,0.3361091,49.741684,0.09742794,0.16604549,0.76082975,0.6197377,0.11950879,0.15093361,0.66755617,0.7192395,-1.0,0
1763545249406,1009.8381,-0.37088752,3.2219357,12.129218,-0.2890154,-0.3602575,-0.08956805,85.55625,-1.44375,17.04375,46.950733,0.3361091,49.741684,0.09826861,0.15847147,0.7601395,0.62242913,0.11931442,0.14329685,0.6663827,0.72191703,-1.0,0
1763545249431,1009.8381,-0.9822537,2.5154548,13.319049,-0.32505643,-0.47647452,-0.1146135,83.887505,-0.375,15.937501,46.950733,0.3361091,49.741684,0.099117726,0.1549293,0.7598807,0.62350136,0.11967059,0.13966514,0.6659414,0.7229762,-1.0,0
1763545249456,1009.8581,-0.8129615,2.315654,11.803794,0.43547022,0.23121232,0.18944444,85.068756,-0.375,15.656251,46.950733,0.3361091,49.741684,0.099249154,0.15729022,0.76061434,0.621993,0.12011913,0.14199299,0.6669255,0.72153986,-1.0,0
1763545249481,1009.8337,-0.3397808,3.0311081,9.253643,0.46295914,-0.042760536,0.0891099,85.4625,0.16875,15.431251,46.950733,0.3361091,49.741684,0.101122886,0.16125445,0.7610396,0.620153,0.12251683,0.14566559,0.6676422,0.71973956,-1.0,0
1763545249506,1009.8337,-0.72323066,2.7738798,7.704889,0.14271328,-0.3149008,-0.18455753,84.450005,-1.1812501,16.21875,46.950733,0.3361091,49.741684,0.10593643,0.16032639,0.75813735,0.6231378,0.1272099,0.14403026,0.66407865,0.7225458,-1.0,0
1763545249531,1009.81464,-1.8203398,1.9657038,8.596813,-0.2560287,-0.16264275,-0.33131778,84.412506,0.056250002,16.1625,46.950733,0.3361091,49.741684,0.10302056,0.15789992,0.7569519,0.6256821,0.12401194,0.14200936,0.6624126,0.7250269,-1.0,0
1763545249556,1009.81464,-2.32702,1.7258233,9.314062,-0.28076872,0.22357652,0.0067958706,84.9375,-0.88125,16.462502,46.950733,0.3361091,49.741684,0.09836937,0.15658037,0.75713724,0.6265375,0.11923512,0.14133978,0.6624109,0.72595996,-1.0,0
1763545249582,1009.80194,-1.43689,2.0703897,8.774481,-0.00083993905,0.014202606,0.16470441,84.975006,-0.8625,14.925,46.950733,0.3361091,49.741684,0.09726281,0.15627794,0.7590196,0.6245049,0.11811395,0.14118052,0.66447234,0.7242884,-1.0,0
1763545249607,1009.78265,-1.2406785,2.1631117,8.002197,0.21555892,-0.16416991,0.22701262,83.325005,-2.30625,17.025002,46.950733,0.3361091,49.741684,0.09998198,0.15700804,0.7600174,0.6226762,0.12092057,0.14151374,0.6656533,0.722674,-1.0,0
1763545249632,1009.78265,-1.2179468,2.43709,7.309475,0.20028728,0.123089254,0.3578904,85.36875,-0.8625,17.8125,46.950733,0.3361091,49.741684,0.10150301,0.15862168,0.76163405,0.6200402,0.12266931,0.14288437,0.6675347,0.7203706,-1.0,0
1763545249657,1009.7568,-0.97806627,2.8325038,6.8099732,0.05184715,0.23701553,0.3426188,86.45625,-0.71250004,15.225,46.950733,0.3361091,49.741684,0.10116089,0.16048552,0.7637822,0.61696655,0.1226121,0.1447598,0.6699863,0.71772504,-1.0,0
1763545249682,1009.74164,-0.6227321,3.2560334,7.3417783,-0.14485131,0.171653,0.234343,86.83125,-0.93750006,16.743752,46.950733,0.3361091,49.741684,0.09787059,0.16020425,0.76720613,0.6133113,0.119392484,0.1448775,0.6735046,0.7149458,-1.0,0
1763545249707,1009.74164,-0.9834501,3.1806595,8.618947,-0.12454005,-0.017867794,0.09277509,84.693756,-2.15625,16.556252,46.950733,0.3361091,49.741684,0.096952364,0.15856913,0.7679966,0.61289257,0.1182919,0.14335601,0.67415607,0.71482146,-1.0,0
1763545249732,1009.7453,-1.0971092,3.339184,9.027522,0.06849321,0.061239194,0.15477787,85.96875,-0.7875,17.4375,46.950733,0.3361091,49.741684,0.0967121,0.15843196,0.76874727,0.61202437,0.118059956,0.14323322,0.6748956,0.71418625,-1.0,0
1763545249757,1009.7453,-0.66161543,4.1162534,8.443074,0.19921827,0.07315106,0.20975569,86.0625,-1.7812501,18.2625,46.950733,0.3361091,49.741684,0.09839198,0.16184674,0.77066624,0.6084391,0.11865364,0.14460233,0.67591166,0.7128498,-1.0,0
1763545249782,1009.7482,-0.25842485,4.3908296,8.406584,0.25862488,0.026572619,0.22823435,84.3,-2.7,16.181252,46.950733,0.3361091,49.741684,0.10032668,0.16388382,0.771473,0.6065526,0.12252291,0.14802527,0.6778061,0.70968693,-1.0,0
1763545249807,1009.7399,0.096909314,4.540381,8.488539,0.2680933,-0.16279547,0.050319985,85.0875,-2.3625002,16.5375,46.950733,0.3361091,49.741684,0.102918714,0.16560249,0.77162886,0.60545224,0.12538618,0.14931427,0.67786,0.7088648,-1.0,0
1763545249832,1009.7399,0.43669012,4.400999,8.903693,0.1306487,-0.31566438,-0.10529782,86.568756,-2.325,15.76875,46.950733,0.3361091,49.741684,0.10870014,0.16426022,0.76942164,0.60761285,0.12879856,0.14909567,0.67681277,0.70929956,-1.0,0
1763545249858,1009.7607,-0.18424734,4.4799623,10.232906,-0.13782637,-0.26908594,-0.24793474,85.2375,-2.98125,17.643751,46.950733,0.3361091,49.741684,0.108080395,0.16182022,0.76796937,0.6102098,0.13101365,0.14708012,0.67490846,0.71112686,-1.0,0
1763545249883,1009.79535,-1.0336994,4.4745784,11.483754,-0.3436878,0.16157374,-0.20547964,84.4875,-2.30625,17.831251,46.950733,0.3361091,49.741684,0.10487871,0.16009733,0.76704174,0.61238575,0.12671115,0.14343983,0.6715056,0.71585584,-1.0,0
1763545249909,1009.79535,0.053240303,4.502694,12.443276,-0.2409098,0.10384701,-0.08116866,85.443756,-2.71875,17.75625,46.950733,0.3361091,49.741684,0.100254804,0.15784883,0.7666836,0.6141897,0.12333146,0.1428133,0.67103314,0.7170134,-1.0,0
1763545249934,1009.81537,0.9314062,4.368098,12.564712,-0.11018474,-0.11484258,-0.12087487,85.6875,-1.3312501,19.03125,46.950733,0.3361091,49.741684,0.10137709,0.15621094,0.7653572,0.6160757,0.12186323,0.14183311,0.67063916,0.71782714,-1.0,0
1763545249960,1009.81537,0.74476606,4.0307097,12.285948,0.09735657,-0.10002911,-0.43379036,85.068756,-0.13125001,17.79375,46.950733,0.3361091,49.741684,0.10294053,0.15540183,0.7627766,0.6192135,0.1242149,0.1389861,0.6658191,0.72245306,-1.0,0
1763545249985,1009.84344,-0.10109676,3.5419757,11.489138,0.17692171,0.13698642,-0.3617083,85.125,-1.3687501,17.71875,46.950733,0.3361091,49.741684,0.10293716,0.15673305,0.760185,0.62205905,0.124420494,0.14028846,0.66275483,0.7249791,-1.0,0
1763545250010,1009.8359,0.09810573,2.400001,9.675977,0.26519167,0.03940078,-0.27893612,86.2125,-2.4,19.050001,46.950733,0.3361091,49.741684,0.10473824,0.16090167,0.75603247,0.62574387,0.12679875,0.14415798,0.65813535,0.72800994,-1.0,0
1763545250035,1009.8359,0.39182472,2.1182463,8.602198,0.2296088,-0.320704,-0.2483929,85.21875,-0.75,19.368752,46.950733,0.3361091,49.741684,0.10818037,0.16121575,0.7538048,0.6277618,0.13025275,0.14397126,0.65562767,0.72969776,-1.0,0
1763545250060,1009.81537,0.62093747,2.2348964,7.9052877,0.0034361144,-0.23716825,-0.26320636,84.9,-0.91875005,19.25625,46.950733,0.3361091,49.741684,0.11062449,0.16020891,0.75182927,0.6299588,0.13253418,0.14261615,0.65331763,0.73162246,-1.0,0
1763545250085,1009.80096,0.11066805,2.5603201,8.349754,-0.1740201,-0.045662142,-0.26198465,86.4375,-1.48125,16.5,46.950733,0.3361091,49.741684,0.10880226,0.15730292,0.74915004,0.63418615,0.13033655,0.13998042,0.64993185,0.7355314,-1.0,0
1763545250110,1009.80096,-0.13280165,2.9688947,8.349156,-0.18593197,0.083383046,-0.2277762,85.4625,-0.35625002,18.075,46.950733,0.3361091,49.741684,0.10708429,0.15676981,0.7482083,0.6357205,0.12857565,0.1396858,0.64869475,0.736988,-1.0,0
1763545250136,1009.78436,-0.15672988,3.1998022,7.876574,0.020234896,-0.116675176,-0.19204062,87.262505,-0.28125,16.96875,46.950733,0.3361091,49.741684,0.10704949,0.15640163,0.74703175,0.637199,0.1285121,0.13930438,0.6471901,0.7383928,-1.0,0
1763545250160,1009.78436,-0.09750752,3.4223347,6.841678,0.024969097,-0.13988803,-0.21143557,86.55,-0.22500001,16.575,46.950733,0.3361091,49.741684,0.10850732,0.15558758,0.74408704,0.6405881,0.12990028,0.13822898,0.64344794,0.7416154,-1.0,0
1763545250185,1009.7692,-0.17228323,3.426522,6.83091,-0.043142326,-0.034666575,-0.24762931,88.012505,-0.20625001,16.875,46.950733,0.3361091,49.741684,0.10751222,0.15557817,0.7425636,0.64252305,0.12895456,0.13832632,0.6414441,0.7434958,-1.0,0
1763545250210,1009.74774,-0.24646074,3.3367913,7.134799,-0.106672265,0.10415245,-0.30459246,85.51875,-0.09375,18.525002,46.950733,0.3361091,49.741684,0.10570162,0.15584096,0.74098045,0.6445842,0.127237,0.13881636,0.63938665,0.74547,-1.0,0
1763545250235,1009.74774,0.11425728,3.2949169,7.5409803,-0.06314815,0.010690134,-0.34490952,84.76875,1.3125,18.825,46.950733,0.3361091,49.741684,0.104283065,0.15603766,0.7391859,0.6468241,0.12589273,0.13918954,0.63712114,0.7475653,-1.0,0
1763545250260,1009.7526,-0.24885355,3.7268212,8.01117,-0.008628465,-0.064904384,-0.4237111,86.49375,1.7437501,17.550001,46.950733,0.3361091,49.741684,0.10367641,0.1561763,0.7339468,0.65282637,0.12536909,0.13936435,0.6307595,0.7529958,-1.0,0
1763545250285,1009.7609,-1.4321043,3.6891344,7.7294154,-0.07506001,0.21884231,-0.27542365,87.5625,2.8500001,18.91875,46.950733,0.3361091,49.741684,0.10190185,0.1574338,0.7316965,0.65532506,0.12383442,0.14083473,0.62796867,0.75530523,-1.0,0
1763545250310,1009.7609,-2.242673,3.754937,8.030911,-0.15706861,0.13377939,0.039171703,88.425,1.8375001,16.40625,46.950733,0.3361091,49.741684,0.099382006,0.15828817,0.73123974,0.6560157,0.121504426,0.14201622,0.6272147,0.75608844,-1.0,0
1763545250335,1009.7778,-0.5778667,4.145565,10.219148,-0.1627191,-0.13744457,0.31039566,88.387505,1.06875,18.768751,46.950733,0.3361091,49.741684,0.099723436,0.15458637,0.734977,0.6526615,0.12035816,0.14121181,0.6285941,0.7552765,-1.0,0
1763545250361,1009.7778,0.91405827,4.314259,11.223535,-0.118125975,-0.364839,0.4153117,86.793755,0.52500004,19.59375,46.950733,0.3361091,49.741684,0.10269935,0.15096705,0.7371862,0.6505523,0.12380584,0.13420253,0.63337845,0.75199306,-1.0,0
1763545250386,1009.8161,1.6354942,4.185645,11.879766,-0.05902481,-0.14630212,0.11110103,85.89375,-0.43125,17.8875,46.950733,0.3361091,49.741684,0.10499052,0.1481985,0.73837286,0.6494765,0.12568091,0.13111107,0.6346163,0.7511833,-1.0,0
1763545250411,1009.8632,0.8644072,3.8057845,12.172887,-0.03138318,0.21471897,0.05291616,87.28125,-0.0375,18.018751,46.950733,0.3361091,49.741684,0.1048422,0.14762793,0.73888344,0.6490496,0.12545928,0.13055979,0.6351316,0.75088084,-1.0,0
1763545250436,1009.8632,-1.0522437,4.286144,11.447264,0.060093824,0.4650208,0.21143557,88.18125,0.675,17.587502,46.950733,0.3361091,49.741684,0.10027113,0.15310073,0.7422647,0.6446309,0.12347657,0.13266519,0.63643533,0.74973565,-1.0,0
1763545250462,1009.87274,-0.86201435,4.5631127,10.347761,0.29833108,0.06520981,0.40569058,89.26875,-0.3375,18.300001,46.950733,0.3361091,49.741684,0.100552894,0.15665986,0.74467844,0.6409374,0.12258144,0.14009634,0.64188313,0.74386346,-1.0,0
1763545250487,1009.8632,-0.317049,4.5409794,9.772287,0.124234624,-0.33551747,0.25541782,86.512505,-1.6125001,18.806252,46.950733,0.3361091,49.741684,0.10375061,0.15708381,0.7462585,0.6384816,0.12583695,0.14001633,0.64364827,0.74180686,-1.0,0
1763545250512,1009.8632,-0.5587241,3.6227336,10.494322,-0.027259842,-0.23014331,0.14744748,87.7125,-0.63750005,20.493752,46.950733,0.3361091,49.741684,0.10686278,0.15496117,0.74695987,0.6376664,0.12863097,0.13742885,0.64430106,0.74124455,-1.0,0
1763545250537,1009.8757,-1.5044873,2.3928227,10.167702,0.07918335,0.18081598,0.16378812,89.90625,-0.88125,17.493752,46.950733,0.3361091,49.741684,0.10591917,0.15588067,0.7490963,0.6350883,0.12784019,0.13847215,0.6467622,0.7390406,-1.0,0
1763545250562,1009.85736,-1.5541383,2.656033,9.046664,-0.06101012,-0.0012217296,0.08895718,88.5,-3.3937502,18.712502,46.950733,0.3361091,49.741684,0.1052232,0.15642145,0.7499919,0.63401294,0.12720828,0.13913177,0.64793324,0.73799926,-1.0,0
1763545250587,1009.85736,-1.9393828,2.1361923,8.815757,-0.32215482,-0.037415467,-0.03459022,88.4625,-1.29375,19.81875,46.950733,0.3361091,49.741684,0.10061856,0.1518865,0.7506515,0.6350817,0.122003555,0.13530976,0.6483169,0.7392507,-1.0,0
1763545250612,1009.8383,-2.5166512,1.8011973,8.886943,-0.5628355,0.16523892,-0.060399257,88.725006,-2.2687502,19.706251,46.950733,0.3361091,49.741684,0.094215974,0.1488334,0.7517609,0.6354742,0.11522657,0.13323237,0.6493163,0.73983806,-1.0,0
1763545250638,1009.8383,-2.0572293,1.869991,9.245269,-0.67233306,0.34742934,0.21693335,90.84375,-1.29375,18.487501,46.950733,0.3361091,49.741684,0.08683519,0.14577916,0.7540431,0.63452905,0.107478365,0.13130239,0.65169287,0.7392594,-1.0,0
1763545250663,1009.80853,-1.2053844,2.2839491,9.740582,-0.44356418,0.19929464,0.23220497,91.106255,-0.65625,19.35,46.950733,0.3361091,49.741684,0.08099725,0.14317176,0.75651395,0.63295186,0.10131693,0.12959006,0.65437907,0.7380578,-1.0,0
1763545250688,1009.80023,-0.6987042,2.5411777,9.799207,-0.055665053,0.120034926,0.2202931,91.36875,-0.63750005,21.1875,46.950733,0.3361091,49.741684,0.07847806,0.14336076,0.75964767,0.62946355,0.0988524,0.13015111,0.6580015,0.7350666,-1.0,0
1763545250714,1009.80023,-0.62751776,2.7026932,8.400003,0.39454228,0.18539746,0.27267477,91.4625,-1.63125,20.60625,46.950733,0.3361091,49.741684,0.07966799,0.14686769,0.7608328,0.62706965,0.10054942,0.13344258,0.6595249,0.73287773,-1.0,0
1763545250739,1009.7712,0.276371,3.1830523,6.8075805,0.279547,0.17012584,0.24320054,91.74375,-2.34375,21.54375,46.950733,0.3361091,49.741684,0.081231415,0.15244491,0.7630732,0.6228011,0.10295555,0.13870168,0.66219646,0.72914875,-1.0,0
1763545250764,1009.7712,0.276371,3.1830523,6.8075805,0.084833845,0.12064579,0.10270164,91.74375,-2.34375,21.54375,46.950733,0.3361091,49.741684,0.081231415,0.15244491,0.7630732,0.6228011,0.10295555,0.13870168,0.66219646,0.72914875,-1.0,0
1763545250789,1009.7414,-0.5246264,3.0622149,8.170293,0.0193186,0.17043127,-0.11415535,92.775,-2.25,22.518751,46.950733,0.3361091,49.741684,0.079505004,0.15418975,0.76275104,0.622989,0.10152787,0.14066845,0.6617428,0.72938395,-1.0,0
1763545250816,1009.73505,-1.4524434,3.0634112,8.644072,0.1503491,0.1311832,-0.03565923,91.59375,-3.8625002,21.50625,46.950733,0.3361091,49.741684,0.07873627,0.15579556,0.76220846,0.62335116,0.10100839,0.14236909,0.6611411,0.72967166,-1.0,0
1763545250841,1009.73505,-2.0231316,3.2560334,8.453244,0.2796997,0.044134982,0.12942697,94.36875,-3.825,22.29375,46.950733,0.3361091,49.741684,0.081251815,0.16045803,0.7629406,0.62094533,0.10418744,0.14660704,0.6622289,0.72739553,-1.0,0
1763545250866,1009.74066,-1.4374882,3.6430724,8.415557,0.34720027,-0.0386372,0.29008442,91.93125,-5.8125,21.112501,46.950733,0.3361091,49.741684,0.08439714,0.16230696,0.7642704,0.6184047,0.10757574,0.14796583,0.6639057,0.7250951,-1.0,0
1763545250892,1009.747,-0.40977088,3.871587,8.960523,0.21861324,-0.3593412,0.2334267,92.4,-4.89375,21.46875,46.950733,0.3361091,49.741684,0.08861961,0.16259612,0.7653891,0.61635095,0.11180268,0.1476181,0.6652762,0.723268,-1.0,0
1763545250918,1009.747,-0.79860455,3.952345,10.668998,0.08880447,-0.3149008,0.045433067,93.168755,-4.5750003,23.0625,46.950733,0.3361091,49.741684,0.0943908,0.16065225,0.7652989,0.6161159,0.117229864,0.1448307,0.6651768,0.72306365,-1.0,0
1763545250943,1009.78217,-1.608575,4.150351,10.902298,0.09414954,0.13332124,0.023594651,95.15625,-6.58125,20.19375,46.950733,0.3361091,49.741684,0.09430593,0.16153303,0.76516837,0.6160607,0.11727344,0.1457171,0.66507316,0.7229738,-1.0,0
1763545250969,1009.8017,-1.494916,4.3878384,10.284351,0.017486004,0.14110976,0.043600474,93.15,-6.3187504,21.7875,46.950733,0.3361091,49.741684,0.09347648,0.16322766,0.7654451,0.6153963,0.11670425,0.14751692,0.66545004,0.7223539,-1.0,0
1763545250994,1009.8017,-0.36789647,4.442275,10.758131,-0.28733552,-0.022449281,-0.07322741,93.39375,-6.5437503,21.768751,46.950733,0.3361091,49.741684,0.08987058,0.15945518,0.76527214,0.6171352,0.115421034,0.14741907,0.66562295,0.7224207,-1.0,0
1763545251020,1009.8266,-0.7322037,3.5330026,12.463615,-0.55367255,0.021074835,-0.2352593,92.4375,-6.1312504,22.1625,46.950733,0.3361091,49.741684,0.08618015,0.15495802,0.76456875,0.6196738,0.108287856,0.1404021,0.6638012,0.72658724,-1.0,0
1763545251045,1009.8576,-0.31106696,2.4119651,13.529617,-0.17478369,0.10461059,-0.12881611,94.59375,-5.55,22.987501,46.950733,0.3361091,49.741684,0.08288276,0.15248224,0.7641765,0.6212197,0.104643315,0.13845636,0.66326374,0.7279841,-1.0,0
1763545251070,1009.8576,1.1706885,2.1080768,10.514661,0.18425208,0.03527744,-0.108657576,93.58125,-5.64375,20.925001,46.950733,0.3361091,49.741684,0.083311416,0.15395911,0.76257443,0.6227648,0.1038353,0.13893734,0.662861,0.7283749,-1.0,0
1763545251097,1009.85223,1.2658032,2.161317,9.189037,0.2201404,-0.04046979,-0.18165591,95.71875,-4.425,21.243752,46.950733,0.3361091,49.741684,0.08417349,0.15430307,0.76106495,0.6244082,0.10520018,0.13991828,0.6619016,0.72886354,-1.0,0
1763545251122,1009.85223,0.6029913,2.2277179,8.772088,-0.19173518,0.1423315,-0.25053093,94.537506,-6.5437503,22.575,46.950733,0.3361091,49.741684,0.08287311,0.15367587,0.75968117,0.6264187,0.10467139,0.13974309,0.6587784,0.7317969,-1.0,0
1763545251147,1009.8327,0.047856454,2.4364917,8.942576,-0.19631667,0.19669846,-0.13965896,96.58125,-5.2125,22.29375,46.950733,0.3361091,49.741684,0.079882346,0.15300538,0.7590486,0.62773675,0.10159771,0.139534,0.6580456,0.7329285,-1.0,0
1763545251172,1009.80414,0.0526421,2.9383862,8.349156,-0.025579963,0.0377209,-0.07841977,96.450005,-5.8500004,22.650002,46.950733,0.3361091,49.741684,0.078707494,0.1528612,0.7582804,0.6288477,0.10039402,0.13957956,0.65722924,0.73381764,-1.0,0
1763545251197,1009.80414,0.23509483,3.0317063,7.6516485,0.1333976,-0.06826414,-0.058108512,96.637505,-6.3375,22.35,46.950733,0.3361091,49.741684,0.080230646,0.15393454,0.75756925,0.6292504,0.10205706,0.1404178,0.6564757,0.7341027,-1.0,0
1763545251225,1009.7775,-0.22612174,3.2267213,5.94437,0.2409098,0.14630212,-0.17676899,97.537506,-6.3562503,21.31875,46.950733,0.3361091,49.741684,0.08087304,0.15908426,0.7550276,0.63093984,0.10346621,0.14540632,0.6536407,0.73546284,-1.0,0
1763545251250,1009.7314,-0.5916254,3.112464,6.0831532,0.13263401,0.23212862,-0.23327398,97.293755,-6.6375003,23.38125,46.950733,0.3361091,49.741684,0.07955776,0.1615715,0.75356895,0.63221765,0.10254988,0.14804833,0.65192246,0.7365883,-1.0,0
1763545251275,1009.7314,-0.8039884,3.0795627,6.4462643,0.12698352,0.06139191,-0.24900375,97.59376,-6.61875,23.643751,46.950733,0.3361091,49.741684,0.07893322,0.16354173,0.75194335,0.63372296,0.1022384,0.15007886,0.65001774,0.7379028,-1.0,0
1763545251300,1009.69965,-0.80817586,3.423531,6.6107707,0.09185879,-0.08659008,-0.21907139,97.818756,-4.9500003,21.225,46.950733,0.3361091,49.741684,0.08043522,0.16440146,0.7488635,0.6369504,0.10387821,0.15068834,0.64636075,0.74075645,-1.0,0
1763545251325,1009.6977,-0.5623133,3.5581272,7.252047,-0.049709123,-0.14569125,-0.1740201,97.818756,-5.7000003,20.79375,46.950733,0.3361091,49.741684,0.08030654,0.1630596,0.74797404,0.63835514,0.10356992,0.14936817,0.64518607,0.74208987,-1.0,0
1763545251350,1009.6977,-0.7812566,3.6693935,8.185248,-0.34124434,-0.046731155,-0.0570395,97.21876,-7.89375,21.75,46.950733,0.3361091,49.741684,0.07895478,0.16090034,0.74769986,0.639392,0.10192886,0.14742213,0.6446829,0.7431428,-1.0,0
1763545251375,1009.72284,-0.8895318,3.8727834,9.303294,-0.41134107,-0.062613636,0.05215258,98.26875,-6.2812505,22.331251,46.950733,0.3361091,49.741684,0.077036574,0.15794918,0.7482205,0.6397527,0.09960733,0.14477898,0.6450781,0.7436341,-1.0,0
1763545251400,1009.72284,-0.2440679,4.214359,11.659627,-0.39133525,-0.10827578,0.14332415,99.05625,-7.4437504,21.993752,46.950733,0.3361091,49.741684,0.074505635,0.15113309,0.7507869,0.6386914,0.09611211,0.13840073,0.6476742,0.7430517,-1.0,0
1763545251425,1009.76263,0.058624156,4.1491547,12.313465,-0.27511823,-0.13790272,0.14240785,98.193756,-8.043751,22.743752,46.950733,0.3361091,49.741684,0.074416436,0.14880618,0.75167024,0.63820904,0.09568152,0.13611072,0.6486031,0.74272,-1.0,0
1763545251450,1009.809,-0.4833502,4.1521454,12.41875,-0.08513928,0.16203189,0.07399099,100.425,-6.5625005,21.65625,46.950733,0.3361091,49.741684,0.07376978,0.14805718,0.75220454,0.6378287,0.0949289,0.13546738,0.6491986,0.7424138,-1.0,0
1763545251476,1009.809,-1.5337993,4.5373898,12.282957,-0.03214676,0.3839285,0.20853396,98.83125,-6.99375,23.550001,46.950733,0.3361091,49.741684,0.06902272,0.15191552,0.7553325,0.63374305,0.092933275,0.13686082,0.6505119,0.74126023,-1.0,0
1763545251500,1009.84247,-1.6061822,4.692325,11.443674,0.12728895,0.4402808,0.3447568,99.43125,-7.0312505,22.237501,46.950733,0.3361091,49.741684,0.06817111,0.15567274,0.75750834,0.6303173,0.09052973,0.14382513,0.6555222,0.7358052,-1.0,0
1763545251525,1009.8305,-1.4015958,4.523033,10.585249,0.24579671,-0.15882485,0.2720639,99.356255,-8.793751,22.66875,46.950733,0.3361091,49.741684,0.07014305,0.15799204,0.7590876,0.6276181,0.09283716,0.1458177,0.6574196,0.7334289,-1.0,0
1763545251550,1009.8305,-1.2089736,3.4929228,10.860424,0.17463097,-0.28848088,0.18913901,100.537506,-10.1625,23.081251,46.950733,0.3361091,49.741684,0.07379074,0.15772273,0.75985765,0.6263344,0.09641845,0.14500004,0.6583005,0.732338,-1.0,0
1763545251575,1009.842,-1.7802601,2.1433709,10.247263,0.28046328,-0.004123337,0.24930918,98.55,-9.993751,21.73125,46.950733,0.3361091,49.741684,0.07773192,0.161117,0.7621183,0.6222338,0.0991546,0.14488925,0.65930045,0.731094,-1.0,0
1763545251601,1009.842,-1.3710874,2.681756,8.483154,0.3184896,-0.013286309,0.3087158,100.65,-11.26875,21.28125,46.950733,0.3361091,49.741684,0.07933507,0.16442528,0.76377016,0.61913276,0.10283239,0.15084834,0.663554,0.7255111,-1.0,0
1763545251626,1009.8144,-0.80877405,2.9353952,7.3513494,-0.06330086,-0.25793764,0.09521855,99.09376,-10.931251,22.050001,46.950733,0.3361091,49.741684,0.08162259,0.16442186,0.7646517,0.6177468,0.10508584,0.15051164,0.66467094,0.7242346,-1.0,0
1763545251651,1009.7917,-1.5194423,1.881955,9.30808,-0.44768754,-0.13347395,-0.08849903,100.425,-12.39375,20.587502,46.950733,0.3361091,49.741684,0.078236215,0.15708247,0.76490057,0.61978334,0.10465929,0.14707464,0.6647235,0.72495383,-1.0,0
1763545251676,1009.7917,-2.2151556,1.6612171,9.896714,-0.52221304,0.10690133,-0.10102176,99.525,-13.125001,22.275002,46.950733,0.3361091,49.741684,0.073953696,0.15472747,0.76559854,0.6200396,0.10064494,0.14375815,0.6646374,0.7262654,-1.0,0
1763545251702,1009.7802,-1.8957137,1.8418752,9.434899,-0.06421716,0.11713332,0.31467173,101.86875,-11.64375,21.9375,46.950733,0.3361091,49.741684,0.07134328,0.15416071,0.76730406,0.61837626,0.093345486,0.14192253,0.6674768,0.7249961,-1.0,0
1763545251727,1009.7658,-0.44506502,2.7930222,7.539186,0.09796744,-0.020005822,0.4191296,100.818756,-12.4875,21.956251,46.950733,0.3361091,49.741684,0.07309639,0.15451683,0.7718841,0.61235327,0.095099084,0.14203766,0.67306346,0.7195603,-1.0,0
1763545251752,1009.7658,-0.23509483,3.1645079,6.919445,0.12896882,-0.091629714,0.42737627,101.71876,-12.50625,20.456251,46.950733,0.3361091,49.741684,0.07498885,0.15448403,0.77411693,0.60930645,0.09696831,0.14172435,0.67570984,0.7168874,-1.0,0
1763545251779,1009.7404,-0.084346995,3.1645079,6.6592255,-0.039477136,0.062155493,0.3523926,98.943756,-15.3,21.225,46.950733,0.3361091,49.741684,0.07565937,0.15446693,0.7763307,0.6064044,0.09764099,0.14160019,0.6782669,0.7144016,-1.0,0
1763545251804,1009.7265,-0.29012975,3.330211,7.1252275,-0.142866,0.0490219,0.26763514,100.350006,-15.525001,22.63125,46.950733,0.3361091,49.741684,0.07458349,0.15278433,0.77988595,0.60238874,0.09635693,0.14007531,0.68223155,0.7110938,-1.0,0
1763545251829,1009.7265,-0.87637126,3.286542,7.6594253,-0.19891284,0.013133593,0.17142393,100.68751,-16.10625,21.54375,46.950733,0.3361091,49.741684,0.0735947,0.15135823,0.7810316,0.6013852,0.09518259,0.13880116,0.68343896,0.710342,-1.0,0
1763545251854,1009.72577,-1.4452649,3.315854,8.169097,-0.1532507,0.06536253,0.20471606,99.99375,-17.306252,21.993752,46.950733,0.3361091,49.741684,0.072308965,0.15032274,0.78227943,0.6001779,0.09376915,0.13795961,0.6847931,0.7093891,-1.0,0
1763545251879,1009.72577,-1.7246269,3.6173496,8.59801,-0.013209951,0.037415467,0.337121,102.24375,-16.44375,20.325,46.950733,0.3361091,49.741684,0.071635835,0.15002394,0.78394115,0.59816176,0.093068555,0.13775745,0.686687,0.70768785,-1.0,0
1763545251904,1009.7282,-0.13998012,4.703093,8.514261,0.11186461,-0.0058032153,0.43409577,100.50001,-18.618752,20.325,46.950733,0.3361091,49.741684,0.07389471,0.15163077,0.7882244,0.5918193,0.095571786,0.13899049,0.6917047,0.7022053,-1.0,0
1763545251929,1009.7414,0.19800608,5.1212387,8.349754,0.055970486,-0.08872811,0.07551816,100.2375,-18.393751,20.962502,46.950733,0.3361091,49.741684,0.07555582,0.15248555,0.7891711,0.59012586,0.09737016,0.13956922,0.69274724,0.70081437,-1.0,0
1763545251954,1009.7414,-0.17527425,4.858028,8.655437,-0.19066617,-0.21105379,-0.15431972,100.03126,-19.29375,21.806252,46.950733,0.3361091,49.741684,0.07682308,0.15154122,0.78882796,0.59066397,0.098519556,0.13842118,0.69214326,0.7014779,-1.0,0
1763545251980,1009.7736,-0.849452,4.197609,9.752547,-0.49609855,-0.20998476,-0.30581418,101.025,-18.806252,20.737501,46.950733,0.3361091,49.741684,0.076615736,0.14807774,0.78769755,0.593073,0.097829685,0.13500498,0.6905075,0.7038483,-1.0,0
1763545252005,1009.82684,-2.6811578,3.4827533,13.721642,-0.52801627,-0.044287696,-0.07200569,98.81251,-19.5375,21.7875,46.950733,0.3361091,49.741684,0.06985964,0.13827024,0.78636193,0.59802663,0.08970302,0.1263028,0.6883604,0.7086331,-1.0,0
1763545252030,1009.82684,-2.0901306,3.39721,15.261423,-0.066049755,-0.20097451,0.1372155,100.0875,-19.03125,22.087502,46.950733,0.3361091,49.741684,0.06833576,0.13526957,0.7869625,0.598099,0.087738104,0.123570465,0.6890037,0.70873564,-1.0,0
1763545252056,1009.8864,0.77407813,3.4307094,13.669598,0.45730865,-0.38224864,0.12698352,99.525,-17.7,19.143751,46.950733,0.3361091,49.741684,0.078103565,0.13701802,0.78664064,0.59692746,0.09095812,0.12278568,0.68972915,0.7077598,-1.0,0
1763545252082,1009.9174,0.57427746,3.1555347,11.66202,0.6501892,0.109039366,-0.1928042,99.356255,-19.10625,20.775002,46.950733,0.3361091,49.741684,0.08282947,0.14130734,0.7849179,0.59755796,0.102906175,0.12743154,0.68741685,0.70755184,-1.0,0
1763545252108,1009.9174,0.23928227,2.882155,9.911072,0.4896845,0.31642795,-0.27466008,100.36875,-20.212502,17.34375,46.950733,0.3361091,49.741684,0.08391263,0.147123,0.78304297,0.5984624,0.10482602,0.13303386,0.68551046,0.7080882,-1.0,0
1763545252133,1009.89325,0.3696911,2.4687948,8.916854,0.26687154,0.073761925,-0.39301512,101.512505,-20.00625,20.90625,46.950733,0.3361091,49.741684,0.085237734,0.15197423,0.77796185,0.6036669,0.105414264,0.13730778,0.6830959,0.70951706,-1.0,0
1763545252159,1009.89325,0.7256235,1.3453646,9.364909,0.082848534,-0.31627524,-0.45837766,99.37501,-20.475,20.550001,46.950733,0.3361091,49.741684,0.08795164,0.14956497,0.77487427,0.607836,0.109135926,0.13488705,0.6762896,0.71591,-1.0,0
1763545252183,1009.87274,1.090529,1.2634103,9.611969,-0.06207913,-0.41263917,-0.5106066,99.00001,-20.1375,20.71875,46.950733,0.3361091,49.741684,0.09047102,0.14613566,0.77164227,0.612395,0.11108724,0.13114975,0.6725952,0.7197743,-1.0,0
1763545252208,1009.86224,1.0390832,1.7186449,9.3308115,-0.028481571,-0.17272201,-0.5023599,101.418755,-19.875,20.1375,46.950733,0.3361091,49.741684,0.0916545,0.14385507,0.7685461,0.6166377,0.11188589,0.12874927,0.66909987,0.72333294,-1.0,0
1763545252233,1009.86224,1.1150553,2.3431716,8.555537,-0.026343543,-0.029016078,-0.51961684,101.62501,-18.975,17.90625,46.950733,0.3361091,49.741684,0.091453634,0.14319561,0.7655785,0.62050045,0.11156401,0.12814923,0.66574126,0.72658086,-1.0,0
1763545252258,1009.8376,0.99661064,3.094518,8.251051,0.017333288,-0.12110394,-0.72043866,100.6125,-19.462502,20.362501,46.950733,0.3361091,49.741684,0.09062738,0.14239873,0.7582567,0.629727,0.110615194,0.1274951,0.6572206,0.7345545,-1.0,0
1763545252283,1009.8376,0.033499517,2.812763,8.391629,0.017333288,-0.12110394,-0.72043866,100.6125,-19.462502,20.362501,46.950733,0.3361091,49.741684,0.091443375,0.14285569,0.7536467,0.6350174,0.110615194,0.1274951,0.6572206,0.7345545,-1.0,0
1763545252308,1009.80707,-0.45882374,2.7529426,6.9583282,0.33788458,0.06994402,-0.5915462,100.93125,-17.306252,18.975,46.950733,0.3361091,49.741684,0.0928843,0.14921388,0.7454911,0.6429236,0.113843665,0.13391003,0.6426935,0.74568945,-1.0,0
1763545252334,1009.7768,-0.6047859,2.87378,6.192625,0.3569741,0.15241076,-0.5487856,100.51875,-16.987501,20.53125,46.950733,0.3361091,49.741684,0.09314573,0.15282024,0.7418292,0.6462656,0.11463609,0.13743626,0.6385642,0.7484688,-1.0,0
1763545252359,1009.7768,-0.7579266,3.0855448,5.977869,0.074449144,-0.06444623,-0.4945714,99.825005,-18.1875,21.45,46.950733,0.3361091,49.741684,0.093473196,0.15460786,0.73837334,0.6497415,0.11523282,0.13914824,0.63458246,0.7514414,-1.0,0
1763545252385,1009.7509,-1.9932213,3.112464,6.996015,-0.09369139,-0.067195125,-0.37255114,100.912506,-17.325,20.04375,46.950733,0.3361091,49.741684,0.09200416,0.1538777,0.73394233,0.6551225,0.11370237,0.13861777,0.6292426,0.75624776,-1.0,0
1763545252410,1009.7343,-1.9292133,3.1441689,7.7066836,-0.21418446,0.06933315,-0.13782637,101.700005,-18.375,21.4125,46.950733,0.3361091,49.741684,0.08926929,0.15334113,0.73431367,0.6552106,0.11093178,0.13847978,0.629523,0.75645113,-1.0,0
1763545252436,1009.7343,-1.4039887,3.367898,8.456834,-0.2438114,0.17195843,0.11232276,101.700005,-19.10625,20.85,46.950733,0.3361091,49.741684,0.08691569,0.15302764,0.7359798,0.6537292,0.10856751,0.13850953,0.63133603,0.7552768,-1.0,0
1763545252465,1009.7397,-1.314856,3.754937,9.124431,-0.052458014,-0.04367683,0.2957349,101.418755,-19.125,19.800001,46.950733,0.3361091,49.741684,0.087262504,0.15168269,0.7398776,0.6495835,0.10872919,0.13711435,0.63570833,0.7518328,-1.0,0
1763545252490,1009.75555,-1.0809577,3.8356948,9.186047,-0.12881611,-0.062308207,0.45196357,102.61875,-18.900002,21.35625,46.950733,0.3361091,49.741684,0.08794796,0.15059294,0.7425598,0.6466776,0.109255485,0.13592762,0.6387384,0.74939984,-1.0,0
1763545252515,1009.75555,-0.60717875,3.915256,9.605389,-0.3265836,-0.019853106,0.42248935,99.80625,-19.800001,20.925001,46.950733,0.3361091,49.741684,0.087560296,0.14850934,0.7455847,0.64372486,0.10857417,0.13391592,0.6421094,0.7469764,-1.0,0
1763545252541,1009.7729,-0.63170516,3.598207,12.309876,-0.4896845,0.1404989,0.37453645,100.87501,-21.056252,20.587502,46.950733,0.3361091,49.741684,0.08084083,0.14320949,0.75182337,0.6385275,0.10115473,0.12966079,0.6489894,0.74281126,-1.0,0
1763545252566,1009.8193,-1.1712867,3.7884364,12.659228,-0.43837184,0.39538223,0.36659524,99.731255,-20.0625,21.73125,46.950733,0.3361091,49.741684,0.0757245,0.14335434,0.7550356,0.63532406,0.09610847,0.13056733,0.6526844,0.74008006,-1.0,0
1763545252591,1009.8193,-1.6354942,4.046861,11.71526,-0.12163845,0.17959425,0.45226902,101.418755,-22.63125,21.54375,46.950733,0.3361091,49.741684,0.07253829,0.14421411,0.7581648,0.6317647,0.093079366,0.13189293,0.6563353,0.73699695,-1.0,0
1763545252616,1009.8305,-0.701097,2.952743,11.806187,-0.20746495,-0.21914774,0.43730283,99.825005,-22.5375,21.54375,46.950733,0.3361091,49.741684,0.07323861,0.13884032,0.76370573,0.6261893,0.092871584,0.13040538,0.6596581,0.73431635,-1.0,0
1763545252641,1009.8305,-0.97806627,2.000998,12.530016,-0.32551455,-0.17562363,0.3701077,97.8375,-24.487501,20.775002,46.950733,0.3361091,49.741684,0.07193517,0.13620514,0.76627046,0.6237813,0.09129392,0.124064185,0.66555566,0.73028016,-1.0,0
1763545252667,1009.8598,-1.5631114,1.7491534,11.8283205,0.11934771,0.1122464,0.47532916,98.418755,-23.0625,20.94375,46.950733,0.3361091,49.741684,0.07066126,0.13654986,0.76907593,0.6203897,0.09005657,0.124614194,0.6689983,0.727188,-1.0,0
1763545252691,1009.8564,-0.61734825,2.2085752,9.071191,0.19142975,-0.20708317,0.464639,99.00001,-25.987501,20.90625,46.950733,0.3361091,49.741684,0.07550606,0.13580997,0.77382153,0.6140479,0.09180244,0.12497788,0.67230636,0.72384876,-1.0,0
1763545252716,1009.8564,-0.61734825,2.2085752,9.071191,-0.03046688,-0.2864956,0.34735298,98.7375,-25.0125,21.337502,46.950733,0.3361091,49.741684,0.07550606,0.13580997,0.77382153,0.6140479,0.094695814,0.12319991,0.67488104,0.7213807,-1.0,0
1763545252741,1009.8398,-0.66759753,1.7306089,9.884152,-0.3475057,0.29733843,0.26244277,98.34376,-27.056252,21.1875,46.950733,0.3361091,49.741684,0.072300196,0.13125537,0.7778665,0.610302,0.09083227,0.119183846,0.67956334,0.71814924,-1.0,0
1763545252766,1009.8398,-0.5174479,1.8723837,10.2317095,-0.11950042,0.25747952,0.24778202,96.39375,-26.38125,22.425001,46.950733,0.3361091,49.741684,0.068584494,0.13078676,0.7799679,0.6081456,0.08707026,0.11928027,0.6820663,0.7162238,-1.0,0
1763545252791,1009.8317,-0.3188436,2.4592235,8.483154,0.13858995,0.107054055,0.18516839,97.0875,-28.06875,22.7625,46.950733,0.3361091,49.741684,0.068458766,0.13321391,0.7820987,0.6048876,0.08606861,0.12028694,0.6838335,0.71448934,-1.0,0
1763545252816,1009.80634,-0.38404804,2.6386852,7.6773715,0.22823435,0.019394957,0.1465312,97.68751,-27.243752,22.2,46.950733,0.3361091,49.741684,0.0697765,0.13469477,0.7827328,0.60358757,0.08727347,0.121720545,0.6848248,0.71314967,-1.0,0
1763545252842,1009.7836,0.02871387,2.6488547,7.5499535,0.117056966,0.10797035,0.18028148,97.762505,-28.368752,22.25625,46.950733,0.3361091,49.741684,0.0703666,0.13600393,0.7836761,0.6019994,0.089571215,0.12419952,0.6868033,0.71052986,-1.0,0
1763545252868,1009.7836,0.0849452,2.8791637,7.103692,0.106977694,0.18814635,0.11720968,95.568756,-29.718752,23.175001,46.950733,0.3361091,49.741684,0.069605865,0.139369,0.785,0.5995884,0.08932334,0.12763244,0.6884082,0.7083964,-1.0,0
1763545252893,1009.7541,-0.48394838,2.8660033,7.0863442,0.07506001,0.1565341,0.043753188,94.93125,-30.656252,23.75625,46.950733,0.3361091,49.741684,0.06933536,0.14033903,0.7851405,0.5992095,0.08920759,0.1286252,0.6885514,0.70809215,-1.0,0
1763545252918,1009.7541,-0.93320084,2.71705,7.539186,0.014431681,0.066889696,0.091400646,96.09376,-30.0375,23.1375,46.950733,0.3361091,49.741684,0.069237284,0.14080024,0.785421,0.5987448,0.08918775,0.12908933,0.6888457,0.70772386,-1.0,0
1763545252944,1009.75116,-1.1234303,3.1154552,8.200203,0.0020616686,0.12324197,0.1824195,94.40625,-30.45,22.725,46.950733,0.3361091,49.741684,0.06788852,0.1421803,0.78758085,0.5957284,0.08806562,0.1306466,0.69137675,0.7051057,-1.0,0
1763545252969,1009.7463,-0.9236295,3.2769706,8.802596,-0.004657844,0.12171481,0.24258968,93.5625,-30.16875,24.018751,46.950733,0.3361091,49.741684,0.06742132,0.14289047,0.78904986,0.59366393,0.08771569,0.13141261,0.6930922,0.70332056,-1.0,0
1763545252994,1009.7463,-0.99900347,3.4660037,9.370294,0.10483967,0.041538805,0.22670719,93.881256,-29.38125,22.706251,46.950733,0.3361091,49.741684,0.067641936,0.14374608,0.79033,0.5917265,0.08806676,0.13222185,0.6946067,0.7016289,-1.0,0
1763545253019,1009.76654,-1.0725827,3.5671003,9.780663,0.16684245,0.04016436,0.21082471,94.668755,-31.931252,24.468752,46.950733,0.3361091,49.741684,0.068502426,0.14498499,0.7913749,0.5899258,0.089106746,0.13331623,0.69587135,0.70003563,-1.0,0
1763545253044,1009.7907,-1.0977074,3.5443685,10.262816,0.13324489,0.1424842,0.19433136,92.025,-33.3375,25.29375,46.950733,0.3361091,49.741684,0.06801993,0.14846721,0.79341424,0.5863657,0.08915043,0.13682626,0.6983713,0.696856,-1.0,0
1763545253069,1009.7907,-1.0007981,3.8171504,10.768898,-0.0040469794,0.30390522,0.17081307,94.36875,-32.5875,25.1625,46.950733,0.3361091,49.741684,0.06500789,0.14989692,0.7945255,0.58483684,0.08638414,0.13868271,0.69968444,0.6955189,-1.0,0
1763545253094,1009.82587,-1.0271192,4.1551366,11.458032,-0.13293944,0.17653993,-0.0014508038,92.512505,-33.9,24.656252,46.950733,0.3361091,49.741684,0.062051617,0.15046385,0.79513186,0.58418787,0.08354823,0.13967627,0.7003571,0.6949893,-1.0,0
1763545253119,1009.82587,-0.42711884,3.8470607,12.009577,-0.06223185,-0.093309596,-0.040698867,93.131256,-32.850002,25.7625,46.950733,0.3361091,49.741684,0.062434748,0.14852218,0.7948168,0.58507204,0.083651826,0.1376928,0.6998606,0.6958723,-1.0,0
1763545253145,1009.8608,0.54675996,3.7160535,12.154941,-0.091706075,-0.28252497,-0.053068876,91.106255,-33.54375,24.468752,46.950733,0.3361091,49.741684,0.06361372,0.1457071,0.7944529,0.58614624,0.0844025,0.13473487,0.6993439,0.6968793,-1.0,0
1763545253170,1009.88715,1.1413764,3.4534414,12.94218,-0.18486296,0.23304491,-0.2749655,90.131256,-32.41875,26.5125,46.950733,0.3361091,49.741684,0.061959945,0.14384016,0.7937536,0.58772963,0.082489505,0.13313344,0.6984295,0.6983317,-1.0,0
1763545253195,1009.88715,0.991825,2.6171498,12.936795,0.17997603,0.34773478,-0.41974047,91.6875,-34.350002,24.768751,46.950733,0.3361091,49.741684,0.05889148,0.14546801,0.7920695,0.58991253,0.07968434,0.1352019,0.6964948,0.7001899,-1.0,0
1763545253221,1009.89594,-0.5210371,1.6833507,9.020343,0.4304306,-0.08124501,-0.4579195,90.450005,-33.862503,24.862501,46.950733,0.3361091,49.741684,0.06316876,0.14992481,0.7860699,0.5963441,0.08451826,0.13901226,0.6898842,0.705402,-1.0,0
1763545253247,1009.8686,-0.08554341,1.4937196,8.583055,0.017486004,-0.2593121,-0.22563818,92.418755,-32.90625,24.45,46.950733,0.3361091,49.741684,0.06653453,0.14881554,0.7840186,0.5989507,0.087663,0.137434,0.6875824,0.7075716,-1.0,0
1763545253272,1009.8686,0.71306115,2.1050856,8.988638,-0.19402592,0.076816246,-0.19876012,89.25,-34.631252,26.8875,46.950733,0.3361091,49.741684,0.06340442,0.14643043,0.78223103,0.60220647,0.08704526,0.1360053,0.686455,0.70901704,-1.0,0
1763545253297,1009.85126,0.51206404,2.5339992,8.696713,-0.16348268,0.18982624,-0.24457498,90.637505,-33.7125,24.993752,46.950733,0.3361091,49.741684,0.061702747,0.14653562,0.78088677,0.6040993,0.084175974,0.13555957,0.6855492,0.71032405,-1.0,0
1763545253322,1009.8083,0.2638087,2.87378,7.8012,0.18791728,-0.07895427,-0.3850739,92.025,-33.5625,22.368752,46.950733,0.3361091,49.741684,0.062366635,0.14727512,0.77871805,0.6066454,0.08325472,0.13655846,0.6815202,0.7141083,-1.0,0
1763545253348,1009.8083,-0.27218357,3.0065815,6.7011,0.18196134,-0.09758565,-0.43104145,90.09375,-32.662502,26.081251,46.950733,0.3361091,49.741684,0.06400788,0.14842339,0.77592963,0.6097595,0.085051194,0.13745111,0.6782809,0.7168044,-1.0,0
1763545253373,1009.7702,-0.9702896,2.8947172,6.250651,0.0077121677,-0.016951498,-0.4058433,89.68125,-34.6875,26.23125,46.950733,0.3361091,49.741684,0.06347886,0.14925711,0.7710659,0.6157516,0.08586536,0.1381256,0.6750558,0.71961665,-1.0,0
1763545253398,1009.7702,-0.8679964,2.8983064,7.0354967,-0.14485131,0.08414663,-0.35911214,90.731255,-32.475002,25.5375,46.950733,0.3361091,49.741684,0.061221957,0.14912218,0.7692709,0.61825293,0.08468,0.13833492,0.6724353,0.7221659,-1.0,0
1763545253423,1009.74677,-0.9164511,2.9156544,7.5266237,-0.06498074,0.05589413,-0.30108,89.850006,-31.706251,26.6625,46.950733,0.3361091,49.741684,0.05947972,0.14915922,0.76753193,0.6205711,0.08073602,0.13880923,0.66809523,0.7265414,-1.0,0
1763545253448,1009.73895,-0.8817552,3.0759735,7.6348987,0.013209951,0.0097738365,-0.25282165,90.9375,-30.825,24.187502,46.950733,0.3361091,49.741684,0.058681455,0.14990398,0.76448077,0.62422305,0.080073595,0.13965291,0.6644478,0.7297907,-1.0,0
1763545253473,1009.73895,-1.1389836,3.1722846,7.645068,0.022678355,0.020158539,-0.19433136,90.24375,-32.756252,24.525002,46.950733,0.3361091,49.741684,0.058207378,0.1504794,0.7635751,0.6252367,0.07970015,0.14028554,0.66334605,0.7307119,-1.0,0
1763545253498,1009.7358,-1.402194,3.2015967,7.760522,-0.101632625,0.08857539,0.026038112,88.65,-32.68125,24.69375,46.950733,0.3361091,49.741684,0.05715395,0.15081884,0.7634472,0.62540823,0.0787211,0.14076892,0.66312677,0.73092407,-1.0,0
1763545253523,1009.7348,-1.2921243,3.4223347,9.346365,-0.16806418,0.052381653,0.16332997,88.068756,-34.8375,24.243752,46.950733,0.3361091,49.741684,0.05491414,0.14934881,0.76579744,0.623084,0.0763142,0.13963084,0.6656637,0.72908926,-1.0,0
1763545253548,1009.7348,-0.9924232,3.6783667,10.225129,-0.1702022,0.010537418,0.2560287,89.006256,-33.018753,25.593752,46.950733,0.3361091,49.741684,0.05440478,0.14823045,0.76762646,0.621142,0.075654775,0.13859473,0.6677111,0.7274818,-1.0,0
1763545253573,1009.75775,-0.8111669,3.8147576,10.735399,-0.11980586,0.024587307,0.2115883,87.037506,-33.975002,26.775002,46.950733,0.3361091,49.741684,0.054066397,0.1473871,0.76925975,0.61934906,0.075204395,0.13780577,0.66954553,0.7259908,-1.0,0
1763545253598,1009.75775,-1.0474582,3.6161532,10.935798,-0.20715952,0.0377209,0.17753258,85.9875,-34.0875,26.437502,46.950733,0.3361091,49.741684,0.05335019,0.146394,0.7705843,0.6179988,0.07435799,0.13692456,0.6710102,0.7248916,-1.0,0
1763545253623,1009.78534,-1.8897316,3.6173496,12.130414,-0.35071275,0.10506874,0.24869832,87.225006,-33.825,26.437502,46.950733,0.3361091,49.741684,0.048326686,0.14244924,0.7747031,0.6141725,0.06881477,0.13376015,0.6756097,0.7217508,-1.0,0
1763545253648,1009.8171,-1.7174485,3.918247,12.827324,-0.40645415,0.23411393,0.4512,84.543755,-35.475002,26.5125,46.950733,0.3361091,49.741684,0.044274632,0.1405931,0.7779472,0.61079586,0.0645362,0.13252072,0.6793003,0.71890503,-1.0,0
1763545253673,1009.8171,-1.253839,3.4630125,13.340585,-0.24060437,0.024740024,0.42019862,84.225006,-34.03125,28.0125,46.950733,0.3361091,49.741684,0.04177423,0.13883378,0.78106564,0.607385,0.06180911,0.131147,0.68285763,0.71602064,-1.0,0
1763545253699,1009.8486,-1.2801601,2.804388,13.79223,0.08743002,-0.0980438,0.3830886,85.725006,-35.475002,25.462502,46.950733,0.3361091,49.741684,0.042206086,0.1373976,0.7834932,0.6045485,0.062020354,0.12966469,0.6856988,0.7135529,-1.0,0
1763545253723,1009.8681,-2.231307,1.9513469,10.318449,0.5637518,-0.03084867,0.4426479,82.012505,-36.24375,28.368752,46.950733,0.3361091,49.741684,0.04978105,0.14378221,0.78723913,0.59758115,0.07040497,0.13488743,0.6906918,0.7069606,-1.0,0
1763545253748,1009.8681,-1.7760726,2.3449662,7.8693953,0.73754287,-0.12186752,0.5157989,81.975006,-35.737503,27.562502,46.950733,0.3361091,49.741684,0.05532978,0.14695406,0.7891942,0.5937303,0.076339155,0.13721958,0.69330037,0.70333326,-1.0,0
1763545253773,1009.82855,-0.738784,2.400001,7.3986077,-0.1465312,-0.18127412,0.3285689,80.418755,-37.537502,29.38125,46.950733,0.3361091,49.741684,0.05853584,0.1461671,0.7912488,0.5908757,0.07939226,0.13597108,0.69576466,0.70079976,-1.0,0
1763545253798,1009.82855,-0.24047868,2.1140587,8.647063,-0.44509134,0.18555018,0.13034327,80.90625,-37.48125,27.618752,46.950733,0.3361091,49.741684,0.056883927,0.14345007,0.79299664,0.5893578,0.07736058,0.13352545,0.6977073,0.69956475,-1.0,0
1763545253824,1009.8244,-0.9457632,1.9519451,9.601799,-0.14546217,0.089797124,-0.021151192,79.481255,-35.1375,27.337502,46.950733,0.3361091,49.741684,0.048920248,0.14026812,0.79458916,0.5886933,0.06899454,0.13156022,0.69949186,0.6990299,-1.0,0
1763545253849,1009.8,-0.8225328,2.015953,8.918648,0.043600474,-0.06551525,-0.03901899,79.162506,-35.90625,27.712502,46.950733,0.3361091,49.741684,0.048603125,0.13985507,0.7944763,0.58897007,0.06860655,0.13120535,0.6994122,0.69921446,-1.0,0
1763545253874,1009.8,-0.82911307,2.2205393,7.8897343,0.11720968,-0.027947064,-0.03459022,76.9875,-36.393753,29.362501,46.950733,0.3361091,49.741684,0.04966978,0.14134867,0.7938908,0.589314,0.0695678,0.13121566,0.69901866,0.69951105,-1.0,0
1763545253900,1009.7839,-0.85124665,2.4502504,7.368099,0.09750929,0.3130682,0.0881936,77.5875,-35.7,28.031252,46.950733,0.3361091,49.741684,0.04818493,0.14374736,0.7941965,0.5884445,0.06874706,0.13512562,0.69930154,0.6985644,-1.0,0
1763545253925,1009.76166,-0.8470592,2.6703901,7.063014,0.09048434,0.1802051,0.124692775,75.99375,-35.49375,29.268751,46.950733,0.3361091,49.741684,0.046749197,0.1460268,0.7948189,0.5871574,0.06766501,0.13758908,0.70008636,0.6974022,-1.0,0
1763545253950,1009.76166,-0.54436713,2.900101,7.4937224,0.100105464,-0.07742711,0.12515092,76.481255,-35.325,28.893751,46.950733,0.3361091,49.741684,0.049385328,0.147,0.795806,0.5853588,0.068192266,0.13859816,0.7008137,0.6964198,-1.0,0
1763545253975,1009.74066,-0.5174479,2.969493,7.6869426,0.11980586,-0.22754712,0.09689843,75.787506,-36.0,26.531252,46.950733,0.3361091,49.741684,0.05183061,0.14675805,0.7960328,0.58489966,0.0704348,0.13815519,0.70122904,0.6958663,-1.0,0
1763545254000,1009.74066,-0.52342993,3.31047,7.896913,-0.0025198173,0.044287696,0.03413207,75.4875,-34.443752,29.250002,46.950733,0.3361091,49.741684,0.052509945,0.14692087,0.79629385,0.58444256,0.07353355,0.1376076,0.701747,0.6951317,-1.0,0
1763545254025,1009.74384,-0.8003992,3.4624143,8.432905,-0.027717989,0.07864884,-0.010308343,73.70625,-35.86875,30.300001,46.950733,0.3361091,49.741684,0.051898528,0.14729735,0.7964085,0.58424616,0.07299863,0.13806218,0.7018162,0.6950281,-1.0,0
1763545254051,1009.7502,-1.5056837,3.478566,9.777672,0.066507906,0.0074830935,-0.015806125,76.443756,-36.318752,27.712502,46.950733,0.3361091,49.741684,0.052753996,0.14876226,0.7960053,0.5843478,0.07408428,0.13937257,0.70128256,0.6951903,-1.0,0
1763545254075,1009.7502,-1.4243277,3.1752756,9.972089,0.20395248,-0.14935644,-0.008933897,73.668755,-35.49375,29.04375,46.950733,0.3361091,49.741684,0.054977894,0.14978099,0.7955585,0.58449095,0.07643992,0.14004949,0.70079005,0.69529593,-1.0,0
1763545254101,1009.7614,-1.1335998,3.0783663,10.253843,0.07185297,-0.028863361,-0.042226028,75.412506,-34.068752,29.400002,46.950733,0.3361091,49.741684,0.056556795,0.15042436,0.7951438,0.58473945,0.07809559,0.14045367,0.7003469,0.69547683,-1.0,0
1763545254126,1009.79266,-1.7718852,3.8763726,11.620743,-0.08620829,0.18585561,-0.082848534,74.475006,-34.29375,29.343752,46.950733,0.3361091,49.741684,0.05307381,0.15135765,0.7946415,0.5855075,0.07478495,0.14189143,0.69975215,0.6961472,-1.0,0
1763545254151,1009.79266,-1.7174485,4.039683,11.917453,-0.07933606,0.21273366,-0.06879865,72.881256,-34.21875,30.13125,46.950733,0.3361091,49.741684,0.05186251,0.15195812,0.79444504,0.5857269,0.073678136,0.14266229,0.69951177,0.69634926,-1.0,0
1763545254177,1009.81683,-0.8021938,3.8787656,11.680564,-0.057344932,-0.30482152,-0.03657553,73.03125,-33.5625,28.3875,46.950733,0.3361091,49.741684,0.053282492,0.15097035,0.7941944,0.5861947,0.07494117,0.14147401,0.69917506,0.6967949,-1.0,0
1763545254203,1009.8427,0.28115666,3.1920254,12.892529,-0.21143557,-0.21532984,-0.13125958,74.137505,-33.206253,28.556252,46.950733,0.3361091,49.741684,0.053872436,0.14597334,0.79307294,0.5889183,0.07479004,0.13644376,0.697657,0.6993313,-1.0,0
1763545254228,1009.8427,-0.096311115,2.437688,12.899109,-0.18532111,0.12370012,-0.23877177,74.26875,-32.568752,28.2,46.950733,0.3361091,49.741684,0.051609073,0.1464948,0.791816,0.59068024,0.07261539,0.1372998,0.6962197,0.7008237,-1.0,0
1763545254253,1009.872,-0.5694918,2.1182463,11.351551,0.25725043,-0.09834923,-0.28137958,71.30625,-32.5125,30.825,46.950733,0.3361091,49.741684,0.051920466,0.14812107,0.7899761,0.5927074,0.073136434,0.13887636,0.69423485,0.7024261,-1.0,0
1763545254278,1009.872,0.3714857,1.3866407,9.351749,0.13889538,-0.21563527,-0.26213735,71.83125,-30.825,28.35,46.950733,0.3361091,49.741684,0.055067897,0.14784949,0.78642297,0.5971992,0.07616278,0.13817081,0.6902998,0.7061121,-1.0,0
1763545254304,1009.8542,0.40797627,1.521237,9.02812,-0.026954409,0.012370012,-0.2861138,72.75,-31.968752,29.1,46.950733,0.3361091,49.741684,0.053147204,0.1477465,0.78491026,0.59938484,0.07422205,0.13836452,0.68861437,0.7079242,-1.0,0
1763545254329,1009.83563,0.15194423,1.9860427,8.510074,-0.10361794,0.21823144,-0.35285076,74.9625,-30.73125,26.475,46.950733,0.3361091,49.741684,0.050192572,0.14809106,0.7833013,0.60165507,0.071328275,0.13914931,0.68679976,0.709828,-1.0,0
1763545254355,1009.83563,0.02871387,2.504687,7.96451,-0.044516772,0.014966187,-0.39774933,73.425,-31.5375,29.60625,46.950733,0.3361091,49.741684,0.048563372,0.14766628,0.77880186,0.60770386,0.06949388,0.13947521,0.684558,0.7121079,-1.0,0
1763545254380,1009.8117,-0.5246264,2.4921248,7.6755767,0.055054188,-0.15256348,-0.4736493,74.231255,-30.581251,28.3875,46.950733,0.3361091,49.741684,0.049871188,0.14759946,0.7757212,0.6115423,0.0696404,0.13897462,0.6815357,0.71508414,-1.0,0
1763545254405,1009.7885,-1.0187442,2.4622145,7.158727,0.16058108,0.038789913,-0.39209884,75.675,-28.66875,26.2875,46.950733,0.3361091,49.741684,0.050513957,0.14872469,0.7728924,0.61478996,0.0717274,0.13973501,0.67464,0.7212421,-1.0,0
1763545254430,1009.7885,-0.9589237,2.6536403,6.597012,0.1381318,0.083993904,-0.34139705,73.162506,-29.325,28.44375,46.950733,0.3361091,49.741684,0.05030918,0.15062971,0.77057135,0.61725163,0.07180789,0.14164728,0.6719615,0.72335845,-1.0,0
1763545254455,1009.7524,-0.42592242,3.0430722,6.2488565,0.0570395,-0.009468404,-0.37728536,72.5625,-28.518751,29.85,46.950733,0.3361091,49.741684,0.05014459,0.15197833,0.7658021,0.6228445,0.071848944,0.14302544,0.66934216,0.72550845,-1.0,0
1763545254481,1009.7524,-0.79800636,2.9940193,6.799206,-0.06207913,-0.08964441,-0.44448048,74.175,-29.456251,26.94375,46.950733,0.3361091,49.741684,0.049664065,0.15096413,0.7632035,0.6263097,0.07186939,0.1429919,0.6662877,0.7283191,-1.0,0
1763545254506,1009.7236,-1.3082758,2.9168508,7.5266237,-0.17799072,0.021532983,-0.29497132,74.86875,-26.643751,28.25625,46.950733,0.3361091,49.741684,0.04829081,0.1499203,0.7611812,0.62912256,0.069768414,0.1412107,0.6606185,0.734013,-1.0,0
1763545254532,1009.72455,-1.1162517,2.9724839,8.155936,-0.11537708,0.042302385,-0.16577344,74.8125,-26.2875,27.7875,46.950733,0.3361091,49.741684,0.04673592,0.14930107,0.76006746,0.63073164,0.06815126,0.14082065,0.65921926,0.73549634,-1.0,0
1763545254558,1009.72455,-0.98943216,3.3732817,8.635098,-0.08025236,-0.16584979,-0.08681916,73.875,-25.237501,25.81875,46.950733,0.3361091,49.741684,0.046678856,0.14813648,0.7586284,0.6327397,0.06794361,0.13966747,0.6573966,0.7373645,-1.0,0
1763545254584,1009.7353,-1.480559,3.4390843,9.619745,-0.14362958,-0.20097451,0.027717989,73.856255,-25.25625,27.206251,46.950733,0.3361091,49.741684,0.047410596,0.1462728,0.7584618,0.6333184,0.06840707,0.13770972,0.6570739,0.7379772,-1.0,0
1763545254609,1009.7663,-0.8333005,3.5012977,11.789437,-0.13691007,-0.2403753,0.15431972,73.3125,-25.687502,28.368752,46.950733,0.3361091,49.741684,0.049417306,0.14163901,0.7603173,0.631992,0.0697267,0.13282269,0.65901446,0.7370185,-1.0,0
1763545254634,1009.7663,-0.41575295,3.478566,12.576675,-0.117362395,0.047952887,0.12362376,73.275,-23.8125,27.0375,46.950733,0.3361091,49.741684,0.04948361,0.14006755,0.76141757,0.63101166,0.0695619,0.13125809,0.6602417,0.73621553,-1.0,0
1763545254659,1009.8129,-0.8458628,3.5359936,13.092329,-0.013820816,0.2780962,0.12041672,74.606255,-24.431252,26.775002,46.950733,0.3361091,49.741684,0.048026226,0.14036171,0.7622906,0.630004,0.06816012,0.13176543,0.66127366,0.73532933,-1.0,0
1763545254684,1009.85223,-1.8454645,4.0624146,11.991033,0.11995857,0.26190826,0.21952952,74.25,-23.23125,28.125002,46.950733,0.3361091,49.741684,0.046609655,0.14449765,0.7647813,0.62614495,0.0673681,0.13606457,0.6643027,0.7318811,-1.0,0
1763545254710,1009.85223,-1.0899308,3.51386,11.755938,0.1503491,-0.032070402,0.267177,73.950005,-22.518751,28.425001,46.950733,0.3361091,49.741684,0.04914286,0.14391996,0.7659276,0.6246815,0.06979786,0.13511564,0.6656023,0.7306473,-1.0,0
1763545254736,1009.8608,-0.90508515,2.5381866,12.582658,0.09063706,-0.20861033,0.055970486,73.537506,-21.91875,25.35,46.950733,0.3361091,49.741684,0.051861938,0.14211313,0.7663549,0.62435114,0.07222162,0.13292792,0.66607165,0.73038536,-1.0,0
1763545254761,1009.863,-2.3778675,2.134996,10.485349,0.32933247,0.05818487,0.07735075,73.293755,-22.3125,26.175001,46.950733,0.3361091,49.741684,0.05507433,0.14631225,0.7666367,0.62275815,0.0759671,0.13663623,0.66685265,0.7286063,-1.0,0
1763545254787,1009.863,-2.0171494,2.5471597,8.589037,0.42630726,0.057879437,0.17325652,73.3125,-22.81875,27.900002,46.950733,0.3361091,49.741684,0.057243038,0.1486244,0.7671987,0.6213214,0.07843415,0.13861479,0.6677126,0.72718215,-1.0,0
1763545254812,1009.8337,-1.5954145,2.6446671,8.04108,-0.07857248,-0.0820086,0.052458014,72.8625,-22.35,25.143751,46.950733,0.3361091,49.741684,0.058411248,0.1484895,0.76766944,0.6206631,0.07956848,0.13831075,0.6682824,0.7265932,-1.0,0
1763545254837,1009.8337,-1.5074782,2.364707,8.239086,-0.29634577,0.053145237,-0.046349365,73.59375,-20.15625,25.237501,46.950733,0.3361091,49.741684,0.05719478,0.1470418,0.7678849,0.6208544,0.0781559,0.13705543,0.66845095,0.7268293,-1.0,0
1763545254862,1009.7973,-2.1110678,1.8299111,9.068798,-0.394695,0.15500695,-0.050472703,73.2375,-20.34375,27.150002,46.950733,0.3361091,49.741684,0.050238293,0.14328992,0.7686013,0.62144685,0.07071625,0.13436925,0.66911495,0.7274815,-1.0,0
1763545254887,1009.7741,-2.0602202,1.7383857,9.425926,-0.04696023,0.0003054324,0.19326234,73.9875,-19.63125,25.781252,46.950733,0.3361091,49.741684,0.048424803,0.14217903,0.76963186,0.62056994,0.068747506,0.13354258,0.6703277,0.7267055,-1.0,0
1763545254913,1009.7741,-1.6271194,1.9208384,9.014959,0.21235187,-0.11331542,0.29619306,73.93125,-19.893751,26.268751,46.950733,0.3361091,49.741684,0.049450483,0.14238526,0.77097124,0.6187765,0.069776796,0.13360432,0.67200005,0.7250497,-1.0,0
1763545254938,1009.7553,-0.6873383,2.3371894,7.4213395,0.32933247,-0.12767074,0.3194059,74.625,-18.806252,23.6625,46.950733,0.3361091,49.741684,0.055406366,0.14532252,0.77372396,0.6141358,0.07607996,0.13564786,0.6755027,0.72076875,-1.0,0
1763545254963,1009.73236,-0.4031906,2.6632116,6.835098,0.2483929,0.05421425,0.2543488,75.506256,-18.6,26.025002,46.950733,0.3361091,49.741684,0.057481095,0.14740627,0.77499187,0.6118455,0.07843734,0.1374055,0.6770921,0.71868885,-1.0,0
1763545254989,1009.73236,-0.081954174,2.9186454,6.530013,0.16241367,0.07391464,0.15157083,74.925,-20.025002,25.706251,46.950733,0.3361091,49.741684,0.058507495,0.14932196,0.7759805,0.61002797,0.079740934,0.13914582,0.6782957,0.7170738,-1.0,0
1763545255013,1009.7187,-0.1471586,3.1369905,6.597012,0.11262819,0.014660755,0.030314164,75.43125,-19.10625,24.993752,46.950733,0.3361091,49.741684,0.059292946,0.15060689,0.77634126,0.60917664,0.08071933,0.14029424,0.6787094,0.7163487,-1.0,0
1763545255039,1009.7187,-0.78065836,3.3559337,7.289136,0.08681916,0.0024434591,-0.05184715,77.26875,-18.65625,24.768751,46.950733,0.3361091,49.741684,0.060490545,0.15236,0.77553105,0.6096547,0.08219486,0.14183328,0.67766607,0.7168654,-1.0,0
1763545255064,1009.706,-1.1832508,3.461816,7.8574314,0.109726585,-0.043065965,-0.07887791,76.21875,-18.018751,24.993752,46.950733,0.3361091,49.741684,0.060959414,0.15325575,0.7748792,0.61021215,0.08280654,0.14264096,0.6768568,0.7173991,-1.0,0
1763545255089,1009.7082,-1.1527423,3.6311083,8.5423765,0.19326234,-0.13988803,-0.06024654,76.950005,-18.075,25.3875,46.950733,0.3361091,49.741684,0.06493486,0.15487866,0.7733105,0.6113811,0.08447138,0.14321281,0.6759941,0.7179043,-1.0,0
1763545255114,1009.7082,-0.58504516,3.7118661,8.394022,0.17783801,-0.21624613,-0.10147991,77.4,-17.400002,24.075,46.950733,0.3361091,49.741684,0.06720575,0.15415715,0.77200675,0.6129638,0.08700398,0.14364624,0.6749998,0.7184507,-1.0,0
1763545255139,1009.72186,-0.7495517,3.7339997,9.193823,-0.4566978,-0.18509203,-0.39805475,79.068756,-16.48125,22.9125,46.950733,0.3361091,49.741684,0.06729594,0.15080446,0.7701702,0.6160902,0.088768065,0.13925144,0.67105687,0.7227807,-1.0,0
1763545255164,1009.72186,-1.9872392,3.5910287,11.287542,-0.5852848,0.067653276,-0.30535603,79.762505,-14.418751,23.8125,46.950733,0.3361091,49.741684,0.06385443,0.14663148,0.768634,0.61937356,0.084762394,0.13562268,0.6689855,0.7258652,-1.0,0
1763545255189,1009.75165,-1.9010975,4.217948,13.935201,-0.29985824,0.08994984,-0.02649626,79.537506,-14.812501,23.38125,46.950733,0.3361091,49.741684,0.058989044,0.1435301,0.7688928,0.62026066,0.07949481,0.13327104,0.66910166,0.7267891,-1.0,0
1763545255215,1009.80975,-0.13459627,4.255037,13.109078,0.22426373,-0.26175556,0.0002290743,79.575005,-13.81875,24.243752,46.950733,0.3361091,49.741684,0.062027927,0.143655,0.7690249,0.61977136,0.08251744,0.13294771,0.66931254,0.72631705,-1.0,0
1763545255241,1009.80975,0.232702,3.970291,12.439687,0.13355032,-0.03375028,-0.23846634,80.2125,-14.3625,23.1375,46.950733,0.3361091,49.741684,0.06451619,0.14387414,0.76792824,0.62082535,0.085011214,0.13279757,0.6680705,0.7271999,-1.0,0
1763545255266,1009.85565,-1.5493526,1.8999012,11.23191,0.12041672,0.12110394,-0.32704175,82.2375,-13.14375,21.46875,46.950733,0.3361091,49.741684,0.06431337,0.14656195,0.7639934,0.62505794,0.085190795,0.13549593,0.66364056,0.7307288,-1.0,0
1763545255292,1009.8725,-1.538585,1.230509,10.373485,0.13477205,-0.103236146,-0.27603453,81.5625,-14.231251,23.60625,46.950733,0.3361091,49.741684,0.06607944,0.14532936,0.7624351,0.6270612,0.08672976,0.13403381,0.6619483,0.7323505,-1.0,0
1763545255317,1009.8725,-0.80997044,0.9236295,10.690534,-0.043600474,-0.39736754,-0.14714205,80.006256,-12.50625,22.425001,46.950733,0.3361091,49.741684,0.06759991,0.14139952,0.7619004,0.62844586,0.08762517,0.12994383,0.6613893,0.7334853,-1.0,0
1763545255342,1009.8681,-0.10289137,1.2191432,11.160723,-0.24335326,-0.043371398,0.052763447,82.106255,-11.775001,19.5375,46.950733,0.3361091,49.741684,0.065410905,0.13617532,0.76319295,0.6282629,0.0846149,0.12515038,0.6631521,0.7330805,-1.0,0
1763545255367,1009.8681,-0.07477571,2.0811574,10.240683,-0.07322741,0.083688475,0.13400847,83.418755,-11.6625,21.5625,46.950733,0.3361091,49.741684,0.0651278,0.13634259,0.7641734,0.62706316,0.08432548,0.12537998,0.6644947,0.7318578,-1.0,0
1763545255393,1009.8757,0.05922236,2.6069803,8.940184,0.3501019,0.024587307,0.11262819,85.2375,-11.45625,20.2875,46.950733,0.3361091,49.741684,0.066701606,0.13813621,0.76471263,0.6258465,0.086126655,0.12693666,0.6653066,0.73064107,-1.0,0
1763545255418,1009.8454,-0.020338992,3.1334012,6.308079,0.4011091,0.059559315,0.033521205,81.3,-13.387501,22.5,46.950733,0.3361091,49.741684,0.070876606,0.14440577,0.764172,0.6246317,0.091174096,0.1325285,0.66493195,0.7293757,-1.0,0
1763545255443,1009.8024,-0.10229317,2.9778678,5.611169,0.34445137,0.116675176,-0.056428634,85.387505,-12.825001,21.581251,46.950733,0.3361091,49.741684,0.071596965,0.14768784,0.76320934,0.62495893,0.09238133,0.13565955,0.6638457,0.7296376,-1.0,0
1763545255469,1009.8024,-0.5072784,2.766103,5.4849477,0.13736822,0.26358816,-0.18837543,85.387505,-11.34375,21.806252,46.950733,0.3361091,49.741684,0.07085365,0.1507257,0.7620359,0.62574977,0.09210668,0.13876179,0.66247773,0.73033196,-1.0,0
1763545255494,1009.7553,-0.8129615,2.696711,5.6524453,0.10529782,0.21364996,-0.19204062,86.08125,-12.262501,21.9375,46.950733,0.3361091,49.741684,0.069561176,0.15340275,0.7608472,0.62669003,0.09123427,0.14158908,0.6610857,0.7311597,-1.0,0
1763545255519,1009.7553,-1.0366904,2.7529426,5.9234324,0.058413945,0.12873976,-0.15065452,85.6125,-11.681251,21.806252,46.950733,0.3361091,49.741684,0.06794422,0.15634929,0.75906795,0.6282948,0.09009311,0.144723,0.6589503,0.73261374,-1.0,0
1763545255544,1009.7187,-0.8392825,2.9449666,6.6801624,-0.054748755,0.047647454,0.03489565,86.006256,-12.637501,21.975,46.950733,0.3361091,49.741684,0.067272864,0.1565205,0.7591106,0.62827283,0.08946742,0.14498237,0.6589282,0.7326591,-1.0,0
1763545255569,1009.70746,-0.65922266,3.0825539,7.4829545,-0.01809687,0.01527162,0.10071633,86.30625,-11.868751,21.431252,46.950733,0.3361091,49.741684,0.06692402,0.15652081,0.7595898,0.6277307,0.08913422,0.14502648,0.6594218,0.73224676,-1.0,0
1763545255595,1009.70746,-0.5982057,3.679563,8.318049,0.024205517,-0.045509428,0.17157665,86.193756,-13.856251,21.54375,46.950733,0.3361091,49.741684,0.06849546,0.15604615,0.7615235,0.6253318,0.08958271,0.14494716,0.66031045,0.73140645,-1.0,0
1763545255620,1009.7104,-0.41336012,4.019942,9.215358,-0.1146135,-0.11484258,0.26778784,86.11875,-12.750001,22.125,46.950733,0.3361091,49.741684,0.0695587,0.15470584,0.76306576,0.6236652,0.091506585,0.14282456,0.66329247,0.7288832,-1.0,0
1763545255645,1009.7365,0.062213387,4.243073,10.390234,-0.17569998,-0.029016078,0.21494804,87.3,-12.750001,21.225,46.950733,0.3361091,49.741684,0.06984104,0.1530762,0.76476985,0.62194616,0.09156123,0.14116172,0.6651557,0.72750103,-1.0,0
1763545255671,1009.7365,0.21535404,4.0833516,11.977274,-0.27450737,0.056046844,0.06024654,88.537506,-11.75625,21.337502,46.950733,0.3361091,49.741684,0.06631047,0.1495001,0.7665117,0.6210576,0.090468824,0.13969328,0.6664401,0.7267453,-1.0,0
1763545255696,1009.7763,-0.9457632,4.1407795,12.991232,-0.41760245,0.23258677,-0.060857404,87.506256,-12.6,20.268751,46.950733,0.3361091,49.741684,0.0611036,0.14821169,0.7670689,0.6212125,0.087562665,0.13813087,0.66691,0.7269688,-1.0,0
1763545255722,1009.83295,-1.9758734,4.5272202,13.487144,-0.3407862,0.3978257,0.13080142,90.262505,-11.94375,20.25,46.950733,0.3361091,49.741684,0.055083554,0.14817426,0.7683163,0.62024206,0.07626636,0.13846752,0.6687963,0.72644454,-1.0,0
1763545255748,1009.83295,-1.3686945,4.249653,13.31546,-0.28794637,-0.116675176,0.13370302,90.39375,-11.19375,22.35,46.950733,0.3361091,49.741684,0.05231518,0.1470895,0.7697362,0.61897826,0.07337586,0.13779762,0.6703483,0.7254385,-1.0,0
1763545255773,1009.8652,-1.18684,2.0093727,14.970097,-0.39774933,-0.4017963,0.039629854,89.86875,-11.85,19.35,46.950733,0.3361091,49.741684,0.0528388,0.13784914,0.7710711,0.61939895,0.072528675,0.12858427,0.6716425,0.72601795,-1.0,0
1763545255797,1009.8652,-2.3712873,1.3633107,14.721243,-0.22136213,-0.04963276,0.048334677,91.425,-11.325001,20.400002,46.950733,0.3361091,49.741684,0.051757157,0.13859847,0.77186084,0.61833847,0.07153204,0.12950484,0.6727862,0.7248934,-1.0,0
1763545255822,1009.90936,-2.6404798,1.7054844,11.898909,0.73341954,-0.15057817,0.41867146,89.925,-12.337501,18.91875,46.950733,0.3361091,49.741684,0.05427462,0.14307447,0.7731768,0.6154523,0.07463026,0.13359028,0.6747747,0.72198546,-1.0,0
1763545255847,1009.90936,-1.5379868,2.3491535,9.227921,0.692797,-0.5881101,0.38950264,89.68125,-14.868751,20.15625,46.950733,0.3361091,49.741684,0.061923094,0.14592078,0.774458,0.6124438,0.08258068,0.13530624,0.676654,0.7190355,-1.0,0
1763545255872,1009.8825,-0.1363909,2.3808584,7.530213,0.03718639,-0.0025961753,-0.00038179048,90.600006,-15.39375,20.1,46.950733,0.3361091,49.741684,0.07287695,0.14629929,0.77506024,0.6103827,0.0934591,0.13408928,0.6776214,0.7170179,-1.0,0
1763545255898,1009.85004,-0.8147561,2.373082,7.4476604,-0.16760603,0.2677115,-0.0570395,92.34375,-14.83125,18.6375,46.950733,0.3361091,49.741684,0.071027614,0.14661485,0.7750596,0.6105259,0.09167345,0.13467297,0.6776115,0.7171484,-1.0,0
1763545255923,1009.8171,-1.2550355,2.1750758,7.932207,-0.17050762,0.160352,-0.021762058,91.03125,-16.10625,20.550001,46.950733,0.3361091,49.741684,0.06669059,0.1462424,0.7754276,0.61063695,0.087325186,0.13493994,0.6779772,0.7172952,-1.0,0
1763545255948,1009.8171,-0.8033902,2.1182463,7.8023963,-0.034742933,-0.03573559,0.027107125,89.4,-15.39375,21.45,46.950733,0.3361091,49.741684,0.06729431,0.1461084,0.7755576,0.61043775,0.08789678,0.13472323,0.6781673,0.71708643,-1.0,0
1763545255973,1009.7924,-0.7304091,2.3288147,7.44108,0.18669555,0.04734202,0.044669487,89.756256,-15.8625,21.45,46.950733,0.3361091,49.741684,0.06815379,0.14707583,0.77561474,0.6100373,0.08888115,0.1355595,0.67831975,0.7166631,-1.0,0
1763545255998,1009.7924,-0.83688974,2.5262225,6.832107,0.23587017,0.13423753,0.052305296,90.037506,-17.550001,19.050001,46.950733,0.3361091,49.741684,0.06872508,0.14928026,0.7756464,0.60939723,0.08976552,0.13765858,0.67845696,0.7160227,-1.0,0
1763545256023,1009.7697,-0.83748794,2.8366911,5.6823554,0.19265148,0.09468404,0.055054188,90.28125,-16.9125,20.53125,46.950733,0.3361091,49.741684,0.06972644,0.1531417,0.77577984,0.60815424,0.09133409,0.14132316,0.67869616,0.7148828,-1.0,0
1763545256048,1009.737,-0.8805587,2.9623144,6.0747786,0.05337431,-0.03695732,0.031077746,89.68125,-18.35625,22.06875,46.950733,0.3361091,49.741684,0.070353,0.15256786,0.7758525,0.60813355,0.091885604,0.14065394,0.6786927,0.7149474,-1.0,0
1763545256073,1009.737,-1.0139586,2.9982069,7.17787,-0.14179699,-0.09529491,0.032452192,88.8375,-18.31875,20.2875,46.950733,0.3361091,49.741684,0.07055741,0.15100409,0.776069,0.6082239,0.0918748,0.13906689,0.6788143,0.71514374,-1.0,0
1763545256098,1009.73334,-1.1306087,3.0352955,8.100901,-0.074143715,-0.043371398,0.07506001,89.53125,-19.96875,19.85625,46.950733,0.3361091,49.741684,0.07039161,0.14992093,0.7764627,0.6080086,0.09156245,0.13801296,0.67918336,0.7150376,-1.0,0
1763545256123,1009.7463,-0.5491528,3.3481572,9.178269,0.15767947,-0.13912445,0.04054615,89.418755,-19.743752,20.775002,46.950733,0.3361091,49.741684,0.07224376,0.14973582,0.77716094,0.6069439,0.093375914,0.13755333,0.6799868,0.7141274,-1.0,0
1763545256148,1009.7463,-0.86261255,3.554538,9.397213,0.15767947,-0.13912445,0.04054615,89.193756,-20.25,18.825,46.950733,0.3361091,49.741684,0.074519485,0.15035002,0.77688706,0.60686755,0.095720224,0.1378257,0.67971045,0.71402764,-1.0,0
1763545256174,1009.7695,-1.0516455,3.839284,9.860822,0.15752676,-0.15775582,0.010766491,90.881256,-19.837502,20.175001,46.950733,0.3361091,49.741684,0.07853884,0.15074803,0.77630544,0.6070062,0.09795138,0.13829102,0.67936933,0.7139597,-1.0,0
1763545256199,1009.7695,-0.7328019,4.1030927,10.992029,-0.026648976,-0.18539746,-0.00038179048,91.068756,-21.69375,20.71875,46.950733,0.3361091,49.741684,0.07844894,0.14931577,0.77631396,0.6073608,0.09976589,0.13762297,0.6790559,0.71413565,-1.0,0
1763545256224,1009.789,-0.8919246,4.493721,12.429517,-0.15431972,0.23823726,-0.083612114,90.20625,-22.518751,18.993752,46.950733,0.3361091,49.741684,0.075786866,0.14891015,0.77634037,0.60776454,0.09678724,0.1361988,0.6789124,0.7149546,-1.0,0
1763545256249,1009.8254,-0.99003035,4.5738807,12.963715,0.045127634,0.041996952,-0.087124586,90.15,-22.556252,22.25625,46.950733,0.3361091,49.741684,0.075455144,0.14980277,0.77516824,0.60908115,0.095130555,0.13721858,0.67854375,0.7153318,-1.0,0
1763545256275,1009.8254,0.22492532,3.9930227,12.865011,0.10346522,-0.26816964,-0.14133884,89.71875,-23.962502,21.6,46.950733,0.3361091,49.741684,0.077698484,0.14870411,0.7738216,0.6107783,0.09659612,0.13712601,0.6775275,0.716116,-1.0,0
1763545256300,1009.8527,-0.023330022,3.3756745,13.219747,0.02328922,-0.11988221,-0.22243114,89.625,-23.831251,20.212502,46.950733,0.3361091,49.741684,0.07700252,0.14937349,0.77241564,0.6124804,0.09865311,0.13571121,0.6759525,0.717592,-1.0,0
1763545256325,1009.8791,-0.32183465,2.6835506,10.829317,0.29985824,0.13622284,-0.24014622,90.43125,-24.13125,21.54375,46.950733,0.3361091,49.741684,0.0776854,0.15429589,0.7690107,0.6154512,0.099401325,0.14128558,0.6708067,0.7212324,-1.0,0
1763545256351,1009.8791,0.011964113,2.4329023,9.608379,0.27939427,-0.1640172,-0.2494619,88.93125,-25.143751,20.212502,46.950733,0.3361091,49.741684,0.07980318,0.15410106,0.76703966,0.6176849,0.10144767,0.14079791,0.66863394,0.72305804,-1.0,0
1763545256376,1009.8691,0.0741775,1.9794625,9.423533,-0.20731224,0.011606431,-0.32734716,88.33125,-25.087502,21.50625,46.950733,0.3361091,49.741684,0.07931767,0.1526465,0.76528054,0.6202849,0.100738205,0.13944192,0.6666015,0.7252932,-1.0,0
1763545256401,1009.8691,-0.2542374,1.8311075,9.445667,-0.23663375,0.14676027,-0.28764096,89.4375,-25.35,21.712502,46.950733,0.3361091,49.741684,0.07659862,0.15132679,0.7638925,0.6226565,0.09783347,0.13854875,0.66499907,0.7273301,-1.0,0
1763545256427,1009.8559,-0.32004002,2.44367,8.237292,-0.14607304,0.093615025,-0.24304782,88.40625,-26.19375,20.475,46.950733,0.3361091,49.741684,0.07271461,0.1499402,0.7615674,0.62629515,0.09374928,0.13776988,0.66237843,0.7304008,-1.0,0
1763545256453,1009.8278,-0.1692922,2.6841488,7.5828547,0.013820816,-0.08277218,-0.23464844,88.668755,-24.806252,22.21875,46.950733,0.3361091,49.741684,0.072909184,0.14929576,0.7602093,0.62807393,0.09384207,0.13710813,0.6608081,0.73193425,-1.0,0
1763545256477,1009.8278,-0.42951167,2.85045,7.024131,0.06436988,-0.019547673,-0.2503782,88.59375,-25.312502,20.868752,46.950733,0.3361091,49.741684,0.07336029,0.14937063,0.7586097,0.62993497,0.094300516,0.13711573,0.6589481,0.73354894,-1.0,0
1763545256502,1009.79706,-0.97806627,2.6638098,6.629315,0.13141228,0.109344795,-0.19769111,87.61875,-26.41875,21.975,46.950733,0.3361091,49.741684,0.07314562,0.15302123,0.7559151,0.63231844,0.09463384,0.14074878,0.655858,0.7355845,-1.0,0
1763545256527,1009.7607,-0.96550393,2.885146,6.0634127,0.23205225,0.15210533,-0.1372155,86.86875,-26.493752,22.050001,46.950733,0.3361091,49.741684,0.07368915,0.15582277,0.7548551,0.63283724,0.09558588,0.14343698,0.6546996,0.7359739,-1.0,0
1763545256553,1009.7607,-0.8578269,3.1399815,5.608776,0.1372155,-0.010231985,-0.09659299,87.412506,-28.800001,22.743752,46.950733,0.3361091,49.741684,0.07475616,0.15766928,0.75388324,0.633413,0.096923836,0.14509949,0.6535857,0.73646295,-1.0,0
1763545256579,1009.727,-0.3080759,3.6251264,6.6394844,-0.033215772,0.031306818,-0.056581352,86.5875,-29.38125,21.7875,46.950733,0.3361091,49.741684,0.073988825,0.1583349,0.75317967,0.6341736,0.0963051,0.14584105,0.6525591,0.7373075,-1.0,0
1763545256604,1009.7214,-0.11006984,3.784249,7.5296144,-0.15309799,0.11499529,-0.049098257,87.525,-28.931252,23.6625,46.950733,0.3361091,49.741684,0.072016604,0.15816344,0.7531513,0.634477,0.09435087,0.14594513,0.6523761,0.7377014,-1.0,0
1763545256629,1009.7214,-0.44626144,3.8955152,8.154141,-0.19341506,0.12812889,-0.06772963,87.1125,-28.837502,23.23125,46.950733,0.3361091,49.741684,0.069950774,0.15784676,0.75305957,0.63489574,0.09228003,0.14592159,0.6521276,0.73818755,-1.0,0
1763545256654,1009.7287,-0.95712906,3.9278183,8.838489,-0.20150901,0.043982264,-0.0017562362,86.381256,-30.281252,22.3125,46.950733,0.3361091,49.741684,0.06826551,0.15711793,0.75315994,0.63514084,0.09052456,0.14543566,0.6520984,0.7385265,-1.0,0
1763545256679,1009.7287,-0.52582276,4.019344,11.251052,-0.19601123,-0.016798781,0.07200569,85.2375,-30.2625,21.50625,46.950733,0.3361091,49.741684,0.06624131,0.15443666,0.75444514,0.63448715,0.08815548,0.14306363,0.65333265,0.7381855,-1.0,0
1763545256704,1009.74896,-0.023928227,3.987639,12.213565,-0.17661628,0.18997894,-0.09231694,83.850006,-31.1625,23.71875,46.950733,0.3361091,49.741684,0.06437971,0.15372701,0.75473803,0.6345029,0.086213574,0.14263223,0.65360147,0.7382604,-1.0,0
1763545256729,1009.83563,-0.97866446,3.9840498,12.734602,-0.1390481,0.2942841,-0.16165009,84.637505,-30.73125,24.993752,46.950733,0.3361091,49.741684,0.06158941,0.15399972,0.754215,0.635335,0.08349036,0.1433127,0.6529777,0.73899317,-1.0,0
1763545256754,1009.83563,-3.260819,4.401597,12.982858,-0.10377065,0.28695372,0.10545053,86.83125,-30.225,22.25625,46.950733,0.3361091,49.741684,0.056686934,0.15577792,0.7561927,0.6330027,0.080606826,0.1446941,0.6529284,0.7390877,-1.0,0
1763545256780,1009.8569,-1.4925231,4.284947,12.80519,-0.01809687,-0.22663084,0.4982366,82.8375,-31.875002,22.462502,46.950733,0.3361091,49.741684,0.057597656,0.15529537,0.7592597,0.62935734,0.07973406,0.14517789,0.6588311,0.73383063,-1.0,0
1763545256805,1009.87885,0.0041874396,3.5904303,13.311273,0.033826638,-0.28176138,0.31192282,80.100006,-34.425003,24.6,46.950733,0.3361091,49.741684,0.06036225,0.15303138,0.7616347,0.62677777,0.08213902,0.14253205,0.6615483,0.7316363,-1.0,0
1763545256831,1009.87885,-2.3832514,2.3718855,11.252249,0.37972882,-0.08506292,0.20517421,82.0875,-34.95,21.956251,46.950733,0.3361091,49.741684,0.06739451,0.15573686,0.76337826,0.6232637,0.08489986,0.14193904,0.6629251,0.7301888,-1.0,0
1763545256857,1009.85297,-2.1529422,2.306681,8.370093,0.62315845,-0.20922118,0.31207556,79.856255,-33.45,24.73125,46.950733,0.3361091,49.741684,0.07349072,0.15733309,0.76446533,0.6208366,0.08944131,0.14420904,0.6640435,0.72818285,-1.0,0
1763545256882,1009.85297,-0.7704889,2.2576282,7.6606216,-0.1372155,-0.2932151,0.30291256,76.59375,-35.775,25.2,46.950733,0.3361091,49.741684,0.07759702,0.15529226,0.7661744,0.6187405,0.09943467,0.14230156,0.66764647,0.7239553,-1.0,0
1763545256907,1009.8337,-0.8033902,1.6983058,9.490533,-0.37545276,0.116217025,0.09873102,77.4375,-35.30625,24.0,46.950733,0.3361091,49.741684,0.07281622,0.15066925,0.76873595,0.61728567,0.094005354,0.13844284,0.6705228,0.7227695,-1.0,0
1763545256932,1009.809,-1.2239288,1.6013966,9.311071,-0.28153232,0.21426082,0.035506517,75.543755,-35.8875,25.312502,46.950733,0.3361091,49.741684,0.07055322,0.1500444,0.7695047,0.61674273,0.09165079,0.13817093,0.6714911,0.7222248,-1.0,0
1763545256957,1009.809,-0.94277215,1.80359,8.47119,0.13752094,-0.05329795,0.14683662,75.7125,-36.487503,24.862501,46.950733,0.3361091,49.741684,0.07080736,0.15019004,0.7702134,0.6157926,0.091898516,0.13829459,0.67246085,0.72126675,-1.0,0
1763545256982,1009.77167,-0.9954142,2.0572293,7.4650083,0.19723296,-0.07315106,0.19372049,72.9,-37.29375,26.437502,46.950733,0.3361091,49.741684,0.07247933,0.15083106,0.77088404,0.6146011,0.093628265,0.13869753,0.6733894,0.7200996,-1.0,0
1763545257007,1009.73505,-0.7938189,2.4143581,6.1154566,0.15920663,-0.0070249448,0.27817255,74.45625,-36.24375,24.675001,46.950733,0.3361091,49.741684,0.07479357,0.15274419,0.77364767,0.6103642,0.09618577,0.14026105,0.6767913,0.7162602,-1.0,0
1763545257033,1009.73505,-0.62512493,2.7248268,6.0634127,0.0060322895,0.13026692,0.3314705,72.693756,-38.41875,25.44375,46.950733,0.3361091,49.741684,0.0743941,0.1536389,0.77565706,0.6076321,0.09592547,0.14120093,0.6791511,0.7138728,-1.0,0
1763545257058,1009.7126,-0.5820541,2.9413772,6.3948183,0.0193186,0.0006108648,0.29787293,71.850006,-38.1375,25.987501,46.950733,0.3361091,49.741684,0.07437953,0.1540397,0.7775415,0.6051187,0.095979616,0.14159258,0.6813288,0.71170956,-1.0,0
1763545257083,1009.7128,-0.4211368,3.2775688,6.986444,0.022372922,-0.13362667,0.25465426,69.525,-38.756252,26.118752,46.950733,0.3361091,49.741684,0.07698564,0.15297528,0.78023654,0.60158354,0.09842805,0.14014328,0.6843839,0.7087245,-1.0,0
1763545257108,1009.7128,-0.6975078,3.4408789,7.6803627,-0.119653136,0.18066326,0.18776456,70.293755,-38.662502,24.937502,46.950733,0.3361091,49.741684,0.076421246,0.1526956,0.7814385,0.6001648,0.097842894,0.139939,0.6857092,0.707564,-1.0,0
1763545257133,1009.7238,-1.0199406,3.7866418,8.525029,-0.1343139,0.2837467,0.23220497,68.26875,-39.24375,25.35,46.950733,0.3361091,49.741684,0.074002765,0.15318502,0.7830274,0.5982692,0.09553449,0.14076655,0.68749183,0.70598364,-1.0,0
1763545257158,1009.7238,-0.70289165,3.8668015,10.158131,-0.013668099,0.15760311,0.22044583,68.606255,-40.575,24.91875,46.950733,0.3361091,49.741684,0.072486125,0.15478794,0.7856411,0.59460443,0.09429123,0.14255773,0.69049525,0.7028533,-1.0,0
1763545257184,1009.7475,-0.6723832,3.7716868,9.955936,0.16424626,-0.07009673,0.14011711,66.01875,-38.737503,26.625002,46.950733,0.3361091,49.741684,0.07509927,0.15542696,0.785691,0.5940473,0.09697422,0.14280559,0.6906034,0.7023315,-1.0,0
1763545257209,1009.77435,-0.58504516,3.7334015,9.659825,-0.004657844,-0.17394374,-0.10728313,63.80625,-38.737503,27.7875,46.950733,0.3361091,49.741684,0.077444695,0.15507379,0.7851269,0.59458405,0.099246725,0.14211139,0.6899487,0.7027981,-1.0,0
1763545257235,1009.77435,-1.7324036,4.4111686,10.966905,-0.30917394,0.07284562,-0.20914483,64.6875,-38.86875,25.3875,46.950733,0.3361091,49.741684,0.072829224,0.1517557,0.7838136,0.59774774,0.09846547,0.14084987,0.68891674,0.70417297,-1.0,0
1763545257261,1009.8056,-2.0171494,4.7491546,12.48216,-0.47044224,0.17088942,-0.19081889,64.65,-39.112503,24.6375,46.950733,0.3361091,49.741684,0.069468,0.14925365,0.7835964,0.5990611,0.09053398,0.1374993,0.6876376,0.70714355,-1.0,0
1763545257286,1009.84125,-0.8147561,4.5822554,13.089936,-0.3191005,-0.38927358,-0.094760396,64.012505,-37.93125,24.7875,46.950733,0.3361091,49.741684,0.06936391,0.14560959,0.78331405,0.6003379,0.089909434,0.13390219,0.6871135,0.7084218,-1.0,0
1763545257311,1009.84125,0.59940207,4.0977087,13.695919,-0.36277732,-0.2687805,-0.19341506,62.79375,-37.443752,24.2625,46.950733,0.3361091,49.741684,0.07026262,0.1408215,0.782746,0.60211384,0.09010434,0.12902999,0.6862592,0.7101273,-1.0,0
1763545257336,1009.8781,-0.15134603,2.786442,14.620147,-0.1844048,0.23335035,-0.2984838,60.506252,-37.068752,25.875002,46.950733,0.3361091,49.741684,0.06535426,0.14067045,0.78022045,0.6059676,0.08797217,0.12664904,0.6849374,0.71209663,-1.0,0
1763545257361,1009.86224,-0.7148558,2.4747767,11.816357,0.553978,0.0009162972,-0.19708025,60.750004,-37.40625,24.487501,46.950733,0.3361091,49.741684,0.065589234,0.14565203,0.77841246,0.60708946,0.086131126,0.1345284,0.6815451,0.71412873,-1.0,0
1763545257387,1009.86224,-0.26620153,2.2845473,9.279964,0.39668033,-0.38774642,-0.17325652,60.131252,-36.84375,24.056252,46.950733,0.3361091,49.741684,0.07011508,0.14786142,0.77654326,0.60844177,0.090906985,0.13607,0.679624,0.7150749,-1.0,0
1763545257411,1009.83685,0.68195444,1.7970098,7.454241,0.0353538,-0.32146758,-0.24594943,59.756252,-37.143753,25.968752,46.950733,0.3361091,49.741684,0.07426255,0.14488675,0.77319837,0.6129088,0.09472809,0.13476014,0.6776753,0.71667457,-1.0,0
1763545257436,1009.83685,0.20937198,1.8604196,7.583453,-0.30062184,-0.014202606,-0.32322383,60.131252,-35.456253,23.362501,46.950733,0.3361091,49.741684,0.07066609,0.1424465,0.7719121,0.6155218,0.094550565,0.13254164,0.67580676,0.71887285,-1.0,0
1763545257461,1009.8044,-0.35114673,2.0847468,8.170293,-0.2673297,0.031001387,-0.22899793,57.562504,-36.46875,24.300001,46.950733,0.3361091,49.741684,0.06707275,0.14025794,0.7709305,0.61765283,0.08674435,0.12902115,0.6729822,0.7231348,-1.0,0
1763545257486,1009.7756,-0.5455636,2.4592235,7.5236325,0.08743002,-0.21364996,-0.13492475,58.218754,-34.78125,23.5125,46.950733,0.3361091,49.741684,0.07048196,0.13899297,0.7688898,0.6200982,0.0899214,0.12728274,0.6706769,0.72519356,-1.0,0
1763545257511,1009.7756,-0.17108682,2.7122645,6.448657,0.35391977,-0.3349066,-0.044822205,56.04375,-34.518753,24.975,46.950733,0.3361091,49.741684,0.07508373,0.1402301,0.7679536,0.6204395,0.09465436,0.1278382,0.6696993,0.725397,-1.0,0
1763545257537,1009.73676,0.0011964113,2.9078777,5.685945,0.2700786,-0.062155493,-0.1098793,55.8375,-35.662502,23.6625,46.950733,0.3361091,49.741684,0.07824573,0.14211565,0.7669319,0.6208834,0.09806522,0.12923804,0.66857606,0.7257319,-1.0,0
1763545257562,1009.71185,-0.42891344,3.0705895,6.025726,0.055206906,0.027336199,-0.16317725,53.79375,-35.625,24.487501,46.950733,0.3361091,49.741684,0.0787731,0.14377856,0.7648703,0.6229735,0.09886349,0.13078031,0.66603863,0.7276778,-1.0,0
