timestamp,pressure,acc_x,acc_y,acc_z,gyro_x,gyro_y,gyro_z,mag_x,mag_y,mag_z,mag_bias_x,mag_bias_y,mag_bias_z,game_x,game_y,game_z,game_w,rot_x,rot_y,rot_z,rot_w,rot_accuracy,step
1763545029356,1009.7668,0.05623133,4.185645,8.338987,0.16394083,-0.13286309,0.035582874,50.943752,-43.537502,28.650002,46.950733,0.3361091,49.741684,0.16342528,0.14968568,0.6867873,0.69224966,0.031766444,0.21932742,0.9698709,0.10117665,-1.0,0
1763545029382,1009.7597,0.45164528,4.4668016,8.5423765,-0.021303909,0.170584,0.042760536,51.43125,-44.2125,26.306252,46.950733,0.3361091,49.741684,0.16282542,0.15079801,0.6873411,0.69159967,0.030736547,0.21978949,0.9698248,0.10093444,-1.0,0
1763545029407,1009.75507,-0.15732808,4.2478585,9.178269,-0.033521205,0.18081598,-0.026725333,54.581253,-44.86875,23.400002,46.950733,0.3361091,49.741684,0.15919453,0.1527527,0.68827564,0.6910864,0.026887799,0.21898249,0.97013235,0.10083147,-1.0,0
1763545029433,1009.75507,-0.56590253,4.137789,8.681161,0.051999863,-0.04046979,-0.007941242,53.5125,-42.6375,26.156252,46.950733,0.3361091,49.741684,0.15910272,0.15333681,0.6879704,0.69128203,0.026242014,0.21940196,0.97011375,0.10026681,-1.0,0
1763545029458,1009.76215,0.4671986,4.3040895,8.764311,-0.009544762,-0.043982264,0.06139191,50.86875,-42.65625,26.906252,46.950733,0.3361091,49.741684,0.15984915,0.15331805,0.6878651,0.69121885,0.026500018,0.2198998,0.9701425,0.0988199,-1.0,0
1763545029484,1009.7619,0.48095736,4.334598,8.838489,-0.040088,0.026419902,0.03161225,51.881252,-44.287502,25.35,46.950733,0.3361091,49.741684,0.16066656,0.1522869,0.6886353,0.69048995,0.027930493,0.21960177,0.9702118,0.098407246,-1.0,0
1763545029509,1009.7619,0.19920248,4.2837505,8.809774,-0.030314164,0.037568185,0.008093959,52.800003,-43.3125,25.2,46.950733,0.3361091,49.741684,0.16063853,0.152118,0.68884027,0.69032925,0.028124286,0.21943939,0.97022,0.09863294,-1.0,0
1763545029534,1009.7607,0.25124636,4.281956,9.166306,-0.08849903,0.058337588,0.004734202,51.225002,-43.125,26.268751,46.950733,0.3361091,49.741684,0.160209,0.15217537,0.6890131,0.69024396,0.027654251,0.21922477,0.9703452,0.098009944,-1.0,0
1763545029559,1009.7607,0.024526432,4.2251267,9.507881,-0.057650365,0.080634154,0.0067195124,51.525,-43.818752,25.66875,46.950733,0.3361091,49.741684,0.15945148,0.15188701,0.6892845,0.6902119,0.027318886,0.21851343,0.9705043,0.098117046,-1.0,0
1763545029584,1009.76337,0.06281159,4.456034,9.31466,0.054443322,0.03451386,0.025045456,53.662502,-44.325,23.00625,46.950733,0.3361091,49.741684,0.1582405,0.15219183,0.68975335,0.68995506,0.02610946,0.21799242,0.97074,0.09727,-1.0,0
1763545029609,1009.7614,0.028115666,4.3794637,8.347362,0.022678355,0.035124727,0.014813471,53.4,-43.256252,25.125002,46.950733,0.3361091,49.741684,0.15899119,0.15338723,0.68978196,0.68948895,0.025976935,0.21938786,0.9704479,0.09708292,-1.0,0
1763545029634,1009.7614,-0.034097724,4.2568316,8.795418,-0.057497647,-0.0010690134,0.0,51.393753,-42.24375,26.98125,46.950733,0.3361091,49.741684,0.15936525,0.15425424,0.6898019,0.68918926,0.025732825,0.22029407,0.9702668,0.09690524,-1.0,0
1763545029659,1009.76605,0.10887343,4.319643,9.260822,-0.04818196,-0.028710645,0.0073303776,53.11875,-43.275,24.075,46.950733,0.3361091,49.741684,0.1588419,0.15372033,0.6898828,0.6893483,0.025602624,0.21955682,0.970458,0.09669854,-1.0,0
1763545029684,1009.769,0.3499503,4.383053,9.236296,0.032757625,-0.051923506,-0.004581486,51.937504,-43.275,25.125002,46.950733,0.3361091,49.741684,0.15954575,0.15323798,0.68980175,0.68937427,0.0264999,0.21962349,0.9703909,0.09697807,-1.0,0
1763545029710,1009.769,0.07298109,4.631308,8.175676,0.1485165,-0.1517999,0.06826414,53.2125,-44.90625,25.556252,46.950733,0.3361091,49.741684,0.16090278,0.15353699,0.6896498,0.6891442,0.027400292,0.22070916,0.97011054,0.09706826,-1.0,0
1763545029735,1009.7751,0.60658056,4.7156553,7.95793,0.030161448,-0.12599087,0.062460925,56.437504,-43.55625,24.525002,46.950733,0.3361091,49.741684,0.1656489,0.15371041,0.68961287,0.6880172,0.031233475,0.22380999,0.9692525,0.09738131,-1.0,0
1763545029761,1009.7751,1.1557333,4.854439,8.546564,-0.08544471,-0.04734202,0.020769402,55.256252,-42.825,24.900002,46.950733,0.3361091,49.741684,0.1656489,0.15371041,0.68961287,0.6880172,0.031233475,0.22380999,0.9692525,0.09738131,-1.0,0
1763545029785,1009.779,0.6017949,4.7282176,8.652447,-0.08498656,0.12370012,-0.08552107,53.081253,-43.3125,26.7,46.950733,0.3361091,49.741684,0.16499464,0.15253255,0.689576,0.6884733,0.031620752,0.22246246,0.9694461,0.09841145,-1.0,0
1763545029811,1009.77264,0.45583272,4.730012,8.782257,-0.09308052,0.081397735,-0.09605849,52.218754,-42.506252,25.987501,46.950733,0.3361091,49.741684,0.1636689,0.15288751,0.68933886,0.68894833,0.030425524,0.22189274,0.9695368,0.09917813,-1.0,0
1763545029836,1009.77264,0.2943172,4.636692,8.757133,-0.06498074,0.055588696,-0.10476331,54.16875,-42.956253,27.656252,46.950733,0.3361091,49.741684,0.16319744,0.1533103,0.6884219,0.68988246,0.030243305,0.2218621,0.9692094,0.10244875,-1.0,0
1763545029861,1009.77094,0.4121637,4.7048874,8.953942,-0.12713623,0.085979216,-0.017867794,52.66875,-41.831253,24.806252,46.950733,0.3361091,49.741684,0.16260855,0.15368828,0.68821025,0.6901486,0.029611388,0.22177644,0.96918297,0.10306659,-1.0,0
1763545029886,1009.76825,0.3080759,4.6372905,9.05145,-0.06223185,0.066889696,-0.0051923506,53.156254,-43.03125,25.143751,46.950733,0.3361091,49.741684,0.16194613,0.15371646,0.6883695,0.69013923,0.029216757,0.22136323,0.96923655,0.10356252,-1.0,0
1763545029911,1009.76825,0.040677983,4.6378884,8.84806,0.026954409,-0.037415467,0.013897174,51.881252,-42.787502,25.725,46.950733,0.3361091,49.741684,0.16253874,0.15386228,0.6885005,0.6898366,0.029907918,0.22180614,0.9689971,0.10465228,-1.0,0
1763545029936,1009.76825,0.07537391,4.8999023,8.478369,0.04940369,-0.054061532,0.049480047,54.3375,-42.28125,24.656252,46.950733,0.3361091,49.741684,0.16371617,0.15443894,0.68853414,0.68939567,0.030489309,0.22299053,0.9687338,0.1044053,-1.0,0
1763545029961,1009.76825,0.15672988,4.8209395,8.971889,-0.16684245,0.108886644,0.05253437,52.893753,-44.193752,26.775002,46.950733,0.3361091,49.741684,0.16409728,0.15526931,0.68884164,0.68881106,0.030363878,0.22386271,0.9685601,0.10418638,-1.0,0
1763545029987,1009.77606,0.25184458,4.6965127,9.6071825,-0.12560907,0.11285727,0.064140804,52.29375,-43.631252,26.04375,46.950733,0.3361091,49.741684,0.16198999,0.15543611,0.6902503,0.6878615,0.02887123,0.2226378,0.9689441,0.10366391,-1.0,0
1763545030013,1009.78314,0.3792624,4.807779,9.643674,0.027259842,0.063377224,0.080634154,55.2,-43.818752,24.50625,46.950733,0.3361091,49.741684,0.16212511,0.15568762,0.6908957,0.68712443,0.028915599,0.22290598,0.96894073,0.103105046,-1.0,0
1763545030038,1009.78314,0.5306084,4.883751,8.432905,0.27175847,-0.13836087,0.060017463,52.162502,-44.268753,26.400002,46.950733,0.3361091,49.741684,0.16433007,0.15633142,0.69119644,0.68615127,0.03044859,0.22475936,0.9684668,0.10309284,-1.0,0
1763545030063,1009.76996,0.30987054,4.901697,7.624729,0.21907139,-0.12156209,0.042760536,52.2,-43.275,27.2625,46.950733,0.3361091,49.741684,0.16812831,0.15711118,0.69097906,0.6852714,0.03332235,0.22768547,0.9675663,0.104232475,-1.0,0
1763545030088,1009.7575,0.06699903,5.2019963,7.367501,0.08513928,-0.06062833,0.07895427,54.225002,-43.55625,25.66875,46.950733,0.3361091,49.741684,0.17162123,0.1583007,0.69061387,0.68449944,0.035633106,0.23074496,0.9666525,0.10521381,-1.0,0
1763545030113,1009.7575,0.59700924,5.3742795,8.114061,-0.1343139,0.05574141,0.03695732,51.73125,-44.193752,27.056252,46.950733,0.3361091,49.741684,0.1726047,0.15867123,0.69164276,0.6831262,0.03617721,0.2316466,0.9665993,0.103522204,-1.0,0
1763545030138,1009.75507,0.20997019,5.176872,8.475976,-0.09705114,0.066431545,-0.05421425,50.5125,-43.6875,26.85,46.950733,0.3361091,49.741684,0.17168093,0.15829399,0.6921417,0.6829411,0.035734892,0.23076904,0.9668541,0.1032563,-1.0,0
1763545030163,1009.75507,-0.4671986,5.0847483,8.743972,-0.045891218,-0.015729768,-0.037568185,50.60625,-43.818752,28.06875,46.950733,0.3361091,49.741684,0.17051916,0.15811186,0.6917796,0.6836409,0.034993045,0.22989482,0.9669823,0.10425513,-1.0,0
1763545030189,1009.76337,-0.37268212,5.0829535,8.620742,0.09644028,0.1226311,0.11102467,51.318752,-43.237503,27.187502,46.950733,0.3361091,49.741684,0.17065206,0.15846874,0.6920622,0.683239,0.034832224,0.2302633,0.96697235,0.103585765,-1.0,0
1763545030214,1009.75653,-0.2440679,5.258228,8.092526,0.13248129,0.12538,0.10476331,52.912502,-43.443752,26.118752,46.950733,0.3361091,49.741684,0.1706161,0.15993696,0.69280565,0.68215156,0.033823304,0.23139939,0.96690613,0.101994246,-1.0,0
1763545030239,1009.75653,-0.38703907,5.483153,7.382456,0.053679742,0.008093959,0.062460925,52.818752,-43.3125,24.581251,46.950733,0.3361091,49.741684,0.17138831,0.16229343,0.69372827,0.6804616,0.032908734,0.23373091,0.9665967,0.099888384,-1.0,0
1763545030264,1009.7482,-0.26799613,5.5950174,7.225726,-0.17722714,-0.09957096,0.0029016077,50.756252,-43.912502,26.831251,46.950733,0.3361091,49.741684,0.17108504,0.16084436,0.69377387,0.68083537,0.033607207,0.23240387,0.96685123,0.10028815,-1.0,0
1763545030289,1009.76117,-0.18783657,5.346762,9.855438,-0.4579195,0.18249585,-0.1924224,51.80625,-44.550003,26.906252,46.950733,0.3361091,49.741684,0.16868971,0.15814167,0.69365853,0.6821824,0.033427056,0.22879606,0.96759605,0.10145403,-1.0,0
1763545030314,1009.76117,-1.1760724,5.195416,10.161121,-0.21876594,0.42378744,-0.16371176,51.750004,-44.175003,25.66875,46.950733,0.3361091,49.741684,0.15966772,0.15849794,0.69322324,0.6847088,0.026099162,0.22345963,0.96885216,0.10348974,-1.0,0
1763545030339,1009.75507,-1.5176477,5.1792645,8.900104,0.08758274,0.46792242,-0.01282816,52.912502,-42.075,25.725,46.950733,0.3361091,49.741684,0.15690926,0.16252103,0.6936455,0.6839754,0.021384506,0.22489174,0.9687482,0.10243681,-1.0,0
1763545030364,1009.7502,-1.1670992,5.1499524,7.6271224,0.18608469,0.25411975,0.07086031,54.525,-42.15,27.375002,46.950733,0.3361091,49.741684,0.15649214,0.16574104,0.69411606,0.68281984,0.018946247,0.22715835,0.96844256,0.100792736,-1.0,0
1763545030389,1009.7502,-0.72263247,4.9698925,8.328219,0.07628174,-0.09224058,0.045662142,51.787502,-43.18125,26.831251,46.950733,0.3361091,49.741684,0.15732725,0.16680871,0.69435775,0.6821219,0.018875983,0.2285185,0.96822107,0.09985444,-1.0,0
1763545030414,1009.76117,-0.6430711,5.0572305,8.645866,0.1512654,-0.0061086477,0.068722285,52.687504,-42.975002,27.956251,46.950733,0.3361091,49.741684,0.15970239,0.16801298,0.69448614,0.68114305,0.019977333,0.2309418,0.96771216,0.09899498,-1.0,0
1763545030440,1009.76117,-0.47018966,5.428716,8.264212,0.19616395,0.031001387,0.09911281,51.300003,-41.98125,26.04375,46.950733,0.3361091,49.741684,0.16099462,0.16960587,0.6948179,0.6801049,0.019946,0.23299697,0.96734357,0.097780146,-1.0,0
1763545030465,1009.7514,-0.69152576,5.736792,8.053044,0.11675153,-0.05329795,-0.003817905,52.331253,-43.36875,26.325,46.950733,0.3361091,49.741684,0.16254184,0.17066482,0.69486964,0.67941874,0.020441055,0.23479457,0.9669777,0.09699344,-1.0,0
1763545030491,1009.75214,-1.3274183,5.6907306,8.023732,0.09628756,-0.033597562,0.0129808765,52.74375,-43.350002,28.44375,46.950733,0.3361091,49.741684,0.16475718,0.17223321,0.69428235,0.67908967,0.02105865,0.23741469,0.96636814,0.09655765,-1.0,0
1763545030516,1009.75214,-0.74476606,5.9324055,8.827721,0.008781182,-0.06780599,0.11759147,51.975002,-43.03125,25.575,46.950733,0.3361091,49.741684,0.16561924,0.17257413,0.6945476,0.67852205,0.021409366,0.2382293,0.9662646,0.095504805,-1.0,0
1763545030541,1009.7631,-0.60658056,5.953343,9.62812,0.038408123,-0.07742711,0.13836087,51.825,-43.800003,25.931252,46.950733,0.3361091,49.741684,0.16638772,0.17238349,0.6951088,0.6778074,0.022090102,0.2385644,0.96627116,0.09444105,-1.0,0
1763545030567,1009.76605,-0.4139583,6.087341,9.799805,0.1503491,-0.123547405,0.17883067,50.9625,-43.537502,28.331251,46.950733,0.3361091,49.741684,0.1695575,0.1723274,0.6964294,0.6756772,0.024543341,0.24050799,0.9659914,0.09172895,-1.0,0
1763545030592,1009.76605,0.00059820566,6.3972116,9.303893,0.20395248,-0.16126831,0.18096869,50.475002,-42.975002,29.118752,46.950733,0.3361091,49.741684,0.17239095,0.1725619,0.6969563,0.67435575,0.026560824,0.24246809,0.96559364,0.09018135,-1.0,0
1763545030617,1009.76166,0.6017949,6.707082,8.733205,-0.12881611,-0.16493349,0.05665771,52.2,-43.275,27.2625,46.950733,0.3361091,49.741684,0.17425142,0.17261009,0.6974264,0.6733786,0.027974956,0.24367027,0.9653518,0.08909609,-1.0,0
1763545030642,1009.76166,0.6269195,6.1507506,9.357731,-0.30596688,-0.17684536,-0.0923933,51.80625,-42.43125,25.85625,46.950733,0.3361091,49.741684,0.17496738,0.17087099,0.6976646,0.67338973,0.029639952,0.24275903,0.9655378,0.08902953,-1.0,0
1763545030667,1009.7675,-0.062213387,5.4484572,9.918848,-0.40416342,-0.066889696,-0.12873976,52.85625,-43.6875,26.1375,46.950733,0.3361091,49.741684,0.1721041,0.1651326,0.6969068,0.6763375,0.031129863,0.23647311,0.96673787,0.092354126,-1.0,0
1763545030693,1009.77386,-0.3702893,4.7192445,10.34836,-0.28168502,0.111635536,0.11942407,51.3375,-41.9625,24.187502,46.950733,0.3361091,49.741684,0.16880272,0.16312598,0.6975299,0.67701375,0.029748706,0.23285073,0.96767014,0.09225015,-1.0,0
1763545030717,1009.77386,0.45882374,4.6450667,10.632507,-0.11766783,-0.12095123,0.17989968,50.625004,-42.43125,26.1375,46.950733,0.3361091,49.741684,0.16619688,0.16182001,0.6989193,0.6765388,0.028462317,0.23021081,0.9684848,0.09071962,-1.0,0
1763545030742,1009.7702,1.1228321,4.342375,10.652248,0.076739885,-0.2819141,0.13377939,48.768753,-42.131252,26.94375,46.950733,0.3361091,49.741684,0.1689933,0.15811835,0.70044565,0.67514133,0.03293147,0.22907567,0.9688125,0.088556044,-1.0,0
1763545030767,1009.7426,1.4464613,3.7854455,9.45165,0.18471023,-0.072540194,0.057574004,51.112503,-41.5125,25.725,46.950733,0.3361091,49.741684,0.17079376,0.15843874,0.7005003,0.6745561,0.034178164,0.23044565,0.9684729,0.088243596,-1.0,0
1763545030792,1009.7426,0.73818576,3.321836,7.806584,-0.028787002,0.03970621,-0.049938194,49.74375,-41.662502,26.962502,46.950733,0.3361091,49.741684,0.17044744,0.16030543,0.7004807,0.674223,0.032825503,0.23167358,0.96821684,0.0883513,-1.0,0
1763545030817,1009.72455,0.7746763,3.5587256,7.6779695,-0.22136213,-0.48548478,0.049174614,50.062504,-40.875,25.95,46.950733,0.3361091,49.741684,0.17183737,0.15534185,0.7002033,0.6753194,0.037068803,0.2286593,0.96866393,0.08961578,-1.0,0
1763545030842,1009.72455,1.2382857,3.6729827,7.5349984,-0.34445137,-0.5192351,0.024587307,49.875004,-42.506252,27.000002,46.950733,0.3361091,49.741684,0.17325081,0.14941944,0.7000397,0.6764632,0.041923977,0.22490974,0.96923065,0.090828955,-1.0,0
1763545030867,1009.7199,0.16031912,4.1018963,8.502297,-0.36094472,-0.23915356,0.25320345,49.162502,-41.081253,25.143751,46.950733,0.3361091,49.741684,0.17298524,0.14469567,0.7001756,0.6774167,0.044717696,0.22104537,0.9699119,0.09170712,-1.0,0
1763545030893,1009.7243,0.7728817,3.3415768,8.513064,-0.29100072,-0.23777911,0.30039275,47.79375,-41.23125,26.062502,46.950733,0.3361091,49.741684,0.17256145,0.1402283,0.7019378,0.67664015,0.04712418,0.21730335,0.9708249,0.08976396,-1.0,0
1763545030917,1009.7243,0.64905316,3.336193,8.287541,-0.1353829,-0.15073088,0.07086031,47.23125,-40.40625,26.081251,46.950733,0.3361091,49.741684,0.17279118,0.13399541,0.7043187,0.6753692,0.05113918,0.21259435,0.9719139,0.087016426,-1.0,0
1763545030943,1009.72015,0.88354975,4.2723846,7.945368,0.35453063,-0.21456626,-0.07024945,47.475002,-42.018753,27.075,46.950733,0.3361091,49.741684,0.17321825,0.13526571,0.7039257,0.6754163,0.05069558,0.21384884,0.9716296,0.087375715,-1.0,0
1763545030967,1009.7204,0.8877372,4.28734,8.217551,0.48097965,-0.5401572,-0.17608178,47.737503,-40.85625,25.425001,46.950733,0.3361091,49.741684,0.17700297,0.13639073,0.7026376,0.6755501,0.052986074,0.21708283,0.97069174,0.08845923,-1.0,0
1763545030993,1009.7204,1.2424731,4.2370906,8.3013,0.63094693,-0.5551234,-0.25778493,47.23125,-43.162502,27.768751,46.950733,0.3361091,49.741684,0.19124784,0.13750039,0.69638586,0.67791194,0.06347171,0.22683349,0.96726257,0.09445098,-1.0,0
1763545031018,1009.70013,1.3669,4.273581,8.213364,0.77969253,-0.123547405,-0.284663,49.7625,-41.86875,23.737501,46.950733,0.3361091,49.741684,0.19690819,0.14232814,0.69326514,0.67849344,0.06493107,0.23412408,0.96516615,0.097078465,-1.0,0
1763545031043,1009.67523,0.994816,5.128417,7.171888,0.7105121,0.28924447,0.088269964,47.737503,-42.0,29.5125,46.950733,0.3361091,49.741684,0.19991358,0.15008505,0.69192624,0.67730874,0.062445015,0.24205701,0.9633766,0.097029015,-1.0,0
1763545031069,1009.67523,1.0426725,5.456832,6.8859453,0.5342776,-0.088269964,0.031001387,47.756252,-43.48125,27.73125,46.950733,0.3361091,49.741684,0.20726989,0.15965663,0.6911734,0.67366785,0.062217724,0.25412598,0.96051407,0.09466604,-1.0,0
1763545031095,1009.6774,1.1276177,6.1639113,7.344171,0.47975793,-0.37843072,0.049174614,47.41875,-42.787502,29.737501,46.950733,0.3361091,49.741684,0.21324264,0.16049802,0.68992525,0.6728827,0.06640437,0.25850046,0.9590318,0.09500475,-1.0,0
1763545031120,1009.6774,1.2065809,6.129813,7.4063845,0.38369945,0.03970621,-0.04780017,47.60625,-42.65625,29.868752,46.950733,0.3361091,49.741684,0.21793912,0.1619434,0.68824226,0.6727551,0.069229245,0.2625461,0.95761615,0.09616746,-1.0,0
1763545031145,1009.68353,1.9651057,6.387042,7.872985,0.21769693,0.11728604,-0.020158539,48.393753,-43.6875,30.91875,46.950733,0.3361091,49.741684,0.22134253,0.16734506,0.68710333,0.671485,0.06865528,0.2688556,0.9558844,0.09637528,-1.0,0
1763545031170,1009.69183,2.3264217,6.262615,8.891729,0.09873102,-0.024587307,-0.1924224,49.3875,-44.0625,28.06875,46.950733,0.3361091,49.741684,0.22224276,0.16816628,0.6856555,0.67246175,0.068982154,0.27002442,0.9553125,0.0985205,-1.0,0
1763545031195,1009.69183,0.1788635,5.9030933,10.337592,-0.024205517,0.08796453,-0.2593121,49.0125,-42.881252,29.587502,46.950733,0.3361091,49.741684,0.22238547,0.16867973,0.683323,0.67465657,0.06886921,0.27049062,0.9548205,0.1020276,-1.0,0
1763545031221,1009.71796,-0.31944183,6.009574,10.642078,0.073685564,0.06994402,-0.060322896,48.2625,-45.1875,29.79375,46.950733,0.3361091,49.741684,0.22115828,0.16963074,0.68186516,0.67629457,0.06724768,0.27048716,0.9547272,0.10397327,-1.0,0
1763545031245,1009.74066,-0.40558344,6.0430737,9.362516,-0.032299474,0.30436337,0.159283,49.912502,-44.381252,28.331251,46.950733,0.3361091,49.741684,0.21859187,0.17237373,0.6831856,0.67510176,0.06326502,0.27109528,0.9551164,0.10127969,-1.0,0
1763545031270,1009.74066,0.5605187,5.91087,9.070593,-0.41210467,0.37369654,0.19547673,49.18125,-42.225002,28.143751,46.950733,0.3361091,49.741684,0.21372828,0.17185739,0.68587923,0.67405856,0.059737243,0.26766807,0.9565886,0.09860761,-1.0,0
1763545031295,1009.77704,0.081954174,3.9798622,12.784253,-0.69692034,0.64400417,-0.038026333,48.562504,-42.300003,28.81875,46.950733,0.3361091,49.741684,0.20565225,0.16936411,0.6884101,0.67462176,0.054946963,0.26068732,0.9589311,0.097334966,-1.0,0
1763545031320,1009.77704,-1.0953146,4.039683,11.85524,-0.15157083,0.6244565,0.017104214,49.29375,-42.45,26.906252,46.950733,0.3361091,49.741684,0.19059813,0.17127427,0.6922622,0.67461884,0.041712195,0.25282922,0.96204376,0.09385745,-1.0,0
1763545031345,1009.79315,-1.2975081,4.5206404,9.1052885,0.24365869,0.26572618,0.123089254,49.818752,-42.768753,27.018751,46.950733,0.3361091,49.741684,0.19005278,0.17443688,0.6931351,0.6730643,0.039133005,0.2549841,0.96181697,0.091432236,-1.0,0
1763545031371,1009.77826,0.1268196,4.473382,6.486344,-0.16073379,0.021227552,-0.039553493,49.631252,-42.91875,27.50625,46.950733,0.3361091,49.741684,0.19087534,0.1759087,0.69367296,0.6718933,0.038706075,0.25666925,0.9615558,0.08962843,-1.0,0
1763545031396,1009.77826,-0.17826529,3.778267,7.417152,-0.46708247,0.07131846,-0.1838703,48.525,-41.04375,28.29375,46.950733,0.3361091,49.741684,0.1859225,0.17293759,0.693391,0.6743399,0.038199786,0.2554063,0.9618941,0.08982286,-1.0,0
1763545031421,1009.7778,-0.9068798,3.3200414,8.650652,-0.5359575,0.28817546,-0.15347977,48.61875,-42.037502,28.500002,46.950733,0.3361091,49.741684,0.17996435,0.17148238,0.69379175,0.6759139,0.032746386,0.2464164,0.9642491,0.09181699,-1.0,0
1763545031447,1009.7619,-0.33140594,3.388835,8.396415,0.031535894,0.07498365,0.1339321,48.43125,-41.662502,26.94375,46.950733,0.3361091,49.741684,0.1755668,0.17104556,0.6948778,0.67606544,0.029432723,0.24333932,0.96525043,0.09061602,-1.0,0
1763545031472,1009.7619,-0.033499517,3.6424742,6.9415784,0.24136795,-0.11026109,0.17577635,47.98125,-41.5875,27.768751,46.950733,0.3361091,49.741684,0.17514502,0.17139125,0.6958533,0.6750833,0.028796623,0.24335466,0.9654272,0.08887921,-1.0,0
1763545031497,1009.7358,0.27756742,3.7507496,5.968298,0.20578507,-0.17470732,0.16233732,50.1375,-42.73125,25.893751,46.950733,0.3361091,49.741684,0.18041563,0.17195405,0.69682354,0.67254657,0.032475796,0.24710995,0.9646154,0.086017944,-1.0,0
1763545031522,1009.7358,0.1902294,3.8650067,6.0364933,0.03092503,-0.06918044,0.12858704,49.18125,-40.10625,27.393751,46.950733,0.3361091,49.741684,0.18140264,0.17154902,0.69747293,0.67171097,0.03350126,0.24741393,0.9645952,0.08497139,-1.0,0
1763545031547,1009.7282,0.10229317,4.237689,8.099107,0.017027855,0.13637556,0.12996148,47.2125,-41.90625,26.475,46.950733,0.3361091,49.741684,0.18064529,0.1712091,0.6985443,0.6708879,0.033075705,0.2466805,0.9649292,0.083464615,-1.0,0
1763545031572,1009.72284,0.23090738,4.4111686,8.090134,0.23831362,-0.0027488915,0.08872811,47.8875,-42.09375,27.806252,46.950733,0.3361091,49.741684,0.18000816,0.17198907,0.6995936,0.66976535,0.032021366,0.24689634,0.9650637,0.081663474,-1.0,0
1763545031597,1009.72284,-0.09990034,4.9046884,7.785647,0.4325686,-0.24556763,0.01924224,49.0875,-42.09375,26.437502,46.950733,0.3361091,49.741684,0.18616512,0.17473069,0.6987246,0.6682781,0.03504721,0.25290304,0.96346694,0.080890164,-1.0,0
1763545031622,1009.72235,-0.863809,5.1421757,7.899306,0.40859216,-0.13209951,0.1594357,48.093754,-40.96875,29.250002,46.950733,0.3361091,49.741684,0.1913714,0.17589998,0.6974742,0.6678068,0.03825412,0.25710008,0.9622323,0.08090215,-1.0,0
1763545031647,1009.72894,-0.01794617,5.2426744,8.212168,0.30153814,0.076052666,0.25992295,50.1375,-43.237503,27.937502,46.950733,0.3361091,49.741684,0.1950107,0.1777971,0.6974836,0.66624,0.03974548,0.26088557,0.9612992,0.07913846,-1.0,0
1763545031672,1009.72894,0.93260264,5.371289,8.927621,0.25465426,-0.021685699,0.22510368,49.987503,-42.6375,27.45,46.950733,0.3361091,49.741684,0.19898638,0.18118285,0.6996809,0.6618337,0.04063529,0.2660293,0.9602552,0.07407526,-1.0,0
1763545031697,1009.7424,0.81834537,7.0247293,10.360922,0.12851068,-0.062460925,-0.032070402,46.74375,-43.987503,29.8875,46.950733,0.3361091,49.741684,0.20167476,0.1807119,0.6997224,0.6611045,0.043076992,0.267346,0.9598131,0.07368345,-1.0,0
1763545031722,1009.7424,0.2835495,7.368697,10.033105,0.1419497,0.049174614,-0.06459895,47.5125,-42.412502,29.400002,46.950733,0.3361091,49.741684,0.20305808,0.1811858,0.69918543,0.6611194,0.043885108,0.26857957,0.9593966,0.07414348,-1.0,0
1763545031747,1009.76874,1.006182,7.3836527,9.6783695,0.047571093,0.011300999,-0.1244637,47.381252,-42.300003,29.56875,46.950733,0.3361091,49.741684,0.20383905,0.18358804,0.6976646,0.66182256,0.04288845,0.27095297,0.95868254,0.075318664,-1.0,0
1763545031772,1009.79803,1.4267205,6.6717877,10.098908,-0.154167,-0.14782928,-0.27504188,46.143753,-43.29375,29.75625,46.950733,0.3361091,49.741684,0.20366175,0.18216228,0.6958784,0.6641477,0.043690827,0.26972637,0.95874494,0.078402475,-1.0,0
1763545031798,1009.79803,0.7818548,4.4835515,11.753545,-0.4237111,0.15363249,-0.32330018,48.693752,-41.775,27.69375,46.950733,0.3361091,49.741684,0.201615,0.17961311,0.69403684,0.6673855,0.043710746,0.2664561,0.95934856,0.08210274,-1.0,0
1763545031822,1009.8215,0.56410795,4.141378,11.941979,-0.29680392,0.35888305,-0.25534147,49.66875,-42.675003,28.25625,46.950733,0.3361091,49.741684,0.19710088,0.17800936,0.69307363,0.67015886,0.041214556,0.26236895,0.96034354,0.084877715,-1.0,0
1763545031847,1009.8244,-0.44745782,3.9960139,11.305489,-0.013515383,0.24602579,-0.15424335,49.0125,-42.881252,30.35625,46.950733,0.3361091,49.741684,0.18956922,0.17975093,0.6922942,0.6726677,0.034166314,0.2589972,0.9613491,0.08695356,-1.0,0
1763545031872,1009.8244,0.45164528,4.0767717,8.184649,0.32994333,-0.3442223,0.24113888,47.831253,-42.35625,28.29375,46.950733,0.3361091,49.741684,0.19202015,0.18029864,0.6919672,0.67216223,0.03553075,0.26099217,0.96084154,0.08604749,-1.0,0
1763545031897,1009.8051,1.7682959,4.162315,7.1623163,0.14775293,-0.17715079,0.18035783,51.131252,-43.3875,28.143751,46.950733,0.3361091,49.741684,0.19658203,0.17974804,0.69232816,0.67061764,0.039269835,0.26346105,0.96019685,0.0840721,-1.0,0
1763545031922,1009.8051,1.8969102,4.093521,7.225726,-0.09185879,-0.06276636,-0.020311253,49.93125,-42.15,28.050001,46.950733,0.3361091,49.741684,0.19919997,0.17775059,0.6929393,0.6697456,0.042722743,0.26353496,0.96007055,0.0835981,-1.0,0
1763545031947,1009.78314,0.27876383,3.6837504,7.580462,-0.20593779,0.29077163,-0.29031348,50.531254,-42.7125,29.1,46.950733,0.3361091,49.741684,0.19667801,0.17719321,0.692372,0.6712237,0.041207675,0.26149875,0.96053106,0.085442744,-1.0,0
1763545031972,1009.76483,-0.9661021,3.6047873,6.7088766,-0.10315979,0.29764387,-0.23747368,49.818752,-44.268753,26.643751,46.950733,0.3361091,49.741684,0.1929043,0.17801873,0.69144595,0.67305255,0.037728183,0.2597678,0.9609727,0.08734264,-1.0,0
1763545031997,1009.76483,-1.2801601,3.6514473,6.1531434,-0.03046688,0.1547015,-0.07299834,48.937504,-43.48125,27.150002,46.950733,0.3361091,49.741684,0.18804884,0.1808754,0.6904263,0.67470974,0.031984866,0.25895026,0.9612836,0.0886312,-1.0,0
1763545032022,1009.75507,-0.5282156,3.8446677,6.321239,0.026801692,-0.16630794,0.06444623,48.037502,-43.4625,28.1625,46.950733,0.3361091,49.741684,0.189261,0.1800759,0.6904388,0.6745719,0.03326799,0.25911444,0.9612616,0.08791573,-1.0,0
1763545032047,1009.7365,0.22552353,4.2951164,6.4031935,-0.08116866,0.16554436,0.035430156,47.268753,-43.66875,28.425001,46.950733,0.3361091,49.741684,0.19098812,0.17884682,0.69048035,0.6743696,0.035343166,0.25925565,0.9611798,0.08758324,-1.0,0
1763545032072,1009.7365,-0.33320054,4.386044,7.361519,-0.099341884,0.38133234,0.07987057,48.468754,-43.425003,29.5125,46.950733,0.3361091,49.741684,0.18955421,0.17935969,0.6911467,0.67395514,0.03390915,0.25874868,0.96143466,0.08684897,-1.0,0
1763545032097,1009.73505,-0.38344982,4.7318068,8.01117,0.13080142,0.15210533,0.18814635,48.318752,-43.55625,28.29375,46.950733,0.3361091,49.741684,0.18657847,0.18273962,0.6937518,0.6711953,0.029295476,0.25951314,0.96176964,0.082424805,-1.0,0
1763545032122,1009.7316,0.49471608,5.6793647,6.9296145,0.50419253,-0.36544985,0.33063057,49.7625,-43.0125,26.56875,46.950733,0.3361091,49.741684,0.1914775,0.18354875,0.6943216,0.66900206,0.03252646,0.26324093,0.96084404,0.08015623,-1.0,0
1763545032147,1009.7316,1.1910275,6.050252,7.0055866,0.36125016,-0.12186752,0.32391104,47.737503,-43.5,28.518751,46.950733,0.3361091,49.741684,0.1978989,0.1841281,0.69482684,0.66644466,0.037132237,0.26774675,0.95962256,0.07782972,-1.0,0
1763545032172,1009.7399,1.9722841,6.4618177,7.884351,0.22731806,0.038026333,0.22586726,46.7625,-43.21875,28.593752,46.950733,0.3361091,49.741684,0.20400491,0.18666525,0.69709224,0.66151375,0.04040351,0.2735498,0.9582273,0.0730657,-1.0,0
1763545032197,1009.7399,2.1098714,6.649654,9.088538,0.142866,-0.14935644,0.019394957,47.86875,-42.862503,28.1625,46.950733,0.3361091,49.741684,0.20643748,0.18653508,0.69668835,0.66122127,0.0425167,0.27496198,0.9576909,0.07359644,-1.0,0
1763545032222,1009.76385,1.0462617,6.291329,11.9515505,-0.042073313,0.049480047,-0.18264857,49.143753,-44.5875,27.2625,46.950733,0.3361091,49.741684,0.20794861,0.18560621,0.6953747,0.6623908,0.044441186,0.2751677,0.9573637,0.0759102,-1.0,0
1763545032248,1009.81415,0.48753762,6.2679987,12.122638,0.025427246,0.40897396,-0.14294235,50.325,-43.8375,27.6375,46.950733,0.3361091,49.741684,0.20406218,0.1885812,0.69436485,0.66381717,0.03960742,0.27501905,0.95746225,0.077858046,-1.0,0
1763545032272,1009.81415,-0.00059820566,6.4618177,11.170893,0.0778089,0.5338958,-0.07819069,49.443752,-44.550003,27.150002,46.950733,0.3361091,49.741684,0.20067139,0.19253856,0.6948016,0.66325754,0.034448132,0.27595913,0.95745784,0.077034876,-1.0,0
1763545032297,1009.8305,0.28175488,5.5262237,10.316655,-0.33162323,-0.27458373,-0.16340633,50.475002,-44.68125,25.2,46.950733,0.3361091,49.741684,0.19903435,0.19373804,0.69464856,0.66356176,0.03234798,0.27586722,0.95755124,0.07711344,-1.0,0
1763545032323,1009.8305,0.2213361,4.3704906,12.29193,-0.5304597,-0.0006108648,-0.26419902,49.537502,-45.65625,26.437502,46.950733,0.3361091,49.741684,0.19837722,0.19009934,0.69367766,0.66582286,0.03405849,0.27263767,0.9582445,0.07922236,-1.0,0
1763545032348,1009.85394,-1.5565311,3.6011982,12.731013,-0.2531271,0.59727305,-0.1800524,46.725002,-44.2125,28.050001,46.950733,0.3361091,49.741684,0.18762115,0.18875854,0.69352514,0.669471,0.0263106,0.26483813,0.9605029,0.08125644,-1.0,0
1763545032373,1009.85565,-0.87338024,4.284947,8.427522,0.4965567,-0.36071566,0.27427828,48.600002,-43.537502,28.893751,46.950733,0.3361091,49.741684,0.18565194,0.19264005,0.69459355,0.6678046,0.022000475,0.26663235,0.9603774,0.07809269,-1.0,0
1763545032398,1009.85565,0.44147578,4.4751763,6.7764735,0.37942338,-0.7475458,0.18997894,47.4375,-45.881252,26.98125,46.950733,0.3361091,49.741684,0.19122599,0.19317739,0.69475937,0.6659013,0.025729788,0.27059725,0.9593722,0.075630814,-1.0,0
1763545032423,1009.82904,0.1788635,4.4081774,6.401997,-0.05627592,-0.39858928,0.051007207,46.59375,-44.100002,27.900002,46.950733,0.3361091,49.741684,0.20147341,0.18755805,0.6935131,0.66578525,0.037173506,0.27274108,0.95834696,0.076167576,-1.0,0
1763545032449,1009.80536,-0.65982085,4.0851464,7.690532,-0.47975793,0.3252855,0.06933315,49.18125,-45.318752,25.5375,46.950733,0.3361091,49.741684,0.19626296,0.18638638,0.6954256,0.66567576,0.033787437,0.26854688,0.9597843,0.07453177,-1.0,0
1763545032474,1009.80536,-0.7818548,3.8506498,8.758329,0.04650208,0.23167047,0.28970262,45.768753,-45.300003,28.050001,46.950733,0.3361091,49.741684,0.1897079,0.18693271,0.6984589,0.6642456,0.028246121,0.2648303,0.9612586,0.07105641,-1.0,0
1763545032499,1009.7873,-0.18843478,3.879962,6.6502523,0.4096612,-0.19761476,0.31154105,48.16875,-42.825,28.743752,46.950733,0.3361091,49.741684,0.19280894,0.18905893,0.70154786,0.6594786,0.029003726,0.26847225,0.9606971,0.06436197,-1.0,0
1763545032524,1009.75214,0.36909288,3.8841493,4.883751,0.34720027,-0.17730351,0.27687445,48.24375,-44.79375,26.681252,46.950733,0.3361091,49.741684,0.19677107,0.18984708,0.7023187,0.65725774,0.031535305,0.27159947,0.95989007,0.062050503,-1.0,0
1763545032550,1009.75214,0.42951167,4.0965123,6.25424,-0.07933606,0.44730574,0.08048143,47.25,-45.28125,27.431252,46.950733,0.3361091,49.741684,0.1961474,0.19122203,0.7038097,0.65544814,0.030231537,0.27226034,0.9598823,0.05988537,-1.0,0
1763545032575,1009.7382,0.051445685,4.039683,6.8428745,0.09078978,0.3414734,0.03497201,48.693752,-45.600002,24.975,46.950733,0.3361091,49.741684,0.19292618,0.19337419,0.7053054,0.6541638,0.026412664,0.27187583,0.9602154,0.05807197,-1.0,0
1763545032600,1009.7382,-0.08315059,4.35075,6.1471615,0.34765843,0.0377209,0.008246674,47.943752,-45.5625,26.60625,46.950733,0.3361091,49.741684,0.19316088,0.19865458,0.7054535,0.65235007,0.023233678,0.27610683,0.959181,0.056541964,-1.0,0
1763545032625,1009.7255,-0.4953143,5.870192,5.732605,0.07276927,-0.11560616,-0.07803798,49.818752,-46.48125,25.06875,46.950733,0.3361091,49.741684,0.19639906,0.2004097,0.70420456,0.65219575,0.024609625,0.27951923,0.9581205,0.057170365,-1.0,0
1763545032650,1009.72577,-0.7298109,5.7786665,7.548757,-0.15157083,0.014202606,-0.04703659,50.437504,-45.675003,25.10625,46.950733,0.3361091,49.741684,0.19773504,0.20075528,0.7032347,0.6527321,0.025387634,0.2806373,0.95771855,0.058080178,-1.0,0
1763545032676,1009.72577,-0.47377887,5.825925,9.540184,-0.17081307,0.00076358096,0.03649917,50.006252,-47.71875,26.04375,46.950733,0.3361091,49.741684,0.19557056,0.1992445,0.7036647,0.6533834,0.024536785,0.27810815,0.9584929,0.057838198,-1.0,0
1763545032702,1009.7641,0.6358926,6.433702,10.758729,0.13461933,-0.32360563,0.064904384,48.206253,-45.787502,25.81875,46.950733,0.3361091,49.741684,0.19718802,0.19746757,0.7037317,0.6533644,0.026855696,0.27776843,0.9585449,0.057577472,-1.0,0
1763545032727,1009.79,0.6305088,7.131808,10.476376,0.13263401,-0.16875139,0.0056504994,46.725002,-47.943752,27.16875,46.950733,0.3361091,49.741684,0.20026661,0.19608097,0.7033011,0.65330935,0.030112887,0.27865332,0.95817757,0.057804108,-1.0,0
1763545032752,1009.79,0.21595225,7.0959153,10.578669,0.0778089,-0.26083925,-0.029168794,46.59375,-46.331253,27.712502,46.950733,0.3361091,49.741684,0.2046044,0.19485664,0.70191044,0.6538269,0.03428605,0.28045774,0.9574228,0.0592417,-1.0,0
1763545032777,1009.8132,-0.11964113,6.2267227,10.486546,-0.013668099,-0.39843655,0.01847866,48.825,-46.350002,25.781252,46.950733,0.3361091,49.741684,0.20715243,0.19227973,0.7012404,0.6545061,0.03783785,0.2800927,0.9573479,0.060010742,-1.0,0
1763545032803,1009.8132,1.1138589,5.128417,11.985648,-0.5727621,0.10155627,0.016035201,48.2625,-47.643753,26.23125,46.950733,0.3361091,49.741684,0.20727107,0.18827215,0.7017087,0.6551314,0.04043219,0.2770793,0.9581162,0.06004706,-1.0,0
1763545032828,1009.8403,0.9762716,4.549952,13.296915,-0.577649,0.41996953,-0.03451386,45.018753,-46.875,28.218752,46.950733,0.3361091,49.741684,0.1959631,0.18293832,0.7048881,0.6567076,0.035137985,0.26576924,0.96156186,0.059420988,-1.0,0
1763545032853,1009.8632,0.67417777,4.3483567,13.070794,-0.24304782,0.3979784,-0.023976443,46.143753,-46.3875,27.768751,46.950733,0.3361091,49.741684,0.19122945,0.18325368,0.70606494,0.65675086,0.031272307,0.26300696,0.96250033,0.058672298,-1.0,0
1763545032879,1009.8632,0.7692925,4.232305,9.160921,0.43562296,-0.42836893,-0.036346454,44.850002,-47.006252,27.31875,46.950733,0.3361091,49.741684,0.19205342,0.18381508,0.7057179,0.6567265,0.031547934,0.26396444,0.9622178,0.058858898,-1.0,0
1763545032904,1009.8454,1.2029916,4.17727,7.20778,0.32368198,-0.457385,-0.028863361,45.05625,-46.518753,29.737501,46.950733,0.3361091,49.741684,0.20253952,0.18290985,0.70241594,0.6573687,0.040269136,0.26991972,0.96006477,0.061622813,-1.0,0
1763545032929,1009.8051,1.6384853,4.156333,6.346962,0.014889829,-0.010690134,-0.06994402,45.0,-46.143753,29.1,46.950733,0.3361091,49.741684,0.20279033,0.18290058,0.7019711,0.65776896,0.040579233,0.2700553,0.9599499,0.0626072,-1.0,0
1763545032954,1009.8051,0.8673982,3.8500516,6.4815583,-0.077198036,0.049327333,-0.33169958,46.78125,-46.706253,29.8875,46.950733,0.3361091,49.741684,0.20016113,0.18334256,0.7015296,0.6589213,0.038398925,0.2687089,0.96030885,0.064248756,-1.0,0
1763545032979,1009.78143,-0.05802595,3.7591243,5.97428,0.04848739,-0.21044292,-0.35628688,47.175003,-46.800003,30.768751,46.950733,0.3361091,49.741684,0.1989082,0.1835901,0.69969404,0.6611796,0.037368357,0.26809216,0.96029896,0.067499,-1.0,0
1763545033004,1009.74774,-0.32961133,3.769892,5.682954,0.0816268,-0.20189081,-0.23625195,46.40625,-47.006252,31.331251,46.950733,0.3361091,49.741684,0.20141849,0.18306707,0.69484156,0.66566676,0.0396008,0.26928556,0.9594037,0.07390244,-1.0,0
1763545033029,1009.74774,0.2847459,3.9349968,5.3796635,0.055970486,-0.0035124724,-0.11942407,45.768753,-47.943752,31.143751,46.950733,0.3361091,49.741684,0.20159335,0.18377729,0.69393426,0.66636425,0.03925878,0.26994947,0.95915204,0.074922234,-1.0,0
1763545033054,1009.7265,0.3481557,4.6618166,6.15434,-0.036880963,0.05253437,-0.20112723,47.287502,-45.54375,31.143751,46.950733,0.3361091,49.741684,0.20066263,0.18480407,0.693225,0.66709894,0.03793478,0.27014622,0.95905674,0.076106355,-1.0,0
1763545033079,1009.7265,-0.25902304,4.733003,6.884151,-0.013973532,-0.041996952,-0.18249585,46.162502,-46.143753,29.60625,46.950733,0.3361091,49.741684,0.19983572,0.18550639,0.69079846,0.6696645,0.036887236,0.2701597,0.9587968,0.079760954,-1.0,0
1763545033104,1009.7277,-0.35353956,4.71087,7.34118,0.08009964,-0.02611447,-0.037110034,46.03125,-46.050003,29.75625,46.950733,0.3361091,49.741684,0.20037943,0.18609636,0.69032335,0.6698283,0.03687146,0.27096912,0.9585516,0.07996925,-1.0,0
1763545033129,1009.7248,1.0797613,5.750551,8.222935,0.22334744,-0.12324197,0.12950334,46.85625,-46.8375,31.893751,46.950733,0.3361091,49.741684,0.20169769,0.18688366,0.6905915,0.6689364,0.037365593,0.2724175,0.95820063,0.07901946,-1.0,0
1763545033156,1009.7248,1.1892328,5.939584,8.924032,0.36858055,-0.22754712,0.08857539,45.768753,-46.4625,32.1375,46.950733,0.3361091,49.741684,0.20861045,0.18806484,0.6902522,0.6668322,0.042103224,0.27769417,0.95656335,0.078101315,-1.0,0
1763545033181,1009.7353,1.0492527,6.018547,8.441878,0.4710531,-0.23808455,0.072540194,47.1375,-47.0625,30.7875,46.950733,0.3361091,49.741684,0.21349922,0.18945388,0.689394,0.66577864,0.045068502,0.28185728,0.9552137,0.078051195,-1.0,0
1763545033206,1009.7587,1.7940187,6.042475,10.310075,-0.05383246,0.12125666,0.0013744457,48.393753,-46.55625,31.556252,46.950733,0.3361091,49.741684,0.21555004,0.1906795,0.6893944,0.6647668,0.045960214,0.2840918,0.9545503,0.077544466,-1.0,0
1763545033232,1009.7587,1.4853446,5.9820566,11.727822,-0.055054188,0.29581127,-0.17302746,48.487503,-47.550003,31.7625,46.950733,0.3361091,49.741684,0.21199605,0.19236402,0.68952847,0.66528505,0.042375267,0.2831088,0.9549183,0.07864292,-1.0,0
1763545033257,1009.79974,-0.53359944,6.339185,11.083554,0.061162837,0.44959646,-0.22403465,48.43125,-46.537502,28.931252,46.950733,0.3361091,49.741684,0.2087967,0.19587207,0.68895495,0.66586727,0.037670396,0.28380078,0.9548449,0.07943132,-1.0,0
1763545033282,1009.79974,-1.0929217,6.3427744,10.148559,-0.16989677,0.009010255,-0.007941242,47.30625,-46.162502,31.031252,46.950733,0.3361091,49.741684,0.2066269,0.19808714,0.688877,0.66596943,0.034434695,0.28416094,0.95489216,0.07904287,-1.0,0
1763545033307,1009.831,-0.37447673,5.230112,11.114661,-0.4058433,-0.021685699,-0.028252495,49.312504,-45.600002,31.706251,46.950733,0.3361091,49.741684,0.20518641,0.19730511,0.68909013,0.6664263,0.033654187,0.28266266,0.95539147,0.07871691,-1.0,0
1763545033332,1009.85516,-0.8991031,4.168297,12.073585,-0.4163807,0.19715661,-0.055588696,47.5125,-47.381252,30.300001,46.950733,0.3361091,49.741684,0.19777358,0.19286095,0.6904986,0.6685073,0.030523665,0.27455062,0.95786136,0.07868867,-1.0,0
1763545033357,1009.85516,-1.1754742,3.9158542,11.881561,-0.17142393,0.1385136,0.0650571,48.225002,-45.206253,31.650002,46.950733,0.3361091,49.741684,0.19511522,0.19218329,0.69157434,0.66837156,0.028622106,0.2723695,0.95868546,0.07692765,-1.0,0
1763545033382,1009.8588,0.41455653,4.415356,8.584849,0.11400264,-0.24953826,0.07956514,47.100002,-44.943752,31.593752,46.950733,0.3361091,49.741684,0.19641845,0.19118197,0.69207996,0.66775346,0.030052643,0.2724474,0.9587422,0.075382955,-1.0,0
1763545033408,1009.8293,0.3367898,4.5212383,7.3956165,-0.08727731,-0.14660755,-0.06658426,47.625,-46.7625,31.331251,46.950733,0.3361091,49.741684,0.19900538,0.1884703,0.6914361,0.6684249,0.033641316,0.27201557,0.9587092,0.075844854,-1.0,0
1763545033433,1009.8293,0.08853444,4.168297,7.9040914,-0.3513236,0.056199558,-0.09636392,48.487503,-45.525,29.00625,46.950733,0.3361091,49.741684,0.19615409,0.1866575,0.6915602,0.669647,0.03250995,0.26881322,0.95960647,0.076406345,-1.0,0
1763545033458,1009.81976,-0.26859435,3.5928233,8.322237,0.009544762,0.25579962,0.033902995,49.4625,-43.575,29.718752,46.950733,0.3361091,49.741684,0.19171298,0.18652214,0.69250077,0.66999876,0.02908039,0.26589227,0.9605816,0.075753614,-1.0,0
1763545033484,1009.81976,-0.22432712,3.5030923,6.9906316,0.32582,-0.06658426,0.11041381,48.187504,-44.8125,29.306252,46.950733,0.3361091,49.741684,0.18984467,0.18799834,0.693218,0.66937613,0.026568545,0.26585427,0.96077514,0.07434242,-1.0,0
1763545033509,1009.7946,-0.06281159,3.5760734,5.577071,0.45761406,-0.3019199,0.15607595,48.206253,-44.5875,30.993752,46.950733,0.3361091,49.741684,0.19752051,0.19025107,0.6928397,0.66690576,0.030851388,0.27250323,0.9589625,0.07197999,-1.0,0
1763545033535,1009.759,0.01794617,3.9343987,4.8490553,0.09308052,0.06887501,0.17577635,47.53125,-45.037502,31.25625,46.950733,0.3361091,49.741684,0.2011505,0.19091743,0.6930087,0.66545314,0.033189572,0.27533516,0.958175,0.07063743,-1.0,0
1763545033560,1009.759,-0.27098715,3.9625144,5.3629136,0.041615162,0.10873393,0.17272201,48.956253,-45.15,32.643753,46.950733,0.3361091,49.741684,0.20174429,0.19179408,0.6940593,0.66392463,0.03306244,0.27639213,0.9580158,0.068701856,-1.0,0
1763545033585,1009.727,-0.6855437,4.74736,6.1232333,0.11614066,-0.012522728,0.16264275,48.562504,-44.193752,32.325,46.950733,0.3361091,49.741684,0.20275807,0.19316168,0.6960065,0.66117525,0.032865245,0.27810457,0.9577868,0.06497807,-1.0,0
1763545033610,1009.7143,-1.524228,5.5908303,6.2757754,0.20059273,-0.03894263,0.19196425,48.6375,-44.662502,31.10625,46.950733,0.3361091,49.741684,0.2045877,0.19428568,0.696669,0.6595827,0.03337819,0.28015882,0.95732087,0.06271874,-1.0,0
1763545033635,1009.7143,-0.14476576,6.4683976,7.181459,0.15584688,-0.31826055,0.3346012,47.456253,-44.662502,31.087502,46.950733,0.3361091,49.741684,0.20681374,0.1950623,0.6979531,0.65729773,0.034341276,0.28220895,0.95690376,0.059278764,-1.0,0
1763545033660,1009.7216,1.0893325,6.7585278,8.056036,0.066049755,-0.6101012,0.22785257,47.0625,-45.7125,33.1875,46.950733,0.3361091,49.741684,0.21580835,0.19027764,0.6989907,0.65470076,0.044139747,0.28430706,0.9560766,0.056023374,-1.0,0
1763545033685,1009.7504,2.3246272,6.983453,9.634102,-0.16974404,-0.5734493,0.041233372,47.2125,-45.075,32.362503,46.950733,0.3361091,49.741684,0.21904273,0.18540704,0.6983504,0.6557067,0.049821924,0.28261855,0.9562117,0.057478096,-1.0,0
1763545033711,1009.7504,0.63948184,6.5838513,11.729018,-0.25648686,0.6004801,-0.3347539,48.35625,-44.456253,32.98125,46.950733,0.3361091,49.741684,0.21681306,0.18369427,0.69768894,0.6576311,0.04932431,0.2798546,0.9569081,0.059794743,-1.0,0
1763545033736,1009.78973,-0.47258246,6.6915283,11.899507,-0.06772963,0.4667007,-0.26053384,49.4625,-43.575,29.41875,46.950733,0.3361091,49.741684,0.21058214,0.18620002,0.69733196,0.65932757,0.042989027,0.27778992,0.9577051,0.061528396,-1.0,0
1763545033761,1009.78973,-0.038285162,6.3655066,11.392827,0.12713623,-0.120034926,-0.16249003,47.475002,-44.662502,30.768751,46.950733,0.3361091,49.741684,0.20733774,0.18964699,0.69522697,0.6615924,0.038027383,0.2784041,0.9575939,0.0637096,-1.0,0
1763545033787,1009.8178,1.8113668,4.9417768,11.574083,-0.08880447,-0.33994624,-0.12782346,48.581253,-43.537502,29.962502,46.950733,0.3361091,49.741684,0.21074995,0.18709828,0.69339,0.66316587,0.042236876,0.27863485,0.95719904,0.06594432,-1.0,0
1763545033812,1009.8459,1.4781662,4.4632125,11.426925,-0.09766201,0.031459536,-0.1574504,50.156254,-44.49375,29.550001,46.950733,0.3361091,49.741684,0.21213047,0.18417941,0.6921464,0.6648397,0.045184106,0.27727208,0.9573099,0.06809052,-1.0,0
1763545033837,1009.8459,0.6197411,4.512265,10.307682,-0.037644543,0.13209951,-0.14446951,48.6375,-44.662502,31.10625,46.950733,0.3361091,49.741684,0.20919165,0.18388808,0.69106805,0.66696995,0.043174554,0.27515802,0.9578281,0.070635475,-1.0,0
1763545033863,1009.84174,0.701097,4.4350967,8.348558,0.020387612,-0.37018406,-0.07208204,47.287502,-43.3125,31.63125,46.950733,0.3361091,49.741684,0.20930015,0.18368275,0.6903321,0.6677542,0.043312635,0.27508163,0.95778394,0.07144235,-1.0,0
1763545033887,1009.82513,1.4057833,4.1700916,7.9190464,-0.067271486,-0.48792824,-0.087506376,47.381252,-43.78125,29.343752,46.950733,0.3361091,49.741684,0.2116219,0.18142653,0.68911916,0.6688911,0.046504278,0.27483952,0.957589,0.07296565,-1.0,0
1763545033912,1009.82513,1.591227,3.9212382,7.640881,-0.1758527,-0.33750278,-0.15913028,47.850002,-44.25,30.393751,46.950733,0.3361091,49.741684,0.21514611,0.17446133,0.6863699,0.6724372,0.053760532,0.27172485,0.9577198,0.0777699,-1.0,0
1763545033938,1009.79535,1.3764713,3.9176488,7.227521,-0.27404922,-0.0820086,-0.21578798,48.018753,-43.4625,29.250002,46.950733,0.3361091,49.741684,0.21361527,0.17229283,0.68532413,0.6745477,0.05404296,0.26906443,0.9582447,0.08031687,-1.0,0
1763545033963,1009.79535,0.71306115,3.9553359,7.4458656,-0.12194388,0.13668099,-0.3035998,50.04375,-43.74375,27.975,46.950733,0.3361091,49.741684,0.21060805,0.17121145,0.68433696,0.6767672,0.052464977,0.2663016,0.958892,0.08280711,-1.0,0
1763545033988,1009.7753,0.50368917,4.077968,6.309873,0.08391755,0.016187917,-0.32788166,49.218754,-42.7125,28.0125,46.950733,0.3361091,49.741684,0.20827784,0.1729815,0.68063194,0.68076277,0.049585674,0.26616448,0.9585833,0.08840708,-1.0,0
1763545034013,1009.75336,0.6119644,4.208377,5.5950174,0.1060614,-0.052381653,-0.3594939,49.912502,-42.9,28.25625,46.950733,0.3361091,49.741684,0.2088347,0.17411438,0.677964,0.68296194,0.04929551,0.26739052,0.9579355,0.091824636,-1.0,0
1763545034039,1009.75336,-0.2105684,4.462614,6.4761744,-0.09521855,0.1339321,-0.36086836,49.631252,-42.91875,27.975,46.950733,0.3361091,49.741684,0.2081368,0.17530607,0.67532414,0.685481,0.048034865,0.26785403,0.9575022,0.09558441,-1.0,0
1763545034065,1009.7375,-0.18364914,4.575675,7.6331043,-0.015347977,0.13530655,-0.22632541,49.7625,-43.03125,27.35625,46.950733,0.3361091,49.741684,0.2060991,0.17644027,0.6733222,0.6877712,0.045745615,0.26742354,0.95742524,0.098635405,-1.0,0
1763545034090,1009.73676,0.14476576,4.7132626,7.8149586,0.22685991,0.026572619,-0.10873393,51.768753,-42.45,28.35,46.950733,0.3361091,49.741684,0.20573586,0.17969316,0.6710111,0.68929476,0.043269936,0.26971206,0.9566654,0.100868136,-1.0,0
1763545034115,1009.73676,0.79441714,5.5537415,6.7986073,0.45471248,-0.2864956,-0.026572619,51.375004,-42.24375,28.06875,46.950733,0.3361091,49.741684,0.20971026,0.18123156,0.669634,0.6890334,0.04533945,0.27343664,0.95544046,0.10153958,-1.0,0
1763545034140,1009.7382,0.9601201,5.9581285,6.884749,0.32582,-0.1472184,-0.039553493,51.2625,-43.275,30.45,46.950733,0.3361091,49.741684,0.21470757,0.18236557,0.6680577,0.6887252,0.048516516,0.27749357,0.95400923,0.10251735,-1.0,0
1763545034165,1009.73334,0.5593223,6.2841506,7.3118677,0.19081889,0.03527744,-0.041233372,50.550003,-43.443752,27.900002,46.950733,0.3361091,49.741684,0.21932395,0.18534383,0.6663093,0.688169,0.050311178,0.2827085,0.9522548,0.103708744,-1.0,0
1763545034190,1009.73334,1.5798612,6.5288167,9.038888,0.017944153,-0.16355905,-0.033597562,50.362503,-43.59375,27.618752,46.950733,0.3361091,49.741684,0.21993268,0.18632445,0.6662155,0.6878007,0.05019369,0.28384462,0.9519324,0.103622034,-1.0,0
1763545034215,1009.74554,2.0183458,6.294918,10.077373,-0.06879865,-0.2150244,-0.18127412,50.86875,-43.18125,28.931252,46.950733,0.3361091,49.741684,0.22128841,0.18542847,0.66560966,0.6881944,0.05186068,0.28401187,0.95169884,0.10448467,-1.0,0
1763545034240,1009.74554,1.3716856,6.1441703,10.626525,-0.18669555,0.1197295,-0.30863944,50.437504,-43.95,27.956251,46.950733,0.3361091,49.741684,0.21972749,0.18362597,0.66275173,0.69192594,0.052027285,0.28158808,0.9517985,0.10991333,-1.0,0
1763545034265,1009.7712,-0.13878371,6.092725,10.767104,-0.27511823,0.44394597,-0.27748534,49.74375,-43.03125,28.425001,46.950733,0.3361091,49.741684,0.21446057,0.18525745,0.66236013,0.69351673,0.04691335,0.27948666,0.95251894,0.11132866,-1.0,0
1763545034291,1009.7951,-0.20578274,5.8151574,11.599208,-0.32734716,-0.064140804,-0.080634154,51.787502,-43.18125,26.362501,46.950733,0.3361091,49.741684,0.20949036,0.1859433,0.66259354,0.69462836,0.042568594,0.27685565,0.9534405,0.1117591,-1.0,0
1763545034316,1009.7951,0.6364908,4.970491,12.032309,-0.24579671,-0.22464553,-0.09376775,51.768753,-42.45,28.031252,46.950733,0.3361091,49.741684,0.20661035,0.18041037,0.66192836,0.6975781,0.043703932,0.2707872,0.95488685,0.11382147,-1.0,0
1763545034341,1009.8234,0.32841492,4.278965,11.58186,-0.18089233,-0.011606431,-0.12889247,51.862503,-42.16875,25.5375,46.950733,0.3361091,49.741684,0.20489368,0.17898357,0.66146475,0.6988905,0.043261725,0.26859814,0.9553827,0.11501008,-1.0,0
1763545034367,1009.83466,0.5706882,4.148556,10.098908,-0.13996439,-0.028099779,-0.063377224,50.850002,-41.287502,26.831251,46.950733,0.3361091,49.741684,0.20287023,0.17825651,0.6615141,0.6996194,0.0420886,0.26675883,0.9559216,0.11524863,-1.0,0
1763545034392,1009.83466,0.73519474,4.2275195,9.16152,-0.18608469,-0.028405212,-0.13286309,50.531254,-42.9375,25.406252,46.950733,0.3361091,49.741684,0.20023553,0.17550626,0.6608005,0.7017449,0.041785266,0.26296523,0.9567469,0.117212325,-1.0,0
1763545034417,1009.81757,0.4426722,4.1868415,8.400003,-0.30398157,0.05054906,-0.19349141,51.73125,-42.693752,27.281252,46.950733,0.3361091,49.741684,0.197459,0.17407162,0.66015,0.70349914,0.040592957,0.26008305,0.9573562,0.119072,-1.0,0
1763545034442,1009.81757,0.5192425,3.626921,8.166105,-0.30428702,0.047952887,-0.1913534,49.8375,-42.018753,26.04375,46.950733,0.3361091,49.741684,0.1938889,0.17252742,0.65964746,0.70534146,0.038843326,0.25661218,0.9581431,0.12084332,-1.0,0
1763545034467,1009.80365,0.7615158,3.4707892,7.541579,-0.13523018,-0.037568185,-0.19303326,52.93125,-42.05625,24.337502,46.950733,0.3361091,49.741684,0.19110304,0.1710776,0.658983,0.7070739,0.037634585,0.2537155,0.95873594,0.122627385,-1.0,0
1763545034492,1009.78436,1.1084751,3.423531,6.4360948,-0.032299474,-0.119271345,-0.21823144,50.2125,-42.45,24.018751,46.950733,0.3361091,49.741684,0.1902755,0.16922374,0.65626866,0.71026057,0.038254652,0.25174993,0.95864886,0.12708609,-1.0,0
1763545034517,1009.78436,1.5559329,3.167499,6.995417,-0.21510077,-0.031459536,-0.37094763,51.768753,-40.66875,23.306252,46.950733,0.3361091,49.741684,0.19037452,0.16748556,0.6541967,0.71255374,0.03954279,0.25046006,0.95846736,0.13056204,-1.0,0
1763545034543,1009.76874,1.0199406,3.1453655,7.164111,-0.17264566,0.3478875,-0.37033677,51.075,-41.756252,24.656252,46.950733,0.3361091,49.741684,0.1887006,0.16625229,0.6520106,0.71528625,0.03916473,0.24842273,0.9584639,0.13453351,-1.0,0
1763545034567,1009.7524,0.8279166,3.6436708,7.292725,-0.0796415,0.40026915,-0.33001968,52.518753,-41.34375,22.63125,46.950733,0.3361091,49.741684,0.18124796,0.17049004,0.6490477,0.7189016,0.03083709,0.24691448,0.95842564,0.13965182,-1.0,0
1763545034592,1009.7524,1.5672989,4.0624146,7.8149586,0.083612114,0.11988221,-0.36438084,52.612503,-41.456253,24.337502,46.950733,0.3361091,49.741684,0.18064149,0.17221093,0.64665216,0.7208003,0.029341532,0.24784476,0.957752,0.14290965,-1.0,0
1763545034617,1009.7443,0.9954142,4.851448,6.7148585,0.3927097,-0.159283,-0.5734493,53.662502,-41.362503,24.225,46.950733,0.3361091,49.741684,0.18271743,0.17422506,0.6425929,0.7234185,0.029801236,0.25070286,0.9562092,0.14806731,-1.0,0
1763545034642,1009.7443,1.4871392,5.1924253,6.9732833,0.2409098,-0.29000807,-0.6183479,53.343754,-42.15,25.06875,46.950733,0.3361091,49.741684,0.18577947,0.17638522,0.63767743,0.7264583,0.030906567,0.25430405,0.9542842,0.1539998,-1.0,0
1763545034668,1009.74286,1.8346968,5.008776,8.225926,0.050319985,-0.3414734,-0.7460186,53.325,-41.4,25.95,46.950733,0.3361091,49.741684,0.19020766,0.17587957,0.62650126,0.7351079,0.034960005,0.2566912,0.9509676,0.16896169,-1.0,0
1763545034693,1009.7541,0.9176475,4.7102714,9.966106,-0.06223185,-0.13897173,-0.8614721,53.325,-41.4,25.95,46.950733,0.3361091,49.741684,0.19001861,0.17496333,0.6202751,0.74063456,0.035542116,0.25584367,0.9495759,0.1777257,-1.0,0
1763545034719,1009.7541,0.5982057,5.4502516,10.173085,-0.08498656,-0.23182319,-0.82375115,52.85625,-42.318752,25.44375,46.950733,0.3361091,49.741684,0.18901987,0.17472872,0.6140454,0.74611634,0.03499526,0.2550176,0.94819415,0.18619682,-1.0,0
1763545034744,1009.769,0.63529444,5.953941,10.990832,-0.09613484,-0.47861254,-0.82344574,54.656254,-42.018753,26.475,46.950733,0.3361091,49.741684,0.1892842,0.17099223,0.60121655,0.7572792,0.037698638,0.25228092,0.9452756,0.20343846,-1.0,0
1763545034769,1009.7963,0.68494546,5.9270215,11.084751,-0.054443322,-0.708145,-0.8151991,54.562504,-41.8875,25.237501,46.950733,0.3361091,49.741684,0.19172747,0.16675612,0.5940675,0.7632279,0.04230135,0.25055465,0.9435065,0.21266997,-1.0,0
1763545034794,1009.7963,2.3838496,5.21755,10.982458,-0.54038626,-0.6511819,-0.9007201,56.006252,-40.725002,22.5375,46.950733,0.3361091,49.741684,0.19371538,0.16079752,0.586986,0.76945823,0.047711294,0.24719453,0.94190687,0.22232836,-1.0,0
1763545034821,1009.8129,2.4909284,4.619942,12.358331,-0.73173964,-0.42928523,-1.0238093,59.325,-41.643753,23.94375,46.950733,0.3361091,49.741684,0.18785042,0.1479675,0.572694,0.784117,0.0515935,0.23349574,0.9398736,0.2438349,-1.0,0
1763545034847,1009.8129,2.1050856,3.9421754,13.284353,-0.5915462,-0.33887723,-1.0737475,55.818752,-40.143753,24.075,46.950733,0.3361091,49.741684,0.18366075,0.14325869,0.56490815,0.7915962,0.051410597,0.22718115,0.93850374,0.25486547,-1.0,0
1763545034873,1009.832,1.7371893,2.9318058,10.092328,0.16653702,-0.581696,-1.0178534,58.406254,-40.48125,22.743752,46.950733,0.3361091,49.741684,0.18273532,0.14019595,0.55646133,0.798313,0.052638628,0.2242237,0.93621504,0.2654323,-1.0,0
1763545034898,1009.8173,2.0703897,2.9479575,8.103892,0.14485131,-0.78511393,-1.0096067,58.65,-40.59375,23.962502,46.950733,0.3361091,49.741684,0.1855383,0.1376512,0.5474615,0.80430937,0.056400333,0.2240342,0.9330709,0.27569255,-1.0,0
1763545034923,1009.8173,2.3521447,2.9222345,7.6797643,-0.0994946,-0.6921098,-1.0786345,56.7,-40.6875,25.406252,46.950733,0.3361091,49.741684,0.1910118,0.12895025,0.5285858,0.8169966,0.066274114,0.22072928,0.92632735,0.29800004,-1.0,0
1763545034948,1009.79266,2.1140587,2.7852457,8.151749,-0.25358525,-0.37949973,-1.1711805,56.98125,-39.393753,24.525002,46.950733,0.3361091,49.741684,0.18959622,0.12619345,0.51903856,0.8238492,0.06701751,0.21766984,0.9231381,0.30974913,-1.0,0
1763545034973,1009.7785,1.1994023,3.0705895,8.17149,0.06207913,-0.4896081,-1.223104,59.943752,-40.706253,23.5125,46.950733,0.3361091,49.741684,0.189557,0.12325326,0.49826783,0.837022,0.068918966,0.21534482,0.9152725,0.33339632,-1.0,0
1763545034998,1009.7785,1.3112668,3.1435707,7.6133633,0.20990841,-0.68798643,-1.2368485,60.318752,-38.287502,21.956251,46.950733,0.3361091,49.741684,0.19309877,0.12056016,0.48678154,0.84333974,0.073404774,0.21548462,0.91030586,0.34571865,-1.0,0
1763545035023,1009.7592,0.65024954,3.6580276,6.4181485,0.13660464,-0.5422952,-1.2241731,61.631252,-40.29375,25.0125,46.950733,0.3361091,49.741684,0.19680081,0.118243985,0.47504306,0.8494833,0.07778879,0.21601182,0.9050092,0.3581147,-1.0,0
1763545035048,1009.7592,0.73340017,3.8847475,7.19103,0.05780308,-0.3988947,-1.1681262,61.631252,-40.29375,25.0125,46.950733,0.3361091,49.741684,0.19914754,0.116585046,0.46380073,0.8553578,0.08071201,0.2161883,0.8999132,0.37000602,-1.0,0
1763545035073,1009.74896,0.8207382,4.1228333,7.8077803,0.13660464,-0.4677697,-1.1478149,62.625004,-39.05625,23.456251,46.950733,0.3361091,49.741684,0.2022857,0.11437806,0.44271442,0.8660266,0.08465491,0.21641487,0.8900985,0.392075,-1.0,0
1763545035099,1009.75336,0.77347994,4.222734,7.8891363,0.25159994,-0.70509064,-1.1494948,63.187504,-38.49375,22.743752,46.950733,0.3361091,49.741684,0.20624883,0.11159567,0.43144098,0.87112945,0.08953654,0.21673806,0.88448197,0.40336025,-1.0,0
1763545035124,1009.7558,1.0301101,4.658826,9.186047,0.17386739,-0.64537865,-1.090241,63.975002,-38.925003,22.987501,46.950733,0.3361091,49.741684,0.21052691,0.107954025,0.4200358,0.87612456,0.0952074,0.21658991,0.878685,0.41465294,-1.0,0
1763545035150,1009.7558,1.0253245,4.820341,10.165907,0.19173518,-0.3507891,-1.036943,65.325005,-37.29375,23.38125,46.950733,0.3361091,49.741684,0.2156013,0.10476782,0.39962354,0.8847829,0.10123715,0.21728152,0.8681475,0.43457997,-1.0,0
1763545035175,1009.7641,0.715454,5.096712,10.449456,0.34154978,-0.22281294,-0.99036455,63.7125,-38.60625,25.781252,46.950733,0.3361091,49.741684,0.21836022,0.105937324,0.39038438,0.88808566,0.10265205,0.21992375,0.86303747,0.44301522,-1.0,0
1763545035200,1009.7641,1.1324034,5.389833,10.235299,0.5009855,-0.6853903,-0.9581414,65.53125,-37.537502,25.5375,46.950733,0.3361091,49.741684,0.22347412,0.105358474,0.38068038,0.89109,0.10699738,0.22269407,0.85737777,0.45151109,-1.0,0
1763545035226,1009.7734,0.86261255,5.4574304,10.668998,0.45471248,-0.5496256,-0.95676696,65.25,-37.55625,25.25625,46.950733,0.3361091,49.741684,0.23431656,0.101724304,0.360581,0.897067,0.11775297,0.22668552,0.84544647,0.46900767,-1.0,0
1763545035250,1009.79535,0.35712877,5.7984076,10.1599245,0.40462157,-0.16646065,-0.880867,66.4875,-38.0625,24.375002,46.950733,0.3361091,49.741684,0.23749997,0.10346386,0.35220155,0.899357,0.119125076,0.23004396,0.84039044,0.4760597,-1.0,0
1763545035275,1009.79535,0.33200413,6.2261243,9.707084,0.28367034,0.015729768,-0.8494075,66.46875,-37.3125,25.575,46.950733,0.3361091,49.741684,0.2391765,0.106387295,0.3445913,0.90151715,0.11862744,0.23334777,0.83575386,0.4826923,-1.0,0
1763545035300,1009.7951,0.071186475,5.3742795,9.870992,0.08452842,-0.68126696,-0.9941824,67.350006,-38.60625,27.2625,46.950733,0.3361091,49.741684,0.24073713,0.10749045,0.33581492,0.9042786,0.11919576,0.23516151,0.83057237,0.49055174,-1.0,0
1763545035325,1009.7951,0.82971126,4.3848476,10.617552,-0.12866339,-0.7930552,-1.0613775,68.418755,-37.74375,25.85625,46.950733,0.3361091,49.741684,0.24264225,0.10407169,0.3254416,0.90795463,0.122834474,0.23370469,0.824823,0.4999608,-1.0,0
1763545035350,1009.8083,0.017347964,3.5964124,11.000404,-0.13263401,-0.18616104,-1.043968,69.506256,-36.862503,24.0,46.950733,0.3361091,49.741684,0.24031296,0.096860446,0.30419815,0.91669583,0.12541942,0.22672062,0.8141801,0.51959455,-1.0,0
1763545035376,1009.8234,0.34337005,3.5886357,9.488738,0.04085158,-0.3901899,-0.9833396,68.5875,-36.862503,26.41875,46.950733,0.3361091,49.741684,0.23817725,0.09687977,0.2946806,0.9203528,0.12359139,0.22547564,0.8094709,0.52786624,-1.0,0
1763545035401,1009.8234,0.8249256,3.5844483,7.8963146,0.09231694,-0.6165153,-1.0209078,70.387505,-35.925003,26.475,46.950733,0.3361091,49.741684,0.23966506,0.09227592,0.2744515,0.92667264,0.1274681,0.22294858,0.7982173,0.5448807,-1.0,0
1763545035427,1009.80927,-0.34157544,3.1944182,6.6215386,-0.19967642,-0.32849252,-0.98654664,70.51875,-36.037502,26.156252,46.950733,0.3361091,49.741684,0.24009456,0.08884304,0.26355022,0.93005526,0.12995225,0.22056948,0.79194915,0.55432665,-1.0,0
1763545035452,1009.7802,-0.6693921,3.0879376,7.129415,-0.23357943,-0.17104214,-0.84039724,70.125,-35.831253,25.875002,46.950733,0.3361091,49.741684,0.2382187,0.08758318,0.2540935,0.9332832,0.12927616,0.21841851,0.7867062,0.56273824,-1.0,0
1763545035477,1009.7802,-0.49172506,3.1561332,7.14437,-0.055054188,-0.28130323,-0.7223476,72.39375,-33.35625,25.2,46.950733,0.3361091,49.741684,0.23500955,0.08638055,0.23915623,0.9381435,0.12744163,0.21552198,0.77848786,0.5755567,-1.0,0
1763545035502,1009.7563,-0.17407785,3.441477,6.236892,0.07536544,-0.5914698,-0.6716458,71.418755,-33.825,25.1625,46.950733,0.3361091,49.741684,0.23639436,0.08268374,0.23165523,0.940009,0.13082431,0.21355066,0.773932,0.5816446,-1.0,0
1763545035527,1009.7419,0.11485548,4.135994,7.3429747,-0.19799654,-0.3836231,-0.6716458,72.637505,-32.831253,26.062502,46.950733,0.3361091,49.741684,0.23709825,0.077398285,0.22395037,0.9421466,0.13473482,0.20988712,0.7692522,0.58825594,-1.0,0
1763545035552,1009.7419,0.06520442,4.130012,8.475378,-0.18654284,-0.0716239,-0.67683816,72.412506,-32.5875,24.225,46.950733,0.3361091,49.741684,0.23570867,0.07492815,0.21711679,0.944292,0.1334263,0.2060813,0.7616355,0.5996994,-1.0,0
1763545035577,1009.7382,-0.07537391,4.334,9.134601,0.12576179,-0.25793764,-0.71135205,74.043755,-31.687502,25.237501,46.950733,0.3361091,49.741684,0.23470612,0.07465537,0.20377131,0.947532,0.13460752,0.2062552,0.7570504,0.6051564,-1.0,0
1763545035603,1009.7382,-0.21355942,5.044668,7.216155,0.36460993,-0.64385146,-0.7189878,71.90625,-32.15625,25.181252,46.950733,0.3361091,49.741684,0.23925968,0.071538076,0.19532883,0.94841117,0.1400914,0.20672998,0.7511103,0.6111223,-1.0,0
1763545035627,1009.7316,-0.10707881,4.915456,7.932207,0.11293363,-0.44333512,-0.67653275,74.34375,-30.91875,25.312502,46.950733,0.3361091,49.741684,0.24347393,0.0680086,0.18698886,0.9492789,0.14553353,0.20669958,0.7453614,0.6168725,-1.0,0
1763545035652,1009.73676,0.37627137,4.8358946,9.485149,-0.010155627,-0.44211337,-0.6479748,72.825005,-31.312502,24.2625,46.950733,0.3361091,49.741684,0.24532172,0.063082576,0.17269054,0.9518486,0.15004621,0.20407912,0.73602057,0.62778306,-1.0,0
1763545035677,1009.73676,0.5246264,4.7742796,10.95494,-0.0080176005,-0.5997165,-0.6592758,74.137505,-31.406252,23.04375,46.950733,0.3361091,49.741684,0.24567845,0.05886008,0.16525055,0.9533466,0.1528592,0.20113795,0.73163295,0.6331594,-1.0,0
1763545035702,1009.76776,-0.32662028,5.7517476,10.654641,0.27527094,-0.49327332,-0.5705477,72.84375,-31.29375,23.175001,46.950733,0.3361091,49.741684,0.24703176,0.055246305,0.15808804,0.9544272,0.15600356,0.19934829,0.72738755,0.6378327,-1.0,0
1763545035727,1009.7778,-0.27756742,6.3996043,9.748958,0.25022548,-0.65683234,-0.49938196,73.65,-31.593752,23.71875,46.950733,0.3361091,49.741684,0.2528795,0.04794535,0.14517578,0.9553414,0.16492446,0.19760245,0.71873546,0.645889,-1.0,0
1763545035752,1009.7778,0.4881358,6.586244,9.461221,0.08620829,-0.80695236,-0.50885034,74.83125,-30.843752,23.868752,46.950733,0.3361091,49.741684,0.2547872,0.04185455,0.1384625,0.95611703,0.17022224,0.19414611,0.71418655,0.6505915,-1.0,0
1763545035778,1009.77997,0.52342993,5.6117673,10.296316,-0.33085963,-0.26740605,-0.6881392,73.012505,-31.781252,24.2625,46.950733,0.3361091,49.741684,0.25418183,0.036917657,0.13135955,0.9574828,0.1728444,0.18998982,0.7097252,0.6559869,-1.0,0
1763545035804,1009.77997,-0.22253251,5.1254263,10.44826,-0.2917643,-0.08170316,-0.63407767,73.950005,-29.437502,22.95,46.950733,0.3361091,49.741684,0.25131473,0.035484295,0.12449555,0.9592094,0.17148007,0.18711711,0.705736,0.6614518,-1.0,0
1763545035830,1009.7873,0.29132617,4.4913282,10.780863,-0.13232858,-0.34376416,-0.51816607,73.03125,-30.4125,23.1,46.950733,0.3361091,49.741684,0.24716552,0.033743735,0.11293586,0.96177757,0.16913274,0.18336724,0.6993579,0.66982764,-1.0,0
1763545035855,1009.78705,1.4656038,3.458227,9.5348,0.37743807,-0.7626647,-0.47784898,73.3125,-29.625002,23.643751,46.950733,0.3361091,49.741684,0.24874252,0.02809174,0.10663907,0.96227133,0.17375378,0.18019883,0.695539,0.6734713,-1.0,0
1763545035880,1009.78705,1.346561,3.6011982,7.693523,0.42050403,-0.6696605,-0.45433068,74.025,-30.768751,20.081251,46.950733,0.3361091,49.741684,0.2524509,0.022163022,0.10033257,0.96213865,0.18026993,0.17811628,0.6910526,0.6769222,-1.0,0
1763545035906,1009.7797,1.3591232,3.7489548,5.814559,0.22624904,-0.58139056,-0.45875946,74.55,-29.38125,23.19375,46.950733,0.3361091,49.741684,0.25915986,0.012764693,0.08876896,0.9616617,0.19118169,0.17543186,0.6828193,0.6829576,-1.0,0
1763545035931,1009.7546,1.1706885,3.9212382,7.187441,-0.5298488,-0.22266021,-0.58123785,73.14375,-28.3875,22.2,46.950733,0.3361091,49.741684,0.25759834,0.009582671,0.082992956,0.96263355,0.19196934,0.17203636,0.6791763,0.6872197,-1.0,0
1763545035957,1009.7546,0.5371887,3.8350966,8.224132,-0.41851872,-0.12339468,-0.59910566,75.46875,-27.675001,23.625,46.950733,0.3361091,49.741684,0.2489651,0.008072522,0.07131623,0.96584946,0.18613556,0.16553652,0.6729268,0.6965061,-1.0,0
1763545035982,1009.7475,0.036490545,4.0307097,7.873583,-0.1721875,-0.18432845,-0.5270236,74.025,-27.806252,21.31875,46.950733,0.3361091,49.741684,0.24732229,0.0074786344,0.06597144,0.96665585,0.18514958,0.1641459,0.66977876,0.70012295,-1.0,0
1763545036007,1009.7404,0.7501499,4.5888357,7.2526455,-0.100105464,-0.04657844,-0.39400777,74.68125,-27.35625,21.993752,46.950733,0.3361091,49.741684,0.24678871,0.006653621,0.061573002,0.9670883,0.18520035,0.16324757,0.66697013,0.70299494,-1.0,0
1763545036032,1009.7404,0.6664011,4.5559344,8.132606,-0.04176788,-0.08949169,-0.45463613,75.8625,-26.625002,21.50625,46.950733,0.3361091,49.741684,0.2460107,0.007008824,0.05780276,0.96751666,0.18432909,0.16307412,0.6645507,0.70555085,-1.0,0
1763545036058,1009.737,0.048454657,4.5062833,8.367701,0.16516256,-0.1838703,-0.44577858,75.525,-26.8875,20.79375,46.950733,0.3361091,49.741684,0.2473268,0.006420354,0.048769433,0.96768266,0.18556173,0.16364174,0.6583966,0.71084607,-1.0,0
1763545036083,1009.737,0.07537391,4.831707,8.175676,0.30169085,-0.18906265,-0.34300056,74.83125,-25.968752,21.112501,46.950733,0.3361091,49.741684,0.2502309,0.005646146,0.04508442,0.96711946,0.18821056,0.16499749,0.655534,0.71248,-1.0,0
1763545036108,1009.7353,0.2835495,5.150551,8.279764,0.39774933,-0.13286309,-0.26664248,74.981255,-27.337502,21.6375,46.950733,0.3361091,49.741684,0.25406826,0.0052071507,0.042252194,0.9662489,0.19135751,0.16721272,0.6531314,0.7133313,-1.0,0
1763545036133,1009.72894,0.32961133,5.602196,7.9926257,0.6749292,-0.089797124,-0.23930627,73.950005,-25.95,21.675001,46.950733,0.3361091,49.741684,0.26563707,0.0050803823,0.037411764,0.96333355,0.20017341,0.17469826,0.64808553,0.71372,-1.0,0
1763545036158,1009.72894,-0.0741775,6.0664034,7.179664,0.63552845,-0.16676609,-0.22388195,73.6125,-27.487501,23.19375,46.950733,0.3361091,49.741684,0.26563707,0.0050803823,0.037411764,0.96333355,0.20017341,0.17469826,0.64808553,0.71372,-1.0,0
1763545036183,1009.73724,0.85184485,6.163313,8.708678,0.12576179,-0.15714496,-0.28817546,75.95625,-26.118752,22.556252,46.950733,0.3361091,49.741684,0.2758354,0.0029852104,0.032286048,0.9606579,0.20928632,0.17970338,0.6426175,0.71480674,-1.0,0
1763545036208,1009.7502,0.5982057,5.948557,9.390035,0.03932442,0.022601997,-0.38240135,74.9625,-27.975,24.468752,46.950733,0.3361091,49.741684,0.2773018,0.0022038175,0.029217064,0.96033597,0.21087754,0.18008836,0.64019674,0.7164126,-1.0,0
1763545036233,1009.7502,-0.44626144,6.1070814,9.0347,-0.067118764,0.082466744,-0.38408124,74.043755,-26.812502,22.48125,46.950733,0.3361091,49.741684,0.27707592,0.0050325454,0.022432812,0.9605729,0.20869811,0.18232244,0.63589334,0.72030777,-1.0,0
1763545036258,1009.76166,-0.35653058,6.3589263,10.096515,-0.45944667,0.0044287695,-0.26374087,75.131256,-27.206251,22.85625,46.950733,0.3361091,49.741684,0.27460095,0.006470333,0.01992914,0.96132994,0.20582654,0.1818873,0.6346738,0.72231686,-1.0,0
1763545036283,1009.7834,-0.56829536,5.95095,11.100305,-0.55077094,0.03649917,-0.29168794,77.850006,-24.675001,22.275002,46.950733,0.3361091,49.741684,0.27042943,0.0072287363,0.017497433,0.9625536,0.20208313,0.17985204,0.6338632,0.7245917,-1.0,0
1763545036308,1009.7834,-0.73100734,5.3294144,12.077772,-0.52435106,0.15485422,-0.2686278,76.162506,-24.243752,23.6625,46.950733,0.3361091,49.741684,0.26008698,0.01048631,0.012810797,0.9654433,0.19184656,0.17592633,0.6330965,0.72899497,-1.0,0
1763545036333,1009.8134,-1.1970096,4.536792,12.498311,-0.27053675,0.21762058,-0.1763872,76.8,-23.41875,22.0125,46.950733,0.3361091,49.741684,0.25704533,0.013092952,0.011698989,0.9662398,0.18764265,0.1761646,0.6335838,0.729608,-1.0,0
1763545036359,1009.8134,-1.0103694,4.23051,11.334801,0.07704532,-0.011606431,-0.022601997,76.631256,-25.66875,21.69375,46.950733,0.3361091,49.741684,0.25720984,0.013273662,0.011396482,0.9661972,0.18744002,0.17663331,0.63419855,0.7290124,-1.0,0
1763545036383,1009.82025,0.0017946169,3.912265,8.679964,0.108657576,-0.22556181,0.062002774,77.606255,-24.45,21.975,46.950733,0.3361091,49.741684,0.25883588,0.01061136,0.011080219,0.9657995,0.19022481,0.17584975,0.6344382,0.7282716,-1.0,0
1763545036408,1009.82025,-0.37686956,4.0971107,8.033304,-0.021456625,-0.01725693,0.06398808,77.475006,-23.831251,20.41875,46.950733,0.3361091,49.741684,0.25961614,0.008381384,0.011077985,0.96561193,0.19211993,0.17481628,0.6349168,0.7276056,-1.0,0
1763545036433,1009.8056,-0.21535404,4.484748,7.9363947,-0.092164226,0.10415245,0.20601414,76.106255,-24.712502,20.90625,46.950733,0.3361091,49.741684,0.25796556,0.008580924,0.013149932,0.9660265,0.19050722,0.17414609,0.63771045,0.7257448,-1.0,0
1763545036458,1009.7944,-0.22313072,4.4608197,7.484151,0.07704532,0.029168794,0.21624613,75.918755,-23.38125,22.556252,46.950733,0.3361091,49.741684,0.25709316,0.009112519,0.015322922,0.96622217,0.18949862,0.17398337,0.6394896,0.7244813,-1.0,0
1763545036484,1009.7746,0.19202402,4.3722854,6.739385,0.23419029,-0.22266021,0.23243405,76.0875,-23.98125,22.10625,46.950733,0.3361091,49.741684,0.26012537,0.0062908796,0.018992769,0.96536756,0.19348529,0.17397769,0.6423526,0.7208872,-1.0,0
1763545036510,1009.7746,1.0241281,4.106084,6.1393847,0.07536544,-0.038789913,0.059712034,76.481255,-25.575,23.400002,46.950733,0.3361091,49.741684,0.2623541,0.0027427012,0.019815587,0.9647643,0.19743033,0.17279601,0.64281726,0.7196866,-1.0,0
1763545036535,1009.75214,0.3505485,4.004987,6.5090756,0.026801692,0.1395826,-0.03375028,75.9375,-24.6375,23.25,46.950733,0.3361091,49.741684,0.26320907,0.0019927481,0.0203267,0.9645226,0.19851246,0.17284618,0.6432773,0.7189655,-1.0,0
1763545036560,1009.75214,-0.008973085,3.984648,7.152147,0.10025818,0.003970621,-0.067958705,76.51875,-24.806252,22.10625,46.950733,0.3361091,49.741684,0.2644217,0.003426413,0.019781781,0.9641982,0.19832453,0.17492275,0.6433729,0.7184293,-1.0,0
1763545036585,1009.7453,-0.43788654,4.186243,7.0576305,0.26381722,-0.04291325,-0.06918044,77.11875,-24.6375,22.5,46.950733,0.3361091,49.741684,0.2668167,0.0033037388,0.019007966,0.9635542,0.20011584,0.17650981,0.6427944,0.7180622,-1.0,0
1763545036610,1009.736,-0.6257231,5.2606206,6.602994,0.26320636,-0.074830934,-0.009468404,76.51875,-24.806252,21.65625,46.950733,0.3361091,49.741684,0.2698753,0.0031061827,0.0185487,0.9627116,0.20250122,0.17842524,0.64214665,0.7174994,-1.0,0
1763545036636,1009.736,-0.5820541,5.5477595,7.5110703,0.17310381,-0.09682207,-0.030237807,76.818756,-24.7875,21.618752,46.950733,0.3361091,49.741684,0.27439916,0.0020535279,0.017634327,0.96145195,0.20656931,0.18063281,0.64081895,0.71697414,-1.0,0
1763545036660,1009.72675,-0.58923256,5.7397833,8.48794,0.10377065,-0.116675176,0.0058032153,75.95625,-26.118752,22.556252,46.950733,0.3361091,49.741684,0.275515,0.0011503361,0.017335687,0.96113974,0.20796728,0.1807193,0.64053565,0.7168014,-1.0,0
1763545036685,1009.73895,0.50428736,6.3194447,10.200005,0.09414954,-0.22632541,-0.022907428,74.64375,-26.868752,21.806252,46.950733,0.3361091,49.741684,0.27626306,-0.0002748997,0.017275404,0.9609267,0.2093898,0.1802144,0.64064705,0.7164147,-1.0,0
1763545036710,1009.73895,0.24107689,6.9074807,10.259227,0.058413945,-0.19058982,-0.14859286,73.631256,-25.987501,23.1,46.950733,0.3361091,49.741684,0.27715102,-0.0023225145,0.016464451,0.96068245,0.21131067,0.17934857,0.64022875,0.7164419,-1.0,0
1763545036735,1009.76385,-0.52283174,7.1228347,10.437492,-0.11186461,-0.050090913,-0.17883067,74.381256,-27.393751,22.48125,46.950733,0.3361091,49.741684,0.2768612,-0.0036737716,0.01277417,0.960818,0.21186143,0.17827047,0.637979,0.7185522,-1.0,0
1763545036760,1009.76385,-0.39481574,6.77767,11.5106735,-0.20670137,-0.0001527162,-0.08735366,76.18125,-24.862501,23.85,46.950733,0.3361091,49.741684,0.27497807,-0.0032794687,0.011912782,0.96137106,0.21011868,0.17740865,0.6379332,0.71931744,-1.0,0
1763545036785,1009.78485,0.9619147,5.866603,11.673984,-0.07154754,-0.21471897,-0.1583667,74.53125,-25.143751,22.800001,46.950733,0.3361091,49.741684,0.27370697,-0.0048161573,0.010905819,0.96173924,0.21005663,0.17554174,0.63784724,0.71986955,-1.0,0
1763545036810,1009.8022,0.19561325,5.1379886,11.137991,-0.08972076,0.052076224,-0.23228133,75.1875,-23.34375,22.78125,46.950733,0.3361091,49.741684,0.27171454,-0.0056059216,0.006906159,0.9623368,0.20878366,0.17398164,0.63639486,0.72190124,-1.0,0
1763545036835,1009.8022,-0.8333005,4.5559344,10.967503,-0.015806125,0.19089524,-0.12217296,75.9,-24.88125,22.800001,46.950733,0.3361091,49.741684,0.27115232,-0.0033747081,0.006241733,0.96251035,0.20671903,0.17550562,0.6367351,0.7218265,-1.0,0
1763545036860,1009.8105,1.0336994,4.0941195,8.345567,0.38110328,-0.25686863,0.2131918,75.65625,-24.018751,21.075,46.950733,0.3361091,49.741684,0.27266327,-0.0032509768,0.007241789,0.9620768,0.20759867,0.17680109,0.6379332,0.7201982,-1.0,0
1763545036885,1009.7851,2.0285153,4.1347976,6.858428,0.25083634,-0.37186393,0.1348484,75.28125,-24.431252,21.13125,46.950733,0.3361091,49.741684,0.27809957,-0.010365016,0.008932212,0.96045476,0.21609257,0.1753591,0.6392846,0.7168461,-1.0,0
1763545036910,1009.7851,1.9848464,4.141378,6.723233,-0.03367392,-0.20983206,-0.01725693,75.412506,-24.54375,21.28125,46.950733,0.3361091,49.741684,0.27779353,-0.012729877,0.008313023,0.9605205,0.21732858,0.17349234,0.6392392,0.7169672,-1.0,0
1763545036935,1009.7563,1.0139586,4.0444684,7.0492554,-0.12515092,0.14538582,-0.17226386,75.5625,-24.4125,22.5,46.950733,0.3361091,49.741684,0.2759689,-0.012007678,0.0075565763,0.96106184,0.2153923,0.17294264,0.63939196,0.71754783,-1.0,0
1763545036961,1009.7563,0.5180461,3.9720855,6.11426,0.03489565,0.041538805,-0.21090107,76.3125,-24.337502,22.10625,46.950733,0.3361091,49.741684,0.2747467,-0.010460201,0.0063895844,0.96143854,0.21336167,0.17341262,0.63914174,0.7182637,-1.0,0
1763545036987,1009.7426,0.23330021,4.0354953,5.066802,0.05856666,-0.12476913,-0.20723587,77.4375,-23.212502,20.681252,46.950733,0.3361091,49.741684,0.27573097,-0.01030813,0.0023361377,0.96117675,0.21386334,0.17434533,0.6364922,0.72023875,-1.0,0
1763545037013,1009.7177,0.66041905,4.2000017,6.4594245,-0.2135736,-0.06780599,-0.22464553,76.275,-23.831251,21.46875,46.950733,0.3361091,49.741684,0.27499455,-0.011819078,-3.9541268e-05,0.9613731,0.21428001,0.17275926,0.6349554,0.72185177,-1.0,0
1763545037037,1009.7177,-0.18604197,4.252644,7.327421,-0.11415535,0.056352276,-0.15500695,75.8625,-22.25625,21.4125,46.950733,0.3361091,49.741684,0.27315986,-0.012022015,-0.0022935055,0.9618908,0.21305884,0.17136736,0.6335107,0.7238117,-1.0,0
1763545037064,1009.707,-0.10767702,4.694718,7.259226,0.09430225,-0.005345067,0.018784093,76.33125,-23.587502,21.13125,46.950733,0.3361091,49.741684,0.2729418,-0.011079235,-0.0034525583,0.96196055,0.21210892,0.17213298,0.633375,0.72402775,-1.0,0
1763545037089,1009.707,0.70947194,5.563911,6.6239314,0.24640758,-0.21456626,0.059559315,75.15,-24.31875,21.300001,46.950733,0.3361091,49.741684,0.27514198,-0.012716824,-0.0030056231,0.9613148,0.21479622,0.17241639,0.6334769,0.72307825,-1.0,0
1763545037114,1009.707,0.5587241,5.81097,6.7465634,0.16287182,-0.18325943,0.05253437,74.53125,-23.775002,21.6375,46.950733,0.3361091,49.741684,0.27765736,-0.014994076,-0.0029679972,0.96055853,0.21817376,0.17239094,0.63306886,0.72243017,-1.0,0
1763545037139,1009.706,0.7004988,6.1214385,7.6049886,0.047571093,-0.033902995,0.07666353,75.3,-22.931252,21.056252,46.950733,0.3361091,49.741684,0.27946115,-0.016931178,-0.0029320368,0.9600032,0.22080323,0.17213698,0.63274807,0.72197276,-1.0,0
1763545037164,1009.7187,0.5413761,6.4851475,8.669196,0.04176788,0.10613775,0.09422589,74.3625,-23.175001,22.087502,46.950733,0.3361091,49.741684,0.28077605,-0.016889911,-0.0011054712,0.95962405,0.22174022,0.17306578,0.6339587,0.7203998,-1.0,0
1763545037189,1009.7187,1.5188441,6.8015985,9.18485,0.15844305,-0.30757043,0.007177661,75.450005,-22.81875,22.25625,46.950733,0.3361091,49.741684,0.28222904,-0.01767239,-0.000338312,0.95918417,0.22332498,0.17346893,0.6343361,0.71948045,-1.0,0
1763545037214,1009.73456,1.7395821,6.801,9.832706,0.024663666,-0.25137085,-0.14278965,73.293755,-23.2875,22.81875,46.950733,0.3361091,49.741684,0.28387204,-0.020719375,-0.0010452359,0.9586377,0.22654577,0.17230675,0.6335577,0.71943873,-1.0,0
1763545037240,1009.73456,0.76570326,6.8374906,10.070194,-0.16821688,0.2921461,-0.24785839,74.53125,-22.40625,21.2625,46.950733,0.3361091,49.741684,0.28281662,-0.01982113,-0.0044542276,0.9589588,0.22506258,0.17240927,0.6316227,0.7215779,-1.0,0
1763545037265,1009.75555,-0.7680961,6.782456,10.165309,-0.33467755,0.67867076,-0.23701553,75.637505,-22.650002,21.0,46.950733,0.3361091,49.741684,0.27987042,-0.012794832,-0.0048777014,0.95994014,0.21815991,0.17577659,0.63212967,0.72244096,-1.0,0
1763545037290,1009.7885,-0.51565325,6.129813,12.567104,-0.44967285,0.07055488,-0.027488915,75.0,-22.10625,22.743752,46.950733,0.3361091,49.741684,0.27593657,-0.007837046,-0.0050832937,0.9611305,0.21189111,0.17693093,0.63291866,0.72333366,-1.0,0
1763545037316,1009.7885,0.31944183,5.0943193,13.217953,-0.19616395,0.06276636,-0.055130545,76.068756,-21.993752,20.925001,46.950733,0.3361091,49.741684,0.26933017,-0.006002945,-0.0056165005,0.9630128,0.20549044,0.1742081,0.6347526,0.7242336,-1.0,0
1763545037341,1009.8139,-0.05742774,4.417749,11.384452,0.060857404,0.170584,-0.100181825,75.20625,-23.325,21.393751,46.950733,0.3361091,49.741684,0.26930082,-0.004173443,-0.0060963547,0.9630278,0.20404536,0.17580052,0.63526595,0.72380716,-1.0,0
1763545037366,1009.81464,0.16211374,4.150949,8.831908,-0.06146827,0.020158539,-0.20586143,76.03125,-22.987501,20.04375,46.950733,0.3361091,49.741684,0.26946235,-0.0026016608,-0.0069329557,0.9629825,0.20297289,0.17725329,0.6352193,0.72379535,-1.0,0
1763545037391,1009.81464,-0.50787663,3.9577286,8.346166,-0.13614649,0.10690133,-0.23304491,77.287506,-21.75,21.243752,46.950733,0.3361091,49.741684,0.26714376,-0.00030583073,-0.010681564,0.9635974,0.1994817,0.1776877,0.63378114,0.7259171,-1.0,0
1763545037416,1009.7939,-1.1060823,3.8578284,7.9298143,-0.19585852,0.12339468,-0.12400555,75.58125,-21.54375,20.94375,46.950733,0.3361091,49.741684,0.26515526,0.0013928293,-0.011565014,0.9641354,0.19676937,0.17773874,0.63387996,0.7265583,-1.0,0
1763545037441,1009.7939,-0.0951147,3.644269,7.618747,-0.025885396,-0.031306818,0.12858704,76.762505,-22.29375,20.400002,46.950733,0.3361091,49.741684,0.2633303,0.0018777491,-0.011148359,0.9646395,0.19498813,0.17699157,0.6349266,0.726307,-1.0,0
1763545037466,1009.7773,0.3469593,3.8171504,6.348757,0.09262237,-0.07910699,0.09605849,76.875,-21.65625,20.8125,46.950733,0.3361091,49.741684,0.2636352,0.00031380972,-0.00934467,0.96457714,0.19608395,0.17622343,0.63694614,0.72442806,-1.0,0
1763545037491,1009.7504,0.41874397,3.8446677,5.5986066,-0.021151192,-0.21151192,0.00641408,75.881256,-22.25625,20.325,46.950733,0.3361091,49.741684,0.26352027,-0.0017786442,-0.009799892,0.9646025,0.19736059,0.17462783,0.6367677,0.72462463,-1.0,0
1763545037516,1009.7504,-0.3469593,3.505485,7.4129643,-0.077198036,-0.03894263,-0.041233372,76.59375,-21.675001,20.081251,46.950733,0.3361091,49.741684,0.26191714,-0.0035649843,-0.010783333,0.9650235,0.19731303,0.17228137,0.63651425,0.7254215,-1.0,0
1763545037541,1009.7441,-0.7573284,3.8608193,6.9116683,0.123471044,-0.045051277,0.053450666,76.256256,-19.725,19.987501,46.950733,0.3361091,49.741684,0.26104107,-0.0038214934,-0.011267371,0.96525437,0.1967403,0.17161094,0.6366976,0.72557503,-1.0,0
1763545037566,1009.7358,-0.5802595,4.2454658,6.3326054,0.21342088,-0.13423753,0.1018617,73.950005,-21.581251,21.2625,46.950733,0.3361091,49.741684,0.26407403,-0.0055752224,-0.010335506,0.9644309,0.20006248,0.17245632,0.6372858,0.72394794,-1.0,0
1763545037591,1009.7358,-0.5814559,4.727021,6.265008,0.2534325,-0.16737695,0.092546016,76.14375,-20.98125,20.7,46.950733,0.3361091,49.741684,0.26655295,-0.007243,-0.009921463,0.963742,0.20300803,0.17288916,0.63718647,0.7231117,-1.0,0
1763545037616,1009.7226,-0.76271224,5.7403817,6.9673014,0.043905906,-0.17776164,0.053908817,75.975006,-19.743752,19.25625,46.950733,0.3361091,49.741684,0.26888445,-0.009094716,-0.009941616,0.96307814,0.20605291,0.17298484,0.6364221,0.7229006,-1.0,0
1763545037641,1009.7226,-0.3505485,5.7954164,8.582457,-0.030314164,-0.0971275,0.045967575,75.15,-20.831251,20.325,46.950733,0.3361091,49.741684,0.2695758,-0.01149469,-0.009827393,0.9628604,0.20822242,0.1716003,0.6361469,0.7228512,-1.0,0
1763545037666,1009.726,-0.068793654,5.6578293,10.239487,0.053985175,-0.22846343,0.0097738365,75.61875,-20.1375,18.075,46.950733,0.3361091,49.741684,0.27004844,-0.013547032,-0.01034868,0.96269584,0.20989117,0.1704564,0.6358799,0.7228742,-1.0,0
1763545037691,1009.74774,0.15672988,6.257231,10.642078,0.1721875,-0.13286309,-0.056963142,74.981255,-20.98125,20.19375,46.950733,0.3361091,49.741684,0.27146834,-0.016388297,-0.01138205,0.9622405,0.2127651,0.16939496,0.63515484,0.72292095,-1.0,0
1763545037716,1009.74774,-0.51505506,6.576673,10.894522,0.08956805,0.023212861,-0.055588696,76.200005,-20.71875,19.9125,46.950733,0.3361091,49.741684,0.2737591,-0.017007312,-0.012700767,0.961564,0.21475075,0.17063233,0.63427854,0.7228122,-1.0,0
1763545037741,1009.7753,-0.91106725,6.3140607,10.654043,0.02451095,0.07177661,0.044745844,74.11875,-21.675001,18.9375,46.950733,0.3361091,49.741684,0.2737591,-0.017007312,-0.012700767,0.961564,0.21475075,0.17063233,0.63427854,0.7228122,-1.0,0
1763545037766,1009.79315,0.9385847,5.8067822,11.287542,-0.5156462,-0.05574141,0.23304491,75.24375,-21.9375,18.993752,46.950733,0.3361091,49.741684,0.2718998,-0.015890881,-0.010230651,0.96213996,0.21252327,0.17034045,0.636918,0.7212166,-1.0,0
1763545037791,1009.79315,1.9884356,4.8903313,12.7352,-0.53473574,0.0377209,0.08032872,75.356255,-19.931252,18.862501,46.950733,0.3361091,49.741684,0.2670036,-0.01694047,-0.008294582,0.96351093,0.20953645,0.16635014,0.6395106,0.7207276,-1.0,0
1763545037816,1009.81976,0.91166544,4.313661,12.591631,-0.26412266,0.25961754,-0.053145237,74.287506,-21.525002,19.06875,46.950733,0.3361091,49.741684,0.25858217,-0.014800632,-0.007271285,0.9658485,0.20152047,0.16270617,0.6433064,0.72046727,-1.0,0
1763545037842,1009.81976,0.11246266,4.024728,11.140384,0.06314815,0.09498947,0.014813471,75.168755,-20.8125,18.9375,46.950733,0.3361091,49.741684,0.25860173,-0.013954759,-0.006879551,0.96585876,0.20079415,0.16355823,0.6443641,0.7195313,-1.0,0
1763545037867,1009.8349,1.4338989,3.8536408,8.486744,0.20242532,-0.38255405,0.10216714,76.2375,-19.95,18.150002,46.950733,0.3361091,49.741684,0.2605568,-0.016689809,-0.006556098,0.965292,0.20395003,0.16301158,0.6447971,0.71837896,-1.0,0
1763545037892,1009.82074,1.9214365,3.9714873,7.865208,0.048792824,-0.14691298,0.019853106,74.25,-20.2875,19.3125,46.950733,0.3361091,49.741684,0.26235804,-0.022468306,-0.0065840497,0.9646866,0.20896828,0.16021495,0.6452788,0.7171323,-1.0,0
1763545037918,1009.82074,1.3561323,4.2107697,7.3980093,-0.13629921,0.17715079,-0.11835505,75.075005,-20.456251,19.85625,46.950733,0.3361091,49.741684,0.26105827,-0.02085403,-0.007188367,0.96507096,0.20685683,0.16061307,0.6453742,0.7175694,-1.0,0
1763545037943,1009.7961,-0.2416751,4.2981076,7.3100734,-0.04741838,0.15775582,-0.14416409,76.481255,-18.806252,17.456251,46.950733,0.3361091,49.741684,0.25933266,-0.018170249,-0.008452044,0.9655801,0.20373516,0.16147934,0.6449525,0.71864647,-1.0,0
1763545037968,1009.77386,0.18604197,4.4775696,6.538388,0.09078978,-0.046731155,-0.033444848,76.425,-19.06875,18.09375,46.950733,0.3361091,49.741684,0.25890446,-0.016271908,-0.009423483,0.9657199,0.20209824,0.16264252,0.64450854,0.71924436,-1.0,0
1763545037994,1009.77386,1.0588241,4.6767716,5.953343,0.074143715,-0.03084867,-0.04291325,76.762505,-18.7875,18.0375,46.950733,0.3361091,49.741684,0.26072896,-0.01684866,-0.010301361,0.96521,0.2038331,0.1634489,0.64352125,0.719456,-1.0,0
1763545038018,1009.7402,0.6376872,4.657031,7.135397,0.034284785,0.098196514,-0.19532402,75.600006,-18.768751,18.0,46.950733,0.3361091,49.741684,0.26081187,-0.015585213,-0.011255441,0.9651983,0.20305355,0.16442315,0.64275825,0.7201362,-1.0,0
1763545038043,1009.7402,0.41635114,4.5278187,7.57448,0.20990841,-0.06658426,-0.18249585,76.03125,-19.48125,18.150002,46.950733,0.3361091,49.741684,0.26132533,-0.014346285,-0.012789071,0.9650594,0.20259067,0.16569172,0.6415595,0.7210442,-1.0,0
1763545038068,1009.72894,0.49232325,4.604987,6.9786673,0.37957612,-0.083993904,-0.13133593,76.8375,-19.275002,17.2875,46.950733,0.3361091,49.741684,0.2668947,-0.015175699,-0.015982643,0.9634736,0.20719083,0.16892317,0.6384345,0.7217605,-1.0,0
1763545038094,1009.7236,0.4223332,5.2283173,6.608378,0.2494619,0.06918044,-0.069485866,75.84375,-18.993752,17.681252,46.950733,0.3361091,49.741684,0.27025506,-0.0150120435,-0.016748954,0.962526,0.20955305,0.17132036,0.6372591,0.72155225,-1.0,0
1763545038119,1009.7236,0.32961133,5.4783673,7.274181,0.2438114,0.0021380268,-0.04886918,75.543755,-19.78125,17.90625,46.950733,0.3361091,49.741684,0.27283233,-0.014315736,-0.017159304,0.961802,0.21100503,0.17354915,0.636384,0.7213688,-1.0,0
1763545038144,1009.7277,0.07178468,5.788836,7.7383885,0.30673048,-0.13087778,0.0003054324,76.03125,-21.6,19.2,46.950733,0.3361091,49.741684,0.2783101,-0.015547998,-0.01786408,0.9601993,0.21588753,0.17632595,0.6347478,0.72069204,-1.0,0
1763545038169,1009.727,0.029910283,6.2063837,7.602596,0.2880991,-0.18997894,0.0810923,76.6125,-18.91875,16.81875,46.950733,0.3361091,49.741684,0.28115675,-0.017517433,-0.017597236,0.9593406,0.21933763,0.17676814,0.6342826,0.71995115,-1.0,0
1763545038195,1009.727,1.9710877,6.1010995,10.456037,-0.14103341,-0.07467822,-0.050243627,75.61875,-20.1375,17.456251,46.950733,0.3361091,49.741684,0.28182924,-0.019590205,-0.017151156,0.9591113,0.22129744,0.17561021,0.63419104,0.71971536,-1.0,0
1763545038220,1009.74066,0.84825563,6.085546,11.440085,-0.07903063,0.22525638,-0.20189081,75.600006,-19.518751,17.587502,46.950733,0.3361091,49.741684,0.28056076,-0.020460198,-0.017765626,0.95945376,0.21858391,0.17539202,0.6338248,0.72091943,-1.0,0
1763545038245,1009.74066,-0.7004988,6.390033,10.500902,0.03718639,0.43417215,-0.15790854,76.6125,-18.91875,17.2875,46.950733,0.3361091,49.741684,0.27993882,-0.013630332,-0.019257886,0.9597279,0.21566802,0.17899391,0.63391477,0.72083324,-1.0,0
1763545038271,1009.77484,-0.86081797,6.533602,10.508678,-0.20013458,0.058795735,-0.00641408,76.89375,-18.900002,18.337502,46.950733,0.3361091,49.741684,0.27972516,-0.010061173,-0.01885284,0.95984226,0.21309796,0.18148462,0.6342995,0.7206363,-1.0,0
1763545038296,1009.78314,-0.17108682,5.723632,11.94856,-0.23480114,0.028710645,-0.029168794,78.131256,-18.6375,16.800001,46.950733,0.3361091,49.741684,0.27796322,-0.009157195,-0.018845167,0.9603632,0.21118969,0.18095945,0.63465023,0.7210213,-1.0,0
1763545038322,1009.78314,-0.4235296,4.6785665,12.024532,-0.09124792,0.19486587,-0.06398808,77.3625,-20.325,16.81875,46.950733,0.3361091,49.741684,0.2743134,-0.0065804715,-0.01918604,0.9614264,0.20654884,0.18063419,0.63595194,0.72130024,-1.0,0
1763545038347,1009.81,-0.7495517,4.016951,9.48455,0.08743002,-0.054061532,0.013897174,78.675,-18.712502,18.45,46.950733,0.3361091,49.741684,0.2743832,-0.0049436255,-0.019014675,0.9614197,0.20533669,0.18206431,0.6366947,0.7206311,-1.0,0
1763545038372,1009.81537,-0.5174479,3.9631126,8.674581,0.005268709,-0.15699224,0.0377209,77.287506,-20.587502,17.306252,46.950733,0.3361091,49.741684,0.27474338,-0.0052931844,-0.01907364,0.9613138,0.20570734,0.18219884,0.63709813,0.72013474,-1.0,0
1763545038397,1009.81537,-0.37447673,4.063013,7.98784,-0.10758856,-0.1375973,0.047189303,77.2125,-19.48125,17.56875,46.950733,0.3361091,49.741684,0.27316797,-0.007947733,-0.019140719,0.9617431,0.20617561,0.1793754,0.63802564,0.71988845,-1.0,0
1763545038422,1009.80194,-0.40677986,4.0911283,7.9519477,-0.21815509,-0.03161225,0.09040799,78.95625,-19.66875,16.1625,46.950733,0.3361091,49.741684,0.27097952,-0.008324879,-0.018427351,0.9623727,0.2047696,0.17767559,0.6391922,0.7196764,-1.0,0
1763545038447,1009.7878,-0.28235307,3.9571304,7.2789664,0.0041996953,0.13820815,0.21700971,78.975006,-19.650002,15.843751,46.950733,0.3361091,49.741684,0.26919574,-0.0074517988,-0.016660897,0.96291256,0.20280597,0.17717674,0.64110255,0.71865547,-1.0,0
1763545038473,1009.7878,-0.10468599,3.9607196,6.006583,0.14989094,-0.027947064,0.24129158,78.65625,-19.706251,16.800001,46.950733,0.3361091,49.741684,0.26909697,-0.006636628,-0.014303093,0.962984,0.20212579,0.17777061,0.6431031,0.71691084,-1.0,0
1763545038499,1009.75946,0.4121637,3.9445682,6.1124654,-0.042989608,-0.17211115,0.11300998,79.068756,-20.643751,16.050001,46.950733,0.3361091,49.741684,0.2713995,-0.009676029,-0.010598087,0.9623598,0.20585902,0.1771254,0.64548373,0.7138623,-1.0,0
1763545038524,1009.75946,0.718445,3.9445682,6.1124654,-0.042989608,-0.17211115,0.11300998,77.90625,-19.143751,15.618751,46.950733,0.3361091,49.741684,0.27109805,-0.0117087485,-0.009970357,0.96242887,0.20702149,0.17542334,0.64597523,0.71350175,-1.0,0
1763545038549,1009.7353,-0.037686955,4.17727,6.4438715,0.07979421,0.12797616,0.05864302,78.8625,-20.0625,17.587502,46.950733,0.3361091,49.741684,0.27166462,-0.010435024,-0.0084104445,0.9622987,0.20652515,0.17679913,0.64722496,0.71217227,-1.0,0
1763545038575,1009.72626,-0.4019942,4.727619,6.026324,0.15752676,-0.024281874,0.041538805,77.850006,-19.40625,16.10625,46.950733,0.3361091,49.741684,0.27324903,-0.010698437,-0.008093309,0.9618498,0.20787765,0.17766926,0.64711094,0.71166563,-1.0,0
1763545038601,1009.72626,-0.043070808,5.554938,7.683952,-0.015500694,-0.18997894,-0.055283263,77.0625,-20.362501,16.85625,46.950733,0.3361091,49.741684,0.2744664,-0.0128397625,-0.008617464,0.96147233,0.21027337,0.17686653,0.64627635,0.7119201,-1.0,0
1763545038627,1009.71454,-0.77587277,5.599803,9.010174,-0.0112246405,0.08964441,-0.034208428,78.4875,-19.2,15.093751,46.950733,0.3361091,49.741684,0.2745347,-0.01335598,-0.009764395,0.96143484,0.21071564,0.17648397,0.6452401,0.7128236,-1.0,0
1763545038652,1009.73285,-1.1383854,5.7487564,9.132806,0.18898629,0.09498947,0.08689552,77.30625,-20.56875,16.21875,46.950733,0.3361091,49.741684,0.276255,-0.012404241,-0.008757286,0.9609644,0.21131529,0.17837195,0.64573306,0.71172893,-1.0,0
1763545038678,1009.73285,0.89730847,6.352346,8.705089,0.12515092,-0.48059785,0.116522454,77.568756,-20.175001,14.94375,46.950733,0.3361091,49.741684,0.27899626,-0.014929325,-0.007810352,0.96014434,0.21505132,0.17836681,0.64583594,0.7105168,-1.0,0
1763545038702,1009.74286,0.8327023,6.723233,9.349357,-0.07903063,-0.2452622,-0.040317077,76.631256,-20.38125,15.20625,46.950733,0.3361091,49.741684,0.2802912,-0.019711362,-0.008011667,0.9596792,0.21926811,0.17570768,0.6452896,0.710387,-1.0,0
1763545038727,1009.76605,-0.2434697,7.071389,9.957133,-0.28214318,0.11194097,-0.1178969,76.912506,-20.493752,15.0375,46.950733,0.3361091,49.741684,0.27730024,-0.020643162,-0.009885798,0.9605107,0.21773891,0.17294893,0.64433044,0.71240205,-1.0,0
1763545038752,1009.76605,0.068793654,6.2327046,11.586047,-0.12728895,-0.100487255,0.14187334,76.96875,-20.23125,14.231251,46.950733,0.3361091,49.741684,0.27457944,-0.018884342,-0.009855262,0.96132845,0.21456997,0.1723664,0.64481145,0.71306926,-1.0,0
1763545038777,1009.7983,1.7730815,5.857032,11.113464,-0.06131555,-0.29779658,0.09040799,78.43125,-19.462502,15.431251,46.950733,0.3361091,49.741684,0.27321333,-0.019878106,-0.008895442,0.96170694,0.21420094,0.17075893,0.6459375,0.7125476,-1.0,0
1763545038803,1009.7983,1.5074782,5.4664035,10.962717,-0.1372155,-0.082924895,-0.091324285,77.625,-21.28125,15.3,46.950733,0.3361091,49.741684,0.2709078,-0.02387881,-0.009826623,0.9622589,0.21507694,0.16644257,0.6462477,0.7130236,-1.0,0
1763545038828,1009.82587,0.7004988,4.930411,10.217353,-0.03733911,0.007941242,-0.029779658,77.381256,-18.825,15.656251,46.950733,0.3361091,49.741684,0.2693398,-0.02237524,-0.010273338,0.96273047,0.21281943,0.16659072,0.64660615,0.71334136,-1.0,0
1763545038853,1009.81464,1.4751751,4.462016,9.637094,0.021151192,-0.2441932,-0.040317077,76.200005,-19.800001,13.368751,46.950733,0.3361091,49.741684,0.26872224,-0.022251667,-0.010524219,0.96290314,0.2122079,0.16635679,0.6468589,0.71334904,-1.0,0
1763545038878,1009.81464,1.7635103,3.9553359,9.093325,-0.025579963,-0.14889829,-0.13988803,79.2375,-18.487501,13.89375,46.950733,0.3361091,49.741684,0.26809847,-0.025900489,-0.013100146,0.9629542,0.21405585,0.16348614,0.6457702,0.7144461,-1.0,0
1763545038904,1009.8034,0.8213364,3.926622,7.6019974,-0.08666644,0.11911863,-0.18234314,78.58125,-19.556252,14.175,46.950733,0.3361091,49.741684,0.2670455,-0.024541877,-0.014447959,0.96326303,0.21227403,0.16387591,0.64536697,0.71525234,-1.0,0
1763545038929,1009.77606,-0.07597212,4.241876,6.8542404,-0.016569708,0.12034036,0.006261364,77.53125,-19.44375,16.44375,46.950733,0.3361091,49.741684,0.26616165,-0.022180552,-0.01485475,0.9635587,0.20995767,0.16508108,0.64553547,0.7155068,-1.0,0
1763545038954,1009.77606,0.24466611,4.4656053,6.4241304,0.060399257,-0.018173227,0.052381653,76.293755,-19.931252,15.056251,46.950733,0.3361091,49.741684,0.26660773,-0.021241764,-0.014071166,0.96346825,0.20963646,0.16608265,0.646083,0.7148747,-1.0,0
1763545038979,1009.74554,0.4109673,4.618746,5.7427745,0.12820524,-0.1424842,0.017104214,79.8,-19.3125,13.575001,46.950733,0.3361091,49.741684,0.26795748,-0.02265559,-0.014249791,0.96305895,0.21161117,0.16593736,0.6455725,0.71478784,-1.0,0
1763545039005,1009.7214,0.36191443,4.6319065,5.8390856,-0.077198036,-0.09590577,-0.060322896,77.90625,-18.618752,13.275001,46.950733,0.3361091,49.741684,0.26886028,-0.02408114,-0.015008195,0.96276116,0.21329482,0.1654421,0.6445912,0.7152876,-1.0,0
1763545039030,1009.7214,0.7788638,4.651049,7.312466,-0.07185297,-0.13607013,-0.04886918,77.9625,-19.10625,12.825001,46.950733,0.3361091,49.741684,0.26842582,-0.024855722,-0.015830688,0.9628495,0.213555,0.16451289,0.64382744,0.7161117,-1.0,0
1763545039056,1009.71967,0.738784,4.727021,7.769495,0.11064288,-0.1375973,-0.08231403,77.2125,-20.456251,15.3,46.950733,0.3361091,49.741684,0.26890597,-0.027232066,-0.017713241,0.96261847,0.2155275,0.1630948,0.64227724,0.71723634,-1.0,0
1763545039081,1009.71967,0.39661035,4.9603214,7.3118677,0.23480114,-0.07086031,-0.06291907,77.53125,-18.91875,13.8,46.950733,0.3361091,49.741684,0.27112505,-0.027811525,-0.018410495,0.9619661,0.21754225,0.16418786,0.6413456,0.7172123,-1.0,0
1763545039106,1009.72064,0.45224348,5.8265233,7.356135,0.25526512,0.010384701,0.09666935,78.375,-17.7,13.181251,46.950733,0.3361091,49.741684,0.27353373,-0.027837532,-0.018269189,0.9612859,0.21934754,0.16577785,0.64088607,0.71670735,-1.0,0
1763545039132,1009.7187,0.72442704,6.166902,7.4069824,0.31467173,-0.07422007,0.0980438,78.05625,-20.71875,13.5375,46.950733,0.3361091,49.741684,0.27924624,-0.029065998,-0.016484164,0.95963794,0.22445513,0.16865112,0.64070684,0.7146128,-1.0,0
1763545039157,1009.7187,0.7148558,6.238687,7.3728848,0.2853502,-0.12980877,0.061544627,75.881256,-21.31875,13.481251,46.950733,0.3361091,49.741684,0.28215387,-0.030557645,-0.016172461,0.95874596,0.22765659,0.16946101,0.6400946,0.71395683,-1.0,0
1763545039182,1009.73334,1.1186446,6.2464633,9.585648,0.04405862,-0.0050396346,0.024281874,77.100006,-19.59375,14.962501,46.950733,0.3361091,49.741684,0.28366363,-0.031526223,-0.015906297,0.9582735,0.22947368,0.169708,0.63975215,0.7136233,-1.0,0
1763545039207,1009.73334,1.2646067,6.1806607,10.153943,0.059177525,0.09789108,-0.033444848,76.40625,-21.018751,12.4875,46.950733,0.3361091,49.741684,0.28415683,-0.03175376,-0.015657054,0.9581239,0.23000115,0.16986129,0.6397866,0.7133861,-1.0,0
1763545039233,1009.76215,0.9984053,6.3122663,9.899706,0.032757625,0.16798781,-0.1262963,77.83125,-20.38125,13.387501,46.950733,0.3361091,49.741684,0.28493738,-0.029175503,-0.016293833,0.95796347,0.22875585,0.17236958,0.6394808,0.713459,-1.0,0
1763545039259,1009.7836,-0.55812585,6.262017,9.32483,-0.5014436,0.29474226,-0.1472184,76.33125,-20.41875,15.243751,46.950733,0.3361091,49.741684,0.28369343,-0.026134232,-0.017266996,0.9584033,0.22576563,0.17376667,0.6391078,0.7144062,-1.0,0
1763545039284,1009.8217,-0.4354937,5.6793647,11.376676,-0.79679674,0.16859868,-0.091324285,78.9,-18.768751,12.8625,46.950733,0.3361091,49.741684,0.27187333,-0.020563481,-0.018609354,0.9619333,0.21331845,0.16980341,0.64049345,0.71793467,-1.0,0
1763545039309,1009.8217,-0.25543383,5.1786666,13.668401,-0.6792053,0.117744185,-0.009010255,78.9,-18.768751,12.8625,46.950733,0.3361091,49.741684,0.27187333,-0.020563481,-0.018609354,0.9619333,0.21331845,0.16980341,0.64049345,0.71793467,-1.0,0
1763545039334,1009.82635,-0.0735793,4.948357,10.992029,0.044364054,-0.10567961,0.098960094,77.700005,-18.150002,13.725,46.950733,0.3361091,49.741684,0.26235116,-0.01851618,-0.017856227,0.96462953,0.20469804,0.1651354,0.6439539,0.71843743,-1.0,0
1763545039359,1009.82635,-0.10468599,4.8412786,9.586246,0.050472703,-0.15286891,0.09010255,78.637505,-19.06875,15.993751,46.950733,0.3361091,49.741684,0.2622726,-0.01961971,-0.017217658,0.96464074,0.2052891,0.16440262,0.6448791,0.71760654,-1.0,0
1763545039384,1009.80975,-0.22432712,4.5487556,8.565108,0.012904518,-0.07925971,0.0980438,77.2125,-19.706251,15.1125,46.950733,0.3361091,49.741684,0.26243734,-0.022032768,-0.016088074,0.96456325,0.20695734,0.16287252,0.6460799,0.71639514,-1.0,0
1763545039409,1009.7912,0.19142582,3.8518462,7.361519,-0.09750929,-0.020005822,0.14401138,78.356255,-19.331251,13.106251,46.950733,0.3361091,49.741684,0.26200753,-0.022892036,-0.015109533,0.96467596,0.20721228,0.1619724,0.6469464,0.71574324,-1.0,0
1763545039434,1009.7912,0.3702893,3.5994034,7.4249287,-0.015347977,0.054825112,0.13377939,78.075005,-18.487501,13.406251,46.950733,0.3361091,49.741684,0.26102298,-0.023357976,-0.013854435,0.9649505,0.20680256,0.1609699,0.6480852,0.7150574,-1.0,0
1763545039459,1009.75946,0.26739794,3.5838501,6.512665,0.17661628,0.042760536,0.12675445,77.775,-18.50625,12.825001,46.950733,0.3361091,49.741684,0.26220673,-0.023116916,-0.01113759,0.96467054,0.2074226,0.16205747,0.65023774,0.71267396,-1.0,0
1763545039485,1009.7326,0.62153566,3.9140596,5.3700924,0.060093824,-0.12751803,0.019394957,78.99375,-19.63125,13.9875,46.950733,0.3361091,49.741684,0.26415536,-0.024616988,-0.0105630765,0.96410805,0.2098718,0.16228956,0.65026873,0.7118753,-1.0,0
1763545039511,1009.7326,0.2321038,3.7764723,5.9377894,-0.040393434,0.07987057,-0.043371398,78.506256,-18.45,13.81875,46.950733,0.3361091,49.741684,0.26487058,-0.02593738,-0.010679622,0.9638759,0.21132335,0.16177638,0.64990324,0.7118965,-1.0,0
1763545039536,1009.7292,-0.4121637,3.8033917,6.4570317,-0.028939718,0.16019928,-0.024281874,78.80625,-18.4125,13.781251,46.950733,0.3361091,49.741684,0.2643833,-0.02347791,-0.010724787,0.9640722,0.20929343,0.16323598,0.6499844,0.7120888,-1.0,0
1763545039561,1009.7292,-0.76749784,4.061816,6.7519474,0.076434456,0.031459536,0.06429352,78.46875,-19.44375,13.25625,46.950733,0.3361091,49.741684,0.26507944,-0.023125403,-0.010082103,0.9638965,0.20955917,0.16397211,0.65034586,0.7115113,-1.0,0
1763545039586,1009.7233,-0.23928227,5.1385865,6.7698936,0.18898629,-0.252898,0.18738277,79.70625,-18.956251,15.1125,46.950733,0.3361091,49.741684,0.26675248,-0.02456347,-0.008986642,0.9634101,0.21177113,0.16405259,0.6507817,0.71043855,-1.0,0
1763545039611,1009.72455,0.18125631,5.428716,7.457232,0.10957387,-0.33322674,0.14767656,77.418755,-20.2875,12.95625,46.950733,0.3361091,49.741684,0.26979637,-0.030576145,-0.007402024,0.9624034,0.21818,0.16162443,0.6508977,0.70894796,-1.0,0
1763545039637,1009.72455,0.54436713,5.6183476,8.595019,-0.008628465,-0.24938555,0.10216714,77.55,-19.66875,13.51875,46.950733,0.3361091,49.741684,0.26980916,-0.033114944,-0.007120357,0.9623179,0.21994768,0.15973921,0.6509258,0.7088032,-1.0,0
1763545039662,1009.7509,0.7148558,5.4987063,10.966905,-0.045891218,-0.07864884,-0.042607818,77.662506,-19.78125,13.837501,46.950733,0.3361091,49.741684,0.2689411,-0.034491397,-0.007160606,0.9625122,0.22024783,0.15814508,0.65104383,0.70895904,-1.0,0
1763545039687,1009.7719,0.14177474,5.750551,10.514063,0.09659299,-0.022449281,-0.043982264,77.71875,-18.768751,13.9125,46.950733,0.3361091,49.741684,0.26836377,-0.035145026,-0.0077621914,0.96264505,0.22022057,0.15734418,0.6509226,0.70925695,-1.0,0
1763545039712,1009.7719,0.35413775,6.094519,9.52822,0.028176138,-0.07498365,0.0019853106,77.11875,-20.325,13.6125,46.950733,0.3361091,49.741684,0.26928088,-0.03570374,-0.008413568,0.9623629,0.22119603,0.15766825,0.6505972,0.70918006,-1.0,0
1763545039737,1009.79584,0.9415757,6.2674007,9.381062,-0.2786307,-0.09758565,-0.016035201,77.3625,-20.550001,13.293751,46.950733,0.3361091,49.741684,0.26682138,-0.036530036,-0.008921462,0.96301216,0.21998164,0.15535823,0.6505799,0.7100828,-1.0,0
1763545039762,1009.79584,1.7545372,4.9579287,12.762119,-0.7407499,0.01802051,-0.13744457,79.012505,-18.993752,12.243751,46.950733,0.3361091,49.741684,0.2611683,-0.03766628,-0.010278176,0.96450335,0.21662728,0.150666,0.6505917,0.71211153,-1.0,0
1763545039789,1009.8344,1.6342978,4.2478585,14.236696,-0.58772826,0.1913534,-0.11056653,77.83125,-18.88125,13.762501,46.950733,0.3361091,49.741684,0.2479552,-0.035325207,-0.012446257,0.9680472,0.2051732,0.14364403,0.6524089,0.71528524,-1.0,0
1763545039814,1009.8483,0.9667004,3.879962,11.076376,0.18654284,0.028557928,-0.059101168,77.08125,-18.337502,12.88125,46.950733,0.3361091,49.741684,0.24572875,-0.03355959,-0.012571143,0.968676,0.20217042,0.14365233,0.65359837,0.71505266,-1.0,0
1763545039841,1009.8483,0.06520442,3.7513478,8.55135,0.26396993,-0.08124501,-0.024129158,77.568756,-17.925001,14.962501,46.950733,0.3361091,49.741684,0.24687107,-0.033296358,-0.012949983,0.9683896,0.20269398,0.14480719,0.6537653,0.71451867,-1.0,0
1763545039867,1009.82245,-0.1692922,3.6161532,6.9469624,0.17371467,-0.09728022,0.14110976,78.95625,-17.775002,12.95625,46.950733,0.3361091,49.741684,0.25045687,-0.03508003,-0.012177582,0.9674153,0.2064332,0.14609787,0.6541261,0.7128533,-1.0,0
1763545039893,1009.78973,2.3712873,4.025326,6.795018,-0.10499238,-0.39186975,0.114079,78.20625,-18.6,12.937501,46.950733,0.3361091,49.741684,0.2507198,-0.038382016,-0.010612033,0.96724033,0.20889162,0.14386763,0.65512645,0.7116711,-1.0,0
1763545039919,1009.78973,1.9657038,4.150949,7.469196,-0.13614649,-0.20662501,-0.082161315,75.693756,-17.98125,13.1625,46.950733,0.3361091,49.741684,0.24971981,-0.042661514,-0.010458534,0.96732134,0.21110207,0.14005679,0.65526354,0.7116528,-1.0,0
1763545039945,1009.7768,0.76630145,4.133601,7.3142605,-0.022372922,0.053603385,-0.16859868,77.700005,-18.150002,12.95625,46.950733,0.3361091,49.741684,0.24833791,-0.044059347,-0.0131084705,0.96758217,0.21102972,0.13812816,0.6536354,0.713546,-1.0,0
1763545039970,1009.7575,1.1036894,4.6989055,6.61436,0.1909716,0.061544627,-0.10827578,76.875,-18.712502,11.681251,46.950733,0.3361091,49.741684,0.24943696,-0.042716656,-0.013755233,0.96735066,0.2109167,0.1398487,0.6529703,0.7138531,-1.0,0
1763545039995,1009.7575,0.98584294,5.022535,6.0676003,0.20044,0.08994984,-0.18539746,77.08125,-18.337502,13.181251,46.950733,0.3361091,49.741684,0.25143096,-0.041979652,-0.0145296445,0.9668552,0.21188416,0.14172128,0.65196335,0.71411765,-1.0,0
1763545040022,1009.73505,0.5521438,5.026124,6.084948,0.11110103,0.17180572,-0.19669846,77.49375,-18.54375,12.843751,46.950733,0.3361091,49.741684,0.25514925,-0.03886812,-0.017304864,0.96596515,0.2125663,0.14638111,0.6488127,0.7158423,-1.0,0
1763545040047,1009.72894,0.4001996,5.188836,6.869794,0.18409938,0.014813471,-0.051923506,79.05,-16.518751,13.500001,46.950733,0.3361091,49.741684,0.25645652,-0.03716925,-0.018244985,0.9656685,0.21240558,0.14844319,0.6476842,0.716487,-1.0,0
1763545040072,1009.72894,1.0456635,5.4203415,7.1677003,0.18990259,-0.13179408,-0.014660755,77.83125,-18.2625,12.806251,46.950733,0.3361091,49.741684,0.2584349,-0.036869287,-0.01864996,0.9651447,0.21368101,0.14996114,0.64684653,0.71654844,-1.0,0
1763545040097,1009.73676,1.5296118,5.474778,8.014759,0.15538873,-0.1385136,-0.06551525,79.6875,-17.7,13.968751,46.950733,0.3361091,49.741684,0.26210642,-0.03950077,-0.01990816,0.96402466,0.21823275,0.15044788,0.6448117,0.7169085,-1.0,0
1763545040123,1009.73676,1.0510473,5.4873405,8.792427,0.11934771,0.021991132,-0.110871956,77.25,-19.462502,15.712501,46.950733,0.3361091,49.741684,0.2633629,-0.03921756,-0.02080031,0.9636749,0.21895808,0.15151033,0.64391017,0.7172738,-1.0,0
1763545040148,1009.75726,0.28115666,5.9210396,9.890733,0.26122105,0.25824308,0.04978548,79.2375,-18.487501,13.593751,46.950733,0.3361091,49.741684,0.26470387,-0.036719438,-0.020620968,0.9634097,0.21821633,0.15426634,0.6439133,0.71690947,-1.0,0
1763545040173,1009.7724,0.9846465,6.2201424,9.202796,0.3427715,-0.0021380268,0.092546016,78.675,-18.300001,14.250001,46.950733,0.3361091,49.741684,0.2671221,-0.03440005,-0.019425299,0.9628526,0.21837404,0.15763995,0.644495,0.7156037,-1.0,0
1763545040198,1009.7724,1.4817554,6.460023,8.722437,0.19005531,-0.17562363,-0.010079269,78.9375,-17.775002,13.743751,46.950733,0.3361091,49.741684,0.27223465,-0.03651931,-0.018914372,0.9613516,0.22357948,0.15955433,0.6437221,0.7142664,-1.0,0
1763545040223,1009.78265,1.3328022,6.439684,9.005986,-0.15157083,-0.17363831,-0.1386663,79.856255,-16.81875,14.19375,46.950733,0.3361091,49.741684,0.2710662,-0.03792895,-0.020674795,0.96159095,0.22372395,0.15768029,0.6424528,0.7157786,-1.0,0
1763545040248,1009.8256,1.0408778,4.88076,12.718451,-0.77129316,-0.0368046,-0.37461284,79.012505,-17.5125,12.937501,46.950733,0.3361091,49.741684,0.26600656,-0.038177337,-0.023370693,0.9629314,0.22021276,0.15402384,0.6413519,0.7186451,-1.0,0
1763545040274,1009.8256,-0.5802595,4.004389,13.953147,-0.5504655,0.18066326,-0.35017824,78.881256,-16.66875,13.687501,46.950733,0.3361091,49.741684,0.25867265,-0.037533965,-0.027191458,0.9648525,0.21435232,0.14957745,0.6402101,0.72236466,-1.0,0
1763545040299,1009.83344,-1.2556337,4.5541396,10.310673,0.017944153,-0.12415826,0.14034618,79.2375,-15.637501,13.743751,46.950733,0.3361091,49.741684,0.2512345,-0.031843685,-0.030792037,0.96691215,0.20474693,0.14903523,0.64039403,0.7250949,-1.0,0
1763545040324,1009.83344,-0.3290131,4.464409,9.538987,-0.04650208,-0.20631959,0.21578798,79.481255,-16.59375,13.6125,46.950733,0.3361091,49.741684,0.2509502,-0.032785952,-0.029892502,0.96698266,0.20511705,0.14824952,0.6414336,0.724232,-1.0,0
1763545040349,1009.81415,-0.3260221,4.1258245,9.171689,-0.13553563,-0.08857539,0.2102902,78.450005,-16.6875,12.187501,46.950733,0.3361091,49.741684,0.24866949,-0.03598825,-0.026794177,0.96754867,0.2055843,0.14445335,0.64442265,0.72221035,-1.0,0
1763545040375,1009.80414,-0.24945176,3.2201412,8.899506,-0.15783219,-0.12079851,0.28313583,78.037506,-16.3875,14.681251,46.950733,0.3361091,49.741684,0.24663804,-0.037077986,-0.02495464,0.9680765,0.20482069,0.14231509,0.64629346,0.72117937,-1.0,0
1763545040400,1009.80414,-0.21535404,2.9120653,8.469994,0.041157015,-0.1632536,0.3251328,76.350006,-16.9125,12.4125,46.950733,0.3361091,49.741684,0.24475989,-0.0385968,-0.022694591,0.9685494,0.20444597,0.13999628,0.6485252,0.71973467,-1.0,0
1763545040425,1009.78534,0.23030917,2.949752,7.2023964,0.28199047,-0.297033,0.3489565,79.05,-16.518751,14.118751,46.950733,0.3361091,49.741684,0.24675694,-0.044153053,-0.017408265,0.9679145,0.20957556,0.1375375,0.6526473,0.7149916,-1.0,0
1763545040450,1009.748,0.6197411,3.3661032,5.6787663,0.33681557,-0.22495095,0.308334,77.793755,-17.00625,12.262501,46.950733,0.3361091,49.741684,0.24964051,-0.047015633,-0.014918738,0.9670815,0.21360934,0.13748421,0.6540293,0.7125411,-1.0,0
1763545040475,1009.748,1.1186446,4.0887356,5.685945,-0.0037415468,0.14737113,0.11636974,78.1875,-17.85,14.118751,46.950733,0.3361091,49.741684,0.25113115,-0.047825456,-0.012595784,0.9666888,0.21527132,0.13788544,0.65532905,0.710767,-1.0,0
1763545040501,1009.72626,0.39840496,4.0145583,6.3493547,-0.027107125,0.3035998,-0.0129808765,78.1875,-16.48125,13.275001,46.950733,0.3361091,49.741684,0.251207,-0.04407483,-0.01051529,0.9668722,0.21280828,0.14057091,0.6566636,0.70975024,-1.0,0
1763545040527,1009.7253,-0.65922266,4.3154554,6.795018,0.08269582,0.365908,-0.013439025,77.4,-18.806252,14.26875,46.950733,0.3361091,49.741684,0.25210568,-0.040461496,-0.009759448,0.9668042,0.21099569,0.14378886,0.65708214,0.7092592,-1.0,0
1763545040552,1009.7253,-0.95772725,5.110471,6.8871417,0.33284494,-0.10461059,0.2272417,79.03125,-18.65625,15.168751,46.950733,0.3361091,49.741684,0.2546246,-0.03890964,-0.008640339,0.9662183,0.2117951,0.1465963,0.65732336,0.708222,-1.0,0
1763545040577,1009.7358,0.30508488,5.5310097,7.6887374,0.23831362,-0.15378521,0.2687805,79.256256,-18.487501,12.50625,46.950733,0.3361091,49.741684,0.2578476,-0.039978877,-0.0067752707,0.9653343,0.21491304,0.14797324,0.65787643,0.7064806,-1.0,0
1763545040602,1009.7358,1.018146,5.67757,9.399008,0.15844305,-0.06597339,0.2122755,78.9,-18.768751,12.562501,46.950733,0.3361091,49.741684,0.26173246,-0.04299873,-0.0027585262,0.96417826,0.21987988,0.14834285,0.6596761,0.70318896,-1.0,0
1763545040627,1009.7553,0.8129615,5.9760747,8.887542,0.28687736,0.1800524,0.12492185,78.1125,-18.862501,15.1125,46.950733,0.3361091,49.741684,0.26399034,-0.041977633,-0.0008484057,0.96361107,0.22080725,0.1506558,0.6607421,0.7014035,-1.0,0
1763545040652,1009.76605,0.6658029,6.5521464,8.904889,0.12835796,0.08048143,0.10002911,77.662506,-19.78125,14.137501,46.950733,0.3361091,49.741684,0.2666436,-0.04061386,0.0008878468,0.96293867,0.22180048,0.15346935,0.66154546,0.69972086,-1.0,0
1763545040677,1009.76605,0.39661035,7.2975106,9.635299,-0.009850195,-0.0097738365,0.07819069,79.5,-18.6,14.343751,46.950733,0.3361091,49.741684,0.26815805,-0.040314548,0.0027304862,0.96252716,0.22278705,0.154596,0.66219413,0.69854486,-1.0,0
1763545040702,1009.7885,0.42053857,7.335796,10.320244,-0.12713623,-0.115453444,0.05177079,78.5625,-20.306252,14.85,46.950733,0.3361091,49.741684,0.26725617,-0.041372094,0.002813582,0.96273285,0.22291233,0.1531261,0.6621395,0.6988804,-1.0,0
1763545040727,1009.81854,1.9423738,5.962914,11.989238,-0.4493674,-0.08093958,0.013286309,78.506256,-18.45,13.81875,46.950733,0.3361091,49.741684,0.26482123,-0.042461388,0.0029026808,0.96335787,0.22192112,0.15061301,0.66247314,0.6994255,-1.0,0
1763545040752,1009.81854,1.7736797,4.807779,13.369298,-0.4227948,0.09682207,-0.10461059,78.1125,-18.243752,13.856251,46.950733,0.3361091,49.741684,0.2606172,-0.043340888,0.0026539208,0.96446526,0.21945235,0.14710693,0.66310227,0.7003539,-1.0,0
1763545040777,1009.84125,0.360718,4.1808596,13.250256,-0.16226095,0.42302385,-0.11209369,78.05625,-19.237501,14.38125,46.950733,0.3361091,49.741684,0.25413436,-0.038197655,0.0017773558,0.96641266,0.2109758,0.14673977,0.6649048,0.7013261,-1.0,0
1763545040802,1009.84125,-0.651446,3.5162528,10.461421,0.5127446,0.16081016,0.18661919,78.787506,-18.431252,15.4875,46.950733,0.3361091,49.741684,0.2552697,-0.033629652,0.0032960228,0.9662792,0.20852238,0.15103638,0.6665756,0.69955945,-1.0,0
1763545040827,1009.83514,-0.16869399,3.2775688,8.502895,0.6121629,-0.066126116,0.3158171,80.68125,-18.6,13.44375,46.950733,0.3361091,49.741684,0.25939864,-0.032216437,0.0055360487,0.965217,0.21043025,0.15506348,0.6680107,0.69673246,-1.0,0
1763545040855,1009.80707,0.53599226,3.6113675,7.537391,0.39332056,-0.05177079,0.37110037,79.912506,-19.425001,14.812501,46.950733,0.3361091,49.741684,0.26781198,-0.034598753,0.011887225,0.9627764,0.2180089,0.15935008,0.67166287,0.6898903,-1.0,0
1763545040880,1009.80707,0.799801,4.202395,6.91765,0.097814724,0.39263335,0.25625777,79.443756,-19.59375,14.718751,46.950733,0.3361091,49.741684,0.26907504,-0.033881776,0.015746979,0.96239424,0.21838182,0.16080649,0.6744081,0.68674916,-1.0,0
1763545040905,1009.7817,0.011365907,4.5044885,5.7834525,0.02573268,0.4744892,0.12278382,79.4625,-20.1,15.975,46.950733,0.3361091,49.741684,0.26974148,-0.030978296,0.019211905,0.9622426,0.21683985,0.16340317,0.67691916,0.6841494,-1.0,0
1763545040930,1009.7602,-1.0534402,4.5684967,5.7966127,-0.12835796,0.47586367,0.080176,80.006256,-20.306252,15.937501,46.950733,0.3361091,49.741684,0.26889536,-0.022455234,0.023483835,0.9626212,0.21043359,0.16889834,0.6799556,0.6818001,-1.0,0
1763545040955,1009.7602,-1.0851451,4.202395,7.6624165,0.019929463,0.40026915,0.32085672,81.20625,-20.925001,15.225,46.950733,0.3361091,49.741684,0.26735207,-0.018452287,0.02626258,0.9630642,0.20658743,0.17070222,0.68215775,0.6803258,-1.0,0
1763545040981,1009.75433,-0.7040881,4.269394,6.890133,0.23877177,0.32498005,0.42500916,80.45625,-19.518751,16.29375,46.950733,0.3361091,49.741684,0.26732108,-0.015162304,0.030191675,0.9630151,0.20428424,0.17308499,0.6850337,0.67752373,-1.0,0
1763545041006,1009.73846,-0.40737805,4.6061835,5.968896,0.28932083,0.3074177,0.47769627,81.1875,-20.925001,16.612501,46.950733,0.3361091,49.741684,0.2719398,-0.010918912,0.040164962,0.9614137,0.20471081,0.17934313,0.69116503,0.66949266,-1.0,0
1763545041031,1009.73846,-0.3589234,4.892724,5.6961145,0.20975569,0.31505352,0.49098256,79.387505,-21.862501,16.3875,46.950733,0.3361091,49.741684,0.27395785,-0.009037612,0.04552993,0.9606209,0.20493656,0.18203178,0.69429773,0.66544425,-1.0,0
1763545041056,1009.72723,-1.1587243,4.875974,6.890731,0.0049632764,0.40500334,0.60017467,80.381256,-23.38125,17.75625,46.950733,0.3361091,49.741684,0.27485448,-0.007245037,0.051121805,0.9600985,0.20442148,0.18387318,0.69774795,0.66147584,-1.0,0
1763545041081,1009.72723,-1.4955142,4.99083,7.9710903,-0.06421716,0.5450441,0.75823593,81.1875,-22.3125,17.775002,46.950733,0.3361091,49.741684,0.27391917,-0.0013253645,0.0660479,0.95948124,0.19971803,0.18747312,0.7079849,0.6509408,-1.0,0
1763545041106,1009.74677,-1.3561323,5.480162,9.637094,0.0712421,0.48579022,0.8938479,81.600006,-23.775002,18.900002,46.950733,0.3361091,49.741684,0.2741569,0.0013013297,0.07550967,0.9587151,0.1980494,0.18957889,0.71444136,0.6437467,-1.0,0
1763545041131,1009.7653,-1.0193424,5.95753,8.318648,0.5156462,0.17883067,0.9738712,78.7125,-25.06875,19.125,46.950733,0.3361091,49.741684,0.27751684,0.002076928,0.084951304,0.95695525,0.19990692,0.19250229,0.72023714,0.6357976,-1.0,0
1763545041156,1009.7653,-0.45403808,5.8881383,8.477173,0.29115343,0.24923283,0.93584484,80.100006,-26.156252,18.88125,46.950733,0.3361091,49.741684,0.2821557,0.0019863371,0.094305545,0.9547202,0.20333357,0.19563034,0.72548896,0.627734,-1.0,0
1763545041182,1009.7863,-0.7052845,5.6416774,10.155738,0.022067491,0.4169152,0.83780104,78.15,-25.500002,20.4375,46.950733,0.3361091,49.741684,0.28445056,0.0041141585,0.11231888,0.95207953,0.20352761,0.19875997,0.7367597,0.6133971,-1.0,0
1763545041208,1009.7863,-2.160719,5.4783673,10.880763,-0.06284271,0.6508764,0.8439097,80.475006,-25.63125,19.893751,46.950733,0.3361091,49.741684,0.28284308,0.008164726,0.12175946,0.95137155,0.19947144,0.20069385,0.7434301,0.60600734,-1.0,0
1763545041233,1009.80145,-1.2640085,5.5950174,11.468799,-0.27832526,0.319635,1.1554507,79.36875,-26.75625,20.681252,46.950733,0.3361091,49.741684,0.28057948,0.011305411,0.1327177,0.9505437,0.19554299,0.20153311,0.75117475,0.59739757,-1.0,0
1763545041258,1009.82513,-0.52941203,5.035695,12.159128,-0.34720027,0.3744601,1.1056652,79.350006,-26.98125,19.1625,46.950733,0.3361091,49.741684,0.27739552,0.011395278,0.14406238,0.9498252,0.19306439,0.19951014,0.7592238,0.58864343,-1.0,0
1763545041283,1009.82513,-1.1892328,4.4602213,11.735599,-0.25923574,0.59635675,1.0566434,77.7375,-29.025002,20.681252,46.950733,0.3361091,49.741684,0.26956078,0.014270622,0.16640796,0.948389,0.18509649,0.19648397,0.775323,0.5709708,-1.0,0
1763545041308,1009.82367,-1.8161523,3.8775692,9.288938,-0.1673006,0.5215258,1.155298,76.856255,-29.625002,21.88125,46.950733,0.3361091,49.741684,0.2666375,0.017386043,0.17805755,0.9470469,0.1806596,0.19687544,0.7833097,0.56127363,-1.0,0
1763545041333,1009.8027,-1.4524434,3.81057,8.891729,-0.15691589,0.48594293,1.2237148,75.975006,-28.968752,21.6375,46.950733,0.3361091,49.741684,0.2613911,0.020933066,0.20219982,0.9435845,0.17413677,0.19606093,0.7991354,0.5409428,-1.0,0
1763545041358,1009.8027,-0.9984053,3.8237305,8.372486,-0.13706279,0.506865,1.2073742,75.262505,-30.300001,22.40625,46.950733,0.3361091,49.741684,0.25904828,0.022622837,0.21441635,0.9414924,0.17117243,0.19574937,0.80678475,0.53054744,-1.0,0
1763545041383,1009.7941,-1.4392828,3.5635111,8.438888,-0.13034327,0.77427113,1.1475095,76.14375,-29.56875,21.806252,46.950733,0.3361091,49.741684,0.2560909,0.025512435,0.22649595,0.93939674,0.16694379,0.19586529,0.81429577,0.5202778,-1.0,0
1763545041409,1009.7753,-1.8747765,3.5114672,7.9537425,0.018555017,0.74067354,1.225242,76.33125,-29.94375,23.34375,46.950733,0.3361091,49.741684,0.2531521,0.029784176,0.23876064,0.9370274,0.1617607,0.1969938,0.8217652,0.50963604,-1.0,0
1763545041434,1009.7753,-1.4338989,3.644269,7.4237323,0.09262237,0.54275334,1.3356558,73.725006,-31.95,23.8875,46.950733,0.3361091,49.741684,0.25122145,0.03641078,0.26473445,0.9303106,0.15552936,0.20062049,0.8364187,0.48576313,-1.0,0
1763545041459,1009.768,-0.15433706,3.5958142,7.6552377,0.12454005,0.6046034,1.2690716,75.131256,-31.556252,22.95,46.950733,0.3361091,49.741684,0.2511607,0.03773401,0.2778027,0.9264556,0.15448488,0.20159361,0.84334075,0.47357237,-1.0,0
1763545041484,1009.75604,-0.69332033,3.7322052,7.14437,0.15905392,0.7189878,1.1875211,73.443756,-34.8375,23.325,46.950733,0.3361091,49.741684,0.25088093,0.040561233,0.2905283,0.9225003,0.15225048,0.20348527,0.8499064,0.461598,-1.0,0
1763545041509,1009.75604,-0.86201435,3.888337,7.1748786,0.11293363,0.64064443,1.1878265,73.443756,-34.8375,23.325,46.950733,0.3361091,49.741684,0.25054577,0.04472203,0.3027291,0.9184671,0.14905505,0.20629066,0.85601723,0.44995692,-1.0,0
1763545041534,1009.74335,-0.49471608,4.2981076,8.7882395,0.10468695,0.5575668,1.1421645,72.356255,-33.600002,24.750002,46.950733,0.3361091,49.741684,0.24938688,0.05089987,0.32626885,0.91036475,0.14380683,0.21001,0.8675574,0.4272699,-1.0,0
1763545041559,1009.74335,-0.62452674,4.5523453,9.399606,0.16516256,0.573602,1.1122321,73.481255,-34.59375,23.60625,46.950733,0.3361091,49.741684,0.24887872,0.05361572,0.33753324,0.90623176,0.14147584,0.21165976,0.8729292,0.41614813,-1.0,0
1763545041584,1009.74774,-0.53359944,4.6845484,9.933804,0.28733552,0.5178606,1.1100941,69.825005,-35.850002,25.612501,46.950733,0.3361091,49.741684,0.24983093,0.05980527,0.35917363,0.8972192,0.13766134,0.21689059,0.88255376,0.39383584,-1.0,0
1763545041609,1009.76215,-0.36490545,4.825725,10.031909,0.43455392,0.37919432,1.119257,70.65,-35.925003,28.612501,46.950733,0.3361091,49.741684,0.25259733,0.06211652,0.3694707,0.89209163,0.13792622,0.2205453,0.8865666,0.38253862,-1.0,0
1763545041634,1009.76215,1.0546366,5.1720862,10.000802,0.42157304,0.3045161,1.0395391,68.775,-35.9625,25.725,46.950733,0.3361091,49.741684,0.25618604,0.06349604,0.3794559,0.8867639,0.13943914,0.22409764,0.8901841,0.3713613,-1.0,0
1763545041659,1009.7685,0.9164511,5.704489,9.769895,0.36308277,0.46273008,0.8629992,67.96875,-36.9375,27.562502,46.950733,0.3361091,49.741684,0.25911215,0.06507412,0.3888441,0.8817179,0.14037876,0.22730498,0.8934918,0.36096904,-1.0,0
1763545041684,1009.768,0.014955142,6.248258,9.103494,0.29130614,0.40958482,0.7510582,66.543755,-38.831253,28.593752,46.950733,0.3361091,49.741684,0.26228487,0.07097293,0.40428975,0.87333804,0.13850825,0.2337648,0.8987692,0.34406894,-1.0,0
1763545041709,1009.768,0.9487542,5.5830536,10.1288185,-0.3239874,0.37018406,0.6533199,67.59375,-38.71875,29.250002,46.950733,0.3361091,49.741684,0.26235268,0.07160051,0.41079396,0.87022567,0.13810043,0.234273,0.90128803,0.33723038,-1.0,0
1763545041735,1009.77826,0.52163535,4.6839504,11.752348,-0.48540843,0.77167493,0.6056724,66.600006,-36.45,28.143751,46.950733,0.3361091,49.741684,0.25865942,0.07190009,0.4174001,0.8681606,0.13525851,0.231904,0.9045626,0.33119807,-1.0,0
1763545041760,1009.77826,-0.5168497,4.330411,12.409178,-0.29894194,1.05252,0.7139482,65.418755,-39.43125,27.975,46.950733,0.3361091,49.741684,0.24470714,0.080626614,0.43350112,0.8635361,0.118959375,0.22854081,0.91317385,0.31580257,-1.0,0
1763545041785,1009.79535,0.101694964,4.4404807,9.683753,0.49350238,0.30054548,1.0410663,66.3375,-38.362503,29.5125,46.950733,0.3361091,49.741684,0.24203594,0.086253405,0.44313022,0.8588449,0.11292618,0.23080021,0.9170502,0.3049556,-1.0,0
1763545041815,1009.79535,0.101694964,4.4404807,9.683753,0.49350238,0.30054548,1.0410663,66.3375,-38.362503,29.5125,46.950733,0.3361091,49.741684,0.24524097,0.088541985,0.45201555,0.85305285,0.11347856,0.23474547,0.91953975,0.2940474,-1.0,0
1763545041841,1009.7768,1.3806586,4.5188456,5.9270215,0.16394083,0.25213444,0.8342886,63.975002,-38.362503,30.375002,46.950733,0.3361091,49.741684,0.25174809,0.089592315,0.46695998,0.842938,0.11745629,0.24001646,0.9230884,0.2765936,-1.0,0
