timestamp,pressure,acc_x,acc_y,acc_z,gyro_x,gyro_y,gyro_z,mag_x,mag_y,mag_z,mag_bias_x,mag_bias_y,mag_bias_z,game_x,game_y,game_z,game_w,rot_x,rot_y,rot_z,rot_w,rot_accuracy,step
1763545337001,1009.85004,-0.41515473,2.070988,9.513863,0.010308343,0.024969097,-0.019471316,57.881252,-39.75,18.28125,46.950733,0.3361091,49.741684,0.0,0.0,0.0,0.0,0.0,0.0,0.0,0.0,0.0,0
1763545337026,1009.8664,-0.72741807,2.1433709,9.586246,0.0012980876,0.032452192,-0.026648976,58.48125,-39.693752,18.525002,46.950733,0.3361091,49.741684,0.049481537,0.100977615,0.7331141,0.67074496,-0.014787674,0.11147298,0.9819774,0.15190634,-1.0,0
1763545337051,1009.8664,-0.7938189,2.1732812,9.85484,-0.012293654,-0.046654798,-0.016416991,58.893753,-39.9,17.71875,46.950733,0.3361091,49.741684,0.048956126,0.10142521,0.7327928,0.67106706,-0.015489225,0.111552045,0.98191047,0.1522105,-1.0,0
1763545337076,1009.87274,-0.74596244,2.1924238,9.804591,0.0112246405,-0.07032581,-0.0009926553,57.581253,-38.925003,19.650002,46.950733,0.3361091,49.741684,0.049032282,0.10120537,0.73265344,0.6712468,-0.015340628,0.11140627,0.98194426,0.15211418,-1.0,0
1763545337101,1009.87885,-0.65682983,2.1589243,9.540782,0.021762058,-0.023747368,0.009850195,59.41875,-37.987503,18.16875,46.950733,0.3361091,49.741684,0.049760256,0.10114001,0.7325973,0.67126435,-0.014733748,0.111751065,0.98195505,0.15185149,-1.0,0
1763545337127,1009.87885,-0.5072784,2.094318,9.588638,0.022525638,0.029245151,0.0037415468,59.5125,-36.73125,18.54375,46.950733,0.3361091,49.741684,0.04990928,0.10125182,0.73266804,0.6711592,-0.014675221,0.11192635,0.9819602,0.15169504,-1.0,0
1763545337152,1009.8764,-0.57427746,2.1080768,9.527621,0.019929463,0.03642281,0.00083993905,58.050003,-38.86875,18.525002,46.950733,0.3361091,49.741684,0.049975507,0.10141314,0.7327078,0.6710865,-0.014697149,0.112098925,0.981936,0.15172215,-1.0,0
1763545337177,1009.8676,-0.552742,2.1098714,9.490533,-0.0020616686,0.028176138,-0.0045051277,59.325,-39.0,19.78125,46.950733,0.3361091,49.741684,0.049777135,0.10182224,0.73271817,0.67102796,-0.015072622,0.11233142,0.9818897,0.15181245,-1.0,0
1763545337202,1009.8676,-0.59282184,2.1098714,9.6275215,-0.022525638,-0.0054214248,-0.01244637,60.562504,-38.9625,16.725,46.950733,0.3361091,49.741684,0.049723603,0.101556465,0.7326676,0.67112744,-0.014959948,0.1120819,0.9818896,0.15200888,-1.0,0
1763545337227,1009.86346,-0.59581286,2.1744776,9.775279,0.0072540194,0.045280352,-0.010461059,58.406254,-38.5875,18.46875,46.950733,0.3361091,49.741684,0.049615357,0.10136213,0.73261553,0.6712217,-0.014942137,0.11186017,0.9818984,0.15211692,-1.0,0
1763545337253,1009.86346,-0.6903293,2.1732812,9.785448,0.028787002,0.066507906,-0.009086614,57.300003,-39.693752,18.806252,46.950733,0.3361091,49.741684,0.049123686,0.10231648,0.73251444,0.67122334,-0.015875285,0.11238226,0.98180807,0.15222077,-1.0,0
1763545337278,1009.8945,-0.7639086,2.2265215,9.807582,0.040698867,0.045433067,0.015653409,59.4,-39.46875,18.5625,46.950733,0.3361091,49.741684,0.048983563,0.10304422,0.7325781,0.67105275,-0.016442304,0.11290328,0.9818293,0.15163672,-1.0,0
1763545337303,1009.90326,-0.64905316,2.2881367,9.51147,0.05933024,0.06024654,0.043905906,58.29375,-39.09375,19.59375,46.950733,0.3361091,49.741684,0.049150288,0.10375621,0.73275065,0.67074245,-0.01671975,0.11358501,0.9818285,0.15110162,-1.0,0
1763545337329,1009.90326,-0.7710871,2.3108685,9.437891,0.054748755,0.099341884,0.05459604,58.8375,-38.662502,18.581251,46.950733,0.3361091,49.741684,0.04931003,0.104665294,0.7330015,0.67031527,-0.017102478,0.114428185,0.9818144,0.15051329,-1.0,0
1763545337354,1009.9235,-0.84107715,2.335993,9.516255,0.0353538,0.08544471,0.07246383,57.99375,-39.131252,19.63125,46.950733,0.3361091,49.741684,0.04884075,0.10706646,0.7337671,0.66913164,-0.018873857,0.1161569,0.98185533,0.14869907,-1.0,0
1763545337379,1009.9299,-0.8703892,2.4269204,9.640084,0.07032581,0.1523344,0.11568252,58.48125,-39.693752,18.206251,46.950733,0.3361091,49.741684,0.04872461,0.10793571,0.7343136,0.6684006,-0.019475643,0.1168114,0.98193175,0.14760028,-1.0,0
1763545337404,1009.9299,-0.7082755,2.4394827,9.716056,0.11094832,0.2541961,0.123929195,60.9,-38.7,17.2875,46.950733,0.3361091,49.741684,0.048242446,0.10974858,0.7350216,0.6673613,-0.020898659,0.118048005,0.981961,0.14622061,-1.0,0
1763545337430,1009.90326,-0.8333005,2.4275186,9.654441,0.15737404,0.32902706,0.12637265,59.100002,-39.506252,18.6,46.950733,0.3361091,49.741684,0.046556853,0.115482256,0.7366165,0.6647499,-0.025445413,0.12188611,0.98178655,0.14349714,-1.0,0
1763545337456,1009.811,-0.6891329,2.4879375,9.286545,0.10560325,0.17188208,0.13309216,59.60625,-39.9375,17.493752,46.950733,0.3361091,49.741684,0.045525476,0.118830755,0.7373569,0.663409,-0.02814333,0.124101855,0.98163444,0.1421285,-1.0,0
1763545337482,1009.811,-0.061615184,1.550549,9.295518,-0.088651754,-0.44356418,0.17722714,58.425003,-40.6875,18.431252,46.950733,0.3361091,49.741684,0.045551997,0.12077994,0.7381736,0.6621457,-0.029166067,0.12574624,0.9815696,0.14091964,-1.0,0
1763545337507,1009.75116,-1.9076779,2.8193433,9.998409,-0.25251624,-0.7954223,0.130496,58.406254,-38.5875,18.768751,46.950733,0.3361091,49.741684,0.05206775,0.10960455,0.7399733,0.66160053,-0.017547412,0.12006789,0.9827696,0.13942632,-1.0,0
1763545337533,1009.75116,0.35294133,2.152344,9.298509,-0.10468695,-0.4641809,0.29802567,55.143753,-39.43125,19.63125,46.950733,0.3361091,49.741684,0.055236693,0.10799856,0.74182886,0.6595264,-0.014339751,0.12045395,0.9835205,0.13406192,-1.0,0
1763545337558,1009.69696,0.27876383,2.0027926,9.171689,-0.33559385,-0.6343067,0.16516256,56.11875,-37.4625,19.875,46.950733,0.3361091,49.741684,0.058908332,0.10375768,0.7436457,0.6578413,-0.008817844,0.11898778,0.98396784,0.13255717,-1.0,0
1763545337584,1009.6906,0.47736812,1.9639091,10.450653,-0.3163516,-0.67156947,0.09659299,54.15,-38.53125,20.1375,46.950733,0.3361091,49.741684,0.062241394,0.0962922,0.7447689,0.6573987,-0.0017655831,0.114643194,0.98450744,0.132661,-1.0,0
1763545337609,1009.6906,0.023928227,1.7802601,10.573883,-0.09628756,-0.5359575,0.043753188,55.443752,-38.756252,18.31875,46.950733,0.3361091,49.741684,0.06848027,0.08525368,0.74529886,0.65770197,0.009591547,0.10892997,0.9850726,0.13294429,-1.0,0
1763545337634,1009.69916,-0.06520442,2.0578275,9.205189,0.052305296,-0.14424044,0.0075594517,55.74375,-39.46875,17.868752,46.950733,0.3361091,49.741684,0.07100618,0.08333706,0.7451991,0.65779275,0.0127366325,0.10874154,0.9850645,0.1328948,-1.0,0
1763545337659,1009.70795,0.21355942,2.1176481,9.068798,7.63581e-05,-0.057344932,-0.004657844,54.35625,-39.112503,18.0,46.950733,0.3361091,49.741684,0.07280468,0.08242992,0.74503595,0.65789527,0.014721442,0.1089885,0.9850036,0.13293897,-1.0,0
1763545337684,1009.70795,-0.13399807,2.0279171,9.242876,-0.027259842,0.0060322895,0.0032833982,58.031254,-38.8875,19.59375,46.950733,0.3361091,49.741684,0.07260707,0.08227095,0.7450831,0.65788364,0.014642845,0.10874687,0.9850395,0.13287926,-1.0,0
1763545337709,1009.72845,0.0317049,2.115255,9.209376,-0.02573268,0.1984547,0.053527027,56.287502,-38.287502,17.4375,46.950733,0.3361091,49.741684,0.072006196,0.082919754,0.74547267,0.6574267,0.01376416,0.1089547,0.98513204,0.13211478,-1.0,0
1763545337734,1009.72845,0.16390835,2.1750758,9.667004,-0.04344776,0.29130614,0.058413945,54.656254,-38.34375,17.75625,46.950733,0.3361091,49.741684,0.070510015,0.08395622,0.7459714,0.65689147,0.011968749,0.10898192,0.98521954,0.13161366,-1.0,0
1763545337759,1009.7585,0.317049,2.1996021,9.503694,0.010308343,0.24060437,0.014431681,55.275,-38.90625,18.50625,46.950733,0.3361091,49.741684,0.06666388,0.086959094,0.7468239,0.65593296,0.0071272226,0.10933966,0.98536617,0.13056631,-1.0,0
1763545337784,1009.7756,-0.01375873,2.3976083,9.431311,0.0009926553,0.22548546,-0.03459022,55.706253,-38.23125,18.4125,46.950733,0.3361091,49.741684,0.06489552,0.08858257,0.746904,0.6558019,0.0047671217,0.10970676,0.9853455,0.13052209,-1.0,0
1763545337810,1009.7756,0.06759724,2.5902305,9.472587,-0.024205517,0.14485131,-0.06223185,55.725002,-38.23125,17.34375,46.950733,0.3361091,49.741684,0.06333259,0.09005002,0.7468253,0.65584445,0.002653282,0.110058986,0.9853026,0.1306092,-1.0,0
1763545337834,1009.80316,0.39720857,2.6793633,9.829716,-0.012140937,0.060704686,-0.1344666,57.468754,-39.787502,16.462502,46.950733,0.3361091,49.741684,0.061766382,0.091235854,0.74574095,0.65706265,0.0007324631,0.11017499,0.98502916,0.13258407,-1.0,0
1763545337860,1009.83905,0.19740787,2.784049,9.877572,0.03611738,-0.058261227,-0.20441063,57.037502,-39.7125,17.1375,46.950733,0.3361091,49.741684,0.062427174,0.091256104,0.74437994,0.65853906,0.001268593,0.11055867,0.98471934,0.1345474,-1.0,0
1763545337885,1009.83905,-0.013160525,2.62373,9.64487,0.14500403,-0.2494619,-0.10651954,56.11875,-39.693752,19.85625,46.950733,0.3361091,49.741684,0.06449692,0.09079371,0.7427313,0.6602627,0.003262212,0.111322545,0.98428595,0.13703212,-1.0,0
1763545337910,1009.872,0.31345975,2.9635108,9.416355,0.06406444,-0.15294527,-0.046807513,57.16875,-39.581253,19.425001,46.950733,0.3361091,49.741684,0.06891904,0.08991979,0.7413096,0.6615321,0.0074408054,0.11304884,0.9837893,0.13900779,-1.0,0
1763545337935,1009.872,-0.008374879,2.6434708,9.474381,-0.017791437,-0.056428634,-0.00160352,57.225002,-37.8375,19.3125,46.950733,0.3361091,49.741684,0.06932491,0.08950945,0.7412725,0.6615868,0.008012674,0.112932205,0.98378086,0.13913068,-1.0,0
1763545337961,1009.89764,0.2428715,2.7601209,9.996614,0.029397868,0.03565923,0.017791437,53.775,-38.193752,20.325,46.950733,0.3361091,49.741684,0.06893643,0.08977811,0.74142426,0.661421,0.0075384215,0.112940304,0.9838175,0.13889122,-1.0,0
1763545337985,1009.90497,0.071186475,2.7918258,9.836894,0.061162837,0.017027855,0.009544762,56.737503,-37.3875,19.2,46.950733,0.3361091,49.741684,0.06903712,0.090214916,0.7415392,0.6612221,0.0073996023,0.11335828,0.98377866,0.13883355,-1.0,0
1763545338010,1009.90497,-0.2865405,2.8175488,9.83809,0.07612903,0.038560838,0.04619665,56.062504,-38.456253,19.78125,46.950733,0.3361091,49.741684,0.06945286,0.090789504,0.74155855,0.6610783,0.0074311434,0.1140667,0.98370963,0.13874067,-1.0,0
1763545338035,1009.915,-0.50189453,2.8516464,9.873982,0.13752094,0.07551816,0.12163845,56.025,-38.081253,18.525002,46.950733,0.3361091,49.741684,0.070835896,0.09448416,0.7423773,0.65949297,0.00656554,0.117906205,0.98347324,0.13724224,-1.0,0
1763545338060,1009.91815,-0.5347959,3.2159536,9.44806,0.32001677,0.06207913,0.20624322,55.3875,-39.018753,18.337502,46.950733,0.3361091,49.741684,0.07221061,0.09765569,0.74327207,0.657872,0.005911127,0.12130979,0.9833638,0.13507243,-1.0,0
1763545338086,1009.91815,-0.45583272,3.324827,9.357731,0.32933247,0.020234896,0.19387321,54.412502,-39.487503,18.618752,46.950733,0.3361091,49.741684,0.07708262,0.10512941,0.7449675,0.6542396,0.0057724137,0.13023289,0.98280644,0.13075756,-1.0,0
1763545338111,1009.9152,-0.40378883,3.342175,9.379865,0.33757916,-0.0184023,0.1720348,54.675003,-40.350002,19.725,46.950733,0.3361091,49.741684,0.08007121,0.10844042,0.7455705,0.6526514,0.0064228745,0.13464572,0.9824246,0.12911701,-1.0,0
1763545338137,1009.9272,-0.24107689,3.4474592,9.342177,0.39897105,0.018707734,0.102396205,57.750004,-41.25,17.1375,46.950733,0.3361091,49.741684,0.08356355,0.1117409,0.74598336,0.6511835,0.007512599,0.13932858,0.9819383,0.12778218,-1.0,0
1763545338162,1009.9272,-0.50428736,3.5210385,8.742776,0.29924738,0.09674571,0.07429643,55.050003,-39.80625,20.268751,46.950733,0.3361091,49.741684,0.086712524,0.1154318,0.74611944,0.64997095,0.008119003,0.14414454,0.98134804,0.126935,-1.0,0
1763545338187,1009.9191,-0.65982085,3.6023946,8.539386,0.12255475,0.1392008,0.067576915,55.725002,-40.74375,21.1875,46.950733,0.3361091,49.741684,0.087972276,0.12025953,0.74667716,0.6482838,0.00649143,0.14886011,0.9808743,0.12523638,-1.0,0
1763545338213,1009.9191,-0.8703892,3.7214375,8.815159,-0.09231694,0.04848739,0.05856666,56.756252,-40.125,19.800001,46.950733,0.3361091,49.741684,0.08715913,0.121142626,0.7471051,0.64773583,0.0053051,0.14914459,0.9809431,0.124412104,-1.0,0
1763545338238,1009.91595,-0.6975078,3.690929,9.092726,-0.11980586,0.031841327,0.04940369,53.9625,-40.162502,19.800001,46.950733,0.3361091,49.741684,0.08547727,0.12055654,0.74802506,0.6470071,0.004203748,0.14772466,0.98132694,0.12311452,-1.0,0
1763545338263,1009.915,-0.7405786,3.676572,9.190832,-0.106977694,0.12851068,0.044516772,54.05625,-42.54375,21.150002,46.950733,0.3361091,49.741684,0.08399422,0.1207813,0.74850357,0.64660597,0.0028486832,0.14708853,0.9814995,0.12253797,-1.0,0
1763545338288,1009.915,-0.96490574,3.7046876,9.099904,-0.041920595,0.18852814,0.13858995,54.131252,-40.03125,21.0,46.950733,0.3361091,49.741684,0.082254045,0.12146959,0.7491906,0.64590466,0.00097514235,0.14669573,0.9817183,0.12127914,-1.0,0
1763545338313,1009.91327,-1.0097711,3.7328033,8.857033,0.031841327,0.13981168,0.20899211,56.756252,-39.393753,20.23125,46.950733,0.3361091,49.741684,0.080826335,0.12250174,0.75021744,0.64469695,-0.0007939859,0.14676152,0.9819089,0.11964674,-1.0,0
1763545338338,1009.9067,-0.92662054,3.9056847,8.549556,0.06956223,0.026648976,0.2769508,52.893753,-40.29375,21.0,46.950733,0.3361091,49.741684,0.08093371,0.124511905,0.75316334,0.6408522,-0.0018600909,0.14849249,0.98225456,0.11455354,-1.0,0
1763545338363,1009.9067,-0.62512493,4.0815573,8.426923,0.06314815,-0.069867656,0.30077454,54.99375,-39.3375,21.1875,46.950733,0.3361091,49.741684,0.08234358,0.124631755,0.7548507,0.6386602,-0.000743331,0.14937532,0.98243195,0.11186555,-1.0,0
1763545338388,1009.90424,-0.18125631,4.2131624,8.656634,0.08223767,-0.14133884,0.20517421,53.7,-41.34375,22.050001,46.950733,0.3361091,49.741684,0.08421898,0.12438007,0.75628024,0.6367708,0.00095933495,0.15020758,0.9825689,0.10952217,-1.0,0
1763545338414,1009.90424,-0.2865405,4.238287,8.677571,0.077961616,-0.19036074,0.16149737,53.156254,-39.75,20.325,46.950733,0.3361091,49.741684,0.08853551,0.12376579,0.7579962,0.63425964,0.0049055493,0.15209353,0.9825905,0.106580496,-1.0,0
1763545338439,1009.903,-0.3481557,4.1294136,8.7266245,0.06360629,-0.2277762,0.13080142,52.95,-40.03125,20.98125,46.950733,0.3361091,49.741684,0.09093079,0.12300217,0.7584881,0.6334808,0.007312625,0.15278895,0.98257333,0.10560176,-1.0,0
1763545338464,1009.9057,-0.44147578,4.258028,8.89113,-0.081779525,-0.13889538,0.09109521,51.750004,-40.912502,21.46875,46.950733,0.3361091,49.741684,0.09272432,0.12204733,0.75893754,0.63286686,0.009336959,0.15299076,0.98260444,0.104857765,-1.0,0
1763545338489,1009.9057,-0.48993045,4.3178487,9.570094,-0.06513346,-0.051999863,0.06101012,52.687504,-39.300003,19.725,46.950733,0.3361091,49.741684,0.09369424,0.120295316,0.75978094,0.63204694,0.011129757,0.15207137,0.9828415,0.10379318,-1.0,0
1763545338514,1009.90936,-0.6305088,4.330411,9.815957,0.044516772,-0.03642281,0.036728244,53.250004,-39.2625,21.35625,46.950733,0.3361091,49.741684,0.0943635,0.12067101,0.75987774,0.63175935,0.011465189,0.1527564,0.9827708,0.10341931,-1.0,0
1763545338539,1009.9206,-0.80757767,4.4398823,9.456435,0.15172353,-0.11568252,0.024358233,51.956253,-39.768753,22.143751,46.950733,0.3361091,49.741684,0.09590904,0.1214277,0.75975764,0.631526,0.0123229055,0.15424454,0.9825463,0.10324485,-1.0,0
1763545338564,1009.9206,-0.6011967,4.4596233,9.51147,0.13523018,-0.116598815,0.013362667,52.781254,-40.18125,21.150002,46.950733,0.3361091,49.741684,0.0977702,0.122185044,0.7595652,0.631326,0.013427697,0.15590988,0.98228997,0.10304448,-1.0,0
1763545338589,1009.92816,-0.5563313,4.510471,9.645468,0.098272875,-0.10911572,-0.03978257,51.487503,-39.9375,21.900002,46.950733,0.3361091,49.741684,0.101004526,0.12321412,0.7588119,0.6315226,0.015470283,0.15856954,0.9818219,0.103160575,-1.0,0
1763545338614,1009.92816,-0.6795616,4.4464626,9.786645,0.057344932,-0.10560325,-0.06879865,51.975002,-38.381252,20.5125,46.950733,0.3361091,49.741684,0.10210772,0.12338334,0.75817066,0.6320821,0.016254371,0.15932745,0.9816252,0.10374248,-1.0,0
1763545338639,1009.935,-0.76749784,4.0923247,10.236495,-0.13355032,-0.07276927,0.005726857,51.300003,-40.21875,21.768751,46.950733,0.3361091,49.741684,0.1026758,0.12300344,0.7576871,0.6326437,0.016923912,0.15932906,0.9815447,0.10439272,-1.0,0
1763545338664,1009.95355,-0.5736792,3.8955152,11.103295,-0.1589012,0.033826638,0.11384992,51.787502,-39.28125,20.587502,46.950733,0.3361091,49.741684,0.1012121,0.120950595,0.7586548,0.6321156,0.01676079,0.15681839,0.98211324,0.10286242,-1.0,0
1763545338689,1009.95355,-0.039481573,3.8973098,11.617752,-0.021303909,0.10529782,0.19478951,50.756252,-40.0125,21.675001,46.950733,0.3361091,49.741684,0.10051137,0.12130251,0.75996214,0.6305875,0.015973456,0.15672168,0.98235494,0.10080671,-1.0,0
1763545338714,1009.9555,1.3256238,3.5826538,10.01516,0.1476002,0.032604907,-0.030772313,53.718754,-39.206253,20.53125,46.950733,0.3361091,49.741684,0.10094078,0.12285294,0.76083535,0.6291642,0.015486655,0.15824682,0.9822757,0.0992597,-1.0,0
1763545338740,1009.9577,1.1204392,3.5724843,9.505488,-0.11369721,-0.10499238,-0.268246,52.068752,-39.2625,21.6375,46.950733,0.3361091,49.741684,0.10183086,0.123995446,0.7605334,0.62916183,0.015618017,0.15968868,0.9820062,0.09959641,-1.0,0
1763545338765,1009.9577,0.59581286,3.0520453,10.488938,-0.2738965,-0.049098257,-0.41241008,52.66875,-38.568752,20.456251,46.950733,0.3361091,49.741684,0.10022203,0.12063662,0.7567249,0.6346414,0.0162359,0.15599374,0.98183215,0.10680827,-1.0,0
1763545338790,1009.9538,0.030508488,2.2241287,11.212169,-0.075976305,0.15340342,-0.40813404,51.975002,-39.768753,21.375,46.950733,0.3361091,49.741684,0.0980211,0.12115357,0.7544886,0.63754267,0.014093441,0.15520214,0.98160446,0.110301055,-1.0,0
1763545338815,1009.9538,-0.050847482,1.541576,9.503095,0.3427715,-0.12759438,-0.20150901,52.518753,-39.225002,22.050001,46.950733,0.3361091,49.741684,0.09770021,0.123752296,0.75250125,0.63943875,0.012345223,0.15718639,0.98103327,0.1127551,-1.0,0
1763545338841,1009.9472,0.6843473,1.4889339,9.009576,0.2957349,-0.34109163,-0.1512654,53.156254,-38.381252,20.25,46.950733,0.3361091,49.741684,0.10421622,0.12516351,0.74918085,0.64202887,0.016939295,0.1619876,0.9797406,0.11653915,-1.0,0
1763545338867,1009.9445,1.7820547,1.7724833,9.070593,-0.026801692,-0.23968807,-0.26671883,52.518753,-39.225002,22.050001,46.950733,0.3361091,49.741684,0.107651755,0.12366053,0.7475081,0.6437009,0.020655284,0.16264744,0.97926277,0.11901072,-1.0,0
1763545338893,1009.9445,1.7162521,2.0548365,9.190233,-0.17310381,0.012751802,-0.37438375,55.068752,-37.350002,22.9125,46.950733,0.3361091,49.741684,0.108996905,0.12174231,0.7457073,0.6459251,0.022901664,0.16179317,0.9789575,0.12223258,-1.0,0
1763545338918,1009.9389,0.90029955,2.321038,9.54497,-0.1598175,0.2334267,-0.40813404,54.281254,-39.375,18.7875,46.950733,0.3361091,49.741684,0.10447302,0.12087777,0.741571,0.6515722,0.01971509,0.15854767,0.97858375,0.12979886,-1.0,0
1763545338943,1009.9167,-0.025124637,2.492723,9.455238,0.07246383,0.29833108,-0.0834594,52.275,-40.36875,22.462502,46.950733,0.3361091,49.741684,0.102375895,0.12340148,0.73989415,0.6533359,0.016569713,0.15948103,0.978169,0.13219923,-1.0,0
1763545338968,1009.9167,0.14057833,3.1022944,7.717451,0.57520556,0.055206906,0.10575596,54.281254,-39.9,21.45,46.950733,0.3361091,49.741684,0.10318486,0.12725456,0.7391042,0.65336365,0.015083508,0.1631359,0.97754246,0.13255134,-1.0,0
1763545338993,1009.8918,0.92243314,3.6616168,6.735796,0.6095667,0.0012980876,0.14118612,53.831253,-40.068752,21.0375,46.950733,0.3361091,49.741684,0.11090514,0.13586651,0.7392075,0.6502405,0.01674828,0.1745828,0.97586983,0.13007082,-1.0,0
1763545339018,1009.8649,1.4033905,4.1162534,5.959923,0.45532334,0.053527027,0.011988222,52.631252,-40.0875,22.40625,46.950733,0.3361091,49.741684,0.11392608,0.13950658,0.7387351,0.64948386,0.01731832,0.17927998,0.9749987,0.13013953,-1.0,0
1763545339043,1009.8649,1.0360922,4.3764725,6.072386,-0.045891218,0.14790563,-0.3333031,53.437504,-39.61875,23.0625,46.950733,0.3361091,49.741684,0.114700094,0.14199723,0.7375023,0.6502085,0.016716056,0.18176882,0.97427654,0.13215846,-1.0,0
1763545339068,1009.85443,0.5180461,4.3944187,7.059425,-0.18761185,0.06284271,-0.41958773,53.5875,-40.48125,22.0125,46.950733,0.3361091,49.741684,0.1134636,0.1431221,0.7356179,0.6523101,0.015171191,0.18201032,0.97379357,0.13552938,-1.0,0
1763545339093,1009.85443,0.034695927,4.351348,8.036893,-0.17951788,-0.029397868,-0.43562296,53.98125,-41.550003,20.493752,46.950733,0.3361091,49.741684,0.11044332,0.14201273,0.7307021,0.65856594,0.013379582,0.17940548,0.9730801,0.14404789,-1.0,0
1763545339118,1009.8632,-0.38285163,4.360321,9.600004,0.021456625,-0.082848534,-0.29710937,55.237503,-40.29375,21.375,46.950733,0.3361091,49.741684,0.11018019,0.1411929,0.728302,0.6614387,0.013607165,0.17857757,0.972677,0.14773066,-1.0,0
1763545339143,1009.88544,-0.4779663,4.282554,9.938589,0.15691589,0.015806125,-0.22991423,55.406254,-40.800003,23.081251,46.950733,0.3361091,49.741684,0.11060221,0.14129387,0.7262573,0.6635913,0.013906738,0.17889495,0.97216237,0.15067679,-1.0,0
1763545339169,1009.88544,-0.7196414,4.205984,9.848858,0.2361756,0.058413945,-0.1295797,54.6375,-39.61875,22.0125,46.950733,0.3361091,49.741684,0.11217648,0.1451492,0.7234452,0.6655639,0.013050342,0.18297961,0.9709403,0.1536982,-1.0,0
1763545339193,1009.8979,-0.8009974,4.418347,9.579067,0.1625664,-0.014431681,-0.033063058,53.737503,-39.600002,23.025002,46.950733,0.3361091,49.741684,0.1132842,0.14641017,0.72295636,0.66563123,0.013241963,0.18464532,0.97059774,0.15385321,-1.0,0
1763545339218,1009.9394,-0.66341007,4.506881,10.733006,-0.19784383,0.020998476,0.05016727,53.437504,-41.11875,22.6875,46.950733,0.3361091,49.741684,0.1137724,0.14573823,0.7229868,0.6656622,0.014028086,0.18435565,0.9706341,0.15390156,-1.0,0
1763545339244,1009.9394,-0.97926265,4.5744786,11.642877,-0.22334744,0.20609051,0.1550833,54.43125,-40.518753,23.15625,46.950733,0.3361091,49.741684,0.10972235,0.14428164,0.7250947,0.6643654,0.011411652,0.1809032,0.9717136,0.15138209,-1.0,0
1763545339269,1009.9733,-1.1060823,4.9046884,12.310474,-0.1107956,0.28275403,0.32352927,55.781254,-39.75,21.28125,46.950733,0.3361091,49.741684,0.10739124,0.145119,0.7275926,0.6618283,0.008934658,0.18031244,0.97244674,0.14749548,-1.0,0
1763545339296,1009.9733,0.13579269,4.7545385,12.147164,0.27053675,-0.058108512,0.37041312,54.99375,-39.3375,21.1875,46.950733,0.3361091,49.741684,0.10718394,0.1466555,0.73037374,0.65845114,0.007886866,0.18147735,0.97290796,0.14301692,-1.0,0
1763545339321,1009.9865,0.20518455,4.0390844,11.610574,0.32551455,-0.18409938,0.25725043,53.568752,-40.48125,22.63125,46.950733,0.3361091,49.741684,0.11372348,0.14846501,0.73328364,0.6536973,0.012360571,0.18660681,0.9726683,0.13762814,-1.0,0
1763545339346,1009.9726,-0.4127619,3.153142,11.096715,0.43485937,0.11094832,0.26015204,53.98125,-39.1875,22.050001,46.950733,0.3361091,49.741684,0.11589497,0.15173627,0.7344538,0.6512466,0.012309947,0.1905361,0.97231543,0.13471149,-1.0,0
1763545339371,1009.9726,-0.71306115,2.818147,8.126026,0.45150542,0.084375694,0.34124434,54.487503,-41.006252,22.575,46.950733,0.3361091,49.741684,0.117235094,0.15733954,0.7361898,0.6477073,0.010230091,0.1959468,0.97185636,0.13036637,-1.0,0
1763545339396,1009.92596,-0.20338993,2.7074788,7.496115,0.11369721,-0.25694498,0.17921245,54.73125,-41.98125,22.743752,46.950733,0.3361091,49.741684,0.11975287,0.16065986,0.7377221,0.6446811,0.010399642,0.20011047,0.97150445,0.12659673,-1.0,0
1763545339422,1009.9108,-0.40977088,2.4532413,8.212766,-0.24671301,-0.26992586,-0.0040469794,54.525,-40.987503,20.868752,46.950733,0.3361091,49.741684,0.12272851,0.15604143,0.7384197,0.6444572,0.0153326625,0.1979296,0.9720277,0.12550242,-1.0,0
1763545339447,1009.9108,-1.7431713,1.7892331,9.71486,-0.30062184,0.20502149,0.07047852,50.643753,-41.04375,24.056252,46.950733,0.3361091,49.741684,0.119680084,0.15325058,0.73876065,0.645309,0.01426364,0.19392164,0.9728398,0.12559336,-1.0,0
1763545339472,1009.8837,-1.8370895,1.9758734,9.412168,-0.10621411,0.19723296,0.2409098,52.050003,-39.9,23.681252,46.950733,0.3361091,49.741684,0.11587374,0.15215157,0.7398901,0.64496964,0.011573087,0.19090022,0.9736797,0.123979926,-1.0,0
1763545339497,1009.8747,-1.5050855,2.289333,8.787043,0.030161448,0.08575014,0.3681224,51.487503,-39.7125,24.825,46.950733,0.3361091,49.741684,0.11322037,0.15260035,0.74408805,0.6404899,0.008825493,0.18980998,0.9748548,0.11641445,-1.0,0
1763545339522,1009.8747,-0.948156,2.5543382,8.355737,0.11339177,0.052458014,0.44050986,50.8875,-39.9,23.6625,46.950733,0.3361091,49.741684,0.113894396,0.15323421,0.7466947,0.63717693,0.008918205,0.19071738,0.9752361,0.111632876,-1.0,0
1763545339547,1009.85565,-0.33080772,3.1375887,7.73779,0.2635118,0.09674571,0.45639235,51.15,-39.99375,24.093752,46.950733,0.3361091,49.741684,0.11496634,0.15458855,0.74935275,0.6335264,0.009016101,0.19244114,0.9754222,0.10694229,-1.0,0
1763545339573,1009.85565,-0.06759724,3.4007993,7.376474,0.2748128,0.049709123,0.40645415,51.487503,-40.4625,24.393751,46.950733,0.3361091,49.741684,0.11845474,0.15845734,0.7539488,0.6264351,0.009659755,0.19760299,0.97531796,0.09805401,-1.0,0
1763545339597,1009.83905,0.12921242,3.598207,7.2903323,0.2192241,-0.023441937,0.30932665,49.95,-40.987503,23.19375,46.950733,0.3361091,49.741684,0.12053599,0.15960418,0.7554472,0.62393683,0.010755219,0.19971666,0.97515905,0.095196865,-1.0,0
1763545339622,1009.83856,-0.07716853,3.6616168,8.193623,0.14317143,-0.04619665,0.12851068,52.4625,-41.5875,22.96875,46.950733,0.3361091,49.741684,0.12243095,0.1600317,0.7562949,0.62242955,0.0121195465,0.20112833,0.9750048,0.09362766,-1.0,0
1763545339647,1009.83856,-0.33320054,3.7226338,8.576474,0.20899211,0.012904518,0.1419497,50.531254,-40.93125,23.90625,46.950733,0.3361091,49.741684,0.12387519,0.16066255,0.7567888,0.62138015,0.012964045,0.2024585,0.97482836,0.09247764,-1.0,0
1763545339672,1009.84735,-0.3894319,3.8823547,8.72124,0.3180315,0.026190827,0.17463097,49.143753,-40.4625,24.956251,46.950733,0.3361091,49.741684,0.12713973,0.16443336,0.7578912,0.61838347,0.01348591,0.20741495,0.9741021,0.08900736,-1.0,0
1763545339697,1009.8571,-0.07956135,4.121637,8.620742,0.37927067,-0.06131555,0.16058108,49.66875,-40.65,25.66875,46.950733,0.3361091,49.741684,0.13010666,0.16669308,0.75815696,0.6168337,0.014662464,0.21094865,0.9734643,0.08748114,-1.0,0
1763545339723,1009.8571,0.85483587,4.2538404,8.532805,0.020540329,-0.2164752,-0.18425208,50.025,-41.86875,25.406252,46.950733,0.3361091,49.741684,0.13339579,0.16766064,0.7576142,0.61653554,0.01686899,0.21358833,0.97283924,0.08763124,-1.0,0
1763545339748,1009.8808,0.421735,4.5152564,9.322437,-0.30627233,-0.082848534,-0.3577377,49.350002,-40.93125,24.6375,46.950733,0.3361091,49.741684,0.13337675,0.16437341,0.75447017,0.6212623,0.018795442,0.21084283,0.97282857,0.093790114,-1.0,0
1763545339773,1009.8808,-0.47676992,4.690531,10.890334,-0.45181087,0.075670876,-0.3965276,50.175003,-41.9625,24.150002,46.950733,0.3361091,49.741684,0.12945387,0.16207433,0.75288445,0.62461084,0.016761625,0.20674971,0.9734144,0.09714927,-1.0,0
1763545339798,1009.9145,-0.276371,4.5481577,12.492329,0.010766491,-0.046807513,-0.13782637,49.987503,-40.5,26.1,46.950733,0.3361091,49.741684,0.12645382,0.1607232,0.7518439,0.6268239,0.014936986,0.20395932,0.9738334,0.09912633,-1.0,0
1763545339823,1009.94183,0.59641105,4.5523453,11.769696,0.19830199,-0.13843723,-0.16058108,51.375004,-39.600002,23.8875,46.950733,0.3361091,49.741684,0.1284032,0.16115862,0.74954104,0.6290698,0.016219558,0.20541763,0.97322506,0.1018503,-1.0,0
1763545339849,1009.94183,0.98644114,4.3184466,10.953744,0.21494804,-0.027565273,-0.31039566,52.237503,-40.3875,24.618752,46.950733,0.3361091,49.741684,0.12955339,0.16266672,0.7473364,0.63106555,0.01635977,0.20730872,0.9724993,0.10488345,-1.0,0
1763545339874,1009.9333,-0.025722843,3.0323045,9.4636135,-0.013515383,0.026954409,-0.53458303,51.2625,-41.60625,24.7875,46.950733,0.3361091,49.741684,0.12875324,0.16486837,0.74447495,0.6340332,0.014490657,0.20868397,0.9717746,0.109064996,-1.0,0
1763545339900,1009.93207,-0.19621146,2.364707,9.851849,-0.19982915,-0.2926806,-0.497473,53.41875,-41.1375,23.775002,46.950733,0.3361091,49.741684,0.12752174,0.16536312,0.7412903,0.63787305,0.013176672,0.20840617,0.97129196,0.11395271,-1.0,0
1763545339925,1009.93207,0.08255238,1.7318054,10.633704,-0.2587776,-0.37148213,-0.36659524,52.3875,-40.256252,25.518751,46.950733,0.3361091,49.741684,0.12743568,0.15825482,0.73597246,0.64580196,0.016999584,0.20247334,0.9713708,0.12310282,-1.0,0
1763545339950,1009.9323,0.44985065,1.6642082,10.000204,-0.0043524117,0.23174682,0.005268709,53.775,-39.35625,24.093752,46.950733,0.3361091,49.741684,0.12649402,0.15593648,0.7350483,0.647601,0.017497793,0.20002687,0.9716244,0.12501667,-1.0,0
1763545339975,1009.9323,0.45403808,2.2965117,8.610572,0.10713041,0.26962045,0.13843723,53.025,-41.662502,23.212502,46.950733,0.3361091,49.741684,0.12452877,0.15674764,0.7354778,0.6472984,0.015390292,0.19960055,0.9718264,0.124403715,-1.0,0
1763545340001,1009.9028,0.70169526,2.800799,7.417152,0.09812015,0.12728895,0.20166174,52.331253,-40.74375,23.400002,46.950733,0.3361091,49.741684,0.123439424,0.15965632,0.7378789,0.6440553,0.012873428,0.20139939,0.9719909,0.12044224,-1.0,0
1763545340026,1009.8754,1.3770695,3.501896,7.5379896,-0.030161448,-0.060093824,-0.0035888306,51.112503,-41.5125,26.04375,46.950733,0.3361091,49.741684,0.12427012,0.15903662,0.73886824,0.64291376,0.013960337,0.20134749,0.9721407,0.11919198,-1.0,0
1763545340052,1009.8754,0.9804591,3.362514,7.752745,0.06818778,0.05780308,-0.1625664,53.756252,-41.7,22.837502,46.950733,0.3361091,49.741684,0.124836296,0.15825732,0.73886573,0.6429992,0.01494431,0.2010128,0.9721398,0.119644225,-1.0,0
1763545340077,1009.8481,0.16271193,3.4133615,7.103692,0.15248711,0.13645191,-0.21296273,52.48125,-42.09375,23.925001,46.950733,0.3361091,49.741684,0.124633886,0.16123009,0.736483,0.6450303,0.013176451,0.20335959,0.971263,0.12296133,-1.0,0
1763545340102,1009.8112,-0.4336991,3.7268212,6.4719872,0.083612114,0.108657576,-0.18012875,52.612503,-40.725002,24.750002,46.950733,0.3361091,49.741684,0.12419166,0.16287296,0.7353318,0.6460155,0.01186253,0.20447604,0.9708769,0.12428571,-1.0,0
1763545340127,1009.8112,-0.8105687,3.9924245,7.1509504,-0.18654284,0.0240528,-0.04925097,51.881252,-42.16875,24.45,46.950733,0.3361091,49.741684,0.12314037,0.16320361,0.7346568,0.64690053,0.010797924,0.20416264,0.9708174,0.12535791,-1.0,0
1763545340152,1009.8073,-0.61854464,3.9870408,7.986644,-0.20181446,0.016722424,0.05459604,52.593754,-41.7,22.800001,46.950733,0.3361091,49.741684,0.12049385,0.1611416,0.7352636,0.64722645,0.009672542,0.20097718,0.9715554,0.1248787,-1.0,0
1763545340177,1009.8266,-0.34456646,4.025924,9.180662,-0.07750347,-0.0005345067,0.14256057,51.225002,-41.850002,24.0375,46.950733,0.3361091,49.741684,0.12025099,0.16047938,0.7362642,0.646298,0.009829313,0.20029306,0.9718728,0.12348829,-1.0,0
1763545340202,1009.8266,-0.6867401,4.2628136,10.05823,0.33589926,-0.100869045,0.349491,52.031254,-41.5125,23.625,46.950733,0.3361091,49.741684,0.121814035,0.16110373,0.73736554,0.64459205,0.010738429,0.20168729,0.9718528,0.12128123,-1.0,0
1763545340227,1009.84906,-0.4546363,4.4279184,9.890733,0.3748419,-0.09445497,0.46922052,52.125004,-40.893753,24.656252,46.950733,0.3361091,49.741684,0.1250661,0.16249876,0.73888165,0.64187735,0.012589709,0.20466772,0.97162503,0.11788715,-1.0,0
1763545340252,1009.84906,0.01794617,4.718048,9.8428755,0.30367616,-0.0112246405,0.50342894,51.131252,-42.24375,24.075,46.950733,0.3361091,49.741684,0.13151021,0.16556709,0.7436597,0.634242,0.016154712,0.21082321,0.9713349,0.10863313,-1.0,0
1763545340277,1009.873,0.567099,4.8933225,10.77847,0.12011129,0.2673297,0.23632832,51.750004,-41.41875,24.112501,46.950733,0.3361091,49.741684,0.13279983,0.16682032,0.7459027,0.6310026,0.016563574,0.21258049,0.9713565,0.104889296,-1.0,0
1763545340303,1009.9028,-0.38883367,4.9531426,10.959127,0.17600541,0.5142718,0.22243114,52.575,-41.081253,22.612501,46.950733,0.3361091,49.741684,0.13214782,0.16887979,0.74752015,0.6286734,0.014906999,0.2139187,0.9713738,0.102222726,-1.0,0
1763545340328,1009.9028,-0.7926225,5.131408,10.286744,0.14317143,0.29695663,0.31955865,51.2625,-42.3375,23.90625,46.950733,0.3361091,49.741684,0.12903209,0.17547902,0.7512739,0.6230132,0.008553614,0.21764421,0.97134733,0.095090225,-1.0,0
1763545340353,1009.9162,0.101694964,5.014758,10.540383,-0.06101012,-0.25083634,0.27557638,51.187504,-42.61875,25.0125,46.950733,0.3361091,49.741684,0.13100275,0.17323007,0.7527093,0.6214968,0.011409664,0.21688753,0.9717023,0.09286712,-1.0,0
1763545340378,1009.94183,0.005383851,3.397808,12.024532,-0.10713041,0.077961616,0.044516772,48.881252,-41.850002,23.98125,46.950733,0.3361091,49.741684,0.1323213,0.1694901,0.7534233,0.62138355,0.014630235,0.21452686,0.97221607,0.09252068,-1.0,0
1763545340403,1009.94183,-0.66699934,2.9760733,10.968101,0.022525638,0.28596106,0.102090776,51.206253,-41.850002,24.50625,46.950733,0.3361091,49.741684,0.13097458,0.16872635,0.75404197,0.6211263,0.013918533,0.21314125,0.97259474,0.09185058,-1.0,0
1763545340428,1009.9267,-0.55513483,3.3493536,10.017552,-0.011377357,-0.03733911,0.11904228,51.112503,-42.46875,22.6875,46.950733,0.3361091,49.741684,0.12891999,0.1695366,0.7557462,0.61926144,0.011598076,0.21266995,0.97303003,0.0885973,-1.0,0
1763545340454,1009.9267,0.2542374,2.8241289,9.794421,-0.23006694,-0.09796744,-0.24503313,49.74375,-42.61875,23.925001,46.950733,0.3361091,49.741684,0.13020042,0.1665075,0.7552982,0.620361,0.014318297,0.21088356,0.9732928,0.08957792,-1.0,0
1763545340479,1009.9174,-0.55752766,2.6135604,9.385248,-0.24549128,0.29909468,-0.2842812,50.943752,-42.61875,22.575,46.950733,0.3361091,49.741684,0.12902312,0.16421436,0.75413597,0.62262803,0.014614533,0.20832604,0.97361034,0.09203053,-1.0,0
1763545340505,1009.8759,-1.0462617,2.5722845,8.711669,-0.15722132,0.4814378,-0.19036074,50.906254,-42.6375,24.73125,46.950733,0.3361091,49.741684,0.11957767,0.16620791,0.75290376,0.62546945,0.0055031423,0.20467927,0.97426635,0.09424024,-1.0,0
1763545340530,1009.8759,-0.7752745,2.8121648,7.2341013,0.06360629,0.13889538,-0.015806125,50.49375,-43.29375,24.0375,46.950733,0.3361091,49.741684,0.11633333,0.16826692,0.7529536,0.6254708,0.0015755167,0.20455982,0.97434825,0.09379925,-1.0,0
1763545340555,1009.82513,-0.9870393,2.8456643,7.0378895,0.10957387,-0.053985175,0.03092503,52.237503,-42.73125,22.44375,46.950733,0.3361091,49.741684,0.11552472,0.16958322,0.75290513,0.62532353,0.00010935684,0.2051936,0.97425145,0.0934326,-1.0,0
1763545340580,1009.788,-0.89072824,2.6602206,7.015756,0.16012293,-0.0891099,0.16577344,51.412502,-42.45,22.66875,46.950733,0.3361091,49.741684,0.11816644,0.17055608,0.75345653,0.6238995,0.0015960418,0.20748527,0.9739725,0.091240585,-1.0,0
1763545340606,1009.788,-0.37627137,3.0149565,6.942177,0.13492475,-0.17997603,0.17554727,50.756252,-42.768753,22.743752,46.950733,0.3361091,49.741684,0.12036224,0.17083083,0.7544764,0.62216955,0.003219,0.20894946,0.97385687,0.089065164,-1.0,0
1763545340631,1009.77606,0.1363909,3.6664026,7.1742806,0.06055197,-0.2022726,0.018555017,52.612503,-42.43125,21.300001,46.950733,0.3361091,49.741684,0.122840405,0.17052272,0.7550999,0.62101233,0.005452099,0.21009056,0.97371507,0.08781329,-1.0,0
1763545340656,1009.7812,-0.3361916,3.723232,7.4458656,-0.040088,-0.18562654,-0.09155336,49.706253,-43.612503,23.0625,46.950733,0.3361091,49.741684,0.12585424,0.16852131,0.75414705,0.62211215,0.009063515,0.21013466,0.97354984,0.089230135,-1.0,0
1763545340682,1009.7812,-0.9882358,3.6610186,8.00459,-0.088651754,-0.16348268,-0.085292,50.5875,-43.65,22.050001,46.950733,0.3361091,49.741684,0.1262652,0.16713083,0.7535485,0.6231285,0.010109442,0.20922098,0.9736609,0.090049244,-1.0,0
1763545340707,1009.79486,-0.6729814,3.7489548,9.720842,0.11415535,-0.32215482,0.07506001,49.8375,-42.99375,23.325,46.950733,0.3361091,49.741684,0.12746635,0.16542892,0.75340277,0.6235141,0.011985254,0.20849642,0.9737906,0.090096906,-1.0,0
1763545340732,1009.79486,-0.15134603,3.867998,9.804591,0.27145302,-0.37728536,0.05093085,50.062504,-42.581253,23.118752,46.950733,0.3361091,49.741684,0.1347154,0.1638061,0.752671,0.6233023,0.018747782,0.21125622,0.9731261,0.08969357,-1.0,0
1763545340757,1009.8134,0.16869399,3.9128633,9.276974,0.2334267,-0.39805475,-0.03489565,48.506252,-43.631252,24.88125,46.950733,0.3361091,49.741684,0.13890691,0.16306697,0.75158215,0.6238897,0.022607593,0.21301377,0.97256625,0.09071353,-1.0,0
1763545340782,1009.84125,0.14416756,4.2592244,9.781859,-0.30382887,-0.019165883,-0.25648686,48.075,-43.66875,23.85,46.950733,0.3361091,49.741684,0.14067689,0.1611269,0.7503473,0.6254815,0.025149137,0.21241322,0.9724519,0.092657655,-1.0,0
1763545340807,1009.84125,-0.5922236,4.47398,10.654641,-0.36980227,0.2164752,-0.29924738,48.225002,-44.4,23.268751,46.950733,0.3361091,49.741684,0.13858825,0.15910779,0.7492476,0.62777865,0.024565555,0.20956747,0.9728409,0.09517674,-1.0,0
1763545340832,1009.86053,-1.2789637,4.674379,11.140384,-0.2720639,0.1711185,-0.21387903,48.281254,-44.775,24.206251,46.950733,0.3361091,49.741684,0.13074102,0.15766601,0.74757123,0.6318112,0.018746616,0.20396164,0.97380954,0.09870765,-1.0,0
1763545340857,1009.88763,0.1477568,4.7341995,11.086546,-0.06849321,-0.16577344,-0.11827869,51.225002,-43.350002,23.5125,46.950733,0.3361091,49.741684,0.12976794,0.15686361,0.7470634,0.6328115,0.018293606,0.20275912,0.97400683,0.09932134,-1.0,0
1763545340883,1009.88763,0.67477596,4.7210393,11.030912,-0.122707464,-0.15294527,-0.24900375,49.893753,-44.2125,21.993752,46.950733,0.3361091,49.741684,0.13033864,0.15549129,0.7462367,0.6340073,0.019506622,0.20195343,0.9740182,0.10061208,-1.0,0
1763545340908,1009.914,0.42652065,4.2335014,11.210374,-0.1164461,0.05108357,-0.34826928,51.187504,-43.59375,22.743752,46.950733,0.3361091,49.741684,0.12889294,0.1536328,0.7428442,0.6387222,0.019406341,0.19959915,0.9738668,0.10661612,-1.0,0
1763545340933,1009.914,-0.11006984,3.702893,10.758729,-0.010461059,0.17692171,-0.3013854,48.99375,-43.443752,24.206251,46.950733,0.3361091,49.741684,0.12700166,0.15486252,0.7412444,0.64065975,0.017120305,0.19954628,0.9736601,0.108968616,-1.0,0
1763545340959,1009.9079,1.1910275,2.7882366,9.549157,-0.037644543,-0.26290092,-0.29237515,48.656254,-43.725002,23.175001,46.950733,0.3361091,49.741684,0.12695098,0.15513943,0.73964983,0.64244324,0.016923128,0.19974585,0.97335345,0.11134744,-1.0,0
1763545340984,1009.9106,1.2879368,2.4526432,9.834501,-0.14912736,-0.32154396,-0.35453063,47.8875,-43.068752,24.45,46.950733,0.3361091,49.741684,0.12904768,0.15009399,0.7353338,0.6481532,0.021574361,0.19676396,0.97298354,0.11883409,-1.0,0
1763545341009,1009.9106,0.9954142,2.179263,10.113863,-0.19265148,-0.10789399,-0.358654,50.79375,-43.256252,23.7,46.950733,0.3361091,49.741684,0.12800317,0.14797178,0.73332196,0.65112096,0.021932006,0.1944208,0.9729899,0.12251575,-1.0,0
1763545341034,1009.9108,0.18664017,2.681756,9.352347,0.002367101,0.34307694,-0.15111268,51.675003,-43.29375,22.987501,46.950733,0.3361091,49.741684,0.1251733,0.14820252,0.73216,0.6529237,0.019456778,0.19301237,0.9730575,0.124606535,-1.0,0
1763545341059,1009.8781,0.19920248,3.0849466,8.59442,0.17432554,0.27939427,-0.10377065,53.04375,-43.143753,22.21875,46.950733,0.3361091,49.741684,0.12241428,0.15026924,0.7316643,0.6535298,0.01599626,0.19315852,0.9730019,0.12530467,-1.0,0
1763545341084,1009.8781,0.25603202,3.3517463,7.728817,0.31879506,0.16058108,-0.12851068,51.881252,-44.5125,22.10625,46.950733,0.3361091,49.741684,0.122133456,0.15654336,0.73003125,0.6539358,0.0121884225,0.19817628,0.97190267,0.12642294,-1.0,0
1763545341109,1009.8183,0.1268196,3.4624143,6.1034923,0.29436046,0.19310963,-0.20288347,51.843754,-44.53125,23.962502,46.950733,0.3361091,49.741684,0.123329066,0.16014773,0.72853255,0.65450966,0.0111277355,0.2018255,0.97099656,0.1277042,-1.0,0
1763545341135,1009.8183,-0.39840496,3.6975093,5.610571,0.14683662,0.21891867,-0.20639594,52.7625,-42.9375,23.94375,46.950733,0.3361091,49.741684,0.1236668,0.16378897,0.7270032,0.655245,0.009326358,0.2050203,0.97016406,0.1290792,-1.0,0
1763545341160,1009.77606,-0.50428736,3.866203,5.6171513,-0.06253728,0.14607304,-0.21861324,54.112503,-44.175003,24.6375,46.950733,0.3361091,49.741684,0.12128314,0.1676767,0.7245275,0.6574457,0.005114349,0.206879,0.9693975,0.1320734,-1.0,0
1763545341185,1009.7607,-0.48993045,3.8494534,6.2811594,-0.24625486,0.09033163,-0.2352593,53.23125,-44.1375,24.88125,46.950733,0.3361091,49.741684,0.118862875,0.16703561,0.72349524,0.6591854,0.003475911,0.20498097,0.9695346,0.1340648,-1.0,0
1763545341210,1009.7607,-0.8811569,3.7507496,8.129017,-0.32062766,0.032604907,-0.13706279,54.693752,-44.23125,23.6625,46.950733,0.3361091,49.741684,0.11592998,0.16565636,0.7227578,0.6608626,0.0018081258,0.20218436,0.969896,0.13572013,-1.0,0
1763545341235,1009.77435,-0.9774681,3.714259,9.124431,-0.23648103,0.017027855,-0.009086614,53.775,-43.818752,22.95,46.950733,0.3361091,49.741684,0.11343257,0.16391252,0.7224032,0.66211736,0.0006983021,0.19933333,0.97033995,0.13677022,-1.0,0
1763545341260,1009.8073,-0.8787641,3.7627137,10.00798,-0.06879865,0.030619597,0.14179699,53.381252,-44.23125,23.325,46.950733,0.3361091,49.741684,0.111160524,0.162027,0.72376096,0.6614837,-0.00025769716,0.19649261,0.97120404,0.13473429,-1.0,0
1763545341285,1009.8073,-0.7052845,4.2388854,10.433903,0.19020802,-0.049098257,0.41928232,54.2625,-44.268753,22.931252,46.950733,0.3361091,49.741684,0.1122445,0.16232018,0.7253802,0.65945196,0.00044330384,0.19734861,0.9714038,0.1320154,-1.0,0
1763545341310,1009.8383,0.13399807,4.423731,10.460224,0.19341506,-0.046043932,0.4473821,54.206253,-42.91875,24.712502,46.950733,0.3361091,49.741684,0.11437362,0.16289099,0.72768897,0.6563946,0.0018005609,0.19902651,0.9716195,0.12783118,-1.0,0
1763545341335,1009.87177,0.74536425,4.529015,10.4159565,0.10300707,0.012904518,0.30596688,51.225002,-45.35625,25.312502,46.950733,0.3361091,49.741684,0.11795301,0.16367224,0.73200226,0.6507466,0.004307636,0.20170017,0.97196674,0.12074432,-1.0,0
1763545341360,1009.87177,-1.1264212,4.9812584,11.067403,-0.050625417,0.578718,0.25541782,52.706253,-44.568752,24.50625,46.950733,0.3361091,49.741684,0.11640576,0.16478175,0.73354614,0.64900446,0.002439814,0.20173591,0.972229,0.11860638,-1.0,0
1763545341385,1009.88934,-1.3244274,5.203791,10.822139,-0.00481056,0.5284744,0.39041895,51.131252,-43.612503,25.237501,46.950733,0.3361091,49.741684,0.112372674,0.16783676,0.7358513,0.64631736,-0.0026608063,0.20196463,0.9726303,0.11486294,-1.0,0
1763545341410,1009.88934,-0.360718,5.131408,11.007583,-0.031688612,-0.060704686,0.36293003,52.781254,-43.331253,26.737501,46.950733,0.3361091,49.741684,0.110074475,0.16999209,0.7410376,0.6401949,-0.005865286,0.20243345,0.9734756,0.10644985,-1.0,0
1763545341435,1009.9108,0.42532423,4.150351,12.065808,-0.01244637,-0.41607526,0.18547381,51.24375,-43.725002,25.837502,46.950733,0.3361091,49.741684,0.11337058,0.16687709,0.7418079,0.6395469,-0.0013697736,0.20173989,0.97373474,0.10554547,-1.0,0
1763545341460,1009.925,-1.1060823,2.8510482,11.224133,0.3343721,0.15706861,0.22090398,49.968754,-44.34375,24.31875,46.950733,0.3361091,49.741684,0.11559693,0.16632366,0.74215925,0.63888454,0.0007546243,0.20254788,0.9736599,0.1046914,-1.0,0
1763545341485,1009.925,-1.1276177,3.1950164,9.489935,0.30596688,0.12698352,0.30703592,54.6375,-44.49375,23.98125,46.950733,0.3361091,49.741684,0.117624074,0.17167173,0.74473226,0.6340878,-0.00080146303,0.20810087,0.97314507,0.09839731,-1.0,0
1763545341510,1009.89325,-0.26261228,3.2913275,8.762517,0.124692775,-0.08269582,0.17295109,53.5875,-43.10625,24.31875,46.950733,0.3361091,49.741684,0.11915954,0.17177758,0.7455026,0.632866,0.00034939876,0.20906079,0.97310865,0.09671087,-1.0,0
1763545341535,1009.89325,-0.9409775,2.5399811,8.377272,-0.15691589,0.1918879,-0.21448989,52.612503,-44.9625,25.612501,46.950733,0.3361091,49.741684,0.11896867,0.17103769,0.7450328,0.633655,0.00060315046,0.20834364,0.9731755,0.09758056,-1.0,0
1763545341561,1009.8586,-1.7174485,2.4047868,7.864012,-0.19249876,0.35743225,-0.16210824,52.218754,-44.23125,22.837502,46.950733,0.3361091,49.741684,0.11605834,0.17119132,0.74421424,0.6351135,-0.0019461,0.20681444,0.97336406,0.09892622,-1.0,0
1763545341587,1009.81366,-1.8927227,2.4382863,7.468598,-0.20105088,0.28107417,-0.04054615,54.112503,-44.925003,24.525002,46.950733,0.3361091,49.741684,0.10795614,0.17258458,0.7442681,0.6361015,-0.0096579455,0.20333886,0.9740951,0.098482125,-1.0,0
1763545341612,1009.81366,-1.1952149,2.7236304,7.1042905,-0.12728895,-0.06467531,0.1503491,53.30625,-43.875,23.475,46.950733,0.3361091,49.741684,0.105936065,0.17213196,0.74509287,0.635598,-0.011169391,0.20180959,0.9745387,0.09706935,-1.0,0
1763545341637,1009.77606,-0.7896315,2.9910283,7.26102,-0.10147991,-0.17905974,0.1758527,53.568752,-44.60625,24.88125,46.950733,0.3361091,49.741684,0.10565707,0.17073472,0.74613774,0.63479507,-0.010676568,0.2004988,0.9749747,0.09544921,-1.0,0
1763545341662,1009.7609,-0.48873404,3.138187,7.571489,-0.05215258,-0.17951788,0.154167,52.725002,-43.18125,23.34375,46.950733,0.3361091,49.741684,0.107713275,0.16715881,0.74802315,0.6331802,-0.007064178,0.19873178,0.9756559,0.09247349,-1.0,0
1763545341687,1009.7609,-0.49471608,3.196811,7.641479,0.016569708,-0.14454588,0.12942697,52.631252,-44.943752,24.525002,46.950733,0.3361091,49.741684,0.10904629,0.16626337,0.74863523,0.632464,-0.0054934868,0.19875719,0.9757653,0.09136455,-1.0,0
1763545341712,1009.7397,-0.84167534,3.4869409,7.615756,-0.04130973,-0.20334162,0.075670876,50.5125,-44.4375,26.56875,46.950733,0.3361091,49.741684,0.11044785,0.16548944,0.74906707,0.63191223,-0.003957954,0.19892164,0.9758304,0.09038572,-1.0,0
1763545341737,1009.7509,-0.83030945,3.4713874,8.168498,-0.105908684,-0.17463097,0.07353285,49.912502,-43.875,25.518751,46.950733,0.3361091,49.741684,0.1123928,0.16219649,0.74975306,0.6316095,-0.00058963965,0.19733092,0.97627,0.089202195,-1.0,0
1763545341762,1009.7509,-0.7692925,3.5706897,8.983852,-0.09644028,-0.12331833,0.09582941,50.718754,-42.787502,24.91875,46.950733,0.3361091,49.741684,0.112739876,0.16070032,0.75033957,0.63123345,0.00048759795,0.19630241,0.9765645,0.08824343,-1.0,0
1763545341787,1009.7785,-0.15074782,3.7184465,9.792028,0.124998204,-0.13293944,0.046043932,50.1375,-43.4625,25.331251,46.950733,0.3361091,49.741684,0.11369891,0.15990064,0.7507866,0.6307328,0.0016711043,0.19619597,0.9766716,0.08727533,-1.0,0
1763545341812,1009.7785,-0.06580263,3.7830527,9.482756,0.18608469,-0.09720386,-0.049861837,53.568752,-43.350002,22.800001,46.950733,0.3361091,49.741684,0.11545318,0.15986176,0.7507419,0.63047713,0.003133164,0.19716847,0.9764879,0.08709875,-1.0,0
1763545341837,1009.7946,-0.13579269,3.6640096,8.996415,0.10560325,-0.08758274,-0.15080725,51.018753,-42.75,25.2,46.950733,0.3361091,49.741684,0.11826161,0.16094571,0.7488822,0.6318909,0.0048282295,0.19966479,0.9757667,0.089386575,-1.0,0
1763545341862,1009.8127,-0.22791636,3.7226338,8.760123,-0.12148573,-0.031688612,-0.24686573,51.787502,-42.65625,23.71875,46.950733,0.3361091,49.741684,0.11737484,0.16013838,0.7475282,0.6338615,0.0045635765,0.19849516,0.9757846,0.09177861,-1.0,0
1763545341888,1009.8127,-1.1491531,4.3645086,10.143773,-0.5310706,0.020540329,-0.3843103,51.318752,-41.98125,25.275002,46.950733,0.3361091,49.741684,0.11423724,0.15800844,0.7460772,0.63667256,0.0031867526,0.19495296,0.9762156,0.094796166,-1.0,0
1763545341913,1009.8483,-1.4267205,4.4321055,10.985449,-0.5446623,-0.08956805,-0.3342194,53.343754,-42.131252,24.750002,46.950733,0.3361091,49.741684,0.10678087,0.15097326,0.74309844,0.64312494,0.0009798813,0.18491653,0.9775347,0.10114749,-1.0,0
1763545341938,1009.88544,-1.0486546,4.4434714,11.508879,-0.50801045,-0.23021966,-0.23449571,54.2625,-41.4,22.462502,46.950733,0.3361091,49.741684,0.104802854,0.1462855,0.74210304,0.64567786,0.0019875427,0.17994203,0.97821563,0.103494644,-1.0,0
1763545341963,1009.88544,0.37387854,4.054638,12.881163,-0.30474517,-0.17188208,-0.24014622,55.36875,-41.04375,22.331251,46.950733,0.3361091,49.741684,0.10392721,0.14115244,0.74119395,0.64800197,0.004187152,0.17523511,0.9788192,0.10577392,-1.0,0
1763545341988,1009.92426,0.19740787,3.4157543,12.806985,0.049098257,0.1532507,-0.2850448,53.343754,-40.987503,21.45,46.950733,0.3361091,49.741684,0.10178802,0.13924009,0.73829854,0.65204805,0.0035679338,0.17244093,0.97874415,0.110956095,-1.0,0
1763545342013,1009.92426,-0.34337005,2.9401808,11.090733,0.41363183,0.19310963,-0.22701262,54.6375,-41.850002,20.4375,46.950733,0.3361091,49.741684,0.10255058,0.14338289,0.73652744,0.65303296,0.0017963961,0.17627265,0.97787124,0.112661205,-1.0,0
1763545342038,1009.90717,0.97806627,2.2642083,8.154141,0.27374378,-0.3617083,-0.21525347,56.156254,-40.5,25.612501,46.950733,0.3361091,49.741684,0.106404625,0.14583275,0.734556,0.6540936,0.0035216569,0.18049024,0.9768817,0.11451238,-1.0,0
1763545342063,1009.8891,1.6959131,2.2402802,8.215756,-0.06971494,-0.28305948,-0.31894776,54.881252,-41.850002,24.112501,46.950733,0.3361091,49.741684,0.110450365,0.14539433,0.7324837,0.6558421,0.007118375,0.18245034,0.97616696,0.117299676,-1.0,0
1763545342088,1009.8891,1.7353946,2.1918256,9.02453,-0.3099375,-0.040088,-0.4482984,55.518753,-40.3875,21.1875,46.950733,0.3361091,49.741684,0.10965622,0.14052308,0.7279461,0.66205984,0.009397235,0.17799696,0.9759188,0.12574261,-1.0,0
1763545342113,1009.88495,1.1796615,2.1750758,9.594621,-0.3511709,0.14072797,-0.48632473,54.375004,-42.2625,22.800001,46.950733,0.3361091,49.741684,0.10585797,0.13896637,0.72553164,0.6656473,0.007222214,0.1745434,0.97595954,0.13032794,-1.0,0
1763545342138,1009.8681,0.17826529,2.8037899,9.291928,-0.046043932,0.08223767,-0.37697992,55.143753,-39.956253,22.59375,46.950733,0.3361091,49.741684,0.10284302,0.13838354,0.72321874,0.66875106,0.0051271208,0.17233804,0.9758069,0.13444057,-1.0,0
1763545342163,1009.8681,0.025722843,3.042474,8.539984,0.091400646,0.05291616,-0.31467173,58.29375,-39.61875,22.237501,46.950733,0.3361091,49.741684,0.101340964,0.13993168,0.7188581,0.67334396,0.0030204433,0.17274764,0.9748509,0.14076516,-1.0,0
1763545342188,1009.8244,-0.06580263,3.2739797,7.6588273,0.16485713,0.07261655,-0.29130614,57.225002,-39.73125,23.1375,46.950733,0.3361091,49.741684,0.10163891,0.14183381,0.7168118,0.6750804,0.0021879615,0.17447782,0.9741569,0.14342614,-1.0,0
1763545342213,1009.8244,-0.20398813,3.618546,6.780661,0.10728313,0.052305296,-0.27053675,56.5875,-41.41875,23.60625,46.950733,0.3361091,49.741684,0.101909496,0.14375985,0.7148517,0.6767087,0.0013111503,0.17621213,0.9734784,0.14590225,-1.0,0
1763545342238,1009.7902,-0.22971097,3.751946,6.966703,0.06436988,0.0041996953,-0.2842812,57.24375,-40.350002,23.00625,46.950733,0.3361091,49.741684,0.102077425,0.14527024,0.7129647,0.67834955,0.00060463266,0.17754683,0.97285306,0.1484376,-1.0,0
1763545342263,1009.7695,-0.49232325,3.940979,7.2502527,0.016111558,-0.030314164,-0.26962045,57.318752,-40.8375,21.806252,46.950733,0.3361091,49.741684,0.10242778,0.14656223,0.70914423,0.6820136,0.00019125848,0.17880689,0.9717829,0.15383762,-1.0,0
1763545342288,1009.7695,-0.8703892,4.0235314,8.59801,-0.009392046,0.022678355,-0.06284271,59.11875,-41.381252,20.71875,46.950733,0.3361091,49.741684,0.10232538,0.14654365,0.7078474,0.68337876,0.00012902345,0.17873307,0.97149026,0.1557597,-1.0,0
1763545342313,1009.7753,-0.65264237,4.1587257,9.156734,0.081779525,0.046043932,0.017333288,58.050003,-40.03125,22.59375,46.950733,0.3361091,49.741684,0.102092616,0.14691702,0.7074346,0.6837608,-0.00029120684,0.1789062,0.97138387,0.15622371,-1.0,0
1763545342338,1009.79095,-0.7639086,4.2406797,9.553943,0.2022726,-0.016111558,0.05780308,56.156254,-39.112503,24.13125,46.950733,0.3361091,49.741684,0.10405171,0.14925735,0.70751625,0.68287355,-2.0062123e-05,0.18194646,0.970941,0.15546407,-1.0,0
1763545342364,1009.79095,-0.9379865,4.2508492,9.829117,0.2966512,-0.08666644,0.13645191,56.456253,-40.6875,22.181252,46.950733,0.3361091,49.741684,0.10681023,0.15072326,0.70787334,0.68175465,0.0014005121,0.18472674,0.970597,0.15432258,-1.0,0
1763545342389,1009.81464,-0.0029910284,4.290331,9.763913,0.21296273,-0.0017562362,0.13003784,55.706253,-40.0125,22.837502,46.950733,0.3361091,49.741684,0.1095795,0.15246536,0.7085789,0.68019307,0.0026713538,0.18773977,0.970286,0.1526162,-1.0,0
1763545342414,1009.81464,-0.054436713,4.284349,10.033704,0.029245151,0.08025236,0.04130973,56.062504,-41.100002,23.493752,46.950733,0.3361091,49.741684,0.11118605,0.15440528,0.70945233,0.67858243,0.0029563366,0.19024876,0.9700201,0.15118738,-1.0,0
1763545342440,1009.85126,-0.79501534,4.5014977,10.6684,-0.08972076,0.24793474,0.07200569,56.1375,-40.8375,22.06875,46.950733,0.3361091,49.741684,0.10904979,0.15536523,0.71032,0.67780185,0.00064757775,0.18981515,0.9702915,0.15001406,-1.0,0
1763545342465,1009.8703,-0.7495517,5.2701917,11.116456,-0.08849903,0.2248746,0.22212571,57.16875,-40.74375,22.725,46.950733,0.3361091,49.741684,0.10614518,0.15704802,0.71207064,0.6760359,-0.0027218538,0.18953487,0.97073716,0.14743997,-1.0,0
1763545342490,1009.8703,-0.011365907,4.858028,11.469398,-0.1333976,-0.23403756,0.11873684,57.99375,-39.65625,21.975,46.950733,0.3361091,49.741684,0.10559091,0.15530129,0.71460426,0.6738493,-0.0021264881,0.18778552,0.9715259,0.14446272,-1.0,0
1763545342515,1009.9018,-0.10767702,3.8171504,12.622738,-0.07887791,-0.41485354,-0.00160352,56.925003,-39.768753,23.175001,46.950733,0.3361091,49.741684,0.10795351,0.15182094,0.71432424,0.6745645,0.0018301073,0.18627992,0.9716826,0.14535919,-1.0,0
1763545342541,1009.92206,-1.4500505,2.0757737,11.219945,0.5113702,0.15157083,0.1995237,56.11875,-39.35625,23.85,46.950733,0.3361091,49.741684,0.10985857,0.15214628,0.7140879,0.67443395,0.0031601104,0.18763638,0.97145075,0.14514163,-1.0,0
1763545342567,1009.92206,-0.96909314,2.57707,9.210572,0.47868893,-0.045585785,0.3001637,55.987503,-38.5125,24.112501,46.950733,0.3361091,49.741684,0.11539476,0.15867785,0.71599805,0.66996425,0.0037967577,0.19616371,0.97058547,0.13953206,-1.0,0
1763545342592,1009.8835,0.083748795,2.6679974,8.325228,0.199371,-0.25923574,0.1333976,57.525,-39.7125,22.800001,46.950733,0.3361091,49.741684,0.11860064,0.15804897,0.71629196,0.6692385,0.0067790854,0.19748324,0.97041553,0.13873735,-1.0,0
1763545342617,1009.8603,-0.6436693,2.0919251,8.82114,-0.19982915,0.22227842,-0.19295691,55.631252,-39.54375,24.675001,46.950733,0.3361091,49.741684,0.11849648,0.1566088,0.7157025,0.67022556,0.007543479,0.19624175,0.970479,0.14000997,-1.0,0
1763545342642,1009.8603,-1.4626129,2.0117657,8.665607,-0.13858995,0.32123852,-0.12896882,56.268753,-39.45,22.143751,46.950733,0.3361091,49.741684,0.115147606,0.1566402,0.71504056,0.6715071,0.0047523766,0.1943516,0.9706893,0.14130509,-1.0,0
1763545342668,1009.81757,-1.692922,2.1379871,8.12124,-0.028939718,0.18486296,0.03565923,57.112503,-39.61875,22.21875,46.950733,0.3361091,49.741684,0.10961801,0.15873992,0.7152276,0.67174035,-0.0011884319,0.19290686,0.97112566,0.14035825,-1.0,0
1763545342694,1009.81757,-0.87278205,2.9048867,6.9882383,-0.0029779659,-0.07108939,0.24518585,59.475002,-39.84375,18.112501,46.950733,0.3361091,49.741684,0.10973829,0.15882656,0.7162869,0.67057043,-0.0012276185,0.19304626,0.9713862,0.13834916,-1.0,0
1763545342719,1009.77484,-0.32482567,3.2889347,6.9894347,-0.07139482,-0.054901473,0.22502731,56.643753,-39.787502,22.425001,46.950733,0.3361091,49.741684,0.11046304,0.15817547,0.7177813,0.6690056,-0.00031302756,0.19292866,0.9717496,0.13594553,-1.0,0
1763545342745,1009.7575,0.031106694,3.4606197,7.2711897,-0.09078978,-0.0193186,0.13660464,54.768753,-41.2125,21.16875,46.950733,0.3361091,49.741684,0.11077587,0.15716588,0.7192724,0.66758883,0.00052504614,0.1922814,0.97215587,0.13394228,-1.0,0
1763545342770,1009.7575,-0.35114673,3.6287155,7.5571322,-0.04772381,-0.11751511,-0.055512335,56.193752,-39.825,21.862501,46.950733,0.3361091,49.741684,0.110768855,0.15551686,0.7204913,0.66666114,0.0015312679,0.1909264,0.97257614,0.1328173,-1.0,0
1763545342796,1009.7526,-0.7800602,3.6915271,7.726424,-0.064522594,-0.17127122,-0.07322741,55.85625,-39.375,21.712502,46.950733,0.3361091,49.741684,0.1113134,0.1545649,0.7200699,0.6672469,0.0025415276,0.19045871,0.9725542,0.13363153,-1.0,0
1763545342822,1009.75604,-0.84406817,3.6747773,8.230712,-0.07551816,-0.15783219,-0.041615162,56.98125,-39.0,20.493752,46.950733,0.3361091,49.741684,0.11254631,0.15191841,0.7191228,0.66866773,0.0050382987,0.18899865,0.9726154,0.13517904,-1.0,0
1763545342847,1009.75604,-0.53659046,3.7830527,8.99163,-0.032299474,-0.118125975,-0.019929463,56.062504,-39.206253,19.987501,46.950733,0.3361091,49.741684,0.11312128,0.15104476,0.718896,0.6690124,0.005998735,0.18861325,0.9726358,0.13553113,-1.0,0
1763545342873,1009.77826,-0.17168503,3.8590248,9.568898,0.31100652,0.0067958706,-0.1306487,55.74375,-39.99375,20.98125,46.950733,0.3361091,49.741684,0.114182614,0.15155923,0.71830606,0.6693494,0.006584969,0.18964311,0.9723372,0.13620752,-1.0,0
1763545342898,1009.7878,-0.30388847,3.8015969,8.812167,0.37636906,-0.053068876,-0.20456335,56.100002,-40.350002,21.900002,46.950733,0.3361091,49.741684,0.118526064,0.15633428,0.7150739,0.67095494,0.00742753,0.19604507,0.97059363,0.13949591,-1.0,0
1763545342923,1009.7878,-0.16390835,3.6717863,8.133204,0.20914483,-0.17142393,-0.31757334,54.562504,-39.99375,20.962502,46.950733,0.3361091,49.741684,0.12065356,0.15704246,0.7124966,0.6731486,0.0087779565,0.1978448,0.9697306,0.1428388,-1.0,0
1763545342948,1009.8,-1.0235299,3.9254255,9.171091,-0.5142718,0.010155627,-0.47823077,56.4,-38.925003,20.23125,46.950733,0.3361091,49.741684,0.1200299,0.15555786,0.7097577,0.67648995,0.009121,0.19627081,0.9694012,0.14715941,-1.0,0
1763545342974,1009.8,-1.6719848,3.9894335,10.839486,-0.6020836,0.04497492,-0.43455392,56.100002,-38.2125,20.85,46.950733,0.3361091,49.741684,0.11074723,0.14960067,0.7054039,0.68392986,0.004854137,0.1860692,0.9701669,0.15534095,-1.0,0
1763545343000,1009.8422,-1.7078772,3.984648,11.805589,-0.4803688,-0.102396205,-0.30749404,55.818752,-37.59375,18.375,46.950733,0.3361091,49.741684,0.107540324,0.14610344,0.70391345,0.6867275,0.004160019,0.18136658,0.97061676,0.15808843,-1.0,0
1763545343025,1009.89935,0.18544376,4.2299123,13.030714,-0.32627815,-0.40950847,-0.15309799,55.85625,-38.737503,20.2875,46.950733,0.3361091,49.741684,0.10685499,0.1413579,0.70289713,0.68886536,0.0063033663,0.17708842,0.97103053,0.16031104,-1.0,0
1763545343050,1009.89935,0.88354975,3.8602211,13.56551,-0.12881611,-0.12316561,-0.24136795,55.10625,-37.55625,18.6,46.950733,0.3361091,49.741684,0.10701956,0.13461585,0.7004039,0.69271904,0.0103960745,0.17165817,0.9711194,0.16538607,-1.0,0
1763545343075,1009.9577,0.7304091,3.1160533,12.757932,0.15462515,0.18135048,-0.30749404,57.187504,-38.081253,18.2625,46.950733,0.3361091,49.741684,0.106446356,0.1367144,0.69840366,0.6944139,0.0087590255,0.17304604,0.9704182,0.16812742,-1.0,0
1763545343100,1009.9548,1.2107682,2.152344,10.276575,0.3013854,-0.23495387,-0.18944444,57.112503,-39.09375,19.556252,46.950733,0.3361091,49.741684,0.10802343,0.13883403,0.69634736,0.69581354,0.008859652,0.17568567,0.9695127,0.17059062,-1.0,0
1763545343125,1009.9548,2.1708884,2.0315065,9.808778,0.20853396,-0.16165009,-0.2041052,57.24375,-37.8375,18.54375,46.950733,0.3361091,49.741684,0.11135654,0.13897023,0.6944996,0.69710636,0.011550434,0.17770648,0.9687032,0.17291936,-1.0,0
1763545343150,1009.96014,2.5968108,2.1870399,9.276375,0.08300125,0.08071051,-0.3343721,56.11875,-38.943752,19.35,46.950733,0.3361091,49.741684,0.113559306,0.13953376,0.69063514,0.7004696,0.013261922,0.17941435,0.96723676,0.17913017,-1.0,0
1763545343175,1009.9316,2.158326,2.617748,8.26122,-0.029550584,0.25007278,-0.48388126,56.081253,-39.206253,18.900002,46.950733,0.3361091,49.741684,0.11140453,0.14104854,0.6879947,0.7031057,0.010756671,0.17941558,0.9664489,0.18349619,-1.0,0
1763545343201,1009.9316,0.68075806,2.8743782,7.704889,0.015958842,0.12637265,-0.4539489,57.656254,-37.93125,19.425001,46.950733,0.3361091,49.741684,0.10912786,0.14262772,0.6850896,0.705975,0.008077572,0.17940544,0.96561,0.18800454,-1.0,0
1763545343227,1009.8818,0.45164528,3.0107691,7.1766734,0.05337431,0.015958842,-0.41470084,58.162502,-38.98125,19.44375,46.950733,0.3361091,49.741684,0.10786268,0.14459582,0.6792724,0.71136963,0.0060418253,0.18029366,0.96377957,0.1964347,-1.0,0
1763545343252,1009.8818,0.49471608,3.2099717,6.9134626,0.07429643,-0.022983788,-0.42523825,56.756252,-37.893753,20.75625,46.950733,0.3361091,49.741684,0.10818225,0.14528589,0.6762414,0.7140632,0.0059629753,0.18104099,0.96276987,0.20065603,-1.0,0
1763545343277,1009.84,0.3481557,3.3499517,6.5611196,0.041462447,-0.08697187,-0.5788707,56.100002,-38.2125,20.53125,46.950733,0.3361091,49.741684,0.108555324,0.14609472,0.6727152,0.71716547,0.005881792,0.18191573,0.9615603,0.20560597,-1.0,0
1763545343302,1009.8044,-0.11246266,3.4073794,6.538986,-0.0778089,-0.10713041,-0.621784,57.73125,-38.0625,21.75,46.950733,0.3361091,49.741684,0.10840052,0.1458005,0.66422015,0.72512287,0.006022965,0.18158245,0.95899814,0.2175181,-1.0,0
1763545343327,1009.8044,-0.6023931,3.4594233,6.8219376,-0.23388486,0.00160352,-0.57612187,57.16875,-37.350002,19.7625,46.950733,0.3361091,49.741684,0.1061067,0.14505415,0.66048956,0.7290091,0.0045826826,0.17966174,0.9581218,0.22294234,-1.0,0
1763545343352,1009.79486,-1.0342976,3.7136607,8.367103,-0.32612544,0.2520581,-0.3171152,58.218754,-37.987503,19.5375,46.950733,0.3361091,49.741684,0.10206888,0.14466101,0.65785193,0.7320424,0.0014878096,0.17703857,0.9576819,0.22693719,-1.0,0
1763545343378,1009.79486,-0.8321041,3.8063827,9.128618,-0.142866,0.20807582,-0.19860741,58.125004,-37.0125,19.95,46.950733,0.3361091,49.741684,0.097803295,0.14487258,0.6562817,0.73398966,-0.002145635,0.17478256,0.9575098,0.2293936,-1.0,0
1763545343403,1009.8078,-0.8781659,3.9858444,9.381062,0.1155298,0.106977694,-0.11843141,60.693752,-38.2125,17.268751,46.950733,0.3361091,49.741684,0.0953937,0.14740643,0.65434784,0.7355272,-0.005548978,0.17549309,0.9567693,0.23187049,-1.0,0
1763545343428,1009.8271,-0.85902333,4.194618,9.313464,0.29955283,-0.0353538,-0.03565923,58.18125,-38.23125,18.7875,46.950733,0.3361091,49.741684,0.09783217,0.14920218,0.65362287,0.7354895,-0.0045521227,0.17835835,0.9561318,0.23233493,-1.0,0
1763545343454,1009.8271,0.061615184,4.5355954,9.923634,0.2786307,-0.37132943,-0.03901899,58.275,-39.112503,19.893751,46.950733,0.3361091,49.741684,0.10160007,0.1501036,0.652979,0.73536706,-0.0019266448,0.18124557,0.95547944,0.2328204,-1.0,0
1763545343480,1009.85614,0.29850462,4.5523453,10.930414,0.2609156,-0.46021026,-0.12133302,58.875004,-38.41875,18.5625,46.950733,0.3361091,49.741684,0.11099904,0.14760867,0.6502621,0.7369193,0.0073285243,0.18454103,0.9539919,0.23619978,-1.0,0
1763545343504,1009.9123,0.37447673,4.570291,11.39522,0.2616792,-0.26870415,-0.18913901,60.54375,-38.98125,17.79375,46.950733,0.3361091,49.741684,0.114512295,0.14733642,0.6482954,0.738168,0.010422399,0.18631281,0.9530213,0.23859876,-1.0,0
1763545343532,1009.9123,0.23629123,4.955536,10.557134,-0.106672265,0.3163516,-0.1598175,60.562504,-38.9625,16.725,46.950733,0.3361091,49.741684,0.11482852,0.1490864,0.64695644,0.7389418,0.00974411,0.18792924,0.9522875,0.24028361,-1.0,0
1763545343557,1009.9345,1.1012967,4.9657054,11.044073,-0.4794525,-0.12881611,-0.2625955,59.475002,-38.475002,17.56875,46.950733,0.3361091,49.741684,0.109612554,0.14698207,0.6450769,0.7417932,0.0068106097,0.18322733,0.9521457,0.24454033,-1.0,0
1763545343582,1009.9875,1.0893325,2.3276181,15.111872,-0.3991238,0.0058795735,-0.6172025,61.2,-37.275,16.087502,46.950733,0.3361091,49.741684,0.10686947,0.13935421,0.64216566,0.7461787,0.009008184,0.17538397,0.9520584,0.25048792,-1.0,0
1763545343607,1009.9875,-0.31764722,0.99302137,13.542778,0.2775617,0.45623964,-0.50923216,60.16875,-36.412502,17.85,46.950733,0.3361091,49.741684,0.10309906,0.13674057,0.6383538,0.7504512,0.007414202,0.17109187,0.9512969,0.2563334,-1.0,0
1763545343632,1010.00116,-1.3124632,1.861616,10.709676,0.621784,0.12301289,-0.24243696,58.500004,-38.71875,20.00625,46.950733,0.3361091,49.741684,0.10409775,0.14601769,0.63232565,0.7536622,0.0027878857,0.17930345,0.94842863,0.26139173,-1.0,0
1763545343657,1009.9428,-0.41874397,2.3682961,8.732606,0.49121165,-0.3598757,-0.20975569,58.631252,-38.081253,20.41875,46.950733,0.3361091,49.741684,0.10939319,0.14642453,0.62974334,0.7549943,0.006860129,0.18264706,0.94713986,0.26366466,-1.0,0
1763545343682,1009.9428,0.13399807,1.9435701,8.56451,-0.04130973,0.17004949,-0.46219558,57.768753,-37.818752,22.5,46.950733,0.3361091,49.741684,0.11172134,0.14542423,0.6265822,0.7574727,0.009368736,0.183145,0.9459106,0.26762542,-1.0,0
1763545343708,1009.90204,-0.58983076,2.114657,8.688937,0.039935283,0.35850126,-0.44616038,59.30625,-37.631252,20.475,46.950733,0.3361091,49.741684,0.10704826,0.14962983,0.62055224,0.76227725,0.0031319878,0.18395272,0.9436788,0.27499446,-1.0,0
1763545343734,1009.90204,-0.9343972,2.3928227,8.200203,0.21754421,0.11476622,-0.35285076,60.24375,-38.79375,20.60625,46.950733,0.3361091,49.741684,0.107297,0.15202706,0.6177569,0.76403636,0.0019466183,0.1860674,0.9424199,0.2778846,-1.0,0
1763545343760,1009.8354,-0.2111666,2.9563324,7.146763,0.32047492,-0.43211046,-0.31757334,58.218754,-38.737503,19.425001,46.950733,0.3361091,49.741684,0.110814996,0.1523438,0.61483675,0.7658245,0.004652362,0.18832673,0.9410468,0.28096682,-1.0,0
1763545343786,1009.79486,0.276371,3.056831,6.939784,0.20761767,-0.31192282,-0.3928624,59.625004,-38.737503,22.66875,46.950733,0.3361091,49.741684,0.118346594,0.15055753,0.6080106,0.7704866,0.011938976,0.19113071,0.9379663,0.28904277,-1.0,0
1763545343811,1009.79486,0.6125626,3.234498,6.9344,0.090942495,-0.14301872,-0.55382526,59.30625,-39.018753,21.6375,46.950733,0.3361091,49.741684,0.11933353,0.15048511,0.6036284,0.7737871,0.012871356,0.19162618,0.93611175,0.29463282,-1.0,0
1763545343836,1009.758,-0.637089,3.0837502,7.522436,-0.050625417,-0.24808747,-0.7887028,59.325,-39.525,22.59375,46.950733,0.3361091,49.741684,0.11932878,0.1501139,0.59794647,0.7782586,0.013151101,0.19131279,0.9338553,0.30189532,-1.0,0
1763545343861,1009.7336,-1.146162,3.0472596,8.282157,-0.017486004,-0.3210858,-0.68653566,59.775,-36.487503,23.60625,46.950733,0.3361091,49.741684,0.119323194,0.14883357,0.5917933,0.78319293,0.013896286,0.19025339,0.93154716,0.30956495,-1.0,0
1763545343886,1009.7336,-0.8219346,3.1387851,8.9724865,0.12056944,-0.2720639,-0.5567269,59.531254,-37.875,21.54375,46.950733,0.3361091,49.741684,0.12155407,0.1463662,0.58148754,0.7909954,0.017095678,0.18948929,0.92754555,0.3216532,-1.0,0
1763545343912,1009.7348,-0.14297116,3.4683964,8.923434,0.50480336,-0.12789981,-0.58803374,60.825,-39.2625,24.431252,46.950733,0.3361091,49.741684,0.12422995,0.14731485,0.57679874,0.7938316,0.018774012,0.19178708,0.92527103,0.32670897,-1.0,0
1763545343937,1009.72675,-0.4127619,3.5784662,8.309675,0.57154036,-0.18730642,-0.6254492,60.975002,-38.60625,22.837502,46.950733,0.3361091,49.741684,0.12804891,0.14965165,0.57143605,0.79666096,0.02062339,0.1958745,0.9224093,0.33221817,-1.0,0
1763545343966,1009.72675,-0.526421,3.6640096,7.678568,0.4472294,-0.33284494,-0.6569087,61.55625,-39.1875,24.656252,46.950733,0.3361091,49.741684,0.13705051,0.15272576,0.5593933,0.80310094,0.026347073,0.20350389,0.91605306,0.34458488,-1.0,0
1763545343991,1009.7214,-0.3786642,4.356732,9.430114,-0.28565565,-0.55489427,-0.8102358,60.43125,-39.037502,23.831251,46.950733,0.3361091,49.741684,0.13974051,0.14987978,0.5529969,0.8075909,0.030213848,0.20267828,0.913263,0.3520786,-1.0,0
1763545344017,1009.7214,-0.6149554,4.213761,11.472388,-0.34154978,-0.23281583,-0.86414456,61.4625,-37.55625,23.34375,46.950733,0.3361091,49.741684,0.13947114,0.1451219,0.546319,0.81303316,0.032733183,0.19859783,0.9107623,0.36055443,-1.0,0
1763545344042,1009.7729,-1.4039887,4.3728833,12.669397,-0.042226028,0.066813335,-0.7743475,62.925003,-39.037502,23.118752,46.950733,0.3361091,49.741684,0.13493182,0.14372832,0.53370583,0.82237077,0.02976167,0.19488117,0.90569574,0.375301,-1.0,0
1763545344067,1009.8188,-0.68075806,4.6235313,10.858629,0.349491,-0.302149,-0.5170207,61.2,-38.71875,25.125002,46.950733,0.3361091,49.741684,0.13629745,0.14626884,0.5284865,0.8250639,0.029400844,0.19775529,0.9030107,0.38026318,-1.0,0
1763545344092,1009.8188,0.89072824,4.729414,10.6612215,0.05688678,-0.5307651,-0.6889791,62.30625,-38.362503,24.993752,46.950733,0.3361091,49.741684,0.1398886,0.14627889,0.5234657,0.8276577,0.032354895,0.19979863,0.90034217,0.3852501,-1.0,0
1763545344117,1009.8564,1.3776677,3.8931224,11.47179,-0.22792892,-0.33253953,-0.9915099,65.64375,-37.256252,22.25625,46.950733,0.3361091,49.741684,0.14102978,0.13993421,0.50917095,0.837421,0.03705623,0.19518661,0.8937573,0.40215284,-1.0,0
1763545344142,1009.8896,0.5946164,2.6213372,11.881561,-0.30902123,-0.03718639,-1.1161263,63.80625,-36.825,23.98125,46.950733,0.3361091,49.741684,0.13710226,0.13898034,0.50056434,0.8433995,0.034354765,0.19217785,0.8900538,0.41193646,-1.0,0
1763545344167,1009.8896,0.50488555,1.4279169,11.392229,-0.06971494,-0.34307694,-0.81390095,64.18125,-36.54375,22.837502,46.950733,0.3361091,49.741684,0.13419197,0.1377401,0.4925519,0.84877133,0.03258701,0.18952021,0.88664603,0.42056984,-1.0,0
1763545344192,1009.9006,1.302892,1.4973087,10.751551,-0.03138318,-0.5209913,-0.69905835,65.25,-36.91875,23.5125,46.950733,0.3361091,49.741684,0.13475204,0.13064422,0.4792545,0.85737336,0.036941666,0.1840145,0.8808556,0.43458876,-1.0,0
1763545344218,1009.914,1.8777676,1.7575282,10.447063,-0.045891218,-0.47777262,-0.6672934,66.58125,-35.550003,22.6875,46.950733,0.3361091,49.741684,0.13561529,0.1264905,0.4732583,0.86118245,0.039997336,0.18108441,0.87810045,0.44107625,-1.0,0
1763545344243,1009.914,1.0420742,2.9192436,9.040682,0.18593197,-0.08956805,-0.6333904,64.818756,-36.73125,25.25625,46.950733,0.3361091,49.741684,0.13625711,0.124494635,0.46741965,0.8645542,0.041667163,0.17980202,0.8751788,0.44721037,-1.0,0
1763545344269,1009.884,0.79142606,3.309872,7.772486,0.32200208,-0.074907295,-0.621784,66.95625,-35.756252,23.587502,46.950733,0.3361091,49.741684,0.13754447,0.12488076,0.4618584,0.8672791,0.042539764,0.18084261,0.8720648,0.45275745,-1.0,0
1763545344294,1009.884,0.7375876,3.4289148,6.6101727,0.39698574,-0.12255475,-0.6747765,66.693756,-36.412502,23.025002,46.950733,0.3361091,49.741684,0.14340648,0.12755683,0.4499351,0.87219393,0.045988996,0.1863362,0.86468756,0.46419743,-1.0,0
1763545344320,1009.8183,0.25962126,3.735196,5.063213,0.2841285,-0.19234605,-0.8580359,66.693756,-36.16875,25.181252,46.950733,0.3361091,49.741684,0.14685163,0.12868865,0.44281304,0.87509453,0.048281748,0.18919577,0.86022586,0.47104707,-1.0,0
1763545344345,1009.7553,0.036490545,3.9637108,4.979464,0.10300707,-0.22059855,-0.96402097,68.625,-35.34375,24.937502,46.950733,0.3361091,49.741684,0.14942771,0.12945904,0.43494868,0.8784824,0.05007452,0.19126114,0.8553965,0.47875732,-1.0,0
1763545344371,1009.7553,-0.23808585,4.011567,5.5710893,-0.07322741,-0.21968225,-1.0454187,67.875,-34.800003,23.737501,46.950733,0.3361091,49.741684,0.14988217,0.12887083,0.41718018,0.88706726,0.050879862,0.19100676,0.8453384,0.49631706,-1.0,0
1763545344397,1009.7375,-0.4564309,4.1222353,7.646863,-0.2013563,-0.25083634,-1.0671045,70.387505,-32.550003,23.6625,46.950733,0.3361091,49.741684,0.14819121,0.12786965,0.40794688,0.89177805,0.050060038,0.18922283,0.8403539,0.50546414,-1.0,0
1763545344423,1009.7441,-0.81236327,4.112066,8.650652,-0.14622575,-0.28031057,-1.0510693,71.512505,-32.79375,23.400002,46.950733,0.3361091,49.741684,0.14641607,0.1264507,0.39863795,0.8964711,0.049402203,0.18704778,0.8353079,0.5146195,-1.0,0
1763545344448,1009.7441,-1.3417753,4.06062,9.491729,-0.03565923,-0.19723296,-0.93454677,71.11875,-32.475002,24.0375,46.950733,0.3361091,49.741684,0.14455596,0.124452464,0.38092172,0.9047175,0.048969034,0.1843553,0.8254234,0.531311,-1.0,0
1763545344474,1009.7802,-1.6295122,4.1198425,9.706485,0.2616792,0.029856017,-0.57047135,71.3625,-33.45,24.225,46.950733,0.3361091,49.741684,0.1448001,0.12600844,0.37408987,0.90731007,0.048228186,0.18579352,0.82143366,0.5370303,-1.0,0
1763545344499,1009.80194,-1.052842,4.3782673,9.479765,0.25541782,-0.2296088,-0.4767036,71.775,-33.54375,25.10625,46.950733,0.3361091,49.741684,0.14631008,0.12811187,0.36879173,0.9089408,0.048222464,0.18839821,0.8181642,0.54109883,-1.0,0
1763545344525,1009.80194,-0.36370903,4.53081,9.676575,0.049556404,-0.42004588,-0.529238,70.443756,-32.175003,25.181252,46.950733,0.3361091,49.741684,0.1503919,0.12484445,0.35866502,0.91277355,0.053383723,0.18802673,0.81213456,0.5497578,-1.0,0
1763545344550,1009.8461,-1.0133604,4.694718,11.301301,-0.415159,0.09613484,-0.56787515,69.881256,-32.100002,24.300001,46.950733,0.3361091,49.741684,0.14860857,0.12284882,0.35344723,0.9153681,0.053037204,0.18537366,0.80931467,0.5548274,-1.0,0
1763545344575,1009.8461,-1.2059826,4.4285164,11.96531,-0.50556695,-0.13293944,-0.4832704,73.725006,-31.95,23.4375,46.950733,0.3361091,49.741684,0.14410613,0.12297607,0.34907505,0.91774553,0.049216025,0.18294117,0.8071664,0.5591,-1.0,0
1763545344600,1009.8896,-0.25902304,3.9391842,13.291532,-0.5799397,-0.7137191,-0.49243337,71.100006,-30.487501,23.15625,46.950733,0.3361091,49.741684,0.13621318,0.11280617,0.3405653,0.92343706,0.048357703,0.17011994,0.8037261,0.5681066,-1.0,0
1763545344625,1009.95746,0.22432712,2.8522446,15.002998,-0.3775908,-0.6582832,-0.58192503,72.225006,-30.000002,23.325,46.950733,0.3361091,49.741684,0.13414043,0.105875455,0.33494908,0.9266098,0.050466057,0.16326801,0.80127877,0.5733664,-1.0,0
1763545344651,1009.95746,-1.625923,1.6307086,11.826526,0.6729439,0.03810269,-0.28565565,72.80625,-30.056252,22.331251,46.950733,0.3361091,49.741684,0.13517074,0.10578512,0.32974443,0.9283356,0.05116568,0.16384046,0.7986758,0.57676286,-1.0,0
1763545344677,1009.9538,-1.0313065,2.4305096,9.452846,0.63461214,-0.4482984,-0.11339177,72.7125,-31.81875,24.618752,46.950733,0.3361091,49.741684,0.14679341,0.10648965,0.32419157,0.9284457,0.05998846,0.17114244,0.79532915,0.5784143,-1.0,0
1763545344702,1009.91473,0.53240305,2.7834508,8.741579,0.28199047,-0.6831759,-0.20074543,72.075005,-30.6375,24.45,46.950733,0.3361091,49.741684,0.15122992,0.10126286,0.32114962,0.9293752,0.06655262,0.16939719,0.7935627,0.58063203,-1.0,0
1763545344727,1009.91473,0.6233303,2.5968108,9.138189,-0.022678355,0.21555892,-0.5495492,72.787506,-30.806252,23.775002,46.950733,0.3361091,49.741684,0.15161058,0.09875694,0.3169923,0.9310087,0.068291724,0.1675558,0.7910841,0.5843348,-1.0,0
1763545344752,1009.8803,-0.2883351,2.841477,8.440681,0.16195552,0.2447277,-0.545884,72.76875,-30.806252,24.393751,46.950733,0.3361091,49.741684,0.15035594,0.10420354,0.307735,0.9337204,0.064022936,0.17136613,0.7854845,0.5912266,-1.0,0
1763545344777,1009.80316,-0.73818576,3.048456,7.2616186,0.32811075,-0.099800035,-0.48571387,73.481255,-30.243752,23.98125,46.950733,0.3361091,49.741684,0.15316866,0.104957744,0.30287668,0.93476677,0.06585269,0.1736093,0.7822624,0.59463334,-1.0,0
1763545344802,1009.80316,-0.44925246,3.3230324,6.1357956,0.13889538,-0.6645445,-0.48479757,73.14375,-30.300001,26.175001,46.950733,0.3361091,49.741684,0.15718871,0.1017219,0.2975411,0.9361697,0.07096706,0.17326082,0.77879786,0.5986804,-1.0,0
1763545344827,1009.74994,-0.36550367,3.31047,6.55095,-0.032757625,-0.45623964,-0.49777845,72.543755,-31.331251,22.893751,46.950733,0.3361091,49.741684,0.1600935,0.096886866,0.29200593,0.9379315,0.07608874,0.1709605,0.77534336,0.60317963,-1.0,0
1763545344852,1009.74994,-0.2955136,3.403192,7.024131,-0.10254893,-0.27084216,-0.5287798,72.600006,-29.456251,24.337502,46.950733,0.3361091,49.741684,0.16034913,0.0914916,0.28170043,0.9415744,0.07933068,0.16670091,0.7691441,0.61182904,-1.0,0
1763545344878,1009.72235,-0.32303107,3.5587256,7.25444,-0.12087487,-0.32734716,-0.60269445,72.80625,-28.556252,22.875,46.950733,0.3361091,49.741684,0.15981111,0.089092754,0.2758243,0.9436333,0.08023629,0.16443615,0.76558536,0.61676735,-1.0,0
1763545344903,1009.7111,-0.89013004,3.7980077,8.115258,-0.06620247,-0.48937905,-0.73280865,74.08125,-28.800001,23.212502,46.950733,0.3361091,49.741684,0.15962443,0.08574732,0.26901057,0.9459391,0.08197113,0.16159606,0.76140255,0.62244165,-1.0,0
1763545344928,1009.7111,-1.3435699,3.7686956,8.403593,-0.003894263,-0.4331795,-0.68302315,74.08125,-28.800001,22.59375,46.950733,0.3361091,49.741684,0.15985829,0.0823089,0.26160175,0.9482801,0.084106445,0.15891992,0.7567477,0.62849295,-1.0,0
1763545344953,1009.7155,-1.1754742,3.6077783,8.675179,0.04421134,-0.36781695,-0.608345,74.137505,-28.5375,22.575,46.950733,0.3361091,49.741684,0.16138709,0.077440955,0.24843383,0.9519652,0.08807097,0.15584093,0.74834853,0.6386952,-1.0,0
1763545344978,1009.7155,-0.7680961,3.5060835,8.848659,0.12331833,-0.32459828,-0.610483,73.912506,-27.45,23.625,46.950733,0.3361091,49.741684,0.16288309,0.0757674,0.2422074,0.9534485,0.09020839,0.15535136,0.74428463,0.6432486,-1.0,0
1763545345004,1009.7319,-0.83748794,3.4223347,9.22134,0.074449144,-0.795575,-0.7124974,75.9,-27.112501,22.462502,46.950733,0.3361091,49.741684,0.16701089,0.06674358,0.22718628,0.9570993,0.09863894,0.15039182,0.73457336,0.65425885,-1.0,0
1763545345029,1009.7509,-0.94755775,3.5467613,10.371092,-0.100105464,-0.8872047,-0.7066942,74.606255,-28.612501,20.53125,46.950733,0.3361091,49.741684,0.1674926,0.059564613,0.21925126,0.9593369,0.10307955,0.14483204,0.7296594,0.6602995,-1.0,0
1763545345054,1009.7509,-1.4554343,3.859623,12.620943,0.093996815,0.032757625,-0.5116756,74.08125,-26.062502,21.50625,46.950733,0.3361091,49.741684,0.16686542,0.056123536,0.21261896,0.96114475,0.10445177,0.14171714,0.7256696,0.66513884,-1.0,0
1763545345080,1009.81146,-1.2209377,4.4093738,11.797214,0.26488623,0.057497647,-0.39515316,73.5,-27.35625,22.425001,46.950733,0.3361091,49.741684,0.16714498,0.057599965,0.2078383,0.9620541,0.10373439,0.14315858,0.7227391,0.6681265,-1.0,0
1763545345105,1009.8442,-0.1477568,5.0572305,11.006386,0.1343139,-0.35575238,-0.44203702,75.01875,-26.343752,22.518751,46.950733,0.3361091,49.741684,0.17103574,0.05718891,0.1993098,0.9631987,0.107062675,0.14512539,0.71684575,0.67350453,-1.0,0
1763545345130,1009.8442,1.1928221,3.8129628,12.734004,-0.15615231,-0.041157015,-0.80030924,75.318756,-26.306252,22.48125,46.950733,0.3361091,49.741684,0.17074105,0.053751517,0.19296408,0.9647399,0.10876828,0.14216611,0.71268076,0.67826575,-1.0,0
1763545345155,1009.90204,0.6125626,2.8055844,12.757932,-0.04085158,0.101632625,-0.8340595,74.925,-25.462502,21.075,46.950733,0.3361091,49.741684,0.16890714,0.05391969,0.18556397,0.9665035,0.10708607,0.14131361,0.70805335,0.6835375,-1.0,0
1763545345180,1009.9379,0.4881358,2.0727825,12.243475,0.0674242,-0.12545635,-0.6966149,75.075005,-26.94375,20.53125,46.950733,0.3361091,49.741684,0.1675727,0.05544765,0.17125553,0.9692866,0.10483477,0.14200257,0.6993258,0.6926676,-1.0,0
1763545345206,1009.9379,1.288535,1.6983058,11.85524,0.14026983,-0.33910632,-0.5503128,77.25,-25.48125,21.91875,46.950733,0.3361091,49.741684,0.16862059,0.05289385,0.16551419,0.97024447,0.10699907,0.14064798,0.6960099,0.69594514,-1.0,0
1763545345232,1009.95575,2.0584257,1.7204394,10.278968,0.19463679,-0.08681916,-0.5423716,78.637505,-24.35625,23.56875,46.950733,0.3361091,49.741684,0.1700222,0.050596874,0.16014373,0.9710234,0.10929988,0.13971806,0.6929338,0.6988384,-1.0,0
1763545345257,1009.9233,1.4578272,1.9740787,9.102298,0.21067199,0.010002911,-0.52221304,76.425,-24.45,23.025002,46.950733,0.3361091,49.741684,0.17272972,0.050943714,0.14996132,0.97215265,0.11101704,0.14179577,0.6867258,0.70425624,-1.0,0
1763545345282,1009.9233,0.93619186,2.457429,8.087142,0.21372631,-0.06131555,-0.45440704,77.606255,-23.7,22.087502,46.950733,0.3361091,49.741684,0.17447121,0.051054362,0.14552644,0.9725098,0.11227534,0.142972,0.6837931,0.7066684,-1.0,0
1763545345307,1009.86346,0.802792,2.6213372,6.8446693,0.35376707,-0.009850195,-0.46204284,77.025,-22.275002,22.21875,46.950733,0.3361091,49.741684,0.17671947,0.050863575,0.14120843,0.97275037,0.11420167,0.14413485,0.680488,0.709309,-1.0,0
1763545345332,1009.86346,0.41874397,2.6374888,5.8079786,0.42523825,0.07536544,-0.5096903,76.9875,-23.268751,21.056252,46.950733,0.3361091,49.741684,0.18356536,0.05367416,0.13186984,0.97264236,0.11801049,0.15050142,0.6734289,0.7140843,-1.0,0
1763545345357,1009.79535,-0.07537391,2.815754,4.942375,0.36430448,0.04054615,-0.5093849,77.83125,-22.575,22.78125,46.950733,0.3361091,49.741684,0.186837,0.055352855,0.12697843,0.9725762,0.11965502,0.1538008,0.66959226,0.7167107,-1.0,0
1763545345382,1009.7282,-0.6227321,3.5048869,4.7282176,0.006185006,-0.18532111,-0.43180504,77.418755,-23.868752,23.362501,46.950733,0.3361091,49.741684,0.18895257,0.055757556,0.12214917,0.9727628,0.12113,0.15536891,0.66581756,0.7196353,-1.0,0
1763545345408,1009.7282,-0.52941203,3.8955152,5.489733,-0.20899211,-0.22365287,-0.3569741,76.818756,-23.175001,23.681252,46.950733,0.3361091,49.741684,0.18932818,0.05491409,0.1177455,0.97328067,0.12193078,0.15489869,0.66251963,0.72263896,-1.0,0
1763545345433,1009.69745,-0.12562318,4.3501515,6.832705,-0.31696245,-0.1787543,-0.34109163,77.025,-22.9125,23.493752,46.950733,0.3361091,49.741684,0.18521343,0.05190342,0.11073088,0.97505933,0.12035401,0.15004298,0.6577806,0.72823536,-1.0,0
1763545345458,1009.7211,-0.76630145,4.9082775,9.129815,-0.09964732,-0.10957387,-0.32368198,77.606255,-23.081251,21.431252,46.950733,0.3361091,49.741684,0.18305045,0.051037367,0.107234195,0.9759039,0.11909906,0.14807999,0.6554333,0.7309548,-1.0,0
1763545345483,1009.7211,-1.1318051,5.0327044,9.608977,0.076434456,-0.16042836,-0.22197299,77.34375,-21.487501,21.225,46.950733,0.3361091,49.741684,0.18237318,0.05051209,0.10404295,0.9764034,0.1188551,0.147258,0.6531259,0.7332224,-1.0,0
1763545345508,1009.76044,-1.0666007,5.1936216,9.793823,0.20150901,-0.18501566,-0.119653136,78.543755,-20.5125,23.19375,46.950733,0.3361091,49.741684,0.1857055,0.048429713,0.100054994,0.9762976,0.122759625,0.14751962,0.6499074,0.73538315,-1.0,0
1763545345533,1009.76044,-0.5353941,5.460421,9.768699,0.21235187,-0.20486878,-0.11064288,78.450005,-21.112501,20.456251,46.950733,0.3361091,49.741684,0.18817881,0.04696003,0.09854704,0.9760492,0.1256233,0.1477677,0.648551,0.73604697,-1.0,0
1763545345558,1009.8044,-0.37268212,5.2737813,10.275977,-0.32704175,-0.06421716,-0.30550876,77.775,-22.2,21.825,46.950733,0.3361091,49.741684,0.18883339,0.045260288,0.09601677,0.9762552,0.12714408,0.14676826,0.6466204,0.7376825,-1.0,0
1763545345583,1009.85394,-1.1449656,5.2893343,11.852847,-0.5237402,0.3012327,-0.23388486,78.375,-20.868752,19.837502,46.950733,0.3361091,49.741684,0.1859791,0.044846762,0.09317692,0.97709703,0.119197324,0.14412753,0.64432335,0.74152994,-1.0,0
1763545345609,1009.85394,-1.6827525,5.441877,13.434503,-0.38064513,0.50388706,-0.06101012,79.33125,-20.41875,20.94375,46.950733,0.3361091,49.741684,0.1768455,0.052409217,0.09219096,0.97850895,0.113172725,0.1456468,0.645143,0.7414644,-1.0,0
1763545345634,1009.914,-0.9523434,4.3005004,13.686347,0.4418843,-0.021303909,0.058261227,79.5,-20.268751,20.775002,46.950733,0.3361091,49.741684,0.17668207,0.055465743,0.093218066,0.9782727,0.11120868,0.14807308,0.6460904,0.7404554,-1.0,0
1763545345659,1009.94354,-0.9595219,2.9946175,12.02214,0.7774018,-0.16668972,0.013973532,77.625,-20.71875,22.06875,46.950733,0.3361091,49.741684,0.1807231,0.05553367,0.09348821,0.97750455,0.11436058,0.15055394,0.64631236,0.7392804,-1.0,0
1763545345685,1009.94354,-1.2574283,2.6117659,9.658628,0.73662657,-0.3001637,-0.0054214248,78.39375,-20.625,21.206251,46.950733,0.3361091,49.741684,0.19461294,0.0525064,0.09188051,0.97515476,0.1271318,0.15642446,0.64493424,0.7371762,-1.0,0
1763545345711,1009.90985,-1.0857433,2.55374,8.272586,0.27359107,-0.4560869,-0.023136504,77.2125,-22.7625,22.5375,46.950733,0.3361091,49.741684,0.19732636,0.048631184,0.09063223,0.97492725,0.1314923,0.15495956,0.6442986,0.7372765,-1.0,0
1763545345736,1009.90985,0.014955142,1.9369899,9.84826,-0.45517063,-0.039477136,-0.24762931,78.168755,-21.150002,19.725,46.950733,0.3361091,49.741684,0.194945,0.04533382,0.08914157,0.97570235,0.13137886,0.15099105,0.6440996,0.7382933,-1.0,0
1763545345761,1009.89105,-0.37746778,1.8358932,10.016953,-0.32001677,0.11980586,-0.360792,78.09375,-19.931252,21.825,46.950733,0.3361091,49.741684,0.18637009,0.046241507,0.08388923,0.9777988,0.12359273,0.14695893,0.64262253,0.7417305,-1.0,0
1763545345786,1009.86127,-1.5822539,2.1445673,8.209176,-0.0051159924,0.011835505,-0.23098324,77.5875,-20.962502,21.31875,46.950733,0.3361091,49.741684,0.18465103,0.047639035,0.08067085,0.9783285,0.12124743,0.1471888,0.6410031,0.7434713,-1.0,0
1763545345814,1009.86127,-1.6073786,2.239682,7.689934,0.039477136,0.039171703,-0.06253728,79.481255,-18.16875,21.581251,46.950733,0.3361091,49.741684,0.18418765,0.048375487,0.078470044,0.9785587,0.12034115,0.14759162,0.63985497,0.7445269,-1.0,0
1763545345839,1009.8173,-1.535594,2.4346972,7.4901333,0.08391755,0.06818778,0.13996439,78.693756,-19.85625,21.45,46.950733,0.3361091,49.741684,0.18491751,0.049836718,0.079254135,0.97828454,0.11991452,0.1493275,0.64110243,0.74317527,-1.0,0
1763545345867,1009.7685,-1.1772687,2.6811578,7.4566336,0.19081889,0.03367392,0.31146467,78.1875,-20.38125,19.06875,46.950733,0.3361091,49.741684,0.18673275,0.049920466,0.0821383,0.9776973,0.12125744,0.1505251,0.6434462,0.74068606,-1.0,0
1763545345891,1009.7685,-0.34396824,3.354139,6.5365934,0.3739256,-0.16760603,0.37041312,77.26875,-21.0,22.425001,46.950733,0.3361091,49.741684,0.19400032,0.047114626,0.08859555,0.97585595,0.12873684,0.1525868,0.64777917,0.73520494,-1.0,0
1763545345917,1009.72797,-0.31106696,3.6179478,6.017949,0.24793474,-0.28168502,0.28748822,78.131256,-20.41875,21.993752,46.950733,0.3361091,49.741684,0.19692755,0.044134185,0.09067055,0.9752182,0.13284408,0.15192343,0.64915013,0.7334002,-1.0,0
1763545345942,1009.7109,-0.6329016,3.7447674,7.8610206,-0.13614649,-0.2635118,0.21403174,78.28125,-19.7625,20.868752,46.950733,0.3361091,49.741684,0.19767314,0.04058162,0.092140675,0.9750839,0.13553707,0.14950329,0.6502908,0.7323936,-1.0,0
1763545345967,1009.7109,-0.7322037,3.7411783,9.393025,-0.0655916,-0.117362395,0.24335326,77.756256,-21.45,22.725,46.950733,0.3361091,49.741684,0.19683124,0.03765765,0.09369646,0.97522324,0.13655809,0.1466715,0.6517618,0.7314684,-1.0,0
1763545345992,1009.73846,-0.6969096,3.9583268,9.998409,0.12179117,-0.033521205,0.2946659,77.3625,-21.487501,20.60625,46.950733,0.3361091,49.741684,0.19756001,0.035454996,0.098431766,0.9746918,0.1383251,0.14544132,0.6558807,0.7276905,-1.0,0
1763545346018,1009.76434,0.19501504,4.5565324,9.558728,0.3898081,-0.12194388,0.19387321,75.637505,-21.91875,21.4125,46.950733,0.3361091,49.741684,0.20055145,0.034415916,0.10097455,0.9738577,0.14129733,0.14642544,0.65770733,0.72526944,-1.0,0
1763545346043,1009.76434,0.41156548,4.867001,9.02154,0.29161158,-0.14317143,0.030619597,76.6125,-21.675001,19.29375,46.950733,0.3361091,49.741684,0.20445351,0.033199992,0.10244484,0.97293454,0.14510876,0.14780708,0.6586085,0.72341645,-1.0,0
1763545346068,1009.7951,0.5276174,5.169095,8.959326,0.023747368,-0.13385575,-0.13599378,76.4625,-22.3125,20.4375,46.950733,0.3361091,49.741684,0.2080922,0.030848654,0.10085132,0.9724068,0.14939788,0.14810225,0.6571849,0.7237776,-1.0,0
1763545346094,1009.7951,0.48394838,5.3676996,9.746565,-0.26885685,-0.08223767,-0.29924738,77.043755,-21.525002,21.243752,46.950733,0.3361091,49.741684,0.2058284,0.03026144,0.09798078,0.9732002,0.1479128,0.14629725,0.6553857,0.7260775,-1.0,0
1763545346119,1009.83075,-0.2620141,4.5966125,11.939587,-0.3910298,0.20471606,-0.4870883,77.4375,-21.84375,19.987501,46.950733,0.3361091,49.741684,0.20203866,0.030766897,0.0941337,0.97435755,0.14452533,0.14449444,0.65314645,0.729132,-1.0,0
1763545346144,1009.892,-0.85902333,4.112066,12.123834,-0.4171443,0.3342194,-0.49243337,78.525,-20.1,19.462502,46.950733,0.3361091,49.741684,0.19795913,0.033226777,0.09006771,0.97549784,0.13972239,0.14411622,0.6508472,0.7321927,-1.0,0
1763545346169,1009.892,-1.1030912,3.2027931,12.753745,-0.42752898,0.33559385,-0.4238638,79.387505,-20.775002,21.581251,46.950733,0.3361091,49.741684,0.18853793,0.04068182,0.08294081,0.97771126,0.1275178,0.14470926,0.6474293,0.73731524,-1.0,0
1763545346194,1009.9516,-0.18305093,1.558924,12.362518,0.029245151,-0.06314815,-0.15752676,77.625,-19.575,18.768751,46.950733,0.3361091,49.741684,0.18538706,0.04281911,0.08058354,0.97841936,0.123549245,0.14469768,0.6467925,0.7385511,-1.0,0
1763545346219,1009.977,0.46660042,1.5403795,10.589437,0.054443322,-0.25373796,-0.029092435,77.325005,-18.6375,21.825,46.950733,0.3361091,49.741684,0.1848737,0.042364202,0.07896576,0.9786682,0.12321235,0.14419338,0.6466397,0.7388397,-1.0,0
1763545346245,1009.977,1.099502,1.774278,9.476176,-0.13324489,-0.21281002,0.049709123,76.93125,-19.9125,20.7,46.950733,0.3361091,49.741684,0.18340582,0.037202347,0.078413025,0.97919846,0.124804184,0.13944757,0.6481325,0.73817515,-1.0,0
1763545346270,1009.9775,0.9822537,2.6069803,9.053245,-0.18119776,0.18913901,0.17249294,77.90625,-18.806252,19.931252,46.950733,0.3361091,49.741684,0.18052924,0.036640782,0.07960617,0.9796578,0.12272203,0.13737775,0.6499629,0.7373024,-1.0,0
1763545346296,1009.94183,1.0468599,3.1902308,8.575278,0.09124792,0.108963005,0.1787543,76.65,-18.45,21.112501,46.950733,0.3361091,49.741684,0.17853327,0.03761775,0.081676744,0.9798162,0.120441325,0.13705151,0.65223724,0.7357291,-1.0,0
1763545346321,1009.94183,0.96729857,3.5958142,7.6480594,0.35911214,-0.07078396,0.105908684,78.65625,-17.362501,19.143751,46.950733,0.3361091,49.741684,0.18296467,0.037155904,0.08436701,0.9787878,0.12416149,0.13942939,0.65432876,0.73280096,-1.0,0
1763545346348,1009.88104,0.29671,3.74058,5.6093745,0.50602514,-0.028787002,-0.07093667,77.64375,-18.581251,20.400002,46.950733,0.3361091,49.741684,0.1880394,0.03612473,0.084091865,0.97788787,0.12882632,0.14166015,0.6536466,0.7321764,-1.0,0
1763545346373,1009.88104,-0.119042926,3.7064822,5.0452666,0.42233664,0.05780308,-0.12515092,78.075005,-20.268751,18.6,46.950733,0.3361091,49.741684,0.19313265,0.036251415,0.083220944,0.97696465,0.13283485,0.14480777,0.65235347,0.7319976,-1.0,0
1763545346398,1009.81195,-0.33020952,3.7238302,4.692325,0.22685991,-0.022067491,-0.16913319,78.881256,-19.706251,20.493752,46.950733,0.3361091,49.741684,0.19985148,0.03769789,0.08029339,0.97580284,0.13738534,0.14995669,0.6491161,0.7329983,-1.0,0
1763545346423,1009.75726,0.020937199,3.851248,5.4089756,-0.038408123,-0.16027565,-0.2135736,77.512505,-19.21875,20.456251,46.950733,0.3361091,49.741684,0.19990362,0.03656927,0.077992715,0.9760217,0.13812421,0.14906533,0.6473037,0.73464215,-1.0,0
1763545346448,1009.75726,0.4749753,3.958925,7.87119,-0.290848,-0.008475749,-0.31436628,76.6875,-19.050001,19.612501,46.950733,0.3361091,49.741684,0.19820008,0.03549807,0.07507496,0.97663724,0.13739643,0.14719239,0.64536595,0.7368578,-1.0,0
1763545346473,1009.7736,0.6891329,4.124628,8.672786,-0.3285689,0.11843141,-0.3438405,77.325005,-19.3875,21.712502,46.950733,0.3361091,49.741684,0.19237977,0.036905773,0.06935034,0.978171,0.13188875,0.14483565,0.641726,0.74149555,-1.0,0
1763545346498,1009.7736,0.40737805,4.2167516,9.376275,-0.2870301,0.21968225,-0.43073604,79.293755,-17.681252,20.643751,46.950733,0.3361091,49.741684,0.19237977,0.036905773,0.06935034,0.978171,0.13188875,0.14483565,0.641726,0.74149555,-1.0,0
1763545346524,1009.81805,-2.2103698,4.3070807,10.326824,-0.017180571,0.27649269,-0.11766783,79.21875,-17.306252,20.475,46.950733,0.3361091,49.741684,0.1875643,0.04266698,0.06272293,0.9793186,0.12450942,0.14662279,0.6374737,0.746074,-1.0,0
1763545346549,1009.8498,-1.736591,4.6492543,10.356136,0.10300707,0.07399099,0.13278674,79.18125,-17.550001,20.175001,46.950733,0.3361091,49.741684,0.18719721,0.045823447,0.062071405,0.97928774,0.12229893,0.14894815,0.63705325,0.7463381,-1.0,0
1763545346574,1009.8498,-0.8003992,5.10748,10.452448,0.04405862,-0.16882776,0.1645517,78.543755,-19.125,21.73125,46.950733,0.3361091,49.741684,0.18901019,0.04486666,0.0646004,0.97882015,0.12429149,0.14929663,0.6389557,0.74431026,-1.0,0
1763545346600,1009.8813,-1.049851,5.643472,12.274582,-0.17768529,0.118125975,0.14026983,79.668755,-17.268751,20.737501,46.950733,0.3361091,49.741684,0.1882471,0.04350895,0.06550011,0.97896874,0.1244875,0.14775947,0.63980556,0.74385405,-1.0,0
1763545346625,1009.92816,-0.92482597,5.596214,13.009178,-0.07994693,0.130496,0.21021384,78.5625,-17.625,20.868752,46.950733,0.3361091,49.741684,0.1867196,0.044298798,0.06711717,0.97911626,0.12277752,0.1474865,0.64125854,0.74294066,-1.0,0
1763545346650,1009.92816,-0.08015956,4.8035913,13.1491585,0.07276927,-0.15569416,0.15218168,80.043755,-16.85625,20.6625,46.950733,0.3361091,49.741684,0.18690215,0.043317426,0.070518985,0.97888625,0.123446696,0.1468664,0.6441736,0.7404266,-1.0,0
1763545346677,1009.9738,-1.2574283,3.0520453,11.514262,0.48617202,0.029550584,-0.009086614,79.33125,-16.9125,19.050001,46.950733,0.3361091,49.741684,0.18922803,0.041488666,0.070357636,0.9785301,0.12630835,0.14688347,0.6443162,0.73981625,-1.0,0
1763545346702,1009.9731,-2.015953,2.9605198,9.323035,0.5248092,0.019013166,0.044516772,79.875,-17.737501,20.4375,46.950733,0.3361091,49.741684,0.19337934,0.042148747,0.07011312,0.9777075,0.12911274,0.15000662,0.64420253,0.7388038,-1.0,0
1763545346727,1009.9731,-1.9968106,2.845066,7.8071823,0.28993168,-0.22899793,0.081015944,79.856255,-19.237501,20.831251,46.950733,0.3361091,49.741684,0.19802846,0.042905085,0.070299126,0.9767302,0.1322805,0.15348612,0.6442001,0.73752975,-1.0,0
1763545346752,1009.90546,-1.2628121,2.4418755,8.306684,-0.14836378,-0.16623157,-0.029397868,77.55,-18.243752,21.6375,46.950733,0.3361091,49.741684,0.2008046,0.038191997,0.07030554,0.97635853,0.1372213,0.1514973,0.64453346,0.7367466,-1.0,0
1763545346777,1009.85443,-1.4285151,2.283351,8.041678,-0.2022726,0.0014508038,-0.07735075,78.787506,-18.84375,19.6875,46.950733,0.3361091,49.741684,0.1992509,0.03677905,0.069722764,0.97677284,0.1367555,0.14950436,0.64470047,0.7370941,-1.0,0
1763545346802,1009.85443,-1.6342978,2.2331018,7.585248,-0.26137376,-0.0002290743,-0.05780308,79.875,-17.1,19.462502,46.950733,0.3361091,49.741684,0.19429615,0.037249096,0.068524346,0.9778374,0.13236271,0.14703266,0.6451756,0.73797697,-1.0,0
1763545346829,1009.80536,-1.8747765,2.4035904,7.536793,-0.31299183,-0.07475458,0.020998476,78.787506,-17.456251,18.825,46.950733,0.3361091,49.741684,0.19119899,0.03664859,0.0686394,0.9784623,0.13019566,0.14473857,0.64595675,0.73813254,-1.0,0
1763545346854,1009.80536,-1.6325033,2.6004,8.199007,-0.13125958,-0.012599086,0.31757334,77.043755,-15.900001,19.3875,46.950733,0.3361091,49.741684,0.1884397,0.035787664,0.06996848,0.9789352,0.12846456,0.1424329,0.64757514,0.73746604,-1.0,0
1763545346880,1009.7778,-1.0366904,2.9467611,7.969296,0.05688678,-0.0037415468,0.4351648,78.918755,-17.34375,20.8125,46.950733,0.3361091,49.741684,0.18712375,0.03533238,0.07294421,0.978987,0.12763524,0.14132558,0.65027016,0.7354489,-1.0,0
1763545346905,1009.7609,-0.31286156,3.3469608,7.498508,0.16913319,-0.107741274,0.43180504,78.637505,-17.362501,19.7625,46.950733,0.3361091,49.741684,0.18955618,0.033138208,0.08082691,0.9779761,0.13082018,0.14112324,0.6563457,0.7295071,-1.0,0
1763545346931,1009.7609,-0.052043892,3.6987057,7.055238,0.07002038,-0.2587776,0.21036656,78.76875,-18.206251,18.712502,46.950733,0.3361091,49.741684,0.19158153,0.030499153,0.08340133,0.9774511,0.1340185,0.1402595,0.6581358,0.72747755,-1.0,0
1763545346957,1009.7421,-0.27816564,3.603591,7.673184,0.010613776,-0.17905974,0.17524183,78.356255,-17.493752,17.493752,46.950733,0.3361091,49.741684,0.19312021,0.02572631,0.08620926,0.9770418,0.13811731,0.13740769,0.660204,0.72537816,-1.0,0
1763545346982,1009.74677,-0.34516466,3.6227336,8.166703,0.03489565,-0.12163845,0.17371467,77.55,-18.46875,19.0125,46.950733,0.3361091,49.741684,0.19364628,0.024340197,0.08760625,0.9768489,0.13934684,0.13665207,0.66134965,0.7242412,-1.0,0
1763545347008,1009.74677,-0.039481573,3.932006,9.120842,0.18639012,-0.21952952,0.1532507,77.25,-19.237501,18.9375,46.950733,0.3361091,49.741684,0.1947124,0.022661183,0.08902917,0.97654873,0.1411938,0.13598074,0.6623973,0.72305137,-1.0,0
1763545347032,1009.7585,0.148355,4.0157547,9.202796,0.2766454,-0.28825182,0.07032581,76.950005,-17.90625,18.431252,46.950733,0.3361091,49.741684,0.19671759,0.020474987,0.090019785,0.9761042,0.14408608,0.13548523,0.6630627,0.72196317,-1.0,0
1763545347057,1009.778,0.3278167,4.0217366,9.023932,0.21281002,-0.35651594,-0.06253728,76.443756,-18.825,19.143751,46.950733,0.3361091,49.741684,0.20194425,0.014735665,0.088776335,0.97525394,0.1516903,0.13412187,0.6617267,0.7218858,-1.0,0
1763545347082,1009.778,0.014356935,4.1425743,9.476774,-0.25389066,-0.020693045,-0.37453645,76.631256,-18.675001,18.35625,46.950733,0.3361091,49.741684,0.20215553,0.012736082,0.08625086,0.9754649,0.15304008,0.13269436,0.66001076,0.723434,-1.0,0
1763545347107,1009.8073,-0.6221339,4.1174498,9.91825,-0.48204866,0.08116866,-0.4322632,77.4375,-18.337502,18.5625,46.950733,0.3361091,49.741684,0.19976678,0.013045069,0.082711995,0.97625905,0.15092961,0.13151881,0.65780795,0.7260935,-1.0,0
1763545347133,1009.8073,-0.75553375,3.9218364,10.375279,-0.6653081,-0.026648976,-0.3757582,77.175,-16.7625,18.337502,46.950733,0.3361091,49.741684,0.18873446,0.014548297,0.07529326,0.97902936,0.1411921,0.12608388,0.65390164,0.7325164,-1.0,0
1763545347158,1009.8378,0.069391854,3.6604204,11.0811615,-0.86597717,-0.21219915,-0.3107011,79.2375,-15.4125,16.5,46.950733,0.3361091,49.741684,0.18053827,0.012514784,0.072082266,0.98084325,0.13587025,0.11954065,0.6527012,0.7356837,-1.0,0
1763545347183,1009.88226,1.174876,2.8809586,13.771891,-0.7409026,0.040393434,-0.3181842,78.61875,-14.85,16.21875,46.950733,0.3361091,49.741684,0.17119657,0.0108181555,0.06904108,0.9827553,0.12942557,0.11258026,0.65178055,0.73875356,-1.0,0
1763545347208,1009.88226,1.2933207,2.2085752,13.680366,-0.18180864,-0.037033677,-0.29787293,78.5625,-14.868751,19.1625,46.950733,0.3361091,49.741684,0.16147263,0.010568345,0.06335895,0.9847845,0.12166494,0.10668994,0.64980876,0.74267316,-1.0,0
1763545347233,1009.9299,1.14018,2.050649,11.641681,0.16684245,-0.36583164,-0.2748128,77.418755,-14.118751,17.7,46.950733,0.3361091,49.741684,0.16277398,0.0072958646,0.060192645,0.9847986,0.124595754,0.10499759,0.64797133,0.7440327,-1.0,0
1763545347258,1009.9167,0.82612205,1.9363917,10.165309,-0.11797326,-0.29237515,-0.067118764,77.9625,-12.918751,16.95,46.950733,0.3361091,49.741684,0.16338722,0.0026313644,0.05755388,0.9848783,0.12785752,0.10175838,0.64642274,0.7452753,-1.0,0
1763545347284,1009.9167,1.1772687,2.1487548,10.701301,-0.03657553,0.026648976,-0.021609342,77.25,-13.6125,16.29375,46.950733,0.3361091,49.741684,0.16209817,-0.00026238733,0.056474973,0.9851572,0.12853518,0.098765336,0.64623845,0.7457211,-1.0,0
1763545347309,1009.90204,1.3112668,2.4658036,10.021739,0.21800236,0.09185879,-0.061162837,77.55,-12.093751,16.95,46.950733,0.3361091,49.741684,0.16317277,0.00055376854,0.05593939,0.98501027,0.12876047,0.10023172,0.6466731,0.74510956,-1.0,0
1763545347335,1009.90204,1.230509,2.9300113,7.692925,0.3520872,-0.032604907,-0.29512405,77.53125,-13.087501,15.31875,46.950733,0.3361091,49.741684,0.16646765,0.00033810234,0.054423578,0.9845438,0.13145588,0.10213202,0.64550513,0.7453936,-1.0,0
1763545347360,1009.8669,0.69571316,2.9874392,7.029515,0.2948186,0.14149155,-0.42920887,78.1125,-13.031251,15.712501,46.950733,0.3361091,49.741684,0.16987015,0.00040755045,0.05159674,0.9841147,0.13408177,0.10429821,0.6431694,0.7466439,-1.0,0
1763545347385,1009.81976,-0.15553348,2.9910283,6.430113,0.24518585,0.3079522,-0.48006335,79.537506,-14.625001,15.95625,46.950733,0.3361091,49.741684,0.17500722,0.0062518544,0.043715388,0.9835763,0.13454801,0.11208677,0.6367336,0.7509352,-1.0,0
1763545347410,1009.81976,-0.8045866,3.2805598,5.971887,0.1164461,0.045585785,-0.39668033,76.818756,-14.400001,15.468751,46.950733,0.3361091,49.741684,0.17688808,0.009773265,0.039888214,0.98337376,0.13388711,0.11601359,0.63353276,0.7531609,-1.0,0
1763545347435,1009.7575,-0.6095716,3.437888,6.526424,0.015806125,-0.11400264,-0.3919461,78.412506,-13.63125,17.1,46.950733,0.3361091,49.741684,0.17816459,0.011139264,0.03615831,0.983273,0.13407457,0.11785884,0.6304299,0.75544125,-1.0,0
1763545347460,1009.7343,-0.5138587,3.3230324,7.3621173,-0.05169443,-0.012599086,-0.383394,77.86875,-13.5375,15.150001,46.950733,0.3361091,49.741684,0.17817135,0.0115283085,0.028543089,0.9835178,0.13386302,0.118146636,0.6244212,0.7604079,-1.0,0
1763545347485,1009.7343,-0.8243274,3.4654055,8.001,-0.051389,0.19494222,-0.34063348,80.100006,-12.468751,17.325,46.950733,0.3361091,49.741684,0.17769638,0.014091909,0.025629431,0.9836506,0.13191594,0.119886465,0.62221485,0.7622822,-1.0,0
1763545347510,1009.7392,-2.204986,3.8709888,9.01795,0.0721584,0.17753258,-0.022831071,77.475006,-14.08125,14.906251,46.950733,0.3361091,49.741684,0.17771071,0.017025601,0.023767432,0.9836484,0.13013734,0.122209825,0.6207076,0.76344687,-1.0,0
1763545347535,1009.7392,-2.2528424,4.165306,9.402596,0.14057526,0.15263984,0.21815509,77.850006,-12.806251,16.35,46.950733,0.3361091,49.741684,0.17845695,0.01923353,0.023783457,0.98347217,0.1293832,0.12440576,0.62057114,0.7633313,-1.0,0
1763545347560,1009.75824,-1.8951155,4.551149,9.685548,0.11537708,0.11873684,0.38950264,78.80625,-12.58125,15.000001,46.950733,0.3361091,49.741684,0.18121801,0.021750038,0.029857738,0.982749,0.13006073,0.12805171,0.62473506,0.7592055,-1.0,0
1763545347586,1009.7924,-0.3900301,4.726423,11.648261,0.019929463,0.39988735,0.404927,80.231255,-13.312501,16.743752,46.950733,0.3361091,49.741684,0.1816949,0.022697236,0.034436405,0.98248965,0.12987293,0.12907834,0.6281149,0.75626945,-1.0,0
1763545347611,1009.7924,-0.9068798,4.838886,11.753545,0.12454005,0.74777484,0.37255114,80.25,-12.562501,16.5375,46.950733,0.3361091,49.741684,0.18190987,0.02579901,0.0389793,0.98220354,0.12813479,0.13167486,0.63159865,0.7532107,-1.0,0
1763545347636,1009.84906,-1.7198412,5.1625147,10.945967,0.16058108,0.7253256,0.46036297,79.74375,-14.868751,18.431252,46.950733,0.3361091,49.741684,0.1844406,0.038678326,0.049366277,0.9808408,0.12228336,0.14339152,0.6388576,0.7458865,-1.0,0
1763545347661,1009.862,-1.3998013,4.9375896,10.639088,0.08147409,0.3661371,0.5180897,81.05625,-13.593751,16.518751,46.950733,0.3361091,49.741684,0.18541263,0.041488137,0.05487339,0.9802499,0.121350065,0.14619602,0.64277333,0.7421208,-1.0,0
1763545347686,1009.862,-0.31046873,3.4594233,11.799008,0.10621411,0.24426955,0.43073604,81.65625,-13.425,17.681252,46.950733,0.3361091,49.741684,0.18557623,0.0419673,0.060007326,0.9798976,0.121163286,0.1466944,0.6467376,0.73860055,-1.0,0
1763545347711,1009.89325,-0.6771688,3.0448668,10.956735,0.21296273,0.19631667,0.348422,80.662506,-14.025001,17.98125,46.950733,0.3361091,49.741684,0.18636833,0.043437086,0.06449135,0.97939825,0.12081827,0.14840108,0.6503411,0.7351439,-1.0,0
1763545347736,1009.89325,-0.71306115,2.8642087,9.8117695,0.043905906,-0.2070068,0.3165043,80.025,-15.712501,18.13125,46.950733,0.3361091,49.741684,0.18850002,0.04225676,0.07063541,0.9786178,0.123059526,0.14891018,0.6555423,0.7300318,-1.0,0
1763545347761,1009.8835,-0.16869399,2.7128627,10.076176,-0.25633413,-0.38476846,0.24976733,80.025,-15.712501,18.13125,46.950733,0.3361091,49.741684,0.18617272,0.03793085,0.07239977,0.97911143,0.12379892,0.14412792,0.65760636,0.7290095,-1.0,0
1763545347786,1009.8962,0.29790643,2.181058,10.475778,-0.39011353,0.24197881,-0.003130682,79.818756,-14.606251,17.79375,46.950733,0.3361091,49.741684,0.18192877,0.036270913,0.07347043,0.9798921,0.121365294,0.14030011,0.6594463,0.7285032,-1.0,0
1763545347812,1009.8962,-0.4235296,2.4107687,9.680164,-0.20975569,0.37972882,-0.027259842,81.918755,-14.38125,17.081251,46.950733,0.3361091,49.741684,0.17507362,0.041408278,0.07449872,0.9808591,0.11261363,0.14029825,0.66182005,0.72775596,-1.0,0
1763545347837,1009.8715,-1.0893325,2.9180472,7.2987075,0.099341884,0.13950625,0.19891284,81.037506,-15.1125,17.23125,46.950733,0.3361091,49.741684,0.17465511,0.044426095,0.0756391,0.9807143,0.110374056,0.1424628,0.66290617,0.7266893,-1.0,0
1763545347863,1009.8044,-0.7190432,3.2757742,6.79442,0.10483967,-0.008628465,0.2711476,79.575005,-15.750001,17.868752,46.950733,0.3361091,49.741684,0.17556068,0.04564244,0.07769466,0.98033607,0.11031856,0.14399515,0.6644012,0.72502846,-1.0,0
1763545347888,1009.8044,-0.5371887,3.3792639,6.7848487,0.093996815,-0.108963005,0.2928333,80.55,-15.281251,18.525002,46.950733,0.3361091,49.741684,0.17809513,0.043872584,0.08273755,0.9795467,0.113427624,0.14414176,0.66778004,0.7214064,-1.0,0
1763545347913,1009.758,-0.3924229,3.676572,7.4907312,0.1155298,-0.303218,0.34246606,81.375,-14.94375,16.25625,46.950733,0.3361091,49.741684,0.179524,0.041487228,0.085450955,0.9791568,0.116030194,0.14313297,0.6696357,0.7194706,-1.0,0
1763545347939,1009.73334,-0.039481573,3.714259,8.105088,0.14744748,-0.3192532,0.29741478,80.418755,-15.39375,15.150001,46.950733,0.3361091,49.741684,0.18118241,0.0381656,0.08811672,0.9787501,0.119396694,0.14152071,0.67140716,0.7175853,-1.0,0
1763545347965,1009.73334,0.14057833,3.671188,8.72483,0.20609051,-0.25923574,0.211741,81.75,-14.531251,16.650002,46.950733,0.3361091,49.741684,0.1854219,0.0319841,0.091812335,0.97783756,0.12654081,0.13925405,0.6737623,0.71459085,-1.0,0
1763545347991,1009.7392,-0.6765706,3.510869,9.217153,0.35254532,-0.05093085,0.16714787,80.756256,-15.750001,17.1375,46.950733,0.3361091,49.741684,0.18823794,0.030283606,0.09273294,0.9772666,0.12979074,0.13966024,0.67422086,0.7134953,-1.0,0
1763545348017,1009.75116,-0.56769717,3.3314073,9.148359,0.4785362,0.050625417,0.23327398,80.981255,-16.96875,15.4875,46.950733,0.3361091,49.741684,0.19160251,0.02990386,0.09410169,0.97649324,0.13265438,0.1414517,0.67493904,0.71193504,-1.0,0
1763545348043,1009.75116,-0.0017946169,3.35055,8.657232,0.5820778,-0.025121814,0.21006113,82.350006,-15.31875,14.775001,46.950733,0.3361091,49.741684,0.20146789,0.030373977,0.09800095,0.9741067,0.14006683,0.14796339,0.67690724,0.7073081,-1.0,0
1763545348068,1009.7541,0.927817,3.196811,7.6977105,0.42722356,-0.13645191,-0.12438734,78.918755,-19.050001,17.362501,46.950733,0.3361091,49.741684,0.20694484,0.02927012,0.098250344,0.9729666,0.14501637,0.15050969,0.6766183,0.7060487,-1.0,0
1763545348094,1009.7541,0.22432712,3.7573297,6.9361944,0.07658717,0.10682498,-0.35178176,79.51875,-18.35625,15.8625,46.950733,0.3361091,49.741684,0.21098152,0.028363526,0.09673316,0.97227824,0.14870957,0.1523258,0.67520976,0.7062394,-1.0,0
1763545348119,1009.7541,-1.1330016,4.2598224,6.934998,-0.4379137,0.34888014,-0.46662432,79.5,-16.143751,18.225,46.950733,0.3361091,49.741684,0.20726553,0.034016084,0.090083614,0.97353417,0.142325,0.1544658,0.6706311,0.71143365,-1.0,0
1763545348145,1009.75116,-1.3848461,3.8997028,8.520244,-0.8021418,0.2511418,-0.45730865,81.543755,-15.656251,14.887501,46.950733,0.3361091,49.741684,0.19945003,0.036898468,0.086501986,0.97538483,0.13440453,0.15191193,0.668894,0.71514964,-1.0,0
1763545348170,1009.75116,-0.68135625,3.5060835,12.094522,-1.1074215,-0.42233664,-0.5255728,80.287506,-15.3,16.06875,46.950733,0.3361091,49.741684,0.19011724,0.035416562,0.08197408,0.9776918,0.12792708,0.14502953,0.66693443,0.7195829,-1.0,0
1763545348195,1009.7829,-1.2053844,2.7834508,14.281562,-0.923093,-0.14240785,-0.48311767,81.8625,-15.39375,17.00625,46.950733,0.3361091,49.741684,0.17959225,0.03156297,0.07659681,0.98024654,0.12197938,0.1355383,0.6644432,0.7247521,-1.0,0
1763545348220,1009.85785,-2.2211375,2.1337996,14.542379,-0.3777435,0.16821688,-0.20715952,81.506256,-12.3,14.700001,46.950733,0.3361091,49.741684,0.16583602,0.032429993,0.070388034,0.9831034,0.110398695,0.12792741,0.6625318,0.7297248,-1.0,0
1763545348246,1009.85785,-1.8999012,2.3114667,12.537792,0.07536544,-0.076434456,0.17692171,80.4,-14.043751,15.525001,46.950733,0.3361091,49.741684,0.16606116,0.03184389,0.07186215,0.98297787,0.11084154,0.12768905,0.66416264,0.7282154,-1.0,0
1763545348272,1009.851,1.9764715,2.7786653,9.518648,-0.26687154,-0.5258782,0.13614649,81.506256,-13.05,14.26875,46.950733,0.3361091,49.741684,0.16467983,0.02037386,0.07448467,0.9833196,0.11674875,0.117916375,0.66703826,0.7263095,-1.0,0
1763545348297,1009.851,2.0889342,2.9078777,9.602996,-0.6332377,-0.11293363,-0.14744748,81.61875,-14.00625,12.618751,46.950733,0.3361091,49.741684,0.15869202,0.018488063,0.07309295,0.9844453,0.11318416,0.11275777,0.6668235,0.72788835,-1.0,0
1763545348322,1009.8691,-0.13758731,2.9724839,10.556536,-0.5248092,0.270384,-0.28886268,81.1875,-11.8125,13.1625,46.950733,0.3361091,49.741684,0.15141554,0.020388566,0.07069168,0.9857283,0.106269084,0.10976903,0.66589135,0.7302372,-1.0,0
1763545348347,1009.8903,-0.5665008,2.8103702,10.102497,-0.1711185,0.050778136,-0.14301872,81.543755,-11.306251,14.793751,46.950733,0.3361091,49.741684,0.14612928,0.02293024,0.0684463,0.98662835,0.100528054,0.10850656,0.6647957,0.73223436,-1.0,0
1763545348372,1009.8903,-0.46121657,2.8516464,9.212965,0.13492475,-0.10804671,-0.020387612,80.30625,-11.793751,13.70625,46.950733,0.3361091,49.741684,0.14570461,0.022711372,0.06680231,0.9868089,0.10030786,0.10809242,0.6637682,0.73325723,-1.0,0
1763545348397,1009.8708,-0.19322042,3.3427732,7.167102,0.3427715,0.14118612,-0.017180571,80.231255,-12.168751,13.125001,46.950733,0.3361091,49.741684,0.14873704,0.022439318,0.0668429,0.98635983,0.1028527,0.10976134,0.66354954,0.73285455,-1.0,0
1763545348422,1009.8278,-0.17587246,3.5742788,6.5898337,0.29038984,0.23953535,-0.097814724,81.675,-11.418751,15.093751,46.950733,0.3361091,49.741684,0.15212613,0.024038648,0.06681125,0.9858073,0.10454112,0.11309895,0.66305995,0.7325512,-1.0,0
1763545348447,1009.8278,-0.3361916,3.644269,6.4002023,0.19326234,0.21968225,-0.17905974,81.95625,-12.243751,14.343751,46.950733,0.3361091,49.741684,0.15704829,0.029173587,0.064748615,0.98503417,0.10530391,0.12010973,0.66047883,0.7336569,-1.0,0
1763545348472,1009.7753,-0.6969096,3.676572,7.48774,0.037491824,0.1805869,-0.19921827,81.15,-13.312501,13.875001,46.950733,0.3361091,49.741684,0.15799008,0.031116512,0.06303946,0.984935,0.10488843,0.12217822,0.6587911,0.73489124,-1.0,0
1763545348498,1009.7753,-0.6969096,3.676572,7.48774,0.037491824,0.1805869,-0.19921827,80.25,-12.7875,13.312501,46.950733,0.3361091,49.741684,0.1584722,0.033242848,0.06140601,0.98489124,0.103984326,0.12412002,0.6572886,0.73603886,-1.0,0
1763545348523,1009.76483,-1.3082758,3.4450665,7.967501,0.12133302,0.2700786,-0.011071924,82.36875,-11.587501,15.337501,46.950733,0.3361091,49.741684,0.16040766,0.03909471,0.060858995,0.9843969,0.10192326,0.12988712,0.65634614,0.73617303,-1.0,0
1763545348548,1009.8046,-1.3896317,3.8111682,8.5938225,0.1466839,0.12560907,0.09674571,83.34375,-11.85,14.475,46.950733,0.3361091,49.741684,0.16195023,0.04045798,0.061896376,0.98402447,0.10232133,0.13189037,0.656774,0.73537964,-1.0,0
1763545348574,1009.8046,-0.5712864,4.074379,9.265608,0.23174682,-0.10636683,0.025579963,81.65625,-11.418751,15.712501,46.950733,0.3361091,49.741684,0.16448545,0.040315595,0.062811784,0.9835516,0.104419544,0.1333318,0.65710753,0.7345263,-1.0,0
1763545348599,1009.83856,-0.49232325,4.171288,8.983254,-0.023747368,-0.09644028,-0.08895718,81.262505,-12.69375,14.906251,46.950733,0.3361091,49.741684,0.16696598,0.03864451,0.06181284,0.983264,0.10744247,0.13351832,0.65592396,0.7351141,-1.0,0
1763545348624,1009.8625,-0.8141579,4.3322053,9.745967,-0.3661371,0.06482802,-0.12331833,81.262505,-12.69375,15.356251,46.950733,0.3361091,49.741684,0.16363293,0.039288532,0.060883354,0.9838566,0.10444993,0.13194521,0.65541106,0.7362859,-1.0,0
1763545348649,1009.8625,-1.5433706,4.874778,11.902498,-0.46494445,0.30367616,0.107435845,83.418755,-12.225,15.1125,46.950733,0.3361091,49.741684,0.15870863,0.04249094,0.061349142,0.98450106,0.09862793,0.13140184,0.6560139,0.73664904,-1.0,0
1763545348674,1009.8754,-1.1174482,4.273581,12.165709,-0.37224573,-0.16943862,0.19372049,83.4,-11.493751,15.525001,46.950733,0.3361091,49.741684,0.1543846,0.045130767,0.06301554,0.9849658,0.093628295,0.13078657,0.65743303,0.7361457,-1.0,0
1763545348699,1009.89374,-0.4755735,3.4259238,12.795021,-0.19524765,-0.36338818,0.2314414,83.25,-11.625,14.625001,46.950733,0.3361091,49.741684,0.14955215,0.03915847,0.066521764,0.9857361,0.093499936,0.12311375,0.6607363,0.7345259,-1.0,0
1763545348725,1009.89374,-1.0115658,2.3718855,10.697114,0.50602514,0.016416991,0.1882227,82.51875,-11.700001,14.1,46.950733,0.3361091,49.741684,0.15114158,0.038333826,0.06824537,0.9854082,0.09520051,0.12349137,0.66224,0.73288804,-1.0,0
1763545348751,1009.8437,-1.3435699,2.0638096,8.327621,0.30367616,-0.43501207,0.12224931,82.40625,-12.093751,15.525001,46.950733,0.3361091,49.741684,0.15571107,0.038597744,0.06985933,0.984573,0.098574184,0.1265656,0.66332465,0.7309341,-1.0,0
1763545348777,1009.8586,-1.6612171,1.791626,8.142178,-0.31299183,-0.7268527,0.12224931,81.693756,-12.150001,13.743751,46.950733,0.3361091,49.741684,0.15608373,0.027680459,0.070326544,0.98484814,0.10555742,0.11826228,0.66420746,0.7305478,-1.0,0
1763545348802,1009.8586,-1.0049855,0.80937225,11.884552,-0.68821555,0.06498074,0.15462515,82.0875,-11.606251,14.2875,46.950733,0.3361091,49.741684,0.14887287,0.023034068,0.07127202,0.9860155,0.102706365,0.11020481,0.666048,0.7305384,-1.0,0
1763545348827,1009.8598,-1.3764713,0.82971126,11.949757,-0.28260133,0.32994333,0.2352593,81.65625,-11.64375,12.937501,46.950733,0.3361091,49.741684,0.14168271,0.023085391,0.072962694,0.9869496,0.096937835,0.10587719,0.66856134,0.72967035,-1.0,0
1763545348852,1009.8598,-1.4392828,1.3040884,10.746765,0.14179699,0.2532798,0.33727372,82.443756,-11.325001,13.462501,46.950733,0.3361091,49.741684,0.13887347,0.028196419,0.07917227,0.9867375,0.09139861,0.108292066,0.67443144,0.72461116,-1.0,0
1763545348878,1009.8239,-1.1581261,1.8125632,9.262616,0.39515316,0.18226677,0.40324712,83.287506,-12.1125,15.281251,46.950733,0.3361091,49.741684,0.14231102,0.029897436,0.08312502,0.9858722,0.092992514,0.1117975,0.67729104,0.7212008,-1.0,0
1763545348903,1009.7707,-1.0504491,2.6303103,7.1485577,0.41683885,0.36109746,0.45425433,80.9625,-12.731251,14.925,46.950733,0.3361091,49.741684,0.14643596,0.03242898,0.087446414,0.98481363,0.094633766,0.116359696,0.680147,0.71756876,-1.0,0
1763545348929,1009.7707,-0.7932207,2.661417,7.0522466,0.45547605,0.36384633,0.49350238,81.4875,-14.531251,14.83125,46.950733,0.3361091,49.741684,0.15028344,0.03575704,0.092129245,0.9836913,0.09558431,0.12135616,0.6831095,0.7137911,-1.0,0
1763545348953,1009.71967,-0.42652065,2.789433,6.674779,0.54008085,0.21952952,0.47823077,81.168755,-14.700001,14.400001,46.950733,0.3361091,49.741684,0.15971743,0.040974658,0.101831585,0.98104113,0.0997442,0.13129996,0.68903655,0.70571953,-1.0,0
1763545348978,1009.71967,-0.19441684,3.0927234,6.1040907,0.47349656,-0.12255475,0.38293585,81.637505,-15.900001,15.50625,46.950733,0.3361091,49.741684,0.16466965,0.039692003,0.10508593,0.9799313,0.10444077,0.13335544,0.690801,0.7029242,-1.0,0
1763545349003,1009.7004,-0.49471608,3.054438,7.0151577,-0.058108512,-0.3165043,0.19677481,82.481255,-15.95625,16.96875,46.950733,0.3361091,49.741684,0.16751489,0.036256496,0.10678202,0.9793987,0.10883936,0.1324,0.6916136,0.7016372,-1.0,0
1763545349028,1009.73724,-0.35413775,2.8468606,8.600403,-0.17004949,-0.17004949,0.21342088,81.731255,-16.987501,13.70625,46.950733,0.3361091,49.741684,0.16615671,0.030887906,0.109933235,0.9794655,0.11111333,0.12734184,0.69408894,0.6997703,-1.0,0
1763545349053,1009.73724,0.4660022,2.8037899,10.300504,0.17646356,-0.19341506,0.10377065,83.662506,-14.793751,13.06875,46.950733,0.3361091,49.741684,0.16577071,0.029370986,0.11156295,0.97939324,0.11171878,0.12594244,0.695507,0.69851804,-1.0,0
1763545349078,1009.767,0.63170516,2.8965118,9.696914,0.23006694,-0.35162905,-0.038560838,80.137505,-16.1625,14.75625,46.950733,0.3361091,49.741684,0.16749354,0.027405098,0.11220418,0.9790838,0.11424566,0.12551118,0.6960634,0.69763213,-1.0,0
1763545349103,1009.8088,0.6203393,2.978466,9.422338,0.035964664,-0.37316203,-0.1796706,81.7125,-15.525001,15.468751,46.950733,0.3361091,49.741684,0.17051816,0.020814782,0.10893474,0.97909325,0.12064165,0.12229182,0.6938949,0.69928545,-1.0,0
1763545349129,1009.8088,0.28115666,3.187838,9.715458,-0.23174682,-0.03581195,-0.31024295,79.818756,-15.58125,14.75625,46.950733,0.3361091,49.741684,0.16824605,0.02062561,0.10600021,0.97981215,0.1189564,0.12075396,0.6921761,0.70154124,-1.0,0
1763545349155,1009.8327,-0.7603194,3.5766716,10.415359,-0.5455786,0.26244277,-0.39530587,80.4375,-14.64375,14.94375,46.950733,0.3361091,49.741684,0.16360258,0.023709856,0.10291757,0.9808568,0.11338939,0.12029468,0.6904844,0.704204,-1.0,0
1763545349180,1009.8327,-0.61016977,3.610171,10.919048,-0.53733194,0.02573268,-0.3684278,80.4375,-14.64375,14.94375,46.950733,0.3361091,49.741684,0.15809304,0.02640038,0.09969435,0.9820238,0.10739788,0.11897932,0.68870676,0.7071016,-1.0,0
1763545349205,1009.872,0.2416751,3.5288153,11.050055,-0.57337296,-0.20609051,-0.41149378,81.95625,-12.993751,13.462501,46.950733,0.3361091,49.741684,0.14756273,0.024861982,0.09230187,0.9844224,0.10010032,0.11123311,0.68445444,0.7135329,-1.0,0
1763545349230,1009.9328,0.9092726,3.3487554,11.622538,-0.69600403,-0.24152066,-0.5180897,82.78125,-13.275001,13.5375,46.950733,0.3361091,49.741684,0.14106986,0.022419833,0.08722001,0.98589516,0.09652652,0.10529001,0.68144304,0.7177966,-1.0,0
1763545349257,1009.94696,0.31585258,1.9357935,13.476975,-0.24961463,-0.1353829,-0.4672352,81.787506,-10.14375,14.400001,46.950733,0.3361091,49.741684,0.1321155,0.02052894,0.07717391,0.98801225,0.09060719,0.09831724,0.6755074,0.7251302,-1.0,0
1763545349282,1009.94696,0.53359944,1.5966109,12.636497,0.26519167,-0.36231917,-0.24869832,81.356255,-9.337501,15.468751,46.950733,0.3361091,49.741684,0.1343888,0.017394748,0.07429824,0.98798627,0.09426644,0.0973487,0.6737712,0.7264086,-1.0,0
1763545349307,1009.9245,1.9734805,1.7934206,9.503095,0.29161158,-0.6011673,-0.25282165,80.45625,-10.275001,13.762501,46.950733,0.3361091,49.741684,0.13902336,0.012304238,0.0720021,0.9875914,0.10100661,0.09631488,0.6721574,0.7271351,-1.0,0
1763545349332,1009.9245,1.7718852,1.7126628,9.40798,-0.04650208,-0.31299183,-0.3520872,79.443756,-11.75625,12.88125,46.950733,0.3361091,49.741684,0.14150918,0.0036374154,0.065055326,0.9877903,0.108277656,0.09118126,0.667468,0.73105973,-1.0,0
1763545349358,1009.90497,1.1210374,1.6079768,9.745967,-0.24518585,0.09598213,-0.3853793,80.7375,-9.75,12.168751,46.950733,0.3361091,49.741684,0.1388322,0.0045937737,0.061549805,0.9883906,0.105543956,0.09031032,0.66547316,0.7333826,-1.0,0
1763545349384,1009.8564,-0.08673982,2.1732812,9.5455675,0.10789399,0.37071857,-0.17692171,79.05,-9.9375,14.19375,46.950733,0.3361091,49.741684,0.13658786,0.008012707,0.059129823,0.9888292,0.10162498,0.09161229,0.6641038,0.7350141,-1.0,0
1763545349409,1009.8564,-0.17168503,2.461018,8.187641,0.38599017,0.23464844,-0.099800035,80.64375,-10.762501,13.781251,46.950733,0.3361091,49.741684,0.13723892,0.011837446,0.057918396,0.9887724,0.09971541,0.0950341,0.6633367,0.73553365,-1.0,0
1763545349434,1009.7863,-0.2321038,2.5938199,6.847062,0.4841867,0.10392337,-0.077961616,81.0,-11.1,14.83125,46.950733,0.3361091,49.741684,0.1454088,0.01582967,0.056553762,0.98762715,0.10358933,0.10326443,0.6616053,0.73544824,-1.0,0
1763545349459,1009.7204,-1.1162517,2.9515467,5.7834525,0.2615265,0.09353867,0.022372922,81.09375,-11.475,14.38125,46.950733,0.3361091,49.741684,0.14953844,0.016986944,0.056015402,0.98702174,0.106106915,0.10673156,0.66068214,0.7354242,-1.0,0
1763545349484,1009.7204,-1.4476577,3.1052856,6.136992,0.10224349,0.0721584,0.19020802,81.84375,-9.7875,15.450001,46.950733,0.3361091,49.741684,0.15222813,0.018217308,0.05629694,0.98657256,0.107468665,0.1093424,0.6604105,0.7350868,-1.0,0
1763545349509,1009.69086,-1.3316058,3.4331024,7.0689964,0.056734066,0.035048366,0.3523926,84.4875,-9.75,15.31875,46.950733,0.3361091,49.741684,0.15428706,0.019192355,0.061525118,0.9859218,0.10853261,0.11132618,0.6636543,0.7317036,-1.0,0
1763545349534,1009.69086,-1.2658032,3.8015969,7.867601,0.12515092,0.01244637,0.47884163,80.68125,-11.26875,15.187501,46.950733,0.3361091,49.741684,0.15582632,0.018976644,0.06604863,0.98539114,0.10990627,0.11208285,0.66661817,0.7286826,-1.0,0
