Time,Accel_X,Accel_Y,Accel_Z,Gyro_X,Gyro_Y,Gyro_Z,Mag_X,Mag_Y,Mag_Z,Orient_X,Orient_Y,Orient_Z,Pressure,Lat,Lng,Alt,Speed
2025-09-27 18:01:42.136,0.5455636,4.694718,6.8602223,0.10476331,-0.36514443,-0.03375028,-16.893751,-44.4375,-33.600002,0.17516434,0.14689818,0.6925463,1001.75287,37.88830144,127.73990206,146.16094970703125,0.0
2025-09-27 18:01:42.156,0.4546363,4.0845485,8.946764,-0.11148282,0.20295982,0.08048143,-15.375001,-45.99375,-37.3875,0.1755919,0.14593764,0.69299567,1001.758, , , , 
2025-09-27 18:01:42.176,0.60777694,4.0127635,10.191031,0.14385866,0.042302385,0.053603385,-15.562501,-45.91875,-33.825,0.17421985,0.14686066,0.69376504,1001.758, , , , 
2025-09-27 18:01:42.196,0.09571291,4.319045,9.229117,0.30573782,-0.29550585,0.007177661,-15.8625,-44.34375,-32.025,0.17684129,0.14734903,0.6932971,1001.7404, , , , 
2025-09-27 18:01:42.216,0.2416751,4.6396832,8.4682,0.27091852,-0.4225657,0.012675445,-17.56875,-46.275,-31.725,0.18135282,0.14676462,0.6922593,1001.7404, , , , 
2025-09-27 18:01:42.236,0.6795616,4.7832522,8.092526,0.14263692,-0.23441936,-0.020311253,-17.1375,-46.10625,-30.093752,0.18502143,0.1460471,0.6913339,1001.7131, , , , 
2025-09-27 18:01:42.256,0.68195444,4.735396,8.480164,-0.014355322,0.044745844,-0.05574141,-18.73125,-45.506252,-31.968752,0.18599795,0.14598691,0.69081664,1001.7131, , , , 
2025-09-27 18:01:42.276,0.46181476,4.57747,8.650054,-0.07299834,0.13271037,-0.06429352,-17.7,-46.143753,-32.193752,0.18506382,0.14647108,0.6906387,1001.6894, , , , 
2025-09-27 18:01:42.296,0.50009996,4.496114,9.025727,-0.0876591,0.13148865,-0.055130545,-18.69375,-46.631252,-31.125002,0.18351182,0.14694075,0.6905995,1001.6894, , , , 
2025-09-27 18:01:42.316,1.7826529,5.0344987,9.781859,-0.0051923506,0.07589995,-0.06856957,-15.637501,-46.18125,-32.4,0.18221915,0.14740899,0.69054407,1001.6557, , , , 
2025-09-27 18:01:42.337,0.12921242,3.76391,9.075976,0.13347395,-0.07498365,-0.15225805,-17.04375,-46.4625,-31.0125,0.18294613,0.14778425,0.68944734,1001.6557, , , , 
2025-09-27 18:01:42.356,0.74177504,5.0177493,9.107083,0.1640172,-0.11285727,-0.13087778,-18.16875,-46.21875,-30.431252,0.1840819,0.14858024,0.68819255,1001.61053, , , , 
2025-09-27 18:01:42.376,0.58624154,4.534399,8.717052,0.12064579,-0.159283,-0.16386448,-16.96875,-47.456253,-29.718752,0.18596457,0.14876272,0.68668926,1001.61053, , , , 
2025-09-27 18:01:42.396,0.29192436,4.7138605,8.700303,0.07788526,-0.15195261,-0.119271345,-18.28125,-48.112503,-28.931252,0.1873309,0.14868705,0.6853162,1001.5607, , , , 
2025-09-27 18:01:42.416,0.4761717,4.5966125,8.571091,0.0650571,-0.18616104,-0.09483676,-17.212502,-47.362503,-31.237501,0.18881059,0.14828886,0.6841728,1001.5607, , , , 
2025-09-27 18:01:42.436,0.64606214,4.644469,8.46102,0.004581486,-0.117744185,-0.06368265,-15.562501,-45.693752,-31.050001,0.19004588,0.14764872,0.68326986,1001.5219, , , , 
2025-09-27 18:01:42.456,0.33260235,4.3118663,8.29113,-0.06627883,0.037415467,-0.05574141,-18.2625,-45.862503,-29.831251,0.1902041,0.14713421,0.68276966,1001.5219, , , , 
2025-09-27 18:01:42.478,0.38285163,4.6731825,8.616554,-0.09193515,0.102778,-0.0056504994,-17.550001,-46.03125,-30.675001,0.18864563,0.14736688,0.6828984,1001.49384, , , , 
2025-09-27 18:01:42.497,0.41635114,4.4339004,8.671589,-0.062613636,0.044745844,0.0151189035,-19.5,-47.081253,-31.48125,0.18772507,0.14734858,0.6831755,1001.49384, , , , 
2025-09-27 18:01:42.517,0.57906306,4.486542,8.575876,-0.08704823,0.11377356,0.038331766,-15.656251,-46.93125,-32.2125,0.18686402,0.1472995,0.6835691,1001.48553, , , , 
2025-09-27 18:01:42.536,0.51445687,4.4889355,8.549556,-0.11453715,0.16142102,0.0377209,-16.931252,-45.956253,-31.81875,0.1853373,0.1474831,0.6842166,1001.48553, , , , 
2025-09-27 18:01:42.556,0.38285163,4.508078,8.650054,-0.1744019,0.24572036,0.046273008,-17.081251,-45.3375,-32.1375,0.18296671,0.14788711,0.6850992,1001.476, , , , 
2025-09-27 18:01:42.576,0.37567315,4.429115,9.128618,-0.13347395,0.13942988,0.031001387,-17.1375,-46.10625,-30.093752,0.1810947,0.1480865,0.68577576,1001.476, , , , 
2025-09-27 18:01:42.596,0.31345975,4.4004006,9.202796,-0.05650499,0.023976443,0.028557928,-18.45,-46.237503,-31.800001,0.17877711,0.14773679,0.686546,1001.49335, , , , 
2025-09-27 18:01:42.616,0.3493521,4.510471,9.174082,-0.027183482,-0.0108428495,0.037110034,-17.625,-47.025,-29.681252,0.17833087,0.1474542,0.6867804,1001.49335, , , , 
2025-09-27 18:01:42.637,0.37328035,4.5918264,8.915657,0.012522728,-0.067653276,0.038331766,-17.34375,-45.862503,-31.931252,0.17852531,0.14708738,0.6870257,1001.50775, , , , 
2025-09-27 18:01:42.656,0.36610186,4.6085763,8.685946,-0.0070249448,-0.07498365,0.028557928,-17.8875,-46.29375,-31.237501,0.17924458,0.14677513,0.68704486,1001.50775, , , , 
2025-09-27 18:01:42.676,0.4833502,4.536792,8.781659,-0.055283263,-0.026725333,0.016340632,-17.41875,-45.375,-31.031252,0.17955315,0.14644532,0.6871048,1001.52313, , , , 
2025-09-27 18:01:42.696,0.45942193,4.4913282,8.886943,-0.062613636,-0.034666575,0.012064579,-17.2875,-45.506252,-30.562502,0.1794683,0.14594018,0.68719894,1001.52313, , , , 
2025-09-27 18:01:42.716,0.47138608,4.3932223,9.001799,-0.050396346,0.01970039,0.0016798781,-16.556252,-46.912502,-30.562502,0.17923433,0.14542164,0.68730426,1001.5446, , , , 
2025-09-27 18:01:42.738,0.37567315,4.453043,8.750552,-0.037568185,0.07895427,-0.003817905,-18.675001,-45.99375,-33.16875,0.17834948,0.14545919,0.6875014,1001.5446, , , , 
2025-09-27 18:01:42.757,0.4019942,4.4745784,8.831908,-0.051618073,0.04963276,-0.009926553,-18.300001,-47.081253,-32.850002,0.17764348,0.14577772,0.68759143,1001.57, , , , 
2025-09-27 18:01:42.776,0.36131623,4.4578285,9.097511,-0.031459536,0.006261364,-0.020922119,-17.362501,-46.5,-29.8875,0.17715403,0.14569722,0.6875569,1001.57, , , , 
2025-09-27 18:01:42.796,0.41635114,4.354937,8.915657,-0.022907428,-0.029779658,-0.028252495,-16.331251,-48.131252,-32.0625,0.17702602,0.14543653,0.68739164,1001.59393, , , , 
2025-09-27 18:01:42.818,0.37088752,4.319045,9.123833,-0.038789913,0.054519683,-0.021532983,-16.368752,-45.61875,-34.66875,0.17668743,0.14522463,0.6872711,1001.59393, , , , 
2025-09-27 18:01:42.837,0.17467605,4.342973,8.958728,-0.016187917,0.093615025,0.00962112,-15.637501,-46.18125,-32.71875,0.17567225,0.1455346,0.6874057,1001.62494, , , , 
2025-09-27 18:01:42.857,0.25603202,4.302295,8.867801,-0.004581486,0.07773254,0.022449281,-15.468751,-45.300003,-32.775,0.17474802,0.14613874,0.6876546,1001.62494, , , , 
2025-09-27 18:01:42.876,0.24646074,4.3334017,8.60459,-0.032681264,0.0923933,0.032833982,-16.29375,-46.3875,-31.087502,0.17395139,0.1467132,0.6879602,1001.6501, , , , 
2025-09-27 18:01:42.896,0.4235296,4.388437,8.745767,-0.085215636,0.12049308,0.011453714,-16.425001,-44.90625,-31.312502,0.17270027,0.14723328,0.6884333,1001.6501, , , , 
2025-09-27 18:01:42.917,0.30388847,4.3788652,8.76491,-0.12675445,0.12782346,-0.003817905,-16.518751,-45.412502,-32.04375,0.17134257,0.14739957,0.68878573,1001.6779, , , , 
2025-09-27 18:01:42.938,0.15314065,4.3262234,9.08794,-0.116980605,0.113162704,0.02489274,-17.38125,-44.625,-32.625,0.169542,0.14748505,0.6892064,1001.6779, , , , 
2025-09-27 18:01:42.957,0.33738798,4.354937,8.803194,-0.06444623,0.025809037,0.02611447,-16.1625,-45.131252,-32.100002,0.16830735,0.14738972,0.68964994,1001.7028, , , , 
2025-09-27 18:01:42.978,0.5623133,4.4075794,8.374879,-0.0754418,-0.05421425,0.008399391,-16.893751,-44.9625,-30.956251,0.16832079,0.14697437,0.6898111,1001.7028, , , , 
2025-09-27 18:01:42.997,0.28235307,4.3094735,8.647661,-0.10109812,-0.014508039,-0.014813471,-16.143751,-45.112503,-33.80625,0.16862911,0.14589657,0.6897135,1001.74457, , , , 
2025-09-27 18:01:43.017,0.47377887,4.15394,9.195618,-0.07666353,0.022754714,-0.020922119,-16.050001,-45.225002,-32.268753,0.16816516,0.14549117,0.68971086,1001.74457, , , , 
2025-09-27 18:01:43.037,0.44027936,4.273581,8.975478,-0.062613636,0.043524116,-0.06307179,-16.800001,-46.912502,-33.318752,0.16738974,0.14481983,0.6895931,1001.7758, , , , 
2025-09-27 18:01:43.058,0.011964113,4.28076,9.006584,-0.10109812,0.07773254,-0.05146536,-15.187501,-46.0125,-32.006252,0.16635232,0.14483197,0.6893547,1001.7758, , , , 
2025-09-27 18:01:43.077,0.22731815,4.1898327,9.348758,-0.082161315,0.050854493,-0.021532983,-15.243751,-44.90625,-32.362503,0.1648966,0.14487492,0.689341,1001.79095, , , , 
2025-09-27 18:01:43.097,0.30388847,4.194618,9.269794,-0.014966187,-0.04016436,-0.009926553,-14.906251,-46.21875,-33.412502,0.16421528,0.14443116,0.6893742,1001.79095, , , , 
2025-09-27 18:01:43.119,0.4881358,4.2448673,9.142975,0.014355322,-0.063377224,-0.024587307,-16.3875,-46.256252,-32.325,0.16463263,0.1436951,0.689197,1001.80756, , , , 
2025-09-27 18:01:43.137,0.6843473,4.3238306,8.851051,-0.0027488915,-0.07192933,-0.0594066,-16.518751,-45.412502,-32.04375,0.16521417,0.14324814,0.68894905,1001.80756,37.88830144,127.73990206,146.16094970703125,0.0
2025-09-27 18:01:43.157,0.47856453,4.3094735,8.76491,-0.06994402,0.0056504994,-0.10949751,-16.275002,-45.0,-33.018753,0.16581841,0.1426178,0.68839383,1001.81146, , , , 
2025-09-27 18:01:43.177,0.19860429,4.182654,9.071191,-0.09315688,0.06918044,-0.08689552,-15.88125,-45.84375,-31.931252,0.16479005,0.14249921,0.6877701,1001.81146, , , , 
2025-09-27 18:01:43.198,0.3493521,4.2017965,9.078369,-0.042455103,0.010537418,-0.087506376,-16.2,-46.85625,-33.393753,0.16381139,0.14247596,0.68739074,1001.8107, , , , 
2025-09-27 18:01:43.217,0.10767702,4.213761,8.755338,-0.012522728,-0.093309596,-0.10155627,-14.26875,-46.55625,-31.29375,0.1639376,0.14212672,0.686673,1001.8107, , , , 
2025-09-27 18:01:43.237,-0.09092726,4.23051,8.915657,-0.02535089,-0.075594515,-0.0594066,-16.706251,-47.04375,-32.081253,0.16409339,0.14194424,0.68593156,1001.80536, , , , 
2025-09-27 18:01:43.256,0.09571291,4.321438,9.052048,-0.017409647,-0.058490302,-0.034361143,-16.837502,-44.925003,-33.43125,0.16405188,0.14187449,0.6854885,1001.80536, , , , 
2025-09-27 18:01:43.276,0.1052842,4.3262234,9.0544405,0.017409647,-0.098196514,-0.031306818,-16.21875,-47.60625,-32.41875,0.16442853,0.14174221,0.6850816,1001.8068, , , , 
2025-09-27 18:01:43.296,0.19381863,4.2017965,9.02812,0.042455103,-0.15867212,-0.009926553,-15.243751,-45.65625,-32.175003,0.16520922,0.14147693,0.6846494,1001.8068, , , , 
2025-09-27 18:01:43.316,0.50009996,4.2448673,9.157332,0.060781047,-0.16355905,-0.011148282,-15.375001,-46.912502,-31.1625,0.16650844,0.14073475,0.6842431,1001.79926, , , , 
2025-09-27 18:01:43.337,0.6867401,4.2352962,8.666803,0.031459536,-0.08170316,-0.07589995,-17.400002,-47.49375,-30.750002,0.16836607,0.13975587,0.68361837,1001.79926, , , , 
2025-09-27 18:01:43.356,0.21535404,4.321438,8.293523,-0.060781047,-0.016951498,-0.083230324,-16.837502,-46.93125,-31.462502,0.16886576,0.13953698,0.6829708,1001.79755, , , , 
2025-09-27 18:01:43.376,0.2105684,4.24726,8.365308,-0.15302163,0.010537418,-0.04657844,-16.21875,-46.125,-32.193752,0.16819526,0.13945548,0.6825899,1001.79755, , , , 
2025-09-27 18:01:43.396,0.6436693,4.6971107,8.803194,-0.24159703,0.075289086,-0.03619374,-16.35,-47.381252,-31.181252,0.16700654,0.13885784,0.68253124,1001.8078, , , , 
2025-09-27 18:01:43.416,1.2251252,4.802395,9.0951185,-0.20616686,0.18463388,-0.116217025,-15.01875,-45.131252,-31.29375,0.16502982,0.13780196,0.68268603,1001.8078, , , , 
2025-09-27 18:01:43.437,0.016749758,3.9864426,9.619147,-0.14813471,0.12782346,-0.1339321,-13.14375,-46.068752,-31.743752,0.1620028,0.13711709,0.68223125,1001.82, , , , 
2025-09-27 18:01:43.457,-0.14117654,4.0797625,9.365508,-0.09498947,0.038026333,-0.08689552,-15.01875,-46.10625,-33.862503,0.16018775,0.13740408,0.68167937,1001.82, , , , 
2025-09-27 18:01:43.477,0.0047856453,4.194618,9.466006,0.003970621,-0.008399391,-0.03924806,-14.7375,-47.456253,-32.268753,0.15899551,0.13752311,0.68142194,1001.82587, , , , 
2025-09-27 18:01:43.497,0.29671,4.0845485,9.501899,0.066889696,-0.09697478,-0.045967575,-15.58125,-47.30625,-32.662502,0.1592352,0.13752234,0.6810319,1001.82587, , , , 
2025-09-27 18:01:43.516,0.0047856453,4.098905,9.219545,0.12553272,-0.21364996,-0.06551525,-16.03125,-46.706253,-33.5625,0.16073065,0.13707896,0.6802663,1001.8376, , , , 
2025-09-27 18:01:43.536,0.02632105,4.058227,9.049655,0.12125666,-0.26435173,-0.03008509,-15.01875,-46.10625,-33.54375,0.16275524,0.1365854,0.6793141,1001.8376, , , , 
2025-09-27 18:01:43.557,0.32063824,3.9720855,9.018549,0.068722285,-0.102472566,-0.021532983,-14.45625,-45.956253,-30.525002,0.16439524,0.1360258,0.6787122,1001.8393, , , , 
2025-09-27 18:01:43.577,0.083748795,3.9649072,9.138189,0.02535089,0.013591741,-0.013591741,-17.15625,-47.081253,-32.34375,0.16471471,0.13599682,0.6784866,1001.8393, , , , 
2025-09-27 18:01:43.596,0.18664017,3.9290147,9.394221,0.057115857,-0.05177079,0.030390523,-14.6625,-46.443752,-33.581253,0.16442785,0.13616939,0.67849976,1001.84515, , , , 
2025-09-27 18:01:43.616,0.27038896,4.0127635,9.212367,0.07422007,-0.08842268,0.04138609,-16.10625,-46.237503,-31.575,0.16503282,0.13581452,0.67858833,1001.84515, , , , 
2025-09-27 18:01:43.637,0.24646074,4.024728,9.0544405,0.041233372,0.013591741,0.07864884,-16.5,-46.65,-31.2,0.16545643,0.13578552,0.67889094,1001.8476, , , , 
2025-09-27 18:01:43.657,0.3924229,4.0869412,8.961121,0.01802051,0.13515383,0.08353576,-16.25625,-47.11875,-33.05625,0.16507545,0.1362979,0.67956966,1001.8476, , , , 
2025-09-27 18:01:43.678,0.32063824,4.141976,8.79123,-0.024740024,0.20479241,0.06459895,-16.275002,-47.86875,-32.081253,0.16388881,0.13753605,0.6805623,1001.8527, , , , 
2025-09-27 18:01:43.696,0.18664017,4.1276193,8.846265,-0.042455103,0.2035707,0.046273008,-14.118751,-46.65,-32.53125,0.16283101,0.13840647,0.6810958,1001.8527, , , , 
2025-09-27 18:01:43.717,0.033499517,4.0677986,9.159725,-0.009468404,0.11071924,0.042607818,-14.56875,-45.84375,-31.462502,0.1611459,0.13961181,0.68176544,1001.8493, , , , 
2025-09-27 18:01:43.738,-0.08853444,4.1347976,9.08794,0.06933315,0.027641632,0.042607818,-15.58125,-47.30625,-32.34375,0.16062868,0.14034493,0.68205476,1001.8493, , , , 
2025-09-27 18:01:43.759,-0.0071784677,4.2711883,8.535198,0.057115857,-0.03527744,0.046883874,-15.168751,-46.7625,-32.737503,0.161164,0.14132768,0.6821967,1001.8381, , , , 
2025-09-27 18:01:43.778,0.148355,4.2041893,8.707481,-0.009468404,0.012370012,0.042607818,-16.518751,-46.162502,-32.15625,0.16150393,0.14171298,0.68229663,1001.8381, , , , 
2025-09-27 18:01:43.797,0.043070808,4.0558343,9.159725,-0.041844238,0.12965605,0.049327333,-15.50625,-47.04375,-33.45,0.16081052,0.14213091,0.68271756,1001.8271, , , , 
2025-09-27 18:01:43.817,0.05742774,4.031906,9.377472,-0.0027488915,0.19440772,0.061544627,-15.543751,-47.0625,-31.275002,0.15895309,0.14305133,0.68349874,1001.8271, , , , 
2025-09-27 18:01:43.837,0.014356935,4.048656,9.090333,0.045509428,0.11499529,0.051159926,-14.625001,-46.8375,-31.556252,0.15771459,0.14405443,0.6841366,1001.8188, , , , 
2025-09-27 18:01:43.856,-0.18664017,4.1443686,8.863015,0.041233372,0.060017463,0.08536835,-14.306251,-46.800003,-32.662502,0.15719867,0.14525877,0.6847394,1001.8188, , , , 
2025-09-27 18:01:43.876,0.0023928226,4.1180477,9.030513,0.03695732,-0.032223117,0.114079,-15.39375,-46.93125,-30.075,0.15727259,0.14560905,0.6851867,1001.80414, , , , 
2025-09-27 18:01:43.898,0.22013968,4.1515474,8.676374,0.04367683,-0.09636392,0.09880738,-15.356251,-45.54375,-32.625,0.15865903,0.14507835,0.6857994,1001.80414, , , , 
2025-09-27 18:01:43.916,0.863809,4.402794,8.834301,-0.08643737,0.25671592,0.030390523,-16.35,-46.7625,-32.456253,0.1586713,0.14531364,0.6864363,1001.7817, , , , 
2025-09-27 18:01:43.936,-0.1052842,3.8213377,8.891729,-0.030237807,0.07651082,0.008399391,-13.481251,-44.850002,-31.63125,0.15769993,0.14551848,0.68685216,1001.7817, , , , 
2025-09-27 18:01:43.956,0.14596218,3.9457645,9.147761,-0.08949169,0.11988221,0.07009673,-17.2875,-46.987503,-31.406252,0.15627977,0.14605568,0.6873892,1001.7641, , , , 
2025-09-27 18:01:43.976,0.33260235,4.1898327,9.2793665,-0.003970621,1.527162E-4,0.054825112,-13.89375,-47.11875,-34.3875,0.1553924,0.14576836,0.68810886,1001.7641, , , , 
2025-09-27 18:01:43.997,0.3182454,4.101298,8.999406,0.035124727,-0.07803798,0.033444848,-15.225,-47.006252,-32.7,0.15600479,0.14524384,0.68841016,1001.7597, , , , 
2025-09-27 18:01:44.016,0.27517462,4.15394,8.920443,0.03451386,-0.11285727,0.035888307,-14.475,-46.93125,-32.79375,0.15715124,0.14463499,0.68845093,1001.7597, , , , 
2025-09-27 18:01:44.037,0.38285163,4.208975,8.908479,0.00763581,-0.026725333,0.026725333,-17.175001,-47.100002,-30.956251,0.1583297,0.14402576,0.6885609,1001.7487, , , , 
2025-09-27 18:01:44.056,0.45224348,4.345366,8.769695,-0.021074835,0.021532983,0.015729768,-16.275002,-46.36875,-32.475002,0.15866147,0.1439149,0.6886786,1001.7487, , , , 
2025-09-27 18:01:44.077,0.28953153,4.3669014,8.760123,-0.04856375,0.080176,0.013897174,-15.150001,-46.518753,-31.050001,0.1587194,0.1440845,0.6888818,1001.736, , , , 
2025-09-27 18:01:44.096,0.43070808,4.395615,9.140582,-0.058337588,0.09850194,0.0010690134,-17.475,-47.1375,-30.618752,0.15808277,0.14450432,0.6891977,1001.736, , , , 
2025-09-27 18:01:44.116,0.34456646,4.2257247,9.262616,-0.015577052,0.08261946,-0.014813471,-14.250001,-46.537502,-32.68125,0.15751474,0.14471453,0.6893636,1001.73285, , , , 
2025-09-27 18:01:44.141,0.28953153,4.1635113,9.21476,0.02046397,0.06062833,-0.008704823,-14.925,-45.600002,-33.9,0.15697454,0.1450528,0.6894782,1001.73285,37.88830772,127.73991245,141.22711181640625,0.0
2025-09-27 18:01:44.156,0.27996024,4.1778684,9.18126,0.051007207,0.03497201,-0.008704823,-14.38125,-46.65,-35.4375,0.1569532,0.14528361,0.68948406,1001.7316, , , , 
2025-09-27 18:01:44.176,0.18664017,4.3764725,8.748159,0.028405212,0.06368265,-0.013591741,-15.656251,-46.93125,-32.2125,0.15708694,0.1458723,0.6894401,1001.7316, , , , 
2025-09-27 18:01:44.197,0.14596218,4.321438,8.860622,-0.04978548,0.09544762,-0.0074830935,-12.58125,-48.600002,-34.29375,0.15691139,0.14666884,0.6894238,1001.72235, , , , 
2025-09-27 18:01:44.216,0.12921242,4.180261,9.174082,-0.050396346,0.066126116,-0.008093959,-12.806251,-48.35625,-35.98125,0.15611997,0.14706619,0.6895369,1001.72235, , , , 
2025-09-27 18:01:44.236,0.3397808,4.06062,9.353543,0.025961753,-0.06887501,-0.050243627,-12.843751,-47.006252,-34.818752,0.15600497,0.14660208,0.68938047,1001.71844, , , , 
2025-09-27 18:01:44.256,0.124426775,3.9864426,9.138189,0.057726722,-0.07742711,-0.07040217,-13.9125,-48.73125,-35.2125,0.15657006,0.14612696,0.68898296,1001.71844, , , , 
2025-09-27 18:01:44.276,-0.11246266,4.0031924,8.82473,0.01924224,0.08261946,-0.016646065,-12.562501,-48.581253,-35.68125,0.15648435,0.1464187,0.6885377,1001.7255, , , , 
2025-09-27 18:01:44.296,0.0526421,4.019942,8.956335,-0.014355322,0.09666935,0.0016798781,-12.675,-47.71875,-35.71875,0.15554607,0.1472148,0.6886325,1001.7255, , , , 
2025-09-27 18:01:44.316,-0.0047856453,4.0271206,8.949157,0.011911863,0.031917684,-0.006261364,-14.606251,-47.04375,-35.25,0.15495081,0.147561,0.68873423,1001.726, , , , 
2025-09-27 18:01:44.336,-0.0741775,4.0534415,8.745767,0.003970621,-0.027336199,0.020616686,-13.89375,-47.11875,-34.3875,0.15476307,0.147804,0.68874913,1001.726, , , , 
2025-09-27 18:01:44.356,0.17467605,4.1108694,8.944371,-0.022296565,-0.066431545,0.023060145,-14.75625,-47.925003,-36.5625,0.15499614,0.14745097,0.6888089,1001.73236, , , , 
2025-09-27 18:01:44.376,0.19621146,4.048656,9.24826,-0.013133593,-0.046273008,-1.527162E-4,-12.39375,-46.331253,-35.5125,0.1553532,0.14661105,0.6888392,1001.73236, , , , 
2025-09-27 18:01:44.396,0.0071784677,4.005585,9.209974,0.0058032153,0.041080657,0.020616686,-15.431251,-47.5125,-34.66875,0.15524101,0.14637142,0.6889139,1001.7309, , , , 
2025-09-27 18:01:44.416,0.23449662,4.130012,9.107083,0.019853106,0.07589995,0.046883874,-12.900001,-46.612503,-36.05625,0.154541,0.14687069,0.6893732,1001.7309, , , , 
2025-09-27 18:01:44.436,0.32303107,4.23051,8.913264,0.022907428,0.017867794,0.00962112,-14.306251,-47.775,-35.381252,0.154623,0.14709012,0.68966264,1001.7309, , , , 
2025-09-27 18:01:44.457,0.2321038,4.2329035,8.817552,-0.029016078,0.028252495,-0.021532983,-14.868751,-47.5875,-34.875,0.15495245,0.1471463,0.68966264,1001.7309, , , , 
2025-09-27 18:01:44.476,0.11724831,4.168297,9.178867,-0.058337588,0.06918044,-0.03008509,-13.44375,-47.0625,-35.0625,0.15457654,0.14721511,0.6896162,1001.73114, , , , 
2025-09-27 18:01:44.496,-0.014356935,4.1611185,9.4636135,-0.011300999,0.060017463,-0.00320704,-14.156251,-48.375004,-34.59375,0.15372145,0.1473568,0.6896578,1001.73114, , , , 
2025-09-27 18:01:44.516,0.10049855,4.2520456,9.29133,0.057726722,-0.0029016077,0.016340632,-13.5375,-48.43125,-36.35625,0.15342815,0.14774777,0.6897694,1001.73895, , , , 
2025-09-27 18:01:44.536,0.12203395,4.2759743,8.872586,0.074830934,-0.06704241,0.008399391,-14.700001,-48.412502,-37.0125,0.15428966,0.14796709,0.6896811,1001.73895, , , , 
2025-09-27 18:01:44.556,0.18424734,4.2568316,8.635697,0.024129158,-0.08781181,-0.008704823,-13.556251,-48.43125,-35.5875,0.15547357,0.14793672,0.68944174,1001.7365, , , , 
2025-09-27 18:01:44.576,0.08853444,4.06062,8.784052,-0.03451386,-0.055435978,-0.01970039,-14.26875,-47.53125,-34.331253,0.15623939,0.1475075,0.68918306,1001.7365, , , , 
2025-09-27 18:01:44.596,0.06460621,4.024728,8.987442,-0.044898562,0.011148282,-0.0074830935,-13.856251,-47.081253,-36.5625,0.1560316,0.14713115,0.68911237,1001.73553, , , , 
2025-09-27 18:01:44.616,0.19381863,3.9673,9.092726,-0.024740024,0.0716239,-0.013591741,-14.793751,-47.193752,-34.912502,0.1553044,0.14702667,0.6892393,1001.73553, , , , 
2025-09-27 18:01:44.636,-0.05742774,4.0031924,9.032906,-0.0027488915,0.06734784,-0.01847866,-12.375001,-46.95,-35.943752,0.15434971,0.14731383,0.68929935,1001.7343, , , , 
2025-09-27 18:01:44.656,-0.083748795,4.0366917,8.965906,0.0015271619,0.0025961753,-0.006872229,-13.35,-47.30625,-34.59375,0.1538998,0.14764233,0.6892462,1001.7343, , , , 
2025-09-27 18:01:44.676,-0.021535404,4.0271206,8.927621,-0.0021380268,-4.581486E-4,-0.009926553,-13.70625,-46.331253,-36.15,0.15367195,0.14772433,0.68922997,1001.7338, , , , 
2025-09-27 18:01:44.696,-0.10289137,4.0677986,8.879765,-0.031459536,0.017867794,-0.0056504994,-14.493751,-48.656254,-34.85625,0.15334402,0.14779589,0.68917334,1001.7338, , , , 
2025-09-27 18:01:44.716,-0.09571291,4.1276193,9.250652,-0.040622506,0.050854493,0.021227552,-13.106251,-47.53125,-34.29375,0.15258951,0.14792858,0.6892838,1001.73724, , , , 
2025-09-27 18:01:44.736,0.016749758,4.1371903,9.305687,0.004581486,0.0368046,0.02367101,-13.368751,-47.53125,-36.43125,0.15188739,0.14808345,0.6895485,1001.73724, , , , 
2025-09-27 18:01:44.756,0.03589234,4.206582,9.056833,0.029016078,-0.0035124724,0.012675445,-13.462501,-47.8125,-33.46875,0.15194297,0.1482486,0.6896938,1001.73676, , , , 
2025-09-27 18:01:44.776,0.062213387,4.2041893,9.052048,0.021074835,0.024587307,0.010231985,-12.356251,-46.706253,-34.10625,0.15209931,0.14844401,0.6897165,1001.73676, , , , 
2025-09-27 18:01:44.796,0.059820566,4.290331,9.016156,0.02535089,0.04963276,0.005345067,-13.218751,-47.41875,-34.74375,0.15207839,0.14891337,0.689797,1001.7341, , , , 
2025-09-27 18:01:44.816,0.0,4.3094735,8.69791,-0.008857539,0.022754714,-7.6358096E-4,-13.8,-48.093754,-34.18125,0.15222289,0.14957984,0.68978536,1001.7341, , , , 
2025-09-27 18:01:44.836,0.076570325,4.2281175,9.073584,-0.03573559,-0.013897174,-1.527162E-4,-15.731251,-48.91875,-34.55625,0.15229028,0.14965844,0.6897635,1001.7402, , , , 
2025-09-27 18:01:44.856,0.14596218,4.1108694,9.288938,0.00641408,-0.03161225,0.0059559317,-14.175,-47.86875,-36.318752,0.1523749,0.14930977,0.6897855,1001.7402, , , , 
2025-09-27 18:01:44.876,0.076570325,4.0965123,9.056833,0.037568185,-0.034666575,0.013897174,-13.743751,-49.331253,-35.831253,0.15279229,0.14898688,0.6897914,1001.73676, , , , 
2025-09-27 18:01:44.896,0.13878371,4.165904,8.867801,0.023518294,0.0013744457,0.021227552,-12.50625,-47.5875,-35.5875,0.15316458,0.14900772,0.68986,1001.73676, , , , 
2025-09-27 18:01:44.916,0.23449662,4.223332,8.841479,-0.0021380268,0.012370012,-0.016035201,-14.83125,-47.98125,-32.23125,0.15345307,0.14911874,0.68991256,1001.736, , , , 
2025-09-27 18:01:44.936,0.05503492,4.182654,8.872586,-0.014966187,-0.021227552,-0.050243627,-13.6125,-48.693752,-35.25,0.15369369,0.14907654,0.6896177,1001.736, , , , 
2025-09-27 18:01:44.956,0.062213387,4.1180477,8.863015,-0.031459536,-0.046273008,-0.060017463,-12.075001,-46.275,-36.9375,0.15382329,0.14883216,0.68918663,1001.7382, , , , 
2025-09-27 18:01:44.976,0.011964113,4.1084766,8.977871,-0.04856375,-0.031001387,-0.06307179,-13.6125,-47.30625,-36.412502,0.15379468,0.14839727,0.688761,1001.7382, , , , 
2025-09-27 18:01:44.996,-0.13878371,4.063013,9.229117,-0.04367683,0.016646065,-0.033139415,-13.70625,-48.3375,-33.881252,0.1534385,0.14823167,0.6885234,1001.7358, , , , 
2025-09-27 18:01:45.016,0.016749758,4.063013,9.2793665,0.0015271619,0.0129808765,-0.016035201,-13.087501,-46.78125,-34.48125,0.15270777,0.14821978,0.6884281,1001.7358, , , , 
2025-09-27 18:01:45.036,0.0071784677,4.1587257,9.109476,0.03329213,-0.011453714,-0.022754714,-13.312501,-47.287502,-36.75,0.15249205,0.1482517,0.68829966,1001.7326, , , , 
2025-09-27 18:01:45.056,-0.124426775,4.173083,8.920443,0.029626941,-0.010231985,-0.010537418,-13.1625,-48.018753,-36.73125,0.1527076,0.14850983,0.6880817,1001.7326, , , , 
2025-09-27 18:01:45.076,-0.047856454,4.1635113,8.980264,0.0027488915,-0.021227552,0.00962112,-13.5375,-46.93125,-35.98125,0.15287258,0.14885125,0.68796307,1001.737, , , , 
2025-09-27 18:01:45.096,0.09571291,4.15394,9.080762,-0.003970621,-0.029168794,0.012675445,-13.312501,-47.90625,-35.475002,0.15297884,0.14879811,0.68798155,1001.737, , , , 
2025-09-27 18:01:45.116,0.17228323,4.1276193,9.236296,0.008246674,0.0025961753,-0.0050396346,-13.368751,-47.53125,-36.43125,0.15318684,0.14844686,0.68804824,1001.7553, , , , 
2025-09-27 18:01:45.136,-0.021535404,4.1874394,9.099904,0.027183482,0.026419902,-0.0025961753,-12.7875,-46.74375,-34.8375,0.15315388,0.14856039,0.6880509,1001.7553,37.88830772,127.73991245,141.22711181640625,0.0
2025-09-27 18:01:45.156,0.011964113,4.240082,8.973084,0.03940078,0.014813471,0.014508039,-15.337501,-47.86875,-35.8875,0.15319324,0.14907493,0.6880584,1001.7502, , , , 
2025-09-27 18:01:45.176,0.009571291,4.26401,8.760123,0.021074835,-0.002290743,0.005345067,-14.718751,-48.412502,-36.693752,0.15351006,0.14951856,0.68805474,1001.7502, , , , 
2025-09-27 18:01:45.196,0.009571291,4.249653,8.843872,-0.016187917,-0.0065667965,-0.003817905,-13.575001,-47.7,-34.6875,0.15378183,0.14974461,0.6879994,1001.7482, , , , 
2025-09-27 18:01:45.216,-0.033499517,4.130012,9.030513,-0.025961753,0.0050396346,-0.003817905,-14.306251,-47.53125,-32.775,0.15375322,0.14970787,0.6879497,1001.7482, , , , 
2025-09-27 18:01:45.236,-0.086141616,4.058227,9.255438,-0.017409647,0.055130545,0.0029016077,-14.137501,-47.625,-35.25,0.15312198,0.1496886,0.68804544,1001.74677, , , , 
2025-09-27 18:01:45.256,-0.1363909,4.06062,9.257831,0.017409647,0.0594066,0.030390523,-15.843751,-48.581253,-32.25,0.15232381,0.15004823,0.68827367,1001.74677, , , , 
2025-09-27 18:01:45.277,0.043070808,4.1180477,9.142975,0.062002774,-0.016340632,0.025503604,-13.762501,-45.61875,-32.79375,0.15218994,0.15034501,0.6884938,1001.74457, , , , 
2025-09-27 18:01:45.297,-0.021535404,4.182654,8.738588,0.050396346,-0.052381653,0.016340632,-15.431251,-46.537502,-32.4,0.15288438,0.15046832,0.6884833,1001.74457, , , , 
2025-09-27 18:01:45.318,0.033499517,4.1850467,8.7673025,-0.0070249448,-0.024281874,0.016951498,-14.2875,-46.55625,-30.525002,0.15349008,0.15053158,0.6884436,1001.747, , , , 
2025-09-27 18:01:45.337,0.08853444,4.1515474,9.064013,-0.022907428,0.023365578,4.581486E-4,-15.525001,-45.65625,-33.84375,0.15356296,0.15034184,0.68856335,1001.747, , , , 
2025-09-27 18:01:45.358,0.019142581,4.141976,9.08794,-0.0058032153,0.03252855,0.0065667965,-14.906251,-46.21875,-33.412502,0.15332572,0.15035953,0.6886486,1001.73944, , , , 
2025-09-27 18:01:45.376,0.06460621,4.1754756,9.097511,-9.162972E-4,0.014202606,0.004123337,-15.468751,-46.050003,-32.5875,0.15306984,0.15048002,0.68876106,1001.73944, , , , 
2025-09-27 18:01:45.396,-0.050249275,4.17069,9.080762,0.012522728,0.0050396346,0.0065667965,-16.050001,-46.725002,-31.85625,0.15301637,0.15052357,0.68878955,1001.7321, , , , 
2025-09-27 18:01:45.416,-0.050249275,4.1611185,9.032906,0.021074835,-0.02367101,0.021838415,-15.76875,-46.818752,-32.34375,0.15312615,0.15060677,0.6888387,1001.7321, , , , 
2025-09-27 18:01:45.437,0.050249275,4.1467614,8.920443,0.027794348,-0.061544627,0.03894263,-14.3625,-47.04375,-32.34375,0.15353175,0.15053818,0.68893975,1001.7292, , , , 
2025-09-27 18:01:45.457,0.2009971,4.130012,8.992228,0.015577052,-0.049938194,0.046883874,-14.531251,-45.825,-32.850002,0.15414613,0.15020408,0.68911797,1001.7292, , , , 
2025-09-27 18:01:45.478,0.33260235,4.115655,9.016156,0.009468404,-0.02367101,0.021227552,-14.250001,-45.787502,-32.268753,0.15482764,0.14954913,0.68940616,1001.7299, , , , 
2025-09-27 18:01:45.498,0.12203395,4.1611185,8.781659,-0.00641408,0.016646065,0.0010690134,-15.4125,-46.537502,-33.1875,0.15505724,0.14928715,0.68950725,1001.7299, , , , 
2025-09-27 18:01:45.518,-0.0023928226,4.220939,8.685946,-0.042455103,0.0074830935,-0.0013744457,-16.5,-47.625,-33.9375,0.15496404,0.14935838,0.68951553,1001.71674, , , , 
2025-09-27 18:01:45.538,-0.09571291,4.1778684,8.796016,-0.07238748,-0.010231985,-0.00320704,-15.637501,-46.18125,-32.4,0.15462105,0.14926098,0.6895074,1001.71674, , , , 
2025-09-27 18:01:45.558,-0.15314065,4.0438704,9.071191,-0.06933315,-0.020005822,0.007788526,-14.512501,-47.175003,-33.54375,0.15408565,0.14886251,0.6895402,1001.71356, , , , 
2025-09-27 18:01:45.578,-0.16271193,4.0366917,9.138189,-0.03695732,-0.04444041,0.028557928,-15.281251,-46.631252,-33.65625,0.1535047,0.14837773,0.6896756,1001.71356, , , , 
2025-09-27 18:01:45.598,-0.069391854,4.1084766,9.099904,-0.021074835,-0.06826414,0.05421425,-16.1625,-46.612503,-32.625,0.15330507,0.14789484,0.68989635,1001.7148, , , , 
2025-09-27 18:01:45.618,0.08135597,4.0773697,9.047262,-0.014966187,-0.07437278,0.05177079,-15.712501,-47.943752,-32.287502,0.15356044,0.14726616,0.6901666,1001.7148, , , , 
2025-09-27 18:01:45.638,0.086141616,4.0797625,8.889337,-0.029016078,-0.08353576,0.04382955,-15.431251,-46.537502,-31.63125,0.15407766,0.14634839,0.6904445,1001.7133, , , , 
2025-09-27 18:01:45.658,0.11724831,4.0677986,8.963513,-0.06383537,-0.058490302,0.045662142,-14.212501,-45.787502,-33.956253,0.15435219,0.1455057,0.6906778,1001.7133, , , , 
2025-09-27 18:01:45.678,0.2727818,4.072584,9.209974,-0.07666353,0.006261364,0.0377209,-16.650002,-46.78125,-32.41875,0.15406193,0.1447185,0.69108087,1001.7116, , , , 
2025-09-27 18:01:45.697,0.21535404,4.0295134,9.284152,-0.057115857,0.03497201,0.015729768,-15.150001,-46.74375,-33.506252,0.15351596,0.14407612,0.6914533,1001.7116, , , , 
2025-09-27 18:01:45.718,0.023928227,4.019942,9.18126,-0.018631376,0.030695954,0.00962112,-15.450001,-46.03125,-33.35625,0.15283284,0.14380866,0.6916942,1001.7155, , , , 
2025-09-27 18:01:45.737,0.0023928226,4.0534415,9.092726,-0.010079269,0.031917684,0.0151189035,-16.143751,-45.84375,-34.068752,0.15248221,0.14390841,0.69179916,1001.7155, , , , 
2025-09-27 18:01:45.756,-0.038285162,4.132405,9.075976,-0.014966187,0.028252495,0.029168794,-14.587501,-46.068752,-32.831253,0.15199608,0.14420873,0.6920168,1001.7153, , , , 
2025-09-27 18:01:45.776,0.038285162,4.1276193,9.176475,-0.014355322,0.016035201,0.042607818,-14.962501,-45.112503,-34.237503,0.15168335,0.14440277,0.6922758,1001.7153, , , , 
2025-09-27 18:01:45.796,0.1698904,4.0701914,9.272188,0.008246674,0.024587307,0.046273008,-16.893751,-45.9375,-33.525,0.15154178,0.14442815,0.6926235,1001.71405, , , , 
2025-09-27 18:01:45.816,0.2536392,4.115655,9.059227,0.03329213,0.01970039,0.045051277,-14.231251,-45.037502,-32.775,0.15167804,0.14455657,0.69296604,1001.71405, , , , 
2025-09-27 18:01:45.837,0.38763726,4.165904,8.752945,0.009468404,0.014813471,0.022449281,-16.518751,-46.893753,-32.5875,0.15215585,0.14466393,0.6932306,1001.71625, , , , 
2025-09-27 18:01:45.857,0.40917268,4.2041893,8.602198,-0.057115857,0.010537418,-0.016035201,-17.8875,-46.537502,-33.84375,0.15249091,0.14464197,0.69331795,1001.71625, , , , 
2025-09-27 18:01:45.877,0.17467605,4.113262,8.886943,-0.12858704,0.058795735,-0.047189303,-17.7,-47.11875,-34.912502,0.15215138,0.14415678,0.6932478,1001.706, , , , 
2025-09-27 18:01:45.896,0.05742774,4.007978,9.300901,-0.13408482,0.11255184,-0.03619374,-14.85,-45.975002,-33.73125,0.15106033,0.1439844,0.69326055,1001.706, , , , 
2025-09-27 18:01:45.916,0.02871387,3.9481573,9.58804,-0.0650571,0.07101303,-0.006872229,-14.306251,-47.025,-34.818752,0.14907873,0.14379883,0.69346,1001.6999, , , , 
2025-09-27 18:01:45.938,0.086141616,3.9960139,9.45165,0.044898562,-0.06887501,0.031001387,-17.025002,-46.443752,-32.4,0.14881986,0.14348543,0.6935942,1001.6999, , , , 
2025-09-27 18:01:45.958,0.37567315,4.1898327,8.989835,0.0736092,-0.13423753,0.039553493,-16.03125,-45.225002,-33.3375,0.15008335,0.14297272,0.6936453,1001.70355, , , , 
2025-09-27 18:01:45.978,0.46181476,4.211368,8.867801,0.03573559,-0.11346813,0.02367101,-15.637501,-46.18125,-32.71875,0.15187971,0.14238414,0.6936033,1001.70355, , , , 
2025-09-27 18:01:45.998,0.55752766,4.180261,8.956335,-0.00641408,-0.012675445,-0.01725693,-16.59375,-45.787502,-32.325,0.15304564,0.14188111,0.6935465,1001.70795, , , , 
2025-09-27 18:01:46.018,0.3182454,4.1611185,9.0544405,-0.021685699,0.054519683,-0.06307179,-16.85625,-45.693752,-32.456253,0.15331644,0.1417357,0.6933864,1001.70795, , , , 
2025-09-27 18:01:46.036,-0.0047856453,4.17069,9.075976,-0.011911863,0.022143848,-0.06185006,-16.575,-45.768753,-33.7125,0.15302859,0.14205886,0.69303524,1001.707, , , , 
2025-09-27 18:01:46.056,-0.016749758,4.132405,9.140582,0.010690134,-0.0377209,-0.0368046,-16.706251,-47.04375,-32.081253,0.15291817,0.14241914,0.69252187,1001.707, , , , 
2025-09-27 18:01:46.076,0.05503492,4.132405,9.102298,0.01802051,-0.04138609,-0.026419902,-14.83125,-45.956253,-34.2,0.1530762,0.14248814,0.69226956,1001.70404, , , , 
2025-09-27 18:01:46.097,0.083748795,4.1036906,9.104691,-9.162972E-4,-0.047494736,-0.017867794,-16.518751,-46.143753,-32.475002,0.15343055,0.14247663,0.6919342,1001.70404, , , , 
2025-09-27 18:01:46.117,0.2440679,3.993621,9.262616,0.0033597562,-0.04138609,-0.015424335,-16.5375,-47.643753,-31.7625,0.15360893,0.14219737,0.69177115,1001.7021, , , , 
2025-09-27 18:01:46.136,0.2440679,3.859623,9.336794,0.026572619,0.010537418,-0.025198173,-15.562501,-45.91875,-34.59375,0.1536514,0.14186653,0.69166344,1001.7021,37.88830772,127.73991245,141.22711181640625,0.0
2025-09-27 18:01:46.158,-0.031106694,3.9026937,9.107083,0.04612029,0.04657844,-0.012370012,-15.825001,-47.831253,-32.4375,0.15331642,0.14211896,0.6915835,1001.70746, , , , 
2025-09-27 18:01:46.176,-0.08853444,4.019942,8.898908,0.053450666,0.0044287695,0.0029016077,-15.3,-46.65,-32.568752,0.1530392,0.14292899,0.69148827,1001.70746, , , , 
2025-09-27 18:01:46.197,-0.03589234,4.074977,8.796016,0.041233372,-0.018173227,0.014508039,-16.893751,-47.41875,-34.050003,0.15326527,0.14348665,0.6914046,1001.7077, , , , 
2025-09-27 18:01:46.216,0.14356937,4.1228333,8.903693,0.015577052,-0.0035124724,0.007788526,-15.937501,-46.0875,-31.9125,0.15359783,0.143819,0.6913712,1001.7077, , , , 
2025-09-27 18:01:46.236,0.19860429,4.1204405,9.073584,-0.0033597562,0.025809037,-0.0050396346,-18.675001,-46.631252,-31.593752,0.15368943,0.14399508,0.6913549,1001.70355, , , , 
2025-09-27 18:01:46.256,0.17228323,4.1587257,8.721839,0.012522728,0.026419902,-0.017867794,-15.95625,-45.7125,-34.256252,0.15357581,0.14411323,0.69134295,1001.70355, , , , 
2025-09-27 18:01:46.277,0.08853444,4.0773697,8.7266245,-0.05222894,-0.08964441,-0.03252855,-15.468751,-46.050003,-32.5875,0.15462562,0.14376451,0.6909205,1001.705, , , , 
2025-09-27 18:01:46.297,0.07178468,4.06062,8.85823,-0.054672398,-0.016951498,-0.008704823,-15.637501,-46.18125,-32.71875,0.15448101,0.1433553,0.6907707,1001.705, , , , 
2025-09-27 18:01:46.317,0.03589234,3.9553359,9.442079,-0.06017018,-0.04138609,-0.00320704,-16.556252,-45.768753,-34.5,0.1541086,0.14281785,0.69075143,1001.7192, , , , 
2025-09-27 18:01:46.337,0.15074782,3.9481573,9.801002,-0.040622506,0.022143848,0.0151189035,-16.63125,-46.03125,-32.625,0.15349123,0.14206682,0.69086885,1001.7192, , , , 
2025-09-27 18:01:46.356,0.14596218,4.089334,9.803394,0.00641408,0.08506292,0.020616686,-15.76875,-47.79375,-35.7,0.15259722,0.14179923,0.69118434,1001.7419, , , , 
2025-09-27 18:01:46.376,0.06699903,4.220939,9.159725,0.057726722,0.048411034,0.019394957,-16.181252,-46.10625,-34.050003,0.15209155,0.14230803,0.6914346,1001.7419, , , , 
2025-09-27 18:01:46.396,0.09332009,4.091727,8.796016,0.0754418,-0.029779658,0.02367101,-14.64375,-46.443752,-34.350002,0.15277919,0.14314741,0.6914305,1001.7753, , , , 
2025-09-27 18:01:46.416,0.148355,4.130012,8.489735,0.057115857,-0.047494736,0.023060145,-14.6625,-44.325,-33.99375,0.15347627,0.14340258,0.6914012,1001.7753, , , , 
2025-09-27 18:01:46.436,0.18903299,4.0366917,8.46102,-0.016187917,-0.040775225,0.016340632,-17.4375,-47.850002,-33.506252,0.15449682,0.1434392,0.69136876,1001.8068, , , , 
2025-09-27 18:01:46.458,0.09332009,4.0510488,8.7673025,-0.043065965,0.0044287695,0.013897174,-14.08125,-45.131252,-34.78125,0.15454623,0.14319798,0.69149536,1001.8068, , , , 
2025-09-27 18:01:46.476,0.10767702,4.058227,8.896515,-0.047952887,-0.007788526,0.013286309,-16.462502,-45.9,-32.49375,0.15441255,0.14311002,0.69156146,1001.8442, , , , 
2025-09-27 18:01:46.496,0.22971097,4.1180477,8.961121,-0.051007207,-0.06582068,-0.0056504994,-15.656251,-46.537502,-35.625,0.1543617,0.14256258,0.6916091,1001.8442, , , , 
2025-09-27 18:01:46.516,0.22492532,4.0797625,9.052048,-0.085215636,-0.05299252,-0.022754714,-16.181252,-46.85625,-34.4625,0.15456122,0.14172484,0.6914863,1001.8676, , , , 
2025-09-27 18:01:46.537,0.15314065,4.0773697,9.099904,-0.109039366,1.527162E-4,-0.017867794,-14.625001,-46.443752,-34.96875,0.15427199,0.14109965,0.69144636,1001.8676, , , , 
2025-09-27 18:01:46.556,0.15314065,4.0773697,9.099904,-0.109039366,1.527162E-4,-0.017867794,-14.625001,-46.443752,-34.96875,0.15427199,0.14109965,0.69144636,1001.8676, , , , 
2025-09-27 18:01:46.576,0.24646074,4.0558343,9.315259,-0.0015271619,-0.020616686,0.016951498,-14.56875,-46.800003,-34.800003,0.15219353,0.13995898,0.69196004,1001.89374, , , , 
2025-09-27 18:01:46.596,0.30867413,4.1467614,8.932407,3.054324E-4,-0.052381653,0.002290743,-15.225,-46.612503,-36.28125,0.15267634,0.13964169,0.69195676,1001.93475, , , , 
2025-09-27 18:01:46.616,0.35413775,4.1180477,8.891729,-0.053450666,-0.03894263,-0.009315688,-17.212502,-46.2,-35.025,0.15315011,0.13918112,0.6918864,1001.93475, , , , 
2025-09-27 18:01:46.636,0.1698904,4.0151563,9.138189,-0.07666353,-0.021227552,-0.014202606,-15.168751,-46.237503,-35.850002,0.15298653,0.13856138,0.6918643,1001.9653, , , , 
2025-09-27 18:01:46.656,0.18903299,3.8931224,9.475577,-0.03695732,-0.032223117,-0.0019853106,-16.2,-46.85625,-33.393753,0.15262578,0.13790104,0.6918558,1001.9653, , , , 
2025-09-27 18:01:46.676,0.27517462,3.8835511,9.475577,0.02046397,-0.030390523,-0.0019853106,-15.20625,-45.61875,-34.65,0.15254796,0.1372441,0.6918848,1002.0024, , , , 
2025-09-27 18:01:46.696,0.30388847,3.9290147,9.260223,0.055283263,-0.02489274,-0.006872229,-15.712501,-45.1875,-33.693752,0.15286432,0.13708065,0.6918272,1002.0024, , , , 
2025-09-27 18:01:46.716,0.22013968,3.938586,9.159725,0.06750056,-0.016951498,-0.009926553,-15.31875,-46.893753,-34.0875,0.15320976,0.13713762,0.69172084,1002.02826, , , , 
2025-09-27 18:01:46.736,0.19381863,4.024728,8.781659,0.051618073,-0.0377209,-0.009926553,-14.45625,-45.54375,-34.725002,0.15395439,0.13748811,0.69147694,1002.02826, , , , 
2025-09-27 18:01:46.756,0.23928227,3.9649072,9.025727,0.036346454,-0.034666575,-0.012370012,-15.8625,-47.325,-33.7125,0.15454046,0.137688,0.69126844,1002.04315, , , , 
2025-09-27 18:01:46.776,0.29910284,4.0103707,9.140582,0.043065965,7.6358096E-4,-0.033139415,-15.168751,-46.0125,-33.075,0.15483767,0.13774842,0.6910716,1002.04315, , , , 
2025-09-27 18:01:46.796,0.011964113,4.058227,8.846265,9.162972E-4,0.016035201,-0.03497201,-16.9125,-47.4375,-33.28125,0.15494573,0.13802433,0.6907892,1002.0229, , , , 
2025-09-27 18:01:46.816,0.16749759,4.022335,9.085547,-0.03084867,0.03619374,-0.022754714,-15.58125,-47.30625,-32.662502,0.15455714,0.13843411,0.6906009,1002.0229, , , , 
2025-09-27 18:01:46.836,0.12203395,3.991228,9.080762,0.008246674,0.029474225,-0.027641632,-15.750001,-46.800003,-33.75,0.15394038,0.13871594,0.6904879,1002.00214, , , , 
2025-09-27 18:01:46.856,0.019142581,3.991228,8.705089,0.01802051,-0.02611447,-0.016646065,-14.512501,-45.80625,-34.706253,0.15393029,0.13897265,0.69027823,1002.00214, , , , 
2025-09-27 18:01:46.876,0.10289137,3.9481573,8.812766,-0.0058032153,-0.025503604,0.0151189035,-14.75625,-47.7,-34.10625,0.1540598,0.13915695,0.69016385,1001.96844, , , , 
2025-09-27 18:01:46.896,0.3062813,3.9816568,8.963513,-0.026572619,-0.017562363,0.0108428495,-14.231251,-45.037502,-33.54375,0.15406385,0.13898736,0.6902258,1001.96844, , , , 
2025-09-27 18:01:46.916,0.3062813,3.9816568,8.963513,-0.026572619,-0.017562363,0.0108428495,-14.231251,-45.037502,-33.54375,0.15406385,0.13898736,0.6902258,1001.96844, , , , 
2025-09-27 18:01:46.936,0.18664017,3.8931224,9.24826,-0.03573559,0.006261364,0.012064579,-14.156251,-47.11875,-36.825,0.15349682,0.13807791,0.69042444,1001.9262, , , , 
2025-09-27 18:01:46.957,0.2943172,3.8931224,9.360723,0.036346454,-0.0029016077,-1.527162E-4,-15.01875,-46.85625,-34.125,0.15323222,0.13776182,0.6905399,1001.8891, , , , 
2025-09-27 18:01:46.976,0.29671,3.8620157,9.820144,0.10231985,0.031917684,-0.00320704,-15.3,-47.625,-35.60625,0.15338537,0.13789384,0.6905351,1001.8891, , , , 
2025-09-27 18:01:46.996,0.10049855,4.3405805,9.202796,0.14874557,0.008093959,-0.0044287695,-15.806251,-47.8125,-33.99375,0.15387468,0.13872877,0.69045526,1001.8249, , , , 
2025-09-27 18:01:47.016,0.19860429,4.199404,8.673982,0.02535089,0.067958705,-0.008704823,-14.83125,-48.187504,-35.456253,0.15462238,0.13982353,0.6902485,1001.8249, , , , 
2025-09-27 18:01:47.037,0.21296121,4.290331,8.750552,-0.014966187,0.0923933,-0.01847866,-13.687501,-44.60625,-34.55625,0.15452069,0.14053823,0.6902121,1001.7341, , , , 
2025-09-27 18:01:47.056,0.11006984,4.1371903,8.736196,-0.00641408,0.03252855,-0.019089524,-15.337501,-47.643753,-33.43125,0.15433645,0.14104305,0.69015515,1001.7341, , , , 
2025-09-27 18:01:47.076,0.22971097,4.0366917,8.666803,-0.0015271619,-0.0707076,-0.006872229,-15.69375,-46.55625,-34.237503,0.15473144,0.14116888,0.6899377,1001.6691, , , , 
2025-09-27 18:01:47.096,0.18185452,3.9338005,8.851051,-0.042455103,-0.022449281,-0.00320704,-13.687501,-48.318752,-35.737503,0.15526712,0.14042395,0.6897654,1001.6691, , , , 
2025-09-27 18:01:47.116,0.09571291,3.940979,8.949157,-0.05650499,0.008704823,4.581486E-4,-15.31875,-46.893753,-34.0875,0.15495273,0.1401532,0.6898136,1001.6237, , , , 
2025-09-27 18:01:47.136,0.1698904,3.9553359,9.102298,-0.06139191,0.021532983,0.0035124724,-15.3,-46.875,-35.49375,0.15445764,0.13996242,0.6899065,1001.6237,37.88830772,127.73991245,141.22711181640625,0.0
2025-09-27 18:01:47.156,-0.02632105,3.9816568,9.19801,-0.044287696,0.04535671,0.0016798781,-16.2,-46.85625,-33.693752,0.15322952,0.13978562,0.6901047,1001.5898, , , , 
2025-09-27 18:01:47.176,0.031106694,3.9361932,9.221938,-0.040011644,0.01847866,0.0108428495,-16.48125,-48.24375,-34.050003,0.15261663,0.13983072,0.6902018,1001.5898, , , , 
2025-09-27 18:01:47.196,0.033499517,3.897908,9.434899,-0.022907428,-0.0151189035,0.027336199,-16.275002,-45.975002,-36.35625,0.15207143,0.13960257,0.6903673,1001.5732, , , , 
2025-09-27 18:01:47.216,0.22971097,3.9242291,9.401401,0.027794348,-0.034666575,0.04382955,-16.2,-47.5875,-34.275,0.1519098,0.13912809,0.69070387,1001.5732, , , , 
2025-09-27 18:01:47.236,0.29192436,3.9840498,9.253045,0.044898562,-0.037110034,0.0377209,-15.075001,-46.48125,-34.912502,0.15225999,0.13885453,0.6908757,1001.5673, , , , 
2025-09-27 18:01:47.256,0.37806597,4.0845485,9.004191,0.01924224,-0.004734202,0.022449281,-17.38125,-46.125,-32.53125,0.15296674,0.13867733,0.6910995,1001.5673, , , , 
2025-09-27 18:01:47.276,0.32063824,4.0797625,9.030513,-0.011911863,0.01970039,0.008399391,-17.868752,-47.268753,-35.04375,0.1532759,0.13864,0.69121563,1001.56, , , , 
2025-09-27 18:01:47.297,0.5455636,3.9361932,9.707682,0.010690134,0.08506292,0.0016798781,-15.450001,-46.78125,-34.237503,0.15299453,0.13878469,0.69139487,1001.56, , , , 
2025-09-27 18:01:47.316,0.16749759,4.1371903,9.468399,0.09926552,0.05574141,0.0029016077,-16.143751,-46.59375,-34.18125,0.15279905,0.13904072,0.69150907,1001.57074, , , , 
2025-09-27 18:01:47.337,0.33499518,4.319045,8.99462,0.116980605,-0.0029016077,-0.0050396346,-15.543751,-47.287502,-34.518753,0.15331693,0.13990965,0.6914336,1001.57074, , , , 
2025-09-27 18:01:47.356,0.29192436,4.2711883,8.456235,0.038179047,-0.016340632,-0.024587307,-14.718751,-45.45,-35.325,0.15509832,0.14070222,0.6910221,1001.5651, , , , 
2025-09-27 18:01:47.376,0.21535404,4.1515474,8.566305,-0.029016078,0.020922119,-0.020922119,-15.675,-47.175003,-34.050003,0.15561858,0.14103723,0.6908206,1001.5651, , , , 
2025-09-27 18:01:47.396,0.11246266,3.926622,9.312865,-0.011300999,0.05329795,-0.015424335,-13.875001,-45.506252,-33.7125,0.15494154,0.14138444,0.69074404,1001.5573, , , , 
2025-09-27 18:01:47.416,0.11246266,3.926622,9.312865,-0.011300999,0.05329795,-0.015424335,-13.875001,-45.506252,-33.7125,0.15494154,0.14138444,0.69074404,1001.5573, , , , 
2025-09-27 18:01:47.436,0.17467605,3.993621,9.123833,0.03573559,-0.005345067,-0.0074830935,-14.38125,-45.91875,-34.55625,0.15440908,0.14162458,0.6906728,1001.5539, , , , 
2025-09-27 18:01:47.456,0.40917268,4.091727,8.906086,-0.015577052,0.04046979,-0.044134982,-14.625001,-46.425003,-35.4375,0.15444352,0.14165838,0.690519,1001.5539, , , , 
2025-09-27 18:01:47.476,0.16749759,4.106084,8.769695,-0.037568185,0.057574004,-0.043524116,-15.243751,-44.90625,-32.362503,0.15423921,0.14177105,0.6903793,1001.5434, , , , 
2025-09-27 18:01:47.496,0.2656033,3.9098723,9.389436,-0.011300999,-0.032223117,-0.01847866,-17.493752,-47.362503,-32.756252,0.15363108,0.14191796,0.69014406,1001.5434, , , , 
2025-09-27 18:01:47.516,0.4977071,3.9601214,8.99462,0.049174614,-0.047494736,-0.054519683,-16.125,-45.84375,-35.15625,0.15397722,0.14140221,0.6899062,1001.5566, , , , 
2025-09-27 18:01:47.536,0.6412765,4.273581,8.784052,0.013744458,-0.030390523,-0.081397735,-15.000001,-46.10625,-34.631252,0.15465221,0.14118062,0.6895095,1001.5566, , , , 
2025-09-27 18:01:47.556,0.6580262,4.4602213,8.853444,-0.09071342,0.17608178,-0.12599087,-15.281251,-45.15,-32.662502,0.15486896,0.14137682,0.6887427,1001.5524, , , , 
2025-09-27 18:01:47.576,0.4331009,4.409972,8.834301,-0.118202336,0.20967934,-0.12965605,-18.9375,-46.40625,-30.806252,0.15460281,0.14155497,0.68863606,1001.5524, , , , 
2025-09-27 18:01:47.596,0.17706887,4.1898327,9.377472,-0.09193515,0.10766492,-0.13148865,-15.262501,-45.881252,-34.3125,0.15242113,0.14258213,0.68806934,1001.5478, , , , 
2025-09-27 18:01:47.616,-0.086141616,4.1180477,9.219545,0.016187917,-0.049938194,-0.1547015,-14.75625,-46.95,-33.84375,0.15179187,0.14268048,0.68692356,1001.5478, , , , 
2025-09-27 18:01:47.636,-0.40677986,3.9601214,8.879765,-0.0033597562,-0.099418245,-0.07223476,-14.325001,-47.025,-34.5,0.15184659,0.14286987,0.68591154,1001.5373, , , , 
2025-09-27 18:01:47.656,-0.18185452,3.8213377,8.855837,-0.013744458,-0.1036943,-0.028252495,-14.625001,-46.443752,-34.96875,0.15188286,0.14250706,0.685218,1001.5373, , , , 
2025-09-27 18:01:47.677,-0.22971097,3.8476589,8.602198,-0.0980438,0.04657844,-0.011148282,-15.431251,-48.15,-33.393753,0.15130213,0.14214458,0.68499285,1001.5317, , , , 
2025-09-27 18:01:47.696,-0.10049855,3.897908,8.79123,-0.17989968,0.1876882,-0.0013744457,-16.0125,-46.706253,-34.65,0.14968401,0.14235838,0.6852007,1001.5317, , , , 
2025-09-27 18:01:47.716,-0.54317075,3.6227336,9.865608,-0.17318016,0.18096869,-0.006872229,-15.50625,-45.65625,-34.29375,0.1455551,0.14258155,0.68584293,1001.5334, , , , 
2025-09-27 18:01:47.737,-0.58624154,3.641876,10.001999,-0.01802051,-0.002290743,0.014508039,-12.262501,-45.675003,-36.65625,0.14298755,0.14248148,0.6861362,1001.5334, , , , 
2025-09-27 18:01:47.756,-0.20578274,3.9194436,9.056833,0.08643737,-0.13668099,0.021227552,-17.493752,-45.24375,-33.65625,0.1429357,0.14220627,0.6860823,1001.55194, , , , 
2025-09-27 18:01:47.777,0.0023928226,4.0414777,8.685946,0.029626941,-0.062155493,0.027947064,-16.48125,-45.393753,-33.75,0.14411627,0.14214951,0.68592805,1001.55194, , , , 
2025-09-27 18:01:47.796,0.1363909,3.9984066,9.140582,-0.032070402,0.057574004,0.025503604,-14.700001,-45.09375,-32.41875,0.14450048,0.1422402,0.6860664,1001.57025, , , , 
2025-09-27 18:01:47.817,0.16271193,3.9816568,9.62154,-0.01802051,0.08933897,0.0035124724,-15.39375,-45.768753,-34.143753,0.14379834,0.1423714,0.68645006,1001.57025, , , , 
2025-09-27 18:01:47.838,0.083748795,4.007978,9.772287,0.05650499,0.07895427,-0.006261364,-16.0125,-44.475002,-33.54375,0.14336622,0.14264484,0.68660253,1001.5837, , , , 
2025-09-27 18:01:47.856,-0.059820566,3.9816568,9.710074,0.124310985,0.090560704,0.0151189035,-16.2,-45.375,-33.16875,0.14324036,0.14351301,0.6866775,1001.5837, , , , 
2025-09-27 18:01:47.876,0.05742774,4.1347976,9.19801,0.14263692,0.058795735,0.014508039,-15.1125,-45.0,-32.831253,0.1436582,0.14472921,0.68674225,1001.592, , , , 
2025-09-27 18:01:47.897,-0.10049855,4.065406,8.599805,0.09071342,0.0019853106,0.020616686,-16.59375,-47.175003,-30.862501,0.1445625,0.14580022,0.6866912,1001.592, , , , 
2025-09-27 18:01:47.917,-0.10049855,3.9026937,8.580662,0.02046397,-0.008399391,0.040775225,-14.38125,-46.425003,-32.53125,0.14524208,0.14644465,0.68672806,1001.5861, , , , 
2025-09-27 18:01:47.938,-0.031106694,3.7615173,8.920443,0.024740024,-0.0065667965,0.038331766,-14.75625,-46.95,-33.525,0.14554743,0.1464822,0.68701446,1001.5861, , , , 
2025-09-27 18:01:47.956,-0.069391854,3.802195,8.980264,0.06139191,-0.024281874,0.035888307,-15.8625,-45.825,-33.018753,0.14574373,0.14652531,0.6872273,1001.5888, , , , 
2025-09-27 18:01:47.976,-0.12921242,3.8787656,9.001799,0.11026109,-0.16172644,0.04382955,-16.368752,-46.256252,-33.412502,0.14681336,0.146307,0.6872402,1001.5888, , , , 
2025-09-27 18:01:48.003,0.32303107,4.2329035,8.575876,0.14446951,-0.24113888,0.04444041,-15.69375,-46.55625,-33.768753,0.14902794,0.14523542,0.6868726,1001.6005, , , , 
2025-09-27 18:01:48.016,0.89013004,4.206582,8.384451,0.09926552,-0.22098033,-0.0050396346,-16.650002,-46.78125,-32.100002,0.15167108,0.14490171,0.686773,1001.6005, , , , 
2025-09-27 18:01:48.037,0.2009971,4.101298,8.2456665,-0.109650224,0.052076224,-0.0386372,-17.118752,-46.331253,-33.318752,0.15388262,0.14425029,0.6863954,1001.612, , , , 
2025-09-27 18:01:48.056,-0.086141616,4.0414777,8.537591,-0.15546508,0.064904384,-0.027641632,-16.837502,-46.93125,-31.462502,0.15351154,0.14416575,0.6863817,1001.612, , , , 
2025-09-27 18:01:48.077,-0.22492532,3.9194436,8.903693,-0.17501275,-0.024281874,-0.011759147,-14.85,-45.975002,-33.43125,0.15211308,0.14363997,0.6864289,1001.612, , , , 
2025-09-27 18:01:48.097,0.009571291,3.7280176,9.786645,-0.10598504,0.019089524,-0.012370012,-15.937501,-46.331253,-34.068752,0.15051092,0.14223546,0.6865489,1001.64886, , , , 
2025-09-27 18:01:48.116,0.14596218,4.1180477,9.707682,0.022907428,0.031917684,-0.03924806,-15.225,-47.23125,-35.325,0.14912504,0.14158767,0.6866759,1001.71893, , , , 
2025-09-27 18:01:48.136,-0.09332009,4.261617,9.035298,0.031459536,-0.03649917,-0.0368046,-14.250001,-46.7625,-35.90625,0.14920436,0.14168118,0.6864658,1001.71893,37.88830772,127.73991245,141.22711181640625,0.0
2025-09-27 18:01:48.156,0.031106694,4.1347976,8.941978,-0.060781047,-0.0377209,-0.015424335,-14.156251,-45.506252,-35.0625,0.14983708,0.14178246,0.6859675,1001.768, , , , 
2025-09-27 18:01:48.176,0.04546363,4.0031924,9.159725,-0.057726722,0.0050396346,-0.019089524,-14.887501,-46.21875,-34.48125,0.14962953,0.14159092,0.6859048,1001.768, , , , 
2025-09-27 18:01:48.196,0.15792629,4.0151563,9.241081,-0.03084867,0.01970039,-0.020311253,-15.4875,-47.25,-36.99375,0.149012,0.14130518,0.68585455,1001.80853, , , , 
2025-09-27 18:01:48.216,0.26081768,4.0534415,9.190832,-0.015577052,0.031917684,-0.030695954,-13.856251,-46.85625,-33.9375,0.1487374,0.14116462,0.6858104,1001.80853, , , , 
2025-09-27 18:01:48.236,0.16031912,4.106084,9.085547,-0.021074835,0.01725693,-0.04291325,-14.250001,-47.5125,-35.4,0.148673,0.14113468,0.68565035,1001.83734, , , , 
2025-09-27 18:01:48.257,-0.047856454,4.06062,9.018549,-0.031459536,0.006261364,-0.031917684,-14.887501,-46.21875,-34.48125,0.14853601,0.14120412,0.6853454,1001.83734, , , , 
2025-09-27 18:01:48.276,-0.009571291,4.007978,9.131011,-0.021074835,0.010537418,-0.0129808765,-16.275002,-45.75,-33.45,0.1482861,0.14129011,0.6852351,1001.84686, , , , 
2025-09-27 18:01:48.296,0.09332009,3.9577286,9.315259,0.0015271619,0.028252495,-0.006872229,-15.69375,-47.175003,-33.2625,0.1479967,0.14135653,0.6852017,1001.84686, , , , 
2025-09-27 18:01:48.316,0.08135597,3.991228,9.15494,0.02046397,0.03252855,-0.009315688,-14.906251,-46.575,-37.40625,0.14780274,0.1416282,0.68520975,1001.8415, , , , 
2025-09-27 18:01:48.336,0.014356935,3.9577286,9.24826,0.011300999,0.009926553,-0.006872229,-16.0125,-46.706253,-34.350002,0.14777502,0.1418077,0.68516487,1001.8415, , , , 
2025-09-27 18:01:48.356,0.03589234,3.9625144,9.262616,0.024129158,0.020311253,-0.003817905,-16.44375,-47.25,-33.1875,0.14760649,0.14198203,0.6851288,1001.8166, , , , 
2025-09-27 18:01:48.377,0.09092726,4.031906,9.159725,0.036346454,0.041080657,-0.008093959,-14.00625,-44.86875,-35.5875,0.1475478,0.14220239,0.68512225,1001.8166, , , , 
2025-09-27 18:01:48.396,-0.050249275,4.0031924,9.456435,0.07055488,0.066736974,-0.012370012,-14.587501,-46.818752,-33.09375,0.14757288,0.14277755,0.6850809,1001.7939, , , , 
2025-09-27 18:01:48.416,0.2632105,4.1180477,9.238688,0.12492185,0.12721258,-0.03008509,-14.025001,-47.006252,-34.537502,0.14745496,0.14416863,0.6850166,1001.7939, , , , 
2025-09-27 18:01:48.436,0.059820566,4.1204405,8.585447,0.062002774,0.16814053,-0.03375028,-15.093751,-45.975002,-36.956253,0.14746256,0.14582591,0.684861,1001.73334, , , , 
2025-09-27 18:01:48.456,-0.3924229,4.048656,8.432307,-0.0876591,0.09544762,-0.0490219,-14.175,-46.5,-36.393753,0.14673215,0.14742538,0.6845953,1001.73334, , , , 
2025-09-27 18:01:48.477,-0.6556334,3.6634114,9.241081,-0.0736092,0.041080657,0.026725333,-16.237501,-44.756252,-32.268753,0.14525402,0.14793113,0.6845802,1001.67377, , , , 
2025-09-27 18:01:48.497,-0.09810573,3.603591,8.9108715,0.015577052,-0.059101168,0.06459895,-16.2,-46.125,-32.9625,0.14394979,0.14785872,0.6849546,1001.67377, , , , 
2025-09-27 18:01:48.517,0.09332009,3.7040894,8.367701,-0.03940078,-0.14278965,0.022449281,-15.50625,-47.775,-33.5625,0.14511725,0.14643611,0.68501854,1001.6452, , , , 
2025-09-27 18:01:48.537,0.13160525,3.8548372,8.520842,-0.09498947,0.0013744457,0.010231985,-16.556252,-46.3875,-33.525,0.14529972,0.14544858,0.6851288,1001.6452, , , , 
2025-09-27 18:01:48.557,0.12203395,3.9481573,8.76491,-0.15302163,0.020922119,-0.008093959,-14.1,-45.9,-33.825,0.14462328,0.14472556,0.6853407,1001.6452, , , , 
2025-09-27 18:01:48.577,0.08135597,3.9170506,9.284152,-0.13652828,-0.029168794,-0.022143848,-16.10625,-45.600002,-33.318752,0.1438737,0.14358974,0.6854484,1001.6452, , , , 
2025-09-27 18:01:48.597,-0.07178468,3.9481573,9.449257,-0.0632245,-0.031001387,-0.015424335,-15.637501,-46.18125,-32.71875,0.14331953,0.14248514,0.68545634,1001.64935, , , , 
2025-09-27 18:01:48.617,-0.038285162,4.074977,9.236296,-0.032681264,-0.073761925,0.0016798781,-16.612501,-47.4,-33.318752,0.14318985,0.14185663,0.6854185,1001.64935, , , , 
2025-09-27 18:01:48.637,-0.02632105,4.0869412,9.30808,-0.03573559,-0.07009673,0.012064579,-16.5,-46.893753,-33.35625,0.14359024,0.14124699,0.6853618,1001.6464, , , , 
2025-09-27 18:01:48.657,0.02871387,4.058227,9.489935,-0.032681264,-0.0035124724,0.021838415,-15.431251,-46.03125,-34.125,0.14368978,0.14078763,0.68546575,1001.6464, , , , 
2025-09-27 18:01:48.677,0.043070808,4.089334,9.52822,0.00763581,-0.017562363,0.020616686,-15.4125,-45.787502,-33.075,0.14365259,0.14053155,0.6856861,1001.64667, , , , 
2025-09-27 18:01:48.697,0.033499517,4.1108694,9.286545,0.036346454,-0.049938194,0.016340632,-14.512501,-45.80625,-33.9375,0.14421666,0.14043324,0.6857168,1001.64667, , , , 
2025-09-27 18:01:48.717,0.14356937,4.098905,9.12144,0.02535089,-0.030390523,0.016340632,-14.45625,-46.18125,-33.15,0.14494602,0.1404513,0.6857031,1001.6486, , , , 
2025-09-27 18:01:48.737,0.21296121,4.046263,9.138189,0.022907428,0.0025961753,-0.026419902,-15.225,-45.6375,-33.862503,0.14557025,0.14040811,0.68564314,1001.6486, , , , 
2025-09-27 18:01:48.757,0.023928227,3.9864426,8.989835,0.013744458,0.022143848,-0.041080657,-17.19375,-45.975002,-33.1875,0.14588092,0.14060017,0.68540585,1001.64764, , , , 
2025-09-27 18:01:48.777,-0.14356937,3.9649072,8.997013,-0.0033597562,0.057574004,-0.025809037,-14.08125,-45.881252,-34.59375,0.14566712,0.14107667,0.68517804,1001.64764, , , , 
2025-09-27 18:01:48.797,-0.1698904,3.9577286,9.02812,0.0070249448,0.06429352,-0.017867794,-14.062501,-46.3875,-33.3375,0.14507517,0.1417987,0.6850792,1001.6457, , , , 
2025-09-27 18:01:48.817,-0.2321038,3.993621,8.815159,0.018631376,-0.004734202,-0.0056504994,-15.13125,-45.99375,-34.48125,0.14470783,0.14261511,0.68492407,1001.6457, , , , 
2025-09-27 18:01:48.837,-0.050249275,3.9649072,8.772088,-0.018631376,-0.020616686,-0.006872229,-15.375001,-45.768753,-35.23125,0.1448471,0.14283417,0.6847864,1001.64935, , , , 
2025-09-27 18:01:48.857,-0.04546363,3.8955152,8.889337,-0.050396346,0.029474225,-0.010537418,-13.668751,-45.975002,-34.0125,0.14462268,0.14279485,0.68473905,1001.64935, , , , 
2025-09-27 18:01:48.876,-0.040677983,3.912265,8.920443,-0.05894845,0.06429352,-0.008093959,-14.962501,-45.84375,-34.350002,0.1438846,0.14286777,0.6848163,1001.65497, , , , 
2025-09-27 18:01:48.897,-0.1268196,3.9242291,8.819944,-0.055283263,0.09850194,0.013286309,-15.187501,-46.987503,-34.575,0.14295708,0.14317699,0.6850026,1001.65497, , , , 
2025-09-27 18:01:48.918,-0.050249275,3.993621,8.635697,-0.041233372,-0.005345067,0.040775225,-13.743751,-46.350002,-34.443752,0.14226656,0.14348705,0.685356,1001.6518, , , , 
2025-09-27 18:01:48.936,0.4761717,4.0534415,8.19781,-0.029016078,-0.08720095,0.060322896,-14.1,-46.631252,-34.3875,0.14306019,0.14302252,0.68563706,1001.6518, , , , 
2025-09-27 18:01:48.957,1.0241281,4.098905,7.54457,-0.06994402,-0.10674862,0.015729768,-15.3,-46.125,-34.612503,0.14494707,0.1418347,0.68586594,1001.6503, , , , 
2025-09-27 18:01:48.976,1.0624132,3.845266,7.125826,-0.1310305,-0.21792601,-0.03619374,-12.0375,-45.28125,-36.075,0.1472672,0.13977602,0.6857649,1001.6503, , , , 
2025-09-27 18:01:48.998,0.94755775,3.2303107,6.5491557,-0.085215636,-0.82268214,-0.013591741,-15.13125,-46.74375,-34.59375,0.15127786,0.13539481,0.6850956,1001.643, , , , 
2025-09-27 18:01:49.018,0.89491564,2.8929226,5.5298133,0.05894845,-1.5355613,0.046273008,-14.925,-45.600002,-33.600002,0.15973184,0.127061,0.6834864,1001.643, , , , 
2025-09-27 18:01:49.038,0.8255238,2.629712,3.778267,0.18845178,-2.3797765,0.18127412,-14.812501,-47.2125,-33.506252,0.17402618,0.11434784,0.6808696,1001.61615, , , , 
2025-09-27 18:01:49.056,1.0145568,2.3784657,2.184647,0.16890411,-2.973537,0.3065014,-17.456251,-46.3875,-31.425001,0.19338265,0.097037286,0.6775443,1001.61615, , , , 
2025-09-27 18:01:49.077,1.39023,1.6558332,0.93559366,-0.060781047,-3.5141523,0.47937614,-18.65625,-45.018753,-31.237501,0.21594286,0.07456049,0.6736041,1001.5717, , , , 
2025-09-27 18:01:49.098,1.6079768,0.95712906,0.7369894,-0.42119128,-4.076759,0.69073534,-20.8125,-46.237503,-30.768751,0.24533235,0.038986262,0.66810477,1001.5717, , , , 
2025-09-27 18:01:49.116,2.4861426,0.3684947,1.2658032,-0.7712168,-4.513527,0.99922204,-24.150002,-45.225002,-29.250002,0.26360288,0.012532085,0.66446275,1001.50824, , , , 
2025-09-27 18:01:49.137,5.15414,-0.6723832,3.2590244,-1.3246603,-4.0840893,1.2331833,-26.250002,-45.43125,-28.706251,0.29041013,-0.037417125,0.6590536,1001.50824,37.88830772,127.73991245,141.22711181640625,0.0
2025-09-27 18:01:49.156,6.250053,-1.2705889,4.3740797,-1.5824453,-3.3828163,1.2942698,-28.85625,-42.24375,-26.925001,0.30388337,-0.07638622,0.6560755,1001.4836, , , , 
2025-09-27 18:01:49.178,5.8360944,-1.8903298,4.914858,-1.7815871,-2.5819726,1.360854,-31.593752,-41.90625,-25.575,0.30997044,-0.111515485,0.6546801,1001.4836, , , , 
2025-09-27 18:01:49.196,5.625526,-2.184647,4.618148,-1.890321,-2.7285802,1.5557199,-31.237501,-40.125,-25.406252,0.3123658,-0.14548975,0.65429884,1001.4958, , , , 
2025-09-27 18:01:49.218,6.4701924,-2.993421,5.2139606,-1.9807291,-3.2154396,1.8104504,-34.21875,-38.193752,-24.88125,0.31565335,-0.1832918,0.6532165,1001.4958, , , , 
2025-09-27 18:01:49.236,7.233503,-3.8548372,5.278567,-1.96729,-3.2013896,2.0260859,-36.75,-36.0,-22.275002,0.3200329,-0.23317923,0.65147805,1001.51483, , , , 
2025-09-27 18:01:49.256,8.157132,-4.4841495,5.24746,-2.0479243,-2.9423828,2.2765403,-36.487503,-34.0875,-23.34375,0.32072902,-0.2724408,0.6509905,1001.51483, , , , 
2025-09-27 18:01:49.276,10.217353,-4.792824,5.2833524,-2.1138976,-2.8195992,2.3400702,-40.256252,-33.112503,-22.3875,0.31979814,-0.3016058,0.6506837,1001.5412, , , , 
2025-09-27 18:01:49.296,10.164711,-5.493921,5.0919266,-2.233627,-2.4194827,2.2081234,-41.006252,-30.225,-21.075,0.31481612,-0.34791183,0.6490661,1001.5412, , , , 
2025-09-27 18:01:49.317,8.985049,-6.175875,5.252246,-2.3496914,-2.2887576,2.41765,-42.300003,-27.243752,-21.581251,0.30767882,-0.38322687,0.647205,1001.55853, , , , 
2025-09-27 18:01:49.336,10.4566345,-6.7525454,6.769295,-2.3252568,-2.2631013,2.630842,-45.65625,-24.975,-21.65625,0.29822874,-0.41861188,0.6457379,1001.55853, , , , 
2025-09-27 18:01:49.357,12.557533,-6.8195443,7.3340015,-2.0699153,-2.1757476,2.5550947,-45.16875,-20.962502,-19.462502,0.28620687,-0.46042266,0.64407206,1001.5903, , , , 
2025-09-27 18:01:49.378,11.598011,-6.963114,6.597012,-1.8750495,-1.9643884,2.444528,-46.350002,-16.706251,-20.6625,0.27927992,-0.48264328,0.6429782,1001.5903, , , , 
2025-09-27 18:01:49.399,10.442278,-7.4010005,5.3336015,-1.7742567,-1.9973751,2.64367,-48.693752,-14.475,-19.462502,0.2674418,-0.51706773,0.6415421,1001.62396, , , , 
2025-09-27 18:01:49.416,12.236895,-7.3698936,5.6949177,-1.7351614,-2.0218098,2.7633996,-50.7,-11.212501,-17.587502,0.2572554,-0.5442295,0.64057726,1001.62396, , , , 
2025-09-27 18:01:49.436,14.299508,-7.192825,7.219146,-1.6294818,-1.9240713,2.5844162,-53.156254,-9.4875,-16.81875,0.24740271,-0.5699826,0.6389543,1001.63715, , , , 
2025-09-27 18:01:49.456,13.964513,-7.0803623,7.3028946,-1.3283255,-1.4494294,2.3345726,-53.325,-7.275,-14.75625,0.23785354,-0.59111995,0.63765156,1001.63715, , , , 
2025-09-27 18:01:49.478,12.792029,-6.7525454,6.3720865,-1.045495,-0.9650136,2.1757476,-55.10625,-5.7375,-12.0375,0.22460121,-0.6110418,0.6378932,1001.6723, , , , 
2025-09-27 18:01:49.496,12.787244,-6.350551,5.582455,-0.90560704,-0.7341067,1.9930991,-53.86875,-3.99375,-12.1125,0.21648985,-0.6206657,0.6386241,1001.6723, , , , 
2025-09-27 18:01:49.518,12.074183,-5.802595,4.7401814,-0.7706059,-0.6992875,1.7017165,-53.325,-1.6125001,-7.51875,0.20431983,-0.63398975,0.6395301,1001.6899, , , , 
2025-09-27 18:01:49.539,11.370693,-5.6781683,4.3501515,-0.59162253,-0.8135192,1.5331179,-53.5125,0.24375,-8.38125,0.19732286,-0.64343417,0.63981766,1001.6899, , , , 
2025-09-27 18:01:49.557,11.365908,-5.5106707,3.7758741,-0.46944958,-0.6046034,1.3229804,-54.487503,1.48125,-5.71875,0.19135489,-0.65119135,0.64038765,1001.6723, , , , 
2025-09-27 18:01:49.576,11.387443,-5.5298133,2.7278178,-0.42668906,-0.3999637,1.1635447,-51.375004,3.16875,-4.2937503,0.18573402,-0.6571718,0.64100367,1001.6723, , , , 
2025-09-27 18:01:49.596,10.4016,-5.1158547,2.2660031,-0.51159924,-0.102472566,1.022435,-49.7625,5.9437504,-5.7000003,0.17981799,-0.6622848,0.6409965,1001.6589, , , , 
2025-09-27 18:01:49.616,10.758131,-4.847859,2.4933212,-0.56718796,-0.06826414,0.88499033,-52.406254,6.0375004,-4.18125,0.17299347,-0.66702294,0.6404628,1001.6589, , , , 
2025-09-27 18:01:49.636,11.07159,-4.735396,2.6823542,-0.5519163,0.011759147,0.5874992,-51.825,7.4812503,-4.9500003,0.16607964,-0.67216897,0.63866705,1001.63715, , , , 
2025-09-27 18:01:49.657,10.040284,-4.910072,3.2039895,-0.5024363,-0.0029016077,0.34009898,-50.1375,6.9187503,-6.6375003,0.16271695,-0.67551756,0.6365458,1001.63715, , , , 
2025-09-27 18:01:49.677,10.442278,-4.8095737,4.2759743,-0.3179551,0.20112723,0.18982624,-51.825,7.4812503,-4.9500003,0.15929201,-0.67727846,0.6350164,1001.6254, , , , 
2025-09-27 18:01:49.697,10.329815,-4.833502,4.072584,-0.11514801,0.13820815,-0.01970039,-51.24375,8.90625,-4.6312504,0.15785661,-0.6772082,0.63437855,1001.6254, , , , 
2025-09-27 18:01:49.716,10.289138,-4.9531426,4.1443686,0.03573559,0.170584,-0.19501857,-50.9625,8.700001,-6.80625,0.15835197,-0.675913,0.63418406,1001.61664, , , , 
2025-09-27 18:01:49.736,10.73181,-5.1613183,4.1611185,0.19089524,0.17424917,-0.38621926,-50.68125,8.08125,-4.33125,0.16018848,-0.67322916,0.6344919,1001.61664, , , , 
2025-09-27 18:01:49.756,10.207782,-4.9866424,4.56072,0.43768463,-0.082924895,-0.5896372,-49.4625,7.36875,-7.3500004,0.1648579,-0.6694561,0.6351111,1001.60614, , , , 
2025-09-27 18:01:49.776,10.19821,-4.8095737,4.1180477,0.77549285,-0.4641045,-0.6806561,-50.41875,7.8750005,-5.11875,0.1735862,-0.6646999,0.636764,1001.60614, , , , 
2025-09-27 18:01:49.797,10.377672,-4.85743,2.672783,0.9477567,-0.40057456,-0.766788,-50.943752,6.6937504,-5.30625,0.18751244,-0.6571403,0.6400278,1001.61005, , , , 
2025-09-27 18:01:49.816,10.080962,-4.065406,3.010171,0.94042635,-0.25702137,-0.78511393,-51.656254,5.15625,-7.3125005,0.1981839,-0.6503758,0.64268345,1001.61005, , , , 
2025-09-27 18:01:49.837,10.671989,-3.7710886,3.3954153,1.010065,-0.07987057,-0.85841775,-52.800003,4.7625003,-5.0062504,0.20821631,-0.6425912,0.6456684,1001.6032, , , , 
2025-09-27 18:01:49.857,10.705488,-3.8141594,3.3906298,1.1255183,-0.029779658,-1.0184643,-52.612503,2.68125,-6.1312504,0.2185633,-0.63334674,0.6489222,1001.6032, , , , 
2025-09-27 18:01:49.876,10.246066,-4.76411,3.414558,1.2861758,-0.21059564,-1.0887138,-54.393753,1.9875001,-4.6687503,0.23063344,-0.623228,0.65223974,1001.6091, , , , 
2025-09-27 18:01:49.896,9.839287,-5.0751767,3.1776686,1.5128067,-0.40607235,-1.0581706,-52.968754,1.6500001,-6.1875005,0.24438043,-0.61236,0.6562367,1001.6091, , , , 
2025-09-27 18:01:49.916,10.392029,-5.209175,2.201397,1.5647302,-0.57467103,-1.0147991,-52.893753,-0.20625001,-6.7125,0.2595836,-0.601404,0.660474,1001.62177, , , , 
2025-09-27 18:01:49.936,11.538191,-5.235496,1.2418749,1.3863577,-0.52763444,-1.100931,-53.850002,-1.1812501,-5.175,0.27845657,-0.58824545,0.664547,1001.62177, , , , 
2025-09-27 18:01:49.957,12.497713,-5.5896335,1.0193424,1.0290017,-0.37125307,-1.2780819,-50.98125,-1.63125,-6.99375,0.292951,-0.5789329,0.66539216,1001.6176, , , , 
2025-09-27 18:01:49.977,11.519048,-5.424529,1.753939,0.84146625,-0.48609564,-1.4613413,-52.218754,-2.625,-6.80625,0.3074277,-0.5705663,0.6637981,1001.6176, , , , 
2025-09-27 18:01:49.996,11.944971,-5.020142,2.1870399,0.6692024,-0.20021093,-1.5493058,-52.48125,-4.5375004,-5.11875,0.3207629,-0.56240606,0.6612544,1001.60736, , , , 
2025-09-27 18:01:50.016,11.162518,-4.493721,2.28036,0.54580766,0.34651303,-1.6763656,-53.11875,-6.9750004,-4.6125,0.3312864,-0.5528655,0.6587439,1001.60736, , , , 
2025-09-27 18:01:50.037,9.973285,-4.106084,2.8283165,0.5018254,0.640339,-1.7679954,-52.162502,-6.4875,-4.5750003,0.33903286,-0.5417986,0.6565249,1001.62054, , , , 
2025-09-27 18:01:50.057,8.760123,-4.156333,3.07717,0.69241524,0.33918267,-1.8070908,-51.24375,-7.89375,-5.53125,0.34708267,-0.52984965,0.6543852,1001.62054, , , , 
2025-09-27 18:01:50.076,7.948957,-4.23051,2.7014968,0.9141591,-0.1660025,-1.7942625,-51.131252,-11.71875,-5.9437504,0.35863298,-0.51817405,0.65162104,1001.6359, , , , 
2025-09-27 18:01:50.096,7.2502527,-4.359723,1.430908,0.93859375,-0.23686282,-1.738063,-52.612503,-13.9875,-6.58125,0.37252575,-0.50692666,0.6483817,1001.6359, , , , 
2025-09-27 18:01:50.118,6.908079,-4.240082,0.93320084,0.69241524,-0.07009673,-1.5364777,-52.425003,-13.725,-5.3812504,0.3877328,-0.49418405,0.6441563,1001.6525, , , , 
2025-09-27 18:01:50.137,7.34118,-4.4171505,0.8709874,0.46517354,0.13271037,-1.4283546,-50.850002,-16.6875,-4.14375,0.3966302,-0.4852954,0.6408364,1001.6525,37.88830772,127.73991245,141.22711181640625,0.0
2025-09-27 18:01:50.158,6.9415784,-4.5966125,1.0456635,0.25076,0.32879797,-1.3458878,-50.7,-16.78125,-5.3812504,0.40276334,-0.4771741,0.63751584,1001.65424, , , , 
2025-09-27 18:01:50.178,5.74756,-4.7210393,2.37368,0.19089524,0.310472,-1.0703878,-50.362503,-17.25,-5.08125,0.4076507,-0.46849597,0.6338072,1001.65424, , , , 
2025-09-27 18:01:50.196,4.974678,-4.7282176,2.5866413,0.34727663,0.2780962,-0.8138246,-48.73125,-18.056252,-7.2187505,0.41004184,-0.46365795,0.63276535,1001.66864, , , , 
2025-09-27 18:01:50.217,4.831109,-4.249653,1.9381863,0.42913252,0.09789108,-0.60002196,-48.9,-18.73125,-5.0062504,0.41314915,-0.45769626,0.6326489,1001.66864, , , , 
2025-09-27 18:01:50.237,4.4817567,-4.2759743,1.3064811,0.37476555,-0.102472566,-0.43142325,-49.050003,-18.84375,-6.20625,0.41671106,-0.45332834,0.6325267,1001.6774, , , , 
2025-09-27 18:01:50.256,3.9960139,-5.2163534,0.72263247,0.23732096,-0.10308343,-0.21151192,-50.531254,-21.75,-5.4187503,0.4199527,-0.45106748,0.6321753,1001.6774, , , , 
2025-09-27 18:01:50.276,3.3092737,-5.8935223,0.3278167,0.07116575,-0.21731515,0.19349141,-49.256252,-20.493752,-5.625,0.42113426,-0.45137778,0.6327064,1001.6706, , , , 
2025-09-27 18:01:50.296,3.414558,-6.862615,-0.3804588,-0.12064579,-0.5209149,0.6583595,-49.125004,-19.85625,-5.2125,0.42065376,-0.4559731,0.6334525,1001.6706, , , , 
2025-09-27 18:01:50.317,4.5415773,-7.9034934,-0.16271193,-0.37781987,-0.8623884,1.2735003,-48.54375,-19.9125,-5.8875003,0.41835815,-0.46861792,0.63422126,1001.65814, , , , 
2025-09-27 18:01:50.336,5.608776,-7.578069,-0.148355,-0.54702944,-0.66141385,1.5526656,-48.487503,-19.44375,-3.3000002,0.41506827,-0.47844353,0.63517016,1001.65814, , , , 
2025-09-27 18:01:50.357,5.1254263,-7.0348988,-0.5479564,-0.869566,-0.114079,1.7817398,-48.80625,-17.475,-4.93125,0.40652764,-0.49196622,0.6375329,1001.6557, , , , 
2025-09-27 18:01:50.377,4.941179,-7.164111,0.7298109,-1.1053598,0.0074830935,2.1146612,-50.11875,-16.10625,-5.4750004,0.39243373,-0.5063755,0.64094776,1001.6557, , , , 
2025-09-27 18:01:50.396,5.393422,-8.1020975,2.306681,-0.97280216,-0.48670653,2.359618,-50.062504,-15.843751,-5.9625,0.37766826,-0.5227321,0.64418155,1001.65204, , , , 
2025-09-27 18:01:50.417,7.6953177,-8.279166,2.1774685,-0.40042186,-1.3816234,2.4707954,-50.737503,-10.21875,-3.2812502,0.36431283,-0.54390854,0.6481809,1001.65204, , , , 
2025-09-27 18:01:50.439,8.295917,-8.63809,0.57906306,-0.21166465,-1.5154028,2.4878995,-50.550003,-9.31875,-3.35625,0.3586575,-0.56011117,0.6509345,1001.665, , , , 
2025-09-27 18:01:50.456,7.865208,-9.0544405,-0.5312066,-0.30390522,-1.3571888,2.5831945,-50.1375,-8.6625,-2.34375,0.35258776,-0.5757795,0.6534467,1001.665, , , , 
2025-09-27 18:01:50.476,7.9106717,-9.585648,-1.0408778,-0.59712034,-1.0199915,2.7450736,-51.675003,-5.34375,-1.4625001,0.34317243,-0.5921088,0.65540606,1001.66205, , , , 
2025-09-27 18:01:50.496,8.10449,-9.595219,-0.52163535,-1.0332778,-0.22403465,2.8666358,-52.143753,-1.0500001,-0.5625,0.32794496,-0.60889375,0.6570248,1001.66205, , , , 
2025-09-27 18:01:50.517,7.0396843,-8.896515,1.0767702,-1.1835505,0.23044874,2.9533784,-54.075,-0.16875,3.1312501,0.30710068,-0.6252392,0.6585653,1001.6528, , , , 
2025-09-27 18:01:50.538,7.3100734,-8.099705,2.3449662,-1.0485494,0.27748534,3.037067,-53.79375,2.9437501,6.4875,0.28350165,-0.64028925,0.6607328,1001.6528, , , , 
2025-09-27 18:01:50.557,8.819944,-7.0540414,3.1776686,-0.60994846,0.32696536,2.6705482,-48.581253,8.34375,5.0062504,0.25578913,-0.6549585,0.6646619,1001.65765, , , , 
2025-09-27 18:01:50.576,6.9583282,-7.3866434,1.5625132,-0.29840744,0.33124143,2.4781258,-49.893753,8.868751,2.1750002,0.23672083,-0.66228384,0.66916347,1001.65765, , , , 
2025-09-27 18:01:50.598,6.1734824,-7.7647095,0.043070808,-0.31612253,0.27870706,2.6632178,-50.531254,11.53125,2.25,0.2177199,-0.66880935,0.6739161,1001.66205, , , , 
2025-09-27 18:01:50.616,7.04447,-7.982456,-0.31106696,-0.4816669,0.33612835,2.8079927,-49.050003,12.937501,1.0875001,0.19735111,-0.67615676,0.67773676,1001.66205, , , , 
2025-09-27 18:01:50.636,8.772088,-7.7886376,0.5886344,-0.6496547,0.3923279,2.7688973,-49.800003,14.343751,1.5562501,0.17571521,-0.68420666,0.68003935,1001.653, , , , 
2025-09-27 18:01:50.657,10.576276,-7.597212,1.942972,-0.5763509,0.48456848,2.4207044,-46.631252,17.025002,2.30625,0.1549358,-0.6914934,0.6812389,1001.653, , , , 
2025-09-27 18:01:50.677,10.083355,-7.7623167,1.6342978,-0.36926776,0.38988444,2.1061091,-46.4625,17.90625,3.0,0.13675973,-0.6964733,0.6826523,1001.6508, , , , 
2025-09-27 18:01:50.696,10.013963,-7.8173513,0.7609176,-0.25442517,-0.012064579,1.9686645,-45.693752,20.25,2.025,0.12201115,-0.70020187,0.6842036,1001.6508, , , , 
2025-09-27 18:01:50.716,11.119447,-7.094719,0.8135597,-0.18845178,-0.38591382,1.8055636,-43.93125,22.40625,2.4750001,0.10876298,-0.70468795,0.6854231,1001.6469, , , , 
2025-09-27 18:01:50.737,12.19861,-6.506085,0.71306115,-0.11514801,-0.3046688,1.6168064,-44.025,22.650002,1.85625,0.100714676,-0.70750076,0.6862628,1001.6469, , , , 
2025-09-27 18:01:50.756,13.03849,-5.8480587,0.17228323,-0.04978548,0.031306818,1.2490658,-40.65,24.337502,4.3500004,0.0934039,-0.7091557,0.687242,1001.6447, , , , 
2025-09-27 18:01:50.777,12.794423,-5.5369916,-0.2727818,-0.088269964,0.28237224,0.91797704,-39.393753,26.1,3.1875002,0.08664981,-0.7100541,0.6879662,1001.6447, , , , 
2025-09-27 18:01:50.796,12.057433,-5.6039906,0.3062813,-0.085215636,0.28237224,0.683405,-39.84375,26.062502,3.24375,0.08075221,-0.7107737,0.68815523,1001.6413, , , , 
2025-09-27 18:01:50.816,11.897114,-5.898308,0.8135597,0.0632245,-0.0707076,0.48243046,-39.7125,27.31875,2.23125,0.07732899,-0.71094537,0.68855506,1001.6413, , , , 
2025-09-27 18:01:50.837,12.4115715,-6.9535427,0.5838487,0.25747952,-0.59910566,0.2600757,-38.15625,27.112501,2.53125,0.079666905,-0.70989573,0.69005483,1001.6352, , , , 
2025-09-27 18:01:50.857,13.780266,-8.523234,-0.2440679,0.3271181,-0.994946,-0.048411034,-39.0,26.643751,3.43125,0.08710927,-0.70850486,0.6913935,1001.6352, , , , 
2025-09-27 18:01:50.876,15.136996,-9.537791,-0.8063812,0.20189081,-1.0407609,-0.42959064,-38.90625,26.5125,5.4375,0.09804221,-0.70734614,0.6916947,1001.6276, , , , 
2025-09-27 18:01:50.896,16.031912,-10.691132,-1.0743774,-0.057115857,-0.7829759,-0.90301085,-38.775,27.150002,4.6125,0.111090235,-0.7069705,0.6900412,1001.6276, , , , 
2025-09-27 18:01:50.916,16.015162,-11.399407,-0.9499506,-0.37843072,-0.27229297,-1.3788745,-39.506252,25.706251,4.9125004,0.12426253,-0.70752263,0.6861353,1001.6171, , , , 
2025-09-27 18:01:50.937,14.708681,-10.695917,0.37328035,-0.6533199,0.32146758,-1.8822271,-40.350002,25.875002,4.5375004,0.1364362,-0.7086271,0.6802365,1001.6171, , , , 
2025-09-27 18:01:50.957,13.426127,-9.906285,2.1128623,-0.6013964,0.9408845,-2.3733623,-41.8875,22.59375,4.7250004,0.15020573,-0.708495,0.6720087,1001.6103, , , , 
2025-09-27 18:01:50.976,11.375479,-9.8727865,3.1369905,-0.24465135,1.1772891,-2.6757405,-42.975002,21.487501,4.2937503,0.15816966,-0.7058964,0.668126,1001.6103, , , , 
2025-09-27 18:01:50.997,9.71486,-10.030712,2.321038,0.34910923,0.8107703,-2.8370087,-45.506252,19.743752,3.1125002,0.17417473,-0.69654375,0.6647806,1001.63324, , , , 
2025-09-27 18:01:51.016,9.480363,-10.176675,1.1485549,0.70951945,0.057574004,-2.890154,-45.54375,18.13125,2.5875,0.19224706,-0.6864884,0.6635173,1001.63324, , , , 
2025-09-27 18:01:51.036,10.023534,-10.77488,0.37567315,0.833525,-0.64064443,-3.0337071,-47.362503,15.6,1.6875001,0.21600184,-0.67611444,0.6614321,1001.6596, , , , 
2025-09-27 18:01:51.057,10.461421,-11.210374,-0.009571291,0.82191855,-1.0034981,-3.165043,-47.60625,12.093751,0.52500004,0.24378695,-0.6659202,0.65751094,1001.6596, , , , 
2025-09-27 18:01:51.077,10.289138,-11.112268,-0.6029913,0.59589857,-0.71028304,-3.3348637,-48.9,9.69375,5.11875,0.27214152,-0.6554526,0.65179795,1001.67426, , , , 
2025-09-27 18:01:51.097,9.834501,-10.944771,-0.47138608,0.16462806,-0.06459895,-3.4576473,-49.93125,6.8250003,6.61875,0.3029886,-0.64215463,0.6420542,1001.67426, , , , 
2025-09-27 18:01:51.117,9.008977,-11.145768,0.5838487,-0.1517999,0.5737547,-3.5602727,-52.0875,1.8937501,5.4375,0.32241,-0.63102216,0.6327971,1001.6696, , , , 
2025-09-27 18:01:51.136,8.032705,-11.188839,1.416551,-0.19639303,0.8223767,-3.6030333,-53.193752,-0.1875,2.8875,0.33845866,-0.6186693,0.62316465,1001.6696,37.88830772,127.73991245,141.22711181640625,0.0
2025-09-27 18:01:51.158,6.8195443,-11.062019,2.4095724,-0.062613636,0.85597426,-3.563938,-52.781254,-2.625,1.29375,0.35304928,-0.60483706,0.61376494,1001.6718, , , , 
2025-09-27 18:01:51.178,5.7355957,-10.695917,2.7278178,0.25198174,0.6733257,-3.4533713,-52.95,-6.99375,1.85625,0.3679079,-0.5894646,0.6052714,1001.6718, , , , 
2025-09-27 18:01:51.198,4.5487556,-9.891929,2.4622145,0.6197223,0.32940882,-3.269501,-51.843754,-11.1,0.28125,0.3842528,-0.57311445,0.5976511,1001.674, , , , 
2025-09-27 18:01:51.217,3.7686956,-9.437292,1.5577276,0.84146625,0.055130545,-3.0416484,-51.54375,-11.587501,2.4375,0.40204626,-0.55655587,0.59067523,1001.674, , , , 
2025-09-27 18:01:51.236,3.0005996,-8.69791,0.37088752,0.8823942,-0.1574504,-2.8107417,-51.787502,-14.45625,0.15,0.42032775,-0.5408063,0.58381945,1001.6667, , , , 
2025-09-27 18:01:51.256,2.306681,-8.111669,-0.38285163,0.76999503,-0.26313,-2.5700607,-49.125004,-17.175001,1.2750001,0.43803653,-0.52660626,0.57656133,1001.6667, , , , 
2025-09-27 18:01:51.277,1.727618,-7.5086775,-0.7680961,0.51221013,-0.17516547,-2.2554655,-50.550003,-19.06875,1.5187501,0.45727906,-0.5115851,0.5670386,1001.6506, , , , 
2025-09-27 18:01:51.296,0.9906286,-7.298109,-0.45942193,0.28985533,-0.0010690134,-1.9133812,-48.54375,-20.1,0.75,0.46864766,-0.5015368,0.5600507,1001.6506, , , , 
2025-09-27 18:01:51.317,0.4977071,-7.1066833,-0.10049855,0.20005822,-0.005345067,-1.4558434,-49.18125,-24.54375,2.625,0.47684115,-0.49345052,0.5543755,1001.63226, , , , 
2025-09-27 18:01:51.336,0.23928227,-6.977471,-0.36131623,0.15118903,-0.075594515,-1.038012,-46.5,-25.7625,2.86875,0.48303044,-0.48765808,0.55001706,1001.63226, , , , 
2025-09-27 18:01:51.356,0.31585258,-7.3459654,-0.7106683,0.02046397,-0.10308343,-0.572533,-46.6875,-25.275002,2.25,0.4870681,-0.48455116,0.5469688,1001.6208, , , , 
2025-09-27 18:01:51.376,0.16749759,-8.372486,-0.56470615,-0.08949169,-0.21609342,-0.057574004,-46.40625,-25.987501,3.0375001,0.48839906,-0.48475555,0.5453413,1001.6208, , , , 
2025-09-27 18:01:51.396,0.6867401,-9.006584,-0.49292147,-0.101708986,-0.4085158,0.4977021,-46.29375,-25.368752,4.5375004,0.48761192,-0.48870304,0.54526263,1001.61664, , , , 
2025-09-27 18:01:51.416,0.76570326,-10.7844515,-1.119841,-0.1621846,-0.59177524,1.0456477,-46.443752,-26.250002,2.7375002,0.48511952,-0.49631548,0.5466711,1001.61664, , , , 
2025-09-27 18:01:51.437,0.95473623,-11.909079,-1.8544376,-0.40591964,-0.6394227,1.7902919,-47.23125,-24.225,3.9375002,0.47767657,-0.51179016,0.5506277,1001.6147, , , , 
2025-09-27 18:01:51.456,2.416751,-11.152946,-0.8350951,-0.72662365,-0.37125307,2.4347544,-47.775,-22.650002,2.68125,0.46565184,-0.52873844,0.5557213,1001.6147, , , , 
2025-09-27 18:01:51.476,3.735196,-10.853844,0.71306115,-0.84024453,0.18280129,2.8819072,-48.787502,-20.400002,3.2625,0.4474524,-0.5465801,0.5634408,1001.6149, , , , 
2025-09-27 18:01:51.497,4.5152564,-11.330015,1.3878372,-0.69241524,0.44180796,3.1708465,-49.500004,-19.706251,1.9125,0.42477426,-0.5632394,0.574067,1001.6149, , , , 
2025-09-27 18:01:51.516,5.2402816,-11.808579,0.8327023,-0.42607817,0.21700971,3.393201,-50.850002,-16.125,3.3937502,0.39478508,-0.58255213,0.5896919,1001.623, , , , 
2025-09-27 18:01:51.537,5.2402816,-11.808579,0.8327023,-0.42607817,0.21700971,3.393201,-50.850002,-16.125,3.3937502,0.39478508,-0.58255213,0.5896919,1001.623, , , , 
2025-09-27 18:01:51.556,6.558727,-12.471392,-0.93320084,-0.28435755,-0.28145593,3.5953975,-51.656254,-13.593751,2.5687501,0.36155704,-0.60613805,0.60729825,1001.62836, , , , 
2025-09-27 18:01:51.576,6.4869423,-12.521641,-1.7012969,-0.46883872,-0.34498587,3.7340636,-52.406254,-8.793751,0.52500004,0.33957148,-0.6226541,0.616993,1001.62836, , , , 
2025-09-27 18:01:51.596,6.5922265,-12.102897,-0.97866446,-0.7852667,-0.25335616,3.959473,-54.393753,-4.6687503,2.49375,0.3089645,-0.64446896,0.62655354,1001.6391, , , , 
2025-09-27 18:01:51.616,7.1952176,-11.806187,0.24885355,-0.8439097,-0.18799363,4.0724826,-52.425003,-0.84375006,0.84375006,0.28181496,-0.6620305,0.6326226,1001.6391, , , , 
2025-09-27 18:01:51.636,7.8460655,-11.79183,1.1006985,-0.7394518,-0.057879437,4.157393,-49.2,4.4437504,4.0687504,0.24585901,-0.6816091,0.63985264,1001.65717, , , , 
2025-09-27 18:01:51.656,8.642876,-12.057433,1.1533405,-0.60017467,-0.1122464,4.180606,-49.93125,8.85,4.03125,0.2239732,-0.69178385,0.6441687,1001.65717, , , , 
2025-09-27 18:01:51.676,9.777073,-12.294323,0.6125626,-0.47861254,-0.19226968,4.1470084,-46.8375,10.06875,-0.056250002,0.19554198,-0.7035713,0.64963114,1001.6884, , , , 
2025-09-27 18:01:51.696,11.322837,-11.973684,0.31106696,-0.41630435,-0.1470657,3.9771879,-46.78125,15.01875,4.125,0.16143233,-0.71587396,0.6552253,1001.6884, , , , 
2025-09-27 18:01:51.716,11.947364,-11.315659,0.21535404,-0.45601055,0.0594066,3.7401724,-44.15625,16.40625,3.7687502,0.12834857,-0.72558856,0.65910494,1001.70966, , , , 
2025-09-27 18:01:51.738,12.031113,-10.849058,0.58624154,-0.4621192,0.119271345,3.6271625,-41.68125,19.78125,2.4,0.115375645,-0.72892237,0.66011316,1001.70966, , , , 
2025-09-27 18:01:51.756,13.19881,-9.265009,1.8257236,-0.2037234,0.1876882,3.3015714,-39.581253,22.35,4.03125,0.07839385,-0.73606926,0.66300505,1001.7282, , , , 
2025-09-27 18:01:51.776,14.91925,-7.759924,1.2227324,0.16523892,0.17119485,2.879464,-39.225002,24.13125,3.9,0.05705433,-0.7372138,0.6664485,1001.7282, , , , 
2025-09-27 18:01:51.796,16.14916,-6.053841,-0.25842485,0.33628106,0.1461494,2.4249804,-36.787502,25.987501,3.2250001,0.044169553,-0.73638433,0.6696999,1001.75507, , , , 
2025-09-27 18:01:51.816,16.201801,-5.127819,-2.8953154,0.03573559,0.36728245,1.4775292,-35.23125,29.268751,3.0375001,0.02864489,-0.7349437,0.67331994,1001.75507, , , , 
2025-09-27 18:01:51.836,15.323636,-5.163711,-2.603391,-0.19456044,0.4356993,1.229518,-33.225002,28.35,2.4,0.021357046,-0.7356038,0.6731147,1001.75604, , , , 
2025-09-27 18:01:51.856,15.577275,-5.5944195,-0.9236295,-0.30207264,0.13637556,0.89232075,-32.756252,30.018751,3.80625,0.0119606005,-0.7381586,0.67079395,1001.75604, , , , 
2025-09-27 18:01:51.876,16.97947,-6.95115,-0.63888365,-0.19394957,-0.25152358,0.44822204,-30.7875,31.087502,4.0125003,0.009393637,-0.7403004,0.66871756,1001.7563, , , , 
2025-09-27 18:01:51.896,17.860027,-7.539784,-0.6891329,-0.12370012,-0.3969094,0.039553493,-33.15,31.087502,4.875,0.011716387,-0.741164,0.66779876,1001.7563, , , , 
2025-09-27 18:01:51.916,18.63291,-8.2456665,-0.59581286,-0.1310305,-0.27351472,-0.4705186,-31.25625,31.031252,4.6687503,0.018269371,-0.74205625,0.6664443,1001.77655, , , , 
2025-09-27 18:01:51.936,17.862421,-10.576276,-0.44745782,-0.15546508,0.12415826,-1.1345286,-32.41875,31.031252,4.33125,0.027349848,-0.7427013,0.66450834,1001.77655, , , , 
2025-09-27 18:01:51.956,16.701902,-10.303494,0.059820566,0.022907428,0.2035707,-1.5376993,-34.143753,29.85,5.8125,0.04121113,-0.7420558,0.6624006,1001.7863, , , , 
2025-09-27 18:01:51.976,15.273387,-10.047462,-0.08853444,0.13652828,0.20173809,-2.298837,-34.36875,28.706251,5.90625,0.056264263,-0.7399047,0.6611703,1001.7863, , , , 
2025-09-27 18:01:51.996,13.777873,-10.552348,0.15553348,0.18417573,0.22311836,-2.6763513,-35.100002,27.900002,4.33125,0.07018145,-0.7375282,0.65986377,1001.8056, , , , 
2025-09-27 18:01:52.016,10.51167,-12.282358,0.7106683,0.40530878,-0.2716821,-3.1363325,-37.800003,25.500002,5.68125,0.09805857,-0.7316273,0.6574511,1001.8056, , , , 
2025-09-27 18:01:52.036,9.865608,-13.875978,0.82313097,0.67836535,-1.1879792,-3.1766496,-41.53125,23.625,4.78125,0.1335665,-0.72373146,0.6552526,1001.8166, , , , 
2025-09-27 18:01:52.056,10.985449,-14.866607,-0.1268196,0.7003565,-1.7707443,-3.215745,-41.49375,21.6375,4.89375,0.16704397,-0.7167063,0.6529195,1001.8166, , , , 
2025-09-27 18:01:52.078,11.688938,-14.55554,-0.09332009,0.49938196,-1.7066035,-3.400226,-43.10625,18.225,7.275,0.20229283,-0.70977116,0.64835143,1001.82587, , , , 
2025-09-27 18:01:52.097,11.619547,-14.05544,0.148355,0.24587308,-1.1097885,-3.6598437,-44.71875,16.181252,9.09375,0.23638156,-0.7022985,0.64156884,1001.82587, , , , 
2025-09-27 18:01:52.116,10.992627,-13.713266,0.27517462,0.06383537,-0.27412558,-3.9664977,-47.081253,14.062501,10.70625,0.26679894,-0.69319344,0.6336158,1001.83246, , , , 
2025-09-27 18:01:52.136,10.327422,-13.684553,0.26081768,-0.010079269,0.113162704,-4.136929,-45.45,12.6,10.14375,0.28718597,-0.68485606,0.6273071,1001.83246,37.88828444,127.73991589,141.9666748046875,1.42
2025-09-27 18:01:52.156,8.851051,-13.696517,0.7609176,-0.010690134,0.4082104,-4.3605056,-47.41875,6.4500003,9.31875,0.31264836,-0.671823,0.6183415,1001.8271, , , , 
2025-09-27 18:01:52.176,7.661818,-13.866407,0.57188463,0.082161315,0.423482,-4.4619093,-51.300003,3.825,8.025001,0.34382945,-0.65264153,0.6063986,1001.8271, , , , 
2025-09-27 18:01:52.196,6.6592255,-13.684553,0.2105684,0.11270455,0.35445428,-4.5278826,-50.475002,-4.55625,7.18125,0.3748023,-0.6313647,0.59293044,1001.81805, , , , 
2025-09-27 18:01:52.216,4.7808595,-13.081561,0.10049855,0.14019346,0.3074177,-4.417927,-48.768753,-6.58125,2.4750001,0.39909145,-0.61341524,0.58099216,1001.81805, , , , 
2025-09-27 18:01:52.236,3.4360933,-12.421143,-0.39481574,0.12125666,0.31169376,-4.163196,-51.16875,-13.181251,4.8,0.4216258,-0.5952387,0.56882954,1001.8129, , , , 
2025-09-27 18:01:52.258,2.9072795,-12.074183,-0.45702913,0.017409647,0.33979353,-3.8950264,-48.468754,-13.762501,2.8500001,0.4416469,-0.57778883,0.5564518,1001.8129, , , , 
2025-09-27 18:01:52.276,1.7515461,-11.521441,0.11964113,0.014355322,0.2933678,-3.6451828,-47.925003,-19.050001,2.6437502,0.45931718,-0.5611244,0.54407674,1001.80194, , , , 
2025-09-27 18:01:52.296,0.41874397,-10.63849,0.06460621,0.13041963,0.19807291,-3.2267406,-45.018753,-20.625,2.5875,0.47541013,-0.54528767,0.5324959,1001.80194, , , , 
2025-09-27 18:01:52.316,-0.30149564,-10.547563,-0.57427746,0.14019346,0.18219042,-2.7966917,-45.525,-23.681252,5.2875004,0.4895628,-0.5307447,0.52223665,1001.79584, , , , 
2025-09-27 18:01:52.336,-1.2801601,-10.671989,-0.8350951,0.09010255,0.12660173,-2.3648102,-46.0125,-26.1,5.4750004,0.5011685,-0.51834786,0.51331306,1001.79584, , , , 
2025-09-27 18:01:52.356,-1.8664017,-10.169497,-0.6029913,0.06750056,-0.06704241,-1.8125886,-44.11875,-26.268751,3.8812501,0.50819653,-0.5112865,0.5075412,1001.7946, , , , 
2025-09-27 18:01:52.376,-1.2562319,-9.305687,-0.42592242,0.09315688,-0.32482734,-0.90606517,-42.956253,-29.250002,2.5500002,0.5188231,-0.50390494,0.49874267,1001.7946, , , , 
2025-09-27 18:01:52.396,-1.052842,-9.209974,-0.6795616,0.07299834,-0.3187187,-0.46196648,-42.487503,-29.60625,6.0750003,0.52306366,-0.5027615,0.49551344,1001.7861, , , , 
2025-09-27 18:01:52.416,-1.0073783,-9.176475,-0.72741807,0.055283263,-0.35109454,-0.1339321,-41.643753,-29.8875,4.7625003,0.5242282,-0.5032209,0.49469474,1001.7861, , , , 
2025-09-27 18:01:52.436,-0.6412765,-10.200603,-1.1365907,0.07116575,-0.52580184,0.48609564,-44.1375,-29.025002,6.05625,0.524855,-0.5079874,0.49471676,1001.7778, , , , 
2025-09-27 18:01:52.456,-0.6628119,-10.432707,-1.9525433,-0.045509428,-0.5740602,1.3614649,-43.143753,-29.175001,6.7312503,0.52128804,-0.5188235,0.49803808,1001.7778, , , , 
2025-09-27 18:01:52.476,0.7800602,-10.200603,-1.402194,-0.34727663,-0.29856017,2.30464,-44.86875,-28.35,5.9437504,0.5094226,-0.5361848,0.5055942,1001.7651, , , , 
2025-09-27 18:01:52.496,2.4239295,-10.267602,-0.4235296,-0.44745845,-0.014508039,2.8996224,-45.300003,-26.681252,8.043751,0.4931823,-0.5529243,0.515132,1001.7651, , , , 
2025-09-27 18:01:52.516,3.586841,-10.616954,0.03589234,-0.4309651,0.11377356,3.2184937,-44.98125,-25.25625,5.775,0.47804585,-0.5660758,0.524045,1001.7546, , , , 
2025-09-27 18:01:52.536,4.7976093,-11.531013,0.66759753,-0.17623448,0.053908817,3.655873,-48.393753,-21.13125,5.7375,0.44994333,-0.5880855,0.5410213,1001.7546, , , , 
2025-09-27 18:01:52.556,5.194818,-12.160325,0.29910284,0.040622506,-0.13179408,3.877617,-48.206253,-20.34375,4.2937503,0.43250543,-0.6010153,0.55223274,1001.7443, , , , 
2025-09-27 18:01:52.576,5.6757755,-12.882957,-0.5312066,0.2403753,-0.47510007,4.223977,-47.8875,-15.95625,3.54375,0.40939602,-0.6184006,0.5675149,1001.7443, , , , 
2025-09-27 18:01:52.596,7.1306114,-13.052848,-1.1102697,0.2849684,-0.696844,4.6644106,-49.48125,-10.5375,6.1875005,0.37939894,-0.6408979,0.5860991,1001.7421, , , , 
2025-09-27 18:01:52.616,8.977871,-12.636497,-0.88295156,0.24648394,-0.60887945,4.7884164,-50.568752,-7.8,7.8375,0.35324883,-0.6586069,0.5999093,1001.7421, , , , 
2025-09-27 18:01:52.636,10.810773,-11.576476,-0.4331009,0.1640172,-0.17577635,4.5251336,-49.331253,-2.8500001,11.4375,0.31827414,-0.6774368,0.6155512,1001.73627, , , , 
2025-09-27 18:01:52.656,10.363315,-11.083554,-0.18903299,0.123089254,0.1754709,4.256353,-48.750004,2.1750002,11.25,0.29672155,-0.68641627,0.6239851,1001.73627, , , , 
2025-09-27 18:01:52.676,9.726824,-11.454442,0.0741775,0.1517999,0.31169376,4.186104,-47.49375,4.4625,7.5937505,0.26725954,-0.69624984,0.6345663,1001.72675, , , , 
2025-09-27 18:01:52.696,10.6408825,-11.866008,0.22013968,0.32406378,0.16264275,4.201375,-46.78125,8.64375,6.0375004,0.23035714,-0.70601195,0.64716274,1001.72675, , , , 
2025-09-27 18:01:52.716,11.741581,-11.583654,-0.27756742,0.49754936,0.10461059,4.0963063,-47.193752,11.83125,8.0625,0.2092513,-0.7101916,0.65453184,1001.7277, , , , 
2025-09-27 18:01:52.736,12.253645,-10.667203,-1.0241281,0.54825115,0.15225805,3.8739517,-44.2125,15.618751,6.9187503,0.18250284,-0.7138322,0.66381127,1001.7277, , , , 
2025-09-27 18:01:52.756,12.251252,-9.420543,-1.5122639,0.49327332,0.3996583,3.5978408,-44.081253,17.00625,7.74375,0.1503398,-0.7163729,0.6737681,1001.7236, , , , 
2025-09-27 18:01:52.776,12.701102,-8.551949,-1.3639089,0.32162032,0.70509064,3.303404,-41.381252,22.5,8.08125,0.12458934,-0.71763134,0.6800681,1001.7236, , , , 
2025-09-27 18:01:52.796,13.627125,-8.4347,-0.32063824,0.28619015,0.6678279,2.8984005,-37.40625,24.54375,5.53125,0.09416611,-0.7185494,0.6858776,1001.7238, , , , 
2025-09-27 18:01:52.816,14.134403,-8.63809,0.083748795,0.46883872,0.482125,2.5379903,-36.84375,24.993752,3.45,0.07874941,-0.71795297,0.689254,1001.7238, , , , 
2025-09-27 18:01:52.836,14.206188,-8.477771,-0.6891329,0.7394518,0.14981459,2.0254748,-34.29375,29.718752,4.6125,0.059095893,-0.714299,0.6959954,1001.7199, , , , 
2025-09-27 18:01:52.856,14.208581,-8.276773,-1.2107682,0.77854717,0.08872811,1.8819216,-32.943752,28.368752,3.45,0.05323998,-0.7121911,0.6989249,1001.7199, , , , 
2025-09-27 18:01:52.876,15.1346035,-8.267202,-2.737389,0.6374374,0.1375973,1.288772,-31.706251,32.98125,3.2250001,0.040100582,-0.70587915,0.70671105,1001.71844, , , , 
2025-09-27 18:01:52.896,15.577275,-7.5828547,-2.8905299,0.28619015,0.4411971,0.74815667,-29.587502,31.837502,2.2875001,0.03395175,-0.70337105,0.70962393,1001.71844, , , , 
2025-09-27 18:01:52.916,15.785451,-7.1569324,-2.4454648,-0.013744458,0.8639155,0.11285727,-29.362501,32.98125,2.6625001,0.029099159,-0.70274353,0.7103319,1001.716, , , , 
2025-09-27 18:01:52.936,14.68236,-8.394022,-2.0003998,-0.21838416,1.3098468,-0.55115277,-30.862501,32.831253,2.8312502,0.025792433,-0.7035023,0.70918787,1001.716, , , , 
2025-09-27 18:01:52.956,12.899707,-9.4636135,-1.6366907,-0.19822562,1.4839432,-0.90117824,-29.6625,31.237501,-0.90000004,0.023251466,-0.70453185,0.707112,1001.71356, , , , 
2025-09-27 18:01:52.976,12.768102,-9.772287,-2.0291135,-0.12797616,1.1088723,-1.0960442,-30.4125,32.53125,-0.90000004,0.02289915,-0.70483404,0.7051806,1001.71356, , , , 
2025-09-27 18:01:52.996,14.584254,-9.946963,-2.6512475,-0.23732096,0.40210176,-1.8406883,-34.800003,31.312502,1.1625,0.031284977,-0.70536804,0.70186853,1001.73236, , , , 
2025-09-27 18:01:53.016,14.402399,-10.954342,-2.4502504,-0.40347618,0.3110829,-2.402684,-33.84375,30.075,-1.1812501,0.041580483,-0.7064014,0.69826686,1001.73236, , , , 
2025-09-27 18:01:53.036,13.536198,-12.744173,-1.7706888,-0.53420126,0.4082104,-3.0593636,-36.9375,30.73125,-0.112500004,0.059168186,-0.70810956,0.69135803,1001.7402, , , , 
2025-09-27 18:01:53.056,12.803994,-14.88575,-1.2562319,-0.51526445,0.5535962,-3.6329656,-36.581253,28.800001,-1.4250001,0.08491932,-0.7089709,0.68039715,1001.7402, , , , 
2025-09-27 18:01:53.076,11.990435,-15.41217,-2.0482562,-0.39064804,0.6873756,-4.004371,-41.25,24.581251,-0.69375,0.10731556,-0.7071655,0.67086077,1001.75433, , , , 
2025-09-27 18:01:53.096,11.12184,-15.3906355,-2.8402805,-0.53603387,0.7313579,-4.389216,-45.131252,18.225,-2.86875,0.13723639,-0.70302325,0.6563587,1001.75433, , , , 
2025-09-27 18:01:53.116,10.439885,-15.285351,-1.98365,-0.6093376,0.8352049,-4.5315475,-46.40625,16.462502,-0.93750006,0.15537184,-0.6999051,0.64579636,1001.7592, , , , 
2025-09-27 18:01:53.137,10.286744,-14.9814625,-0.8662018,-0.47189304,0.93599755,-4.697092,-47.025,13.293751,-1.7625,0.17917147,-0.6938251,0.6308443,1001.7592,37.88827465,127.7399209,141.83209228515625,1.26
2025-09-27 18:01:53.156,9.600004,-14.713467,-0.9595219,-0.00763581,0.90117824,-5.0165744,-50.49375,6.3375,-1.0125,0.2107486,-0.68121743,0.61224467,1001.75824, , , , 
2025-09-27 18:01:53.177,7.463214,-14.464613,-3.5270207,0.14508039,0.9592104,-5.1827297,-53.9625,2.025,-3.9562502,0.24512662,-0.66292393,0.59358156,1001.75824, , , , 
2025-09-27 18:01:53.196,6.4821568,-14.313865,-4.2329035,0.06750056,0.98425585,-5.1637926,-53.175003,0.0,-5.30625,0.25843745,-0.65507966,0.5853211,1001.75824, , , , 
2025-09-27 18:01:53.216,5.4843497,-14.151154,-4.254439,-0.31612253,0.97020596,-4.92861,-51.937504,-4.8375,-5.925,0.28273204,-0.63998777,0.56692696,1001.7614, , , , 
2025-09-27 18:01:53.236,4.5320063,-12.971492,-2.4263222,-0.48716468,0.76067936,-4.638449,-50.100002,-13.33125,-9.0375,0.31438693,-0.61911094,0.5359288,1001.7568, , , , 
2025-09-27 18:01:53.256,3.5533416,-11.959328,-1.6462619,-0.36254823,0.52977246,-4.472294,-50.100002,-16.087502,-7.33125,0.33462372,-0.60529983,0.5147626,1001.7568, , , , 
2025-09-27 18:01:53.276,2.8163524,-11.569298,-1.7108682,-0.23304491,0.22311836,-4.258491,-48.05625,-18.581251,-10.8,0.35013717,-0.595184,0.49900478,1001.7575, , , , 
2025-09-27 18:01:53.296,1.5768701,-11.41855,-2.2612174,-0.20005822,-0.28145593,-3.8235555,-48.2625,-24.35625,-6.9,0.37606546,-0.5805307,0.47261629,1001.7575, , , , 
2025-09-27 18:01:53.316,0.6053841,-11.050055,-2.605784,-0.2593121,-0.5148063,-3.5059056,-46.55625,-27.150002,-10.63125,0.3908697,-0.573595,0.45678005,1001.76166, , , , 
2025-09-27 18:01:53.336,-1.4763715,-10.669596,-2.8642087,-0.4981602,-0.7402154,-2.7130032,-42.581253,-30.487501,-9.168751,0.41597912,-0.5652212,0.426095,1001.76166, , , , 
2025-09-27 18:01:53.356,-2.050649,-10.360922,-2.8881369,-0.67653275,-0.7053961,-2.1235187,-42.600002,-31.462502,-10.33125,0.42452154,-0.56397146,0.4124683,1001.7526, , , , 
2025-09-27 18:01:53.376,-1.7419748,-9.982856,-2.321038,-0.9721913,-0.53863,-1.223104,-41.11875,-32.7,-8.887501,0.43033016,-0.5653179,0.3972423,1001.7526, , , , 
2025-09-27 18:01:53.396,-1.3471591,-9.377472,-0.8327023,-1.1267401,-0.26068655,-0.297033,-40.912502,-35.287502,-9.225,0.42879918,-0.57075506,0.38371947,1001.75385, , , , 
2025-09-27 18:01:53.416,-1.1485549,-9.705289,-0.3397808,-1.0491602,-0.1385136,0.20265439,-41.4375,-34.96875,-8.25,0.42411122,-0.5752311,0.3791547,1001.75385, , , , 
2025-09-27 18:01:53.436,-1.6223338,-9.623933,-0.55513483,-0.950811,0.025809037,0.8342886,-38.943752,-34.85625,-7.2937503,0.4144968,-0.58235544,0.37772197,1001.7587, , , , 
2025-09-27 18:01:53.456,-1.7084754,-9.159725,-0.64845496,-1.0723732,0.36300638,1.9900447,-43.18125,-32.90625,-10.200001,0.3948873,-0.5935376,0.38343394,1001.7587, , , , 
2025-09-27 18:01:53.476,-0.7513463,-9.499506,-0.076570325,-1.1560616,0.4735729,2.7279694,-42.506252,-33.1875,-11.325001,0.37191257,-0.6050648,0.3932994,1001.76483, , , , 
2025-09-27 18:01:53.497,1.375873,-10.688739,0.64606214,-1.0894773,0.4967858,3.4915504,-46.725002,-29.400002,-10.481251,0.34342778,-0.61835885,0.40741614,1001.76483, , , , 
2025-09-27 18:01:53.516,3.5533416,-12.318251,0.567099,-0.8213077,0.1424842,4.016894,-47.925003,-27.525002,-12.31875,0.30417785,-0.6363391,0.42947382,1001.7695, , , , 
2025-09-27 18:01:53.536,4.6971107,-13.643875,0.031106694,-0.6386591,-0.29733843,4.3583674,-49.74375,-22.087502,-13.668751,0.27262893,-0.65207887,0.44885817,1001.7695, , , , 
2025-09-27 18:01:53.556,5.6446686,-14.268401,-0.2416751,-0.5836813,-0.5380192,4.6919,-50.41875,-18.075,-12.6,0.24063523,-0.66896605,0.46898746,1001.7673, , , , 
2025-09-27 18:01:53.576,6.6855464,-13.971691,-0.04546363,-0.57879436,-0.5826123,4.9961104,-51.018753,-16.125,-13.725,0.21539938,-0.68157315,0.48437726,1001.7673, , , , 
2025-09-27 18:01:53.597,8.618947,-13.229917,0.50009996,-0.59467685,-0.21914774,5.220298,-51.05625,-7.55625,-13.125001,0.17021291,-0.70023644,0.51000226,1001.76215, , , , 
2025-09-27 18:01:53.616,9.95175,-12.579068,0.8279166,-0.6789762,0.35384342,5.1494374,-53.475002,-3.8625002,-7.9875,0.1308141,-0.71079296,0.52955943,1001.76215, , , , 
2025-09-27 18:01:53.636,10.856236,-12.155539,1.0097711,-0.7516691,0.67760175,4.943576,-52.66875,-2.79375,-7.9875,0.100022644,-0.71606666,0.5427222,1001.76654, , , , 
2025-09-27 18:01:53.656,10.983056,-11.700903,1.5290136,-0.8035926,0.77717274,4.4988666,-51.35625,4.1062503,-12.375001,0.049753014,-0.7213658,0.5606746,1001.76654, , , , 
2025-09-27 18:01:53.676,10.633704,-11.739188,1.6630118,-0.74250615,0.56520265,4.279566,-50.11875,10.200001,-12.39375,0.0035299195,-0.72429746,0.5750128,1001.77045, , , , 
2025-09-27 18:01:53.696,11.239088,-11.760723,1.8424734,-0.6423243,0.3923279,4.197099,-47.79375,13.687501,-13.293751,-0.030552395,-0.7255463,0.5853533,1001.77045, , , , 
2025-09-27 18:01:53.716,12.1866455,-11.480763,1.969293,-0.5665771,0.4308124,4.0785913,-45.75,14.26875,-14.306251,-0.05495149,-0.72549313,0.5926413,1001.7729, , , , 
2025-09-27 18:01:53.736,13.270595,-11.191232,1.9860427,-0.48899725,0.7661772,3.8464627,-45.768753,19.368752,-13.218751,-0.08659882,-0.7236796,0.60127705,1001.7729, , , , 
2025-09-27 18:01:53.756,14.19901,-10.889736,1.6797615,-0.41080657,1.0856594,3.6070037,-44.193752,21.393751,-13.33125,-0.11786013,-0.7194599,0.60840315,1001.7785, , , , 
2025-09-27 18:01:53.776,15.495919,-9.370294,1.5002998,-0.34727663,1.543808,3.063945,-40.350002,24.281252,-14.83125,-0.16324128,-0.70988584,0.6157373,1001.7785, , , , 
2025-09-27 18:01:53.796,15.936199,-8.800801,1.3686945,-0.2886336,1.6036727,2.5196645,-37.03125,27.50625,-17.0625,-0.19021735,-0.7026572,0.61804765,1001.7763, , , , 
2025-09-27 18:01:53.816,15.170496,-7.9393854,1.6247265,-0.124310985,1.3965896,2.007149,-35.850002,30.6,-15.50625,-0.21242139,-0.69560206,0.61922765,1001.7763, , , , 
2025-09-27 18:01:53.836,15.2063875,-8.169097,1.0624132,0.17928882,1.0685552,1.5654937,-33.5625,30.975,-17.00625,-0.2292133,-0.68852603,0.6211152,1001.769, , , , 
2025-09-27 18:01:53.856,15.790236,-8.350951,-0.07178468,0.3564396,0.9274455,1.1830924,-30.6,30.91875,-19.63125,-0.24110423,-0.68148786,0.6236935,1001.769, , , , 
2025-09-27 18:01:53.876,15.838093,-8.10449,-1.2251252,0.3894263,0.9133956,0.7493784,-30.093752,30.6,-18.581251,-0.2472965,-0.67670465,0.6252118,1001.76337, , , , 
2025-09-27 18:01:53.897,15.704095,-8.078169,-2.0865414,0.2611447,1.0795507,0.12079851,-29.1375,33.05625,-19.143751,-0.25430083,-0.67052394,0.62494266,1001.76337, , , , 
2025-09-27 18:01:53.916,15.883556,-8.666803,-1.7682959,0.2837467,1.1082615,-0.31352636,-27.862501,32.831253,-20.34375,-0.25721318,-0.6671279,0.62203795,1001.7541, , , , 
2025-09-27 18:01:53.936,15.988841,-9.77468,-3.141776,0.51282096,0.72952527,-0.9317215,-29.60625,32.662502,-22.612501,-0.25447094,-0.66375804,0.6180165,1001.7541, , , , 
2025-09-27 18:01:53.956,16.527225,-9.858429,-4.5559344,0.36743516,0.32330018,-1.5016583,-29.550001,34.18125,-25.331251,-0.248173,-0.6636971,0.61504346,1001.74506, , , , 
2025-09-27 18:01:53.976,16.000805,-10.356136,-4.5655055,-0.044898562,0.17363831,-2.3147194,-31.987501,30.825,-24.88125,-0.23472016,-0.6678182,0.6074072,1001.74506, , , , 
2025-09-27 18:01:53.996,14.500505,-11.676974,-3.749553,-0.31367907,0.45036006,-3.1033459,-31.706251,30.956251,-22.9125,-0.2176955,-0.6751859,0.5942308,1001.7214, , , , 
2025-09-27 18:01:54.017,12.916456,-13.392629,-3.3643086,-0.4169152,0.6647736,-3.6335764,-36.131252,27.900002,-23.04375,-0.19858174,-0.68308175,0.5763522,1001.7214, , , , 
2025-09-27 18:01:54.037,11.660225,-14.900106,-3.050849,-0.3924806,0.61346096,-4.12349,-38.2125,24.712502,-24.187502,-0.17169796,-0.6922087,0.5502464,1001.71234, , , , 
2025-09-27 18:01:54.056,11.32523,-15.11546,-2.9671001,-0.341168,0.33429575,-4.3458447,-39.80625,21.9375,-24.16875,-0.14051437,-0.7007697,0.5223024,1001.71234, , , , 
2025-09-27 18:01:54.076,11.241481,-14.732609,-2.8115666,-0.28985533,0.27015495,-4.546819,-41.006252,18.825,-24.487501,-0.1129111,-0.70696896,0.49885994,1001.71576, , , , 
2025-09-27 18:01:54.097,10.877771,-14.488541,-2.8546374,-0.26847506,0.35201082,-4.687929,-43.85625,16.29375,-24.825,-0.09849477,-0.7094295,0.48652706,1001.71576, , , , 
2025-09-27 18:01:54.116,9.008977,-13.938192,-2.8091738,-0.2037234,0.56398094,-4.917614,-45.99375,11.83125,-21.5625,-0.0615854,-0.7130307,0.45380902,1001.71136, , , , 
2025-09-27 18:01:54.136,7.6666036,-13.373486,-3.2949169,-0.14385866,0.56153744,-4.957931,-49.687504,8.606251,-23.925001,-0.03166469,-0.7132648,0.42675996,1001.71136,37.88827465,127.7399209,141.83209228515625,1.26
2025-09-27 18:01:54.156,6.666404,-13.036098,-3.6011982,-0.19700389,0.39354962,-4.9041753,-48.393753,5.2875004,-27.2625,-0.0015866278,-0.71259886,0.3990353,1001.7253, , , , 
2025-09-27 18:01:54.177,5.6279187,-12.703495,-3.1633115,-0.34849834,0.12476913,-4.7313004,-49.425003,-1.9312501,-26.587502,0.027726337,-0.7121175,0.37058556,1001.7253, , , , 
2025-09-27 18:01:54.196,4.871787,-11.973684,-2.0602202,-0.41080657,-0.24113888,-4.454579,-49.29375,-5.7562504,-27.618752,0.06269802,-0.7121841,0.3348697,1001.72723, , , , 
2025-09-27 18:01:54.216,4.359723,-11.346765,-1.5481563,-0.3857611,-0.52946705,-4.272541,-48.956253,-7.70625,-27.862501,0.08993298,-0.71299595,0.30701178,1001.72723, , , , 
2025-09-27 18:01:54.236,3.0963125,-10.559526,-1.0719845,-0.34544402,-0.78908455,-3.951226,-46.3125,-15.543751,-26.1375,0.12300453,-0.7147909,0.2735735,1001.7338, , , , 
2025-09-27 18:01:54.256,1.8400806,-10.176675,-1.2514462,-0.3112356,-0.868497,-3.5529423,-47.625,-18.300001,-25.087502,0.14743185,-0.7163148,0.24888194,1001.7338, , , , 
2025-09-27 18:01:54.276,1.1557333,-10.229317,-2.0051854,-0.44257152,-0.8287908,-2.9799511,-45.225002,-21.018751,-26.41875,0.16826999,-0.7180005,0.22658797,1001.7475, , , , 
2025-09-27 18:01:54.296,0.45224348,-9.899107,-2.132005,-0.6808088,-0.6528617,-2.4252858,-45.61875,-22.087502,-24.0,0.18400942,-0.7198718,0.20627464,1001.7475, , , , 
2025-09-27 18:01:54.316,-0.047856454,-9.353543,-1.5744773,-0.8823942,-0.43966994,-1.8681772,-47.1375,-22.987501,-23.325,0.1936956,-0.7215158,0.18817458,1001.75336, , , , 
2025-09-27 18:01:54.336,0.009571291,-9.19801,-0.66759753,-0.9581414,-0.27962336,-1.3202316,-45.9375,-25.968752,-25.44375,0.19703732,-0.72258484,0.17663428,1001.75336, , , , 
2025-09-27 18:01:54.356,0.2440679,-9.408579,0.10767702,-0.88605934,-0.041996952,-0.717308,-44.456253,-24.206251,-22.9125,0.19724496,-0.7240031,0.16232339,1001.75214, , , , 
2025-09-27 18:01:54.376,-0.28235307,-9.643075,0.2009971,-0.7852667,0.23900084,-0.102778,-45.9,-27.093752,-23.5125,0.19327636,-0.7242,0.15583566,1001.75214, , , , 
2025-09-27 18:01:54.396,-0.5168497,-10.04507,-0.14596218,-0.7015782,0.32940882,0.43111783,-45.9,-26.343752,-23.41875,0.18549202,-0.72415924,0.15400952,1001.7729, , , , 
2025-09-27 18:01:54.416,-1.7850457,-9.58804,-0.782453,-0.7327323,0.22189663,1.4897465,-45.73125,-23.34375,-23.4375,0.16938052,-0.7256778,0.15812878,1001.7729, , , , 
2025-09-27 18:01:54.436,-0.9954142,-9.753145,-0.80877405,-0.81153387,0.1424842,2.0279183,-44.8875,-22.875,-25.406252,0.15508448,-0.72819847,0.16387649,1001.7858, , , , 
2025-09-27 18:01:54.456,1.0839486,-10.743773,-0.36610186,-0.95630884,0.20479241,2.7878342,-45.018753,-21.28125,-23.94375,0.1304802,-0.73251605,0.17485525,1001.7858, , , , 
2025-09-27 18:01:54.476,2.7828526,-12.390036,0.5024927,-1.036943,0.61162835,3.506211,-45.6375,-18.1875,-28.687502,0.083554566,-0.73669255,0.19722803,1001.7929, , , , 
2025-09-27 18:01:54.496,3.888337,-12.985848,1.0336994,-0.9782999,0.7185297,3.963749,-46.3875,-15.39375,-29.550001,0.047034547,-0.73675257,0.21598344,1001.7929, , , , 
2025-09-27 18:01:54.516,4.9531426,-13.232309,1.2610176,-0.83596843,0.66049755,4.3522587,-48.037502,-11.212501,-28.518751,0.008198866,-0.7353346,0.23769665,1001.7929, , , , 
2025-09-27 18:01:54.536,5.852844,-12.9643135,1.3351951,-0.6637046,0.5707004,4.680904,-48.075,-6.3562503,-29.56875,-0.031754646,-0.73245925,0.26188865,1001.7929, , , , 
2025-09-27 18:01:54.556,6.489335,-12.784851,1.4093726,-0.54092073,0.5383246,4.8238463,-47.9625,-5.11875,-29.343752,-0.07191318,-0.72782123,0.28780496,1001.8117, , , , 
2025-09-27 18:01:54.576,7.183254,-12.562319,1.2897314,-0.4205804,0.49617493,4.9008155,-47.90625,-0.61875004,-31.312502,-0.10163085,-0.72305024,0.3078269,1001.8117, , , , 
2025-09-27 18:01:54.596,7.9920278,-12.51207,0.36131623,-0.36804602,0.40088,4.8556113,-48.187504,4.9125004,-26.493752,-0.14949076,-0.71318203,0.34078622,1001.80316, , , , 
2025-09-27 18:01:54.616,8.73141,-12.787244,-0.038285162,-0.5207622,0.3110829,4.8403397,-42.28125,9.39375,-28.29375,-0.1868528,-0.7044485,0.36537266,1001.80316, , , , 
2025-09-27 18:01:54.636,9.475577,-12.880565,0.40917268,-0.6148354,0.2554942,4.8152943,-42.45,12.0,-29.812502,-0.21469362,-0.6975637,0.38239372,1001.79974, , , , 
2025-09-27 18:01:54.656,10.858629,-12.521641,1.3328022,-0.59650946,0.14676027,4.7334385,-40.275,16.95,-30.16875,-0.2507661,-0.68776,0.40367806,1001.79974, , , , 
2025-09-27 18:01:54.676,13.110275,-11.456835,2.1080768,-0.26664248,0.28848088,4.341874,-38.268753,21.0375,-31.5375,-0.29935208,-0.6705955,0.43348292,1001.79706, , , , 
2025-09-27 18:01:54.696,14.117654,-10.475778,1.5553347,-0.06383537,0.65988666,3.8977754,-36.1875,25.706251,-29.400002,-0.32733405,-0.65659297,0.4510585,1001.79706, , , , 
2025-09-27 18:01:54.716,14.122439,-9.492328,0.81595254,-0.036346454,1.0227404,3.4988806,-32.5125,26.343752,-30.900002,-0.34654424,-0.6449232,0.46172056,1001.7861, , , , 
2025-09-27 18:01:54.736,13.8688,-8.544769,0.148355,-0.14263692,1.4979931,2.8898485,-30.54375,28.275002,-29.38125,-0.37661842,-0.6247515,0.47328714,1001.7861, , , , 
2025-09-27 18:01:54.756,13.864015,-8.659625,-0.19860429,-0.2196059,1.8290819,2.4152067,-24.525002,30.91875,-33.09375,-0.40479493,-0.60460764,0.4779413,1001.7829, , , , 
2025-09-27 18:01:54.776,13.77548,-9.016156,-0.4833502,-0.28741187,1.9763002,2.1598651,-24.825,33.112503,-32.41875,-0.42090255,-0.59269977,0.47798786,1001.7829, , , , 
2025-09-27 18:01:54.796,14.000405,-8.595019,0.0047856453,-0.37110037,1.7936517,1.75364,-17.60625,33.99375,-33.05625,-0.4456091,-0.57460576,0.47496313,1001.7646, , , , 
2025-09-27 18:01:54.816,14.670396,-8.915657,0.47377887,-0.27214026,1.2768601,1.4335469,-17.94375,33.7125,-33.6375,-0.45741153,-0.5658815,0.47299734,1001.7646, , , , 
2025-09-27 18:01:54.836,15.27578,-8.803194,0.49292147,-0.024740024,0.40393433,0.93996817,-16.2,33.75,-32.268753,-0.46910796,-0.55652034,0.47220427,1001.7724, , , , 
2025-09-27 18:01:54.856,15.747166,-8.279166,0.33020952,0.098654665,0.03375028,0.6101012,-16.66875,34.21875,-34.10625,-0.47154272,-0.55390966,0.4730988,1001.7724, , , , 
2025-09-27 18:01:54.876,16.175482,-8.025527,0.19621146,0.1744019,-0.13423753,0.14828743,-14.868751,35.268753,-32.8125,-0.47051647,-0.5534346,0.4741252,1001.7756, , , , 
2025-09-27 18:01:54.896,15.792629,-8.566305,0.1268196,0.37110037,0.020922119,-0.5688678,-15.075001,34.125,-33.487503,-0.4644463,-0.55569303,0.4723857,1001.7756, , , , 
2025-09-27 18:01:54.916,15.716059,-8.216953,-0.6628119,0.5610793,0.0013744457,-0.9946406,-14.437501,34.331253,-34.800003,-0.45605442,-0.5584427,0.4691414,1001.7785, , , , 
2025-09-27 18:01:54.936,15.761522,-8.578269,-2.349752,0.5189296,-0.21792601,-1.815032,-17.71875,33.46875,-32.550003,-0.4397749,-0.56582093,0.46225744,1001.7785, , , , 
2025-09-27 18:01:54.956,15.000606,-9.456435,-2.9647074,0.2941314,-0.21303909,-2.3733623,-18.150002,31.837502,-35.193752,-0.42741346,-0.57340974,0.45484012,1001.7673, , , , 
2025-09-27 18:01:54.976,13.210773,-11.607583,-2.2779672,-0.25442517,0.028252495,-3.2548404,-19.837502,32.90625,-35.23125,-0.4050382,-0.59020007,0.43460923,1001.7673, , , , 
2025-09-27 18:01:54.996,12.232109,-13.272987,-1.0241281,-0.43646288,0.11866048,-3.634798,-24.993752,29.250002,-34.18125,-0.38631278,-0.6054453,0.41235232,1001.76215, , , , 
2025-09-27 18:01:55.016,11.3683,-14.830715,0.08135597,-0.4071414,0.008093959,-3.9732172,-27.093752,29.775002,-33.375,-0.36563817,-0.62110096,0.3876301,1001.76215, , , , 
2025-09-27 18:01:55.036,11.066805,-15.251851,0.42831525,-0.30329436,-0.107359484,-4.096001,-28.125002,28.181252,-34.256252,-0.3482397,-0.6328485,0.36888808,1001.7736, , , , 
2025-09-27 18:01:55.056,10.499705,-14.55554,0.8470592,0.054672398,-0.2423606,-4.30736,-31.63125,26.831251,-33.956253,-0.30844134,-0.65519196,0.33243942,1001.7736, , , , 
2025-09-27 18:01:55.076,9.609575,-13.574483,0.043070808,0.2489274,-0.056046844,-4.428922,-32.71875,22.743752,-35.475002,-0.27895167,-0.667649,0.30846393,1001.7839, , , , 
2025-09-27 18:01:55.096,8.913264,-12.988241,-0.6125626,0.27336198,0.047189303,-4.480235,-35.006252,21.243752,-31.44375,-0.25627708,-0.6754679,0.28993353,1001.7839, , , , 
2025-09-27 18:01:55.116,8.252846,-12.382857,-0.7752745,0.2159407,-0.028557928,-4.5089455,-39.15,15.95625,-30.69375,-0.22586559,-0.6849125,0.2645061,1001.7973, , , , 
2025-09-27 18:01:55.136,8.377272,-12.031113,-0.30867413,0.22510368,-0.38713557,-4.599354,-40.162502,13.51875,-34.631252,-0.18689103,-0.6966776,0.23214747,1001.7973,37.88826431,127.73991933,142.69281005859375,1.18
2025-09-27 18:01:55.156,7.7240314,-12.047862,-0.11964113,0.332005,-0.6950114,-4.7123637,-41.456253,7.5750003,-38.006252,-0.15348464,-0.7068366,0.20635523,1001.7966, , , , 
2025-09-27 18:01:55.178,6.2811594,-11.741581,-0.5455636,0.3649917,-0.82634735,-4.7258024,-44.04375,5.2875004,-34.050003,-0.1095875,-0.71937746,0.17451197,1001.7966, , , , 
2025-09-27 18:01:55.196,5.046463,-11.440085,-0.81595254,0.29657486,-0.7524327,-4.590191,-46.29375,0.056250002,-32.1375,-0.083643325,-0.72599125,0.15549408,1001.7956, , , , 
2025-09-27 18:01:55.216,3.1728828,-10.913664,-0.86141616,0.19028437,-0.5245801,-4.1931286,-48.487503,-2.8875,-33.131252,-0.04369112,-0.7339487,0.12472428,1001.7956, , , , 
2025-09-27 18:01:55.236,1.9142581,-10.253245,-0.9284152,0.12797616,-0.47632182,-3.6690066,-48.7125,-6.2625003,-33.99375,-0.016036872,-0.73802626,0.102563374,1001.78656, , , , 
2025-09-27 18:01:55.257,1.3232309,-9.552148,-0.75613195,0.060781047,-0.5038107,-3.0275986,-46.987503,-8.25,-29.118752,0.0072797923,-0.74134135,0.08343636,1001.78656, , , , 
2025-09-27 18:01:55.277,1.2323036,-9.860822,-1.1892328,-0.057726722,-0.3620901,-2.501644,-45.393753,-12.168751,-32.30625,0.026243588,-0.7439978,0.06725666,1001.7861, , , , 
2025-09-27 18:01:55.298,0.62931234,-10.30828,-0.92602235,-0.27091852,-0.13973531,-1.8718424,-45.91875,-13.106251,-29.41875,0.04273453,-0.7453788,0.05033434,1001.7861, , , , 
2025-09-27 18:01:55.318,0.21535404,-10.200603,-0.24885355,-0.3735438,-0.10002911,-1.249982,-47.625,-15.0375,-29.2875,0.04990757,-0.7457595,0.040006746,1001.78046, , , , 
2025-09-27 18:01:55.338,-0.18664017,-9.908679,0.3182454,-0.38881543,-0.07498365,-0.6201805,-45.5625,-15.562501,-28.5375,0.052208137,-0.7461787,0.033342514,1001.78046, , , , 
2025-09-27 18:01:55.358,-0.32542387,-10.100104,0.46181476,-0.3527744,0.064904384,0.089033544,-45.768753,-16.706251,-29.85,0.050084528,-0.74628437,0.030823201,1001.7873, , , , 
2025-09-27 18:01:55.378,-0.19142582,-10.77488,0.09332009,-0.3026835,0.19685118,0.6070469,-47.475002,-17.8875,-28.66875,0.04368948,-0.7457471,0.03272171,1001.7873, , , , 
2025-09-27 18:01:55.398,-1.5553347,-10.116854,-0.7920243,-0.4169152,0.28603745,1.3920081,-47.2125,-15.000001,-27.7875,0.032639604,-0.74467903,0.038758397,1001.7734, , , , 
2025-09-27 18:01:55.418,-1.0887343,-9.176475,-0.10767702,-0.6013964,0.22800528,2.2386668,-47.0625,-13.725,-29.868752,0.0148843555,-0.74380964,0.04846826,1001.7734, , , , 
2025-09-27 18:01:55.438,1.012164,-9.116654,0.8662018,-0.6411026,0.34468046,2.9930847,-46.40625,-11.90625,-29.737501,-0.01603568,-0.74203676,0.06618662,1001.7763, , , , 
2025-09-27 18:01:55.459,3.1345978,-9.729217,1.3040884,-0.53420126,0.52855074,3.3736534,-46.893753,-9.450001,-31.987501,-0.044841617,-0.73827076,0.08438094,1001.7763, , , , 
2025-09-27 18:01:55.478,4.493721,-10.645668,1.4715859,-0.30573782,0.5261073,3.511709,-46.0125,-6.5062504,-31.48125,-0.07421118,-0.73266864,0.10519717,1001.7675, , , , 
2025-09-27 18:01:55.497,4.618148,-11.609976,0.62452674,-0.03329213,0.3404044,3.642434,-45.61875,-3.2250001,-33.09375,-0.10239539,-0.7264846,0.12865737,1001.7675, , , , 
2025-09-27 18:01:55.516,4.199404,-12.825529,-0.849452,0.041233372,0.20967934,3.981464,-47.8875,-2.71875,-31.800001,-0.130835,-0.7201026,0.15492249,1001.76166, , , , 
2025-09-27 18:01:55.538,4.3669014,-13.5074835,-1.5026926,-0.109039366,0.27565274,4.544681,-45.09375,3.80625,-33.09375,-0.16278851,-0.71235347,0.18354958,1001.76166, , , , 
2025-09-27 18:01:55.557,6.71426,-13.765908,-0.94755775,-0.36621344,0.423482,5.125003,-47.268753,6.0750003,-33.300003,-0.19982855,-0.70179826,0.21363288,1001.75604, , , , 
2025-09-27 18:01:55.578,9.628718,-13.155739,0.2440679,-0.47067133,0.50106186,5.210524,-42.581253,11.137501,-32.381252,-0.23958316,-0.6883611,0.24334781,1001.75604, , , , 
2025-09-27 18:01:55.596,11.310873,-12.41875,1.3519448,-0.35582873,0.38133234,4.880046,-43.818752,12.6,-28.1625,-0.2772288,-0.6734865,0.27107865,1001.74677, , , , 
2025-09-27 18:01:55.618,12.368501,-11.617154,1.0959128,-0.04367683,0.1791361,4.234362,-38.11875,18.69375,-32.98125,-0.31635788,-0.65522796,0.30303186,1001.74677, , , , 
2025-09-27 18:01:55.637,11.712867,-11.521441,-0.4881358,-0.07238748,0.21273366,3.8299694,-37.612503,20.493752,-33.43125,-0.34167597,-0.64141256,0.3254748,1001.75507, , , , 
2025-09-27 18:01:55.656,10.990234,-10.928021,-0.69152576,-0.32162032,0.15958843,3.6656468,-35.006252,24.112501,-31.9125,-0.36571825,-0.6285591,0.34447443,1001.75507, , , , 
2025-09-27 18:01:55.676,12.51207,-9.379865,0.7848458,-0.4205804,0.17791437,3.4854417,-30.562502,27.91875,-32.287502,-0.38932082,-0.6164421,0.36115956,1001.7419, , , , 
2025-09-27 18:01:55.696,13.847264,-8.248059,1.0863415,-0.2715294,0.5346594,3.1433575,-27.6,28.10625,-31.66875,-0.41077527,-0.6034562,0.37519938,1001.7419, , , , 
2025-09-27 18:01:55.716,14.074583,-7.60439,0.031106694,-0.11575887,1.1449133,2.5514295,-26.23125,30.487501,-32.8875,-0.43411022,-0.58500236,0.3868783,1001.7548, , , , 
2025-09-27 18:01:55.737,13.483556,-6.7573314,-1.0073783,-0.12125666,1.476002,2.2447753,-24.206251,31.706251,-34.40625,-0.4514579,-0.5689834,0.39175358,1001.7548, , , , 
2025-09-27 18:01:55.756,13.663017,-5.623133,-1.2059826,-0.21349724,1.3006839,1.9729406,-22.143751,31.893751,-32.475002,-0.46772808,-0.55392194,0.3941825,1001.74896, , , , 
2025-09-27 18:01:55.776,14.309079,-5.541777,-0.6771688,-0.20433427,0.8486439,1.6296345,-19.612501,32.68125,-34.48125,-0.48089617,-0.54230636,0.39598653,1001.74896, , , , 
2025-09-27 18:01:55.796,15.189638,-5.9557357,-0.41874397,0.0027488915,0.27748534,1.1995857,-17.175001,34.65,-33.45,-0.4893647,-0.5345818,0.3985014,1001.74945, , , , 
2025-09-27 18:01:55.816,16.110874,-7.125826,-0.94755775,0.17195843,-0.13179408,0.82207125,-17.0625,34.537502,-32.53125,-0.49256003,-0.5306967,0.40206367,1001.74945, , , , 
2025-09-27 18:01:55.836,16.914864,-8.161918,-2.0578275,0.19028437,-0.46166107,0.36453354,-14.64375,34.162502,-32.456253,-0.49124447,-0.5308958,0.40550986,1001.75165, , , , 
2025-09-27 18:01:55.856,17.714066,-9.075976,-2.8785655,-0.1432478,-0.41706792,-0.20479241,-16.0125,32.30625,-35.1375,-0.48776254,-0.5348717,0.40610045,1001.75165, , , , 
2025-09-27 18:01:55.876,17.991634,-10.279566,-1.5529419,-0.5195405,-0.095142186,-0.79366606,-15.806251,35.550003,-34.575,-0.48421666,-0.54195136,0.40071115,1001.7414, , , , 
2025-09-27 18:01:55.897,17.00579,-10.052248,0.6436693,-0.47677997,0.30008733,-1.4057525,-17.56875,33.375,-33.956253,-0.47859022,-0.55230534,0.38626298,1001.7414, , , , 
2025-09-27 18:01:55.916,16.13959,-9.597611,1.0456635,-0.25076,0.41859508,-1.9897393,-19.181252,31.968752,-33.24375,-0.47070476,-0.5606156,0.37125036,1001.75116, , , , 
2025-09-27 18:01:55.938,14.342579,-10.449456,1.1724831,0.01802051,0.17608178,-2.650084,-19.78125,33.2625,-33.881252,-0.4580045,-0.5706573,0.35448483,1001.75116, , , , 
2025-09-27 18:01:55.956,12.928421,-11.274981,0.96909314,0.2122755,-0.15622866,-3.039205,-20.98125,33.99375,-31.931252,-0.43999124,-0.5832642,0.33766156,1001.7636, , , , 
2025-09-27 18:01:55.977,11.454442,-12.425928,0.6412765,0.36438084,-0.5532908,-3.3483026,-23.737501,31.237501,-32.71875,-0.41772163,-0.5980678,0.32142782,1001.7636, , , , 
2025-09-27 18:01:55.997,10.674382,-13.081561,0.6652047,0.43340856,-0.8666644,-3.486969,-26.400002,29.60625,-32.8125,-0.39258665,-0.6144308,0.30593824,1001.77264, , , , 
2025-09-27 18:01:56.016,10.205389,-13.330415,0.6891329,0.4725039,-1.1360558,-3.5486662,-29.6625,28.650002,-33.506252,-0.36543775,-0.6317912,0.2912294,1001.77264, , , , 
2025-09-27 18:01:56.036,10.303494,-13.170095,0.9499506,0.4896081,-1.3669627,-3.6091418,-33.1875,26.531252,-32.23125,-0.3368327,-0.64979583,0.2771115,1001.7758, , , , 
2025-09-27 18:01:56.056,10.229317,-12.564712,1.1270195,0.5238165,-1.4463751,-3.7655232,-35.23125,24.45,-31.29375,-0.2989598,-0.67251164,0.25936145,1001.7758, , , , 
2025-09-27 18:01:56.076,10.059426,-11.877972,1.0983056,0.51221013,-1.3345869,-3.9365654,-35.643753,19.66875,-29.737501,-0.26724628,-0.689744,0.24394034,1001.77875, , , , 
2025-09-27 18:01:56.096,9.5760765,-11.210374,0.76570326,0.47677997,-1.0871866,-4.1259336,-41.193752,16.743752,-30.225,-0.23449217,-0.70527375,0.22644833,1001.77875, , , , 
2025-09-27 18:01:56.117,8.130812,-11.064412,-0.19381863,0.2678642,-0.38163778,-4.25055,-44.8875,14.493751,-30.018751,-0.20218125,-0.7173107,0.20566542,1001.77924, , , , 
2025-09-27 18:01:56.136,6.587441,-10.798809,-0.09332009,0.03329213,0.48884454,-4.1796894,-44.0625,10.481251,-31.425001,-0.1728485,-0.7238172,0.1814002,1001.77924,37.88825384,127.73988889,142.5338134765625,1.8
2025-09-27 18:01:56.156,6.125626,-10.636097,-0.02632105,-0.021685699,0.82543105,-4.0886707,-46.143753,8.775001,-31.875002,-0.15264142,-0.72534275,0.1621634,1001.77435, , , , 
2025-09-27 18:01:56.176,5.8743796,-10.621739,0.33738798,0.038179047,0.8144355,-4.018421,-45.0,5.0437503,-32.25,-0.12672208,-0.72495466,0.13651615,1001.77435, , , , 
2025-09-27 18:01:56.196,4.6636114,-10.332209,0.34456646,0.27030766,0.16936226,-3.8785331,-43.96875,0.45000002,-34.875,-0.08654995,-0.7252102,0.10115828,1001.77875, , , , 
