Time,Accel_X,Accel_Y,Accel_Z,Gyro_X,Gyro_Y,Gyro_Z,Mag_X,Mag_Y,Mag_Z,Orient_X,Orient_Y,Orient_Z,Pressure,Lat,Lng,Alt,Speed
2025-08-22 20:00:41.788,1.4859428,5.245067,8.037491,-0.04367683,0.16058108,0.045433067,-14.85,-43.125,-15.843751,0.2265762,0.1678827,0.6915761,994.3027,37.88838985,127.73990715,151.08740234375,0.0
2025-08-22 20:00:41.807,1.2969099,5.211568,9.042477,-0.09560034,0.36766425,0.0063377223,-16.125,-46.612503,-16.44375,0.22564398,0.16835758,0.691998,994.2758, , , , 
2025-08-22 20:00:41.827,0.5168497,5.0081778,9.676575,-0.032681264,0.56986046,0.024663666,-16.087502,-44.34375,-18.112501,0.22173257,0.17085731,0.6932749,994.2758, , , , 
2025-08-22 20:00:41.847,0.4546363,5.436493,8.920443,0.032681264,0.3334558,0.061926417,-14.26875,-44.15625,-19.087502,0.21817297,0.17382523,0.6946299,994.2387, , , , 
2025-08-22 20:00:41.867,0.7322037,5.4676,8.532805,0.06383537,0.055512335,0.024663666,-15.093751,-42.9,-16.143751,0.2166952,0.17601928,0.6955058,994.2387, , , , 
2025-08-22 20:00:41.887,0.42592242,5.2977095,8.23131,0.065667965,-0.073380135,0.019776747,-16.650002,-44.0625,-15.450001,0.21726525,0.17630996,0.6954828,994.21967, , , , 
2025-08-22 20:00:41.907,0.3469593,5.2953167,8.2145605,0.033902995,0.022525638,0.083306685,-17.493752,-43.893753,-15.056251,0.21803266,0.17627688,0.69551843,994.21967, , , , 
2025-08-22 20:00:41.927,0.6053841,5.2833524,8.013563,-0.017409647,0.29924738,0.14256057,-16.931252,-43.350002,-15.6,0.21724825,0.17715375,0.6965586,994.22235, , , , 
2025-08-22 20:00:41.947,0.47856453,5.367101,8.003992,-0.082161315,0.3426188,0.15477787,-17.19375,-44.49375,-14.118751,0.21487466,0.17881374,0.6983192,994.22235, , , , 
2025-08-22 20:00:41.967,0.8446664,5.395815,8.152347,-0.07116575,0.14897464,0.102854356,-15.69375,-43.818752,-16.800001,0.21273942,0.17987818,0.69994235,994.217, , , , 
2025-08-22 20:00:41.987,0.80877405,5.4221363,8.408379,-0.040622506,0.1673006,0.06131555,-18.0375,-44.456253,-15.58125,0.21169934,0.18006305,0.70085275,994.217, , , , 
2025-08-22 20:00:42.007,0.8422736,5.151747,8.216953,-0.011300999,0.31329727,0.015500694,-17.6625,-44.775,-16.3875,0.20966688,0.18157153,0.7018658,994.21356, , , , 
2025-08-22 20:00:42.027,0.52163535,5.3503513,7.9704924,-0.04856375,0.20273075,-0.011988222,-16.7625,-43.93125,-16.368752,0.20764871,0.18318799,0.7025055,994.21356, , , , 
2025-08-22 20:00:42.047,0.45224348,5.089534,7.941778,-0.1188132,0.09705114,-0.021151192,-17.23125,-43.36875,-15.88125,0.2062631,0.18357001,0.70280033,994.205, , , , 
2025-08-22 20:00:42.067,0.6269195,5.2163534,8.269595,-0.1915061,0.19478951,-0.037644543,-15.168751,-44.1375,-16.987501,0.20430566,0.18349072,0.70319057,994.205, , , , 
2025-08-22 20:00:42.087,0.8877372,5.096712,9.241081,-0.09987639,0.20028728,-0.090178914,-17.25,-44.11875,-15.375001,0.20167352,0.18360263,0.7035741,994.2038, , , , 
2025-08-22 20:00:42.107,0.81834537,5.151747,9.190832,0.076052666,0.048792824,-0.14271328,-17.212502,-43.350002,-16.96875,0.20005672,0.18449883,0.7033425,994.2038, , , , 
2025-08-22 20:00:42.127,0.53599226,5.2977095,8.449057,0.17745622,-0.15951207,-0.16531529,-16.6875,-43.66875,-17.00625,0.20066614,0.18535519,0.7021614,994.2067, , , , 
2025-08-22 20:00:42.147,0.2656033,5.3982077,7.891529,0.1065959,-0.16073379,-0.13232858,-15.637501,-42.825,-17.475,0.2027541,0.18553281,0.7004735,994.2067, , , , 
2025-08-22 20:00:42.167,0.1698904,5.2953167,7.9800634,-0.013133593,0.09277509,-0.055970486,-16.6875,-43.66875,-17.00625,0.20368756,0.186232,0.6992451,994.19696, , , , 
2025-08-22 20:00:42.187,0.19860429,5.4484572,8.590233,-0.100487255,0.22594361,-0.039477136,-15.618751,-43.55625,-18.675001,0.20223995,0.18754107,0.69925535,994.19696, , , , 
2025-08-22 20:00:42.207,0.33738798,5.2546387,8.513663,-0.05650499,0.22166756,-0.03092503,-15.431251,-44.662502,-16.78125,0.19996224,0.1886468,0.6996044,994.1816, , , , 
2025-08-22 20:00:42.227,0.19381863,5.168497,8.693125,-0.014355322,0.17035492,-0.04253146,-15.675,-42.09375,-15.0375,0.1981856,0.18957831,0.6998463,994.1816, , , , 
2025-08-22 20:00:42.248,0.14117654,5.1589255,8.563912,0.047952887,0.01886045,-0.03214676,-15.450001,-43.3125,-16.6875,0.19705942,0.19031297,0.6998698,994.1711, , , , 
2025-08-22 20:00:42.268,0.22731815,5.426922,8.539984,0.09010255,-0.09109521,0.0112246405,-15.637501,-43.575,-17.118752,0.19736007,0.19068077,0.6995512,994.1711, , , , 
2025-08-22 20:00:42.288,0.5766702,5.2905307,8.295917,0.094378605,-0.05933024,0.016111558,-17.34375,-43.987503,-16.9125,0.19874437,0.19070327,0.6992992,994.1657, , , , 
2025-08-22 20:00:42.308,0.38285163,5.352744,8.149954,0.04978548,0.037797257,-0.01809687,-15.8625,-42.581253,-18.075,0.20013124,0.19112428,0.6991059,994.1657, , , , 
2025-08-22 20:00:42.327,0.47377887,5.2019963,8.645268,0.02535089,0.035964664,-0.044364054,-17.04375,-45.3375,-15.7875,0.20031707,0.19151515,0.69894713,994.16473, , , , 
2025-08-22 20:00:42.348,0.43788654,5.178068,8.255239,0.02535089,0.0787252,-0.08040508,-15.69375,-43.068752,-16.987501,0.20003504,0.191779,0.6987394,994.16473, , , , 
2025-08-22 20:00:42.367,0.25603202,5.400601,7.908279,-0.041844238,0.14408773,-0.08895718,-16.143751,-43.237503,-18.16875,0.19947407,0.19263315,0.698361,994.1586, , , , 
2025-08-22 20:00:42.388,0.22492532,5.328816,8.444271,-0.10293072,0.15202898,-0.054748755,-14.64375,-44.456253,-17.493752,0.1976786,0.19387068,0.6982204,994.1586, , , , 
2025-08-22 20:00:42.409,0.031106694,5.1493545,8.099705,-0.07971785,0.087888174,-0.027259842,-13.856251,-44.025,-16.050001,0.19610491,0.19417012,0.69834775,994.1525, , , , 
2025-08-22 20:00:42.427,0.10767702,5.369494,8.252846,-0.0650571,-0.012293654,-0.022372922,-15.225,-43.7625,-18.243752,0.19544455,0.19427761,0.6983436,994.1525, , , , 
2025-08-22 20:00:42.447,0.23928227,5.180461,8.300702,-0.040622506,-0.023900084,-0.023594651,-15.656251,-43.575,-16.81875,0.19535899,0.19383663,0.6981728,994.15497, , , , 
2025-08-22 20:00:42.469,0.2009971,5.13739,8.642876,-0.08949169,-0.048334677,-0.048029244,-14.925,-44.8875,-14.64375,0.19528158,0.19309342,0.698044,994.15497, , , , 
2025-08-22 20:00:42.487,-0.03589234,4.914858,8.673982,-0.060781047,-0.006185006,-0.05108357,-16.3875,-44.15625,-14.531251,0.19456208,0.19212173,0.69790083,994.14545, , , , 
2025-08-22 20:00:42.508,0.06699903,5.0679984,9.104691,0.03451386,-0.045891218,-0.07063124,-15.8625,-43.74375,-14.775001,0.1936751,0.19167776,0.69765526,994.14545, , , , 
2025-08-22 20:00:42.528,0.19142582,5.070391,8.9348,0.17867795,-0.20777038,-0.07735075,-15.58125,-43.2,-16.06875,0.19461343,0.19132842,0.69673795,994.1425, , , , 
2025-08-22 20:00:42.548,0.2321038,5.383851,8.312666,0.24770567,-0.38919723,-0.07185297,-14.250001,-41.7,-16.29375,0.19745144,0.19086018,0.6953982,994.1425, , , , 
2025-08-22 20:00:42.569,0.9595219,5.4819565,8.788837,0.3081813,-0.9511928,-0.10361794,-16.10625,-44.362503,-16.725,0.2031095,0.1892536,0.6932613,994.132, , , , 
2025-08-22 20:00:42.589,0.076570325,4.9435716,8.200203,0.4535671,-1.8094578,-0.16103923,-16.143751,-43.0125,-15.712501,0.21494175,0.1806067,0.68774897,994.132, , , , 
2025-08-22 20:00:42.609,-0.18903299,4.6755753,5.572884,0.07055488,-1.3861285,-0.20990841,-16.368752,-43.93125,-12.8625,0.22824614,0.17439115,0.6834121,994.1091, , , , 
2025-08-22 20:00:42.630,0.44027936,5.6327047,7.7240314,-0.48716468,-0.42829257,0.03810269,-15.31875,-44.550003,-13.70625,0.23458613,0.1679457,0.6795314,994.1091, , , , 
2025-08-22 20:00:42.650,1.1653047,4.2831526,8.987442,-0.42119128,-0.30917394,0.13767365,-17.868752,-43.331253,-12.88125,0.2333551,0.16236103,0.68003744,994.0954, , , , 
2025-08-22 20:00:42.668,2.9240294,1.3232309,7.688139,-0.5189296,-0.27740896,0.15844305,-18.45,-44.8875,-13.81875,0.23219176,0.15788095,0.68122226,994.0954, , , , 
2025-08-22 20:00:42.688,1.698904,5.4699926,7.52782,-0.61239195,0.37804893,-0.13782637,-16.9125,-43.10625,-13.762501,0.22755781,0.152792,0.6828252,994.11273, , , , 
2025-08-22 20:00:42.707,0.25603202,5.709275,8.001599,-0.6863066,0.20089816,-0.06940951,-16.0125,-43.85625,-16.44375,0.22275662,0.15149201,0.6833616,994.11273, , , , 
2025-08-22 20:00:42.728,-0.05503492,5.680561,8.580662,-0.4169152,-0.1796706,0.12912154,-15.750001,-42.7125,-17.625,0.21674018,0.14742003,0.68484545,994.19183, , , , 
2025-08-22 20:00:42.748,0.5312066,3.6179478,5.9653068,-0.17562363,-0.5040398,0.1645517,-17.643751,-43.162502,-15.243751,0.21677682,0.1433338,0.68546647,994.19183, , , , 
2025-08-22 20:00:42.768,1.1365907,3.8739798,4.2520456,-0.4517345,-0.051389,0.60376346,-18.7875,-42.393753,-16.556252,0.21840541,0.1385568,0.68684894,994.2641, , , , 
2025-08-22 20:00:42.788,1.0911272,5.1326046,3.9290147,-0.7180715,-0.36659524,1.3398556,-17.04375,-43.96875,-16.95,0.21710515,0.1317751,0.6931557,994.2641,37.88838985,127.73990715,151.08740234375,0.0
2025-08-22 20:00:42.808,3.1513474,3.6658044,5.656633,-0.3338376,-0.26213735,1.8370994,-18.35625,-41.100002,-18.375,0.21804528,0.11952855,0.7064913,994.26874, , , , 
2025-08-22 20:00:42.828,10.01157,2.9742785,3.7567315,0.0015271619,-1.2999966,0.7625883,-21.581251,-41.925003,-18.6,0.22431946,0.1107904,0.7143654,994.26874, , , , 
2025-08-22 20:00:42.849,2.565106,3.4504502,1.8999012,-0.26358816,-3.1130433,-0.21479532,-23.00625,-42.09375,-14.887501,0.24094419,0.09454681,0.7090515,994.18744, , , , 
2025-08-22 20:00:42.869,2.8235307,1.3399807,0.6149554,-0.74006265,-3.4569602,0.2164752,-20.7,-41.737503,-16.3875,0.2615083,0.070809394,0.7008433,994.18744, , , , 
2025-08-22 20:00:42.889,5.584848,-0.7322037,1.4093726,-1.0870339,-3.8405833,0.19204062,-25.518751,-40.875,-15.150001,0.280746,0.040737275,0.6935668,994.1257, , , , 
2025-08-22 20:00:42.909,3.0245278,2.2995026,3.5294135,-1.1554507,-4.8601165,0.18287764,-25.931252,-41.287502,-13.5375,0.3013537,0.0056985943,0.6833685,994.1257, , , , 
2025-08-22 20:00:42.928,3.2063823,0.4881358,2.7684958,-0.8139773,-5.7354856,0.6807324,-26.362501,-40.48125,-12.76875,0.33038956,-0.036995817,0.6691419,994.12274, , , , 
2025-08-22 20:00:42.947,4.3740797,-2.2444677,0.05503492,-1.1175771,-5.103852,1.1413245,-30.487501,-40.425003,-10.181251,0.3596271,-0.08149995,0.6559692,994.12274, , , , 
2025-08-22 20:00:42.968,3.237489,-1.3016955,1.6773686,-1.5085306,-4.460611,1.8700862,-34.5,-39.0,-6.9187503,0.38427165,-0.13742632,0.6445752,994.0861, , , , 
2025-08-22 20:00:42.987,5.424529,-3.4241292,1.2610176,-1.5280782,-4.7965865,2.335565,-34.800003,-38.268753,-7.0687504,0.3954047,-0.17180939,0.6403865,994.0861, , , , 
2025-08-22 20:00:43.008,8.415557,-4.338187,1.7946169,-1.786474,-5.527792,2.647717,-37.706253,-34.48125,-6.05625,0.41632852,-0.2371806,0.6300567,994.0617, , , , 
2025-08-22 20:00:43.027,9.712467,-4.599005,5.4867425,-1.7088943,-5.5674977,2.666043,-40.162502,-34.7625,-2.8500001,0.42842004,-0.27900732,0.62147504,994.0617, , , , 
2025-08-22 20:00:43.048,8.348558,-5.5250273,4.666004,-0.7987057,-4.997561,3.1186938,-43.125,-31.725,0.99375004,0.44701502,-0.3429777,0.60801154,994.0859, , , , 
2025-08-22 20:00:43.068,8.109276,-6.393622,0.71306115,-0.80847955,-4.1722827,3.54691,-43.875,-30.843752,3.80625,0.45813182,-0.38738236,0.6025425,994.0859, , , , 
2025-08-22 20:00:43.090,10.293923,-7.7479596,0.5168497,-1.4584397,-3.3158505,4.1724353,-47.5125,-25.275002,8.493751,0.45836228,-0.44097108,0.6003141,994.0832, , , , 
2025-08-22 20:00:43.108,16.153946,-7.9633136,3.5006995,-1.5677844,-3.1625233,4.121123,-49.2,-23.23125,11.793751,0.4503785,-0.4842579,0.598836,994.0832, , , , 
2025-08-22 20:00:43.129,14.749359,-7.834101,3.237489,-1.2531891,-2.3787837,3.5823402,-50.04375,-17.75625,14.6625,0.44148,-0.5215201,0.5964253,994.1203, , , , 
2025-08-22 20:00:43.150,12.35175,-9.2793665,0.8662018,-1.5977168,-1.1704932,3.8517315,-47.90625,-15.806251,15.712501,0.4273606,-0.55199367,0.59672254,994.1203, , , , 
2025-08-22 20:00:43.167,14.275579,-9.468399,2.6392834,-1.8658864,-0.5333613,3.9958956,-48.91875,-12.918751,15.50625,0.40419614,-0.5815715,0.59861934,994.1584, , , , 
2025-08-22 20:00:43.189,15.732809,-9.164511,3.5700915,-1.6899574,-0.2926806,3.5939465,-50.5125,-8.587501,13.425,0.37729138,-0.6079476,0.6009601,994.1584, , , , 
2025-08-22 20:00:43.209,14.155939,-9.195618,3.6466618,-1.4187335,-0.5455786,3.3642614,-48.937504,-5.925,12.7875,0.35249078,-0.6302992,0.60254216,994.19037, , , , 
2025-08-22 20:00:43.229,14.256437,-9.238688,3.5533416,-1.1029164,-0.624991,3.1687846,-51.281254,-3.16875,11.493751,0.32569388,-0.65470904,0.60401696,994.19037, , , , 
2025-08-22 20:00:43.249,13.122239,-8.920443,2.8235307,-0.8506292,-0.417297,3.0148468,-50.812504,0.20625001,15.431251,0.30606964,-0.6706789,0.6059542,994.206, , , , 
2025-08-22 20:00:43.268,12.392428,-8.56152,1.7491534,-0.83963364,-0.12224931,2.9733078,-50.86875,2.0625,14.85,0.28589293,-0.6842016,0.6085982,994.206, , , , 
2025-08-22 20:00:43.288,13.07199,-8.504091,1.7060826,-0.8970549,0.15752676,2.8309765,-50.68125,6.9187503,18.112501,0.26417905,-0.696398,0.61097413,994.20355, , , , 
2025-08-22 20:00:43.308,13.72523,-7.9130645,2.0291135,-0.82741636,0.015806125,2.4699554,-51.300003,8.1,17.19375,0.2432809,-0.7070555,0.61243415,994.20355, , , , 
2025-08-22 20:00:43.328,12.58864,-7.7910304,1.7730815,-0.7278454,-0.013515383,2.0307436,-48.843754,9.356251,16.3875,0.22655061,-0.716028,0.6127955,994.19354, , , , 
2025-08-22 20:00:43.348,10.741381,-7.2693954,1.579263,-0.652709,0.22533275,1.8218279,-49.631252,11.90625,15.243751,0.21157013,-0.72332096,0.6129417,994.19354, , , , 
2025-08-22 20:00:43.368,9.5353985,-7.3866434,0.82313097,-0.55863583,0.49350238,1.703931,-48.187504,13.275001,16.556252,0.19228907,-0.7304228,0.61371255,994.20355, , , , 
2025-08-22 20:00:43.387,7.9274216,-7.5110703,-0.40917268,-0.616668,0.5985711,1.6911027,-49.125004,12.825001,14.062501,0.18029818,-0.7339607,0.61436814,994.20355, , , , 
2025-08-22 20:00:43.408,7.692925,-7.879565,0.3182454,-0.7211259,0.5490911,1.7839543,-49.0125,14.94375,15.637501,0.15910174,-0.7406015,0.6142911,994.2055, , , , 
2025-08-22 20:00:43.428,8.118847,-7.62114,0.85902333,-0.5250383,0.46479174,1.7118722,-47.04375,17.268751,13.44375,0.14244944,-0.7454581,0.61433387,994.2055, , , , 
2025-08-22 20:00:43.448,8.226524,-7.207182,0.60059845,-0.3649917,0.4428006,1.5695407,-48.3375,18.88125,13.781251,0.12734914,-0.7488569,0.6153175,994.2072, , , , 
2025-08-22 20:00:43.467,8.293523,-7.0301127,0.6939186,-0.24709481,0.4641809,1.3911681,-47.381252,19.125,11.981251,0.11354365,-0.75116426,0.616652,994.2072, , , , 
2025-08-22 20:00:43.489,8.71466,-6.984649,0.6580262,-0.11148282,0.27542365,1.2268455,-46.59375,20.306252,14.75625,0.101615734,-0.75246567,0.6184159,994.19745, , , , 
2025-08-22 20:00:43.509,9.437292,-7.018149,0.18664017,0.02535089,0.002367101,0.8652136,-45.84375,21.88125,14.2875,0.09170085,-0.7531592,0.62085104,994.19745, , , , 
2025-08-22 20:00:43.528,9.296116,-7.0061846,0.014356935,0.10109812,-0.054443322,0.58482665,-45.318752,22.81875,12.01875,0.08764927,-0.7531262,0.62261105,994.1884, , , , 
2025-08-22 20:00:43.548,9.109476,-6.623333,-0.16510476,0.12247839,0.10621411,0.3691914,-44.5875,23.118752,15.468751,0.08565316,-0.75267106,0.62390196,994.1884, , , , 
2025-08-22 20:00:43.567,8.872586,-6.573084,-0.22013968,0.100487255,0.3004691,0.10651954,-44.006252,23.681252,13.837501,0.08333344,-0.7513719,0.6255581,994.174, , , , 
2025-08-22 20:00:43.587,8.181061,-6.613762,-0.29910284,0.101708986,0.44890925,-0.05169443,-45.6375,22.7625,13.44375,0.082170814,-0.75020635,0.62630695,994.174, , , , 
2025-08-22 20:00:43.608,8.006385,-6.6017976,-0.3684947,0.14446951,0.34994915,-0.16287182,-45.206253,22.706251,12.468751,0.08104847,-0.7479001,0.62741005,994.16864, , , , 
2025-08-22 20:00:43.628,8.262417,-6.1232333,-0.38763726,0.16951497,0.017027855,-0.31558803,-42.393753,24.243752,11.625,0.08239184,-0.7461254,0.6281281,994.16864, , , , 
2025-08-22 20:00:43.647,8.149954,-6.2811594,-0.32542387,0.20861033,-0.31772605,-0.47563457,-44.100002,23.8125,12.450001,0.08722539,-0.74474335,0.62841916,994.15985, , , , 
2025-08-22 20:00:43.667,7.867601,-6.800402,0.11724831,0.25809038,-0.49060076,-0.53549933,-44.86875,22.96875,13.200001,0.094516516,-0.7434892,0.62855417,994.15985, , , , 
2025-08-22 20:00:43.688,8.109276,-6.5443697,0.20338993,0.33261588,-0.5577959,-0.5629883,-45.05625,22.087502,13.575001,0.105013326,-0.74150676,0.6292035,994.1462, , , , 
2025-08-22 20:00:43.708,8.989835,-6.513263,0.4642076,0.37965247,-0.61766064,-0.6399572,-46.40625,21.206251,13.6125,0.11177689,-0.74007416,0.62971497,994.1462, , , , 
2025-08-22 20:00:43.727,10.004392,-6.570691,0.7106683,0.5317578,-0.86261743,-0.8201623,-45.600002,20.90625,14.475,0.12562221,-0.73698163,0.63081604,994.13544, , , , 
2025-08-22 20:00:43.747,12.217752,-6.168697,0.99302137,0.5720749,-0.9530254,-0.9881501,-45.0,20.85,12.712501,0.13582031,-0.7346189,0.6315954,994.13544, , , , 
2025-08-22 20:00:43.768,11.274981,-7.159325,1.1485549,0.5855139,-1.0666462,-1.3607776,-44.11875,20.925001,14.156251,0.15689266,-0.72992194,0.63203555,994.1274, , , , 
2025-08-22 20:00:43.788,12.413964,-7.04447,2.388037,0.7034108,-1.022664,-1.6087887,-45.9375,20.1,16.087502,0.1755998,-0.7251983,0.63191724,994.1274,37.88838985,127.73990715,151.08740234375,0.0
2025-08-22 20:00:43.808,12.105289,-7.960921,2.2061825,0.8518509,-0.75144005,-1.9093342,-46.74375,17.53125,16.331251,0.1958515,-0.7183796,0.63257605,994.12177, , , , 
2025-08-22 20:00:43.827,12.435499,-8.449057,2.7349963,0.9801325,-0.5614611,-2.136576,-47.831253,15.918751,17.60625,0.21621144,-0.70964867,0.6332738,994.12177, , , , 
2025-08-22 20:00:43.848,12.710674,-9.042477,2.9479575,1.1829396,-0.55657417,-2.439565,-49.500004,14.3625,20.04375,0.24299452,-0.69566077,0.6351281,994.1296, , , , 
2025-08-22 20:00:43.867,12.677175,-9.317652,2.8785655,1.4566071,-0.53763735,-2.6961281,-50.23125,12.69375,17.4375,0.2606514,-0.685424,0.6365534,994.1296, , , , 
2025-08-22 20:00:43.887,12.404392,-9.879965,1.0336994,1.6453643,-0.66897327,-2.9056547,-50.23125,9.712501,16.368752,0.29269266,-0.6649399,0.6395368,994.15546, , , , 
2025-08-22 20:00:43.909,12.780066,-9.91825,-0.9595219,1.4107922,-0.63354313,-2.9704063,-50.062504,9.84375,16.800001,0.3194768,-0.64782536,0.6404898,994.15546, , , , 
2025-08-22 20:00:43.928,13.196417,-9.798609,-1.6223338,0.98563033,-0.4887682,-3.0632577,-49.912502,4.125,18.1875,0.34507856,-0.63181627,0.63871276,994.1684, , , , 
2025-08-22 20:00:43.947,13.313665,-8.985049,-1.3567305,0.58245957,-0.29756752,-3.1988697,-49.85625,3.6562502,16.987501,0.3688091,-0.6172141,0.63378286,994.1684, , , , 
2025-08-22 20:00:43.967,12.772887,-8.135597,-0.43788654,0.28435755,0.32184938,-3.4193919,-50.04375,-0.8625,18.018751,0.39464262,-0.59900326,0.6249002,994.1789, , , , 
2025-08-22 20:00:43.988,11.801401,-7.6833534,-0.08135597,0.20983206,0.6975312,-3.5788276,-49.237503,-3.15,20.23125,0.41175368,-0.58233184,0.61771333,994.1789, , , , 
2025-08-22 20:00:44.007,10.107283,-7.4440713,0.016749758,0.28985533,0.58940816,-3.6979463,-50.175003,-8.08125,16.9125,0.42829934,-0.5639908,0.60999465,994.2016, , , , 
2025-08-22 20:00:44.027,8.817552,-7.348358,-0.08853444,0.38453937,0.26992586,-3.7064984,-50.550003,-9.13125,18.712502,0.44170752,-0.5498897,0.60324043,994.2016, , , , 
2025-08-22 20:00:44.048,6.74776,-6.9320073,-0.04546363,0.53603387,-0.014126248,-3.5391214,-49.575,-16.10625,16.368752,0.46576858,-0.52659535,0.59040076,994.2265, , , , 
2025-08-22 20:00:44.069,5.9150577,-6.74776,-0.37567315,0.5708531,-0.0025198173,-3.4022877,-50.718754,-16.59375,16.518751,0.47542915,-0.51738244,0.5851636,994.2265, , , , 
2025-08-22 20:00:44.087,4.907679,-5.9557357,-1.134198,0.4865538,0.20945026,-2.9875107,-48.037502,-17.8125,17.23125,0.4967468,-0.49496096,0.57336223,994.2265, , , , 
2025-08-22 20:00:44.107,5.180461,-5.4221363,-1.7371893,0.3478875,0.28275403,-2.6069417,-47.737503,-21.28125,18.487501,0.51305836,-0.47456142,0.56329906,994.247, , , , 
2025-08-22 20:00:44.127,4.7425747,-5.127819,-2.0267208,0.21838416,0.13981168,-2.3955827,-44.90625,-22.706251,16.10625,0.52141577,-0.46366367,0.55730397,994.247, , , , 
2025-08-22 20:00:44.147,4.1036906,-4.776074,-1.3950156,0.0736092,-0.21937682,-2.0174572,-44.68125,-25.9125,15.806251,0.53435254,-0.44922376,0.5460687,994.24677, , , , 
2025-08-22 20:00:44.167,3.7256248,-4.465007,-1.0935199,0.065667965,-0.4087449,-1.7199662,-42.412502,-27.91875,14.137501,0.5441284,-0.44093964,0.53655094,994.2526, , , , 
2025-08-22 20:00:44.187,2.9431717,-4.249653,-1.2801601,0.008857539,-0.2786307,-1.3882666,-41.662502,-28.575,13.950001,0.5529081,-0.43460506,0.5276887,994.2526, , , , 
2025-08-22 20:00:44.207,1.5457634,-3.885944,-1.0983056,-0.08032872,0.061620984,-0.83421224,-41.7,-29.343752,15.993751,0.5594672,-0.42853248,0.520188,994.2568, , , , 
2025-08-22 20:00:44.227,1.3639089,-3.5509489,-1.3351951,-0.14813471,0.13492475,-0.2520581,-39.206253,-31.44375,15.69375,0.5605232,-0.42604622,0.5180306,994.2568, , , , 
2025-08-22 20:00:44.247,1.7515461,-3.6658044,-1.3447664,-0.24465135,0.12881611,0.21952952,-39.318752,-29.85,15.937501,0.5589503,-0.42686704,0.51803094,994.2631, , , , 
2025-08-22 20:00:44.267,1.8041883,-4.4602213,-1.2753744,-0.29901832,0.123929195,0.6898954,-41.475002,-33.300003,15.900001,0.5549975,-0.43058178,0.5199398,994.2631, , , , 
2025-08-22 20:00:44.287,1.7515461,-5.355137,-1.0887343,-0.2623664,-0.058108512,1.2610539,-40.93125,-32.11875,15.000001,0.5491397,-0.43738034,0.523744,994.26605, , , , 
2025-08-22 20:00:44.307,2.0003998,-6.1040907,-1.2490535,-0.17623448,-0.35498878,1.8425972,-41.193752,-31.1625,15.58125,0.5421624,-0.44771954,0.529199,994.26605, , , , 
2025-08-22 20:00:44.327,3.0005996,-6.65444,-2.158326,-0.22266021,-0.5504655,2.4363577,-41.643753,-27.6,15.58125,0.5341672,-0.4621614,0.53593606,994.26605, , , , 
2025-08-22 20:00:44.347,4.35733,-7.02772,-2.3688943,-0.5061015,-0.51992226,3.0295074,-40.800003,-26.38125,15.431251,0.52008784,-0.4857856,0.5457633,994.26605, , , , 
2025-08-22 20:00:44.367,5.2235317,-7.5326056,-1.7467605,-0.7345649,-0.33849543,3.3831983,-44.41875,-24.768751,14.625001,0.50837404,-0.50228286,0.5522099,994.2609, , , , 
2025-08-22 20:00:44.387,5.6614184,-8.451449,-0.75613195,-0.90866137,0.019471316,3.7930884,-43.612503,-22.087502,16.556252,0.48260412,-0.53119135,0.56457216,994.2609, , , , 
2025-08-22 20:00:44.407,6.498906,-9.236296,0.1363909,-0.99234986,0.21861324,4.148612,-46.706253,-21.4125,16.6875,0.45658526,-0.5547668,0.5761117,994.26776, , , , 
2025-08-22 20:00:44.427,7.853244,-10.109675,0.3684947,-1.0528255,0.32429284,4.391736,-48.318752,-17.081251,15.993751,0.42703566,-0.57823163,0.5882212,994.26776, , , , 
2025-08-22 20:00:44.447,9.142975,-10.9017,0.44985065,-1.2733476,0.26564983,4.359971,-48.093754,-11.8125,13.668751,0.39535597,-0.60148174,0.5991536,994.2692, , , , 
2025-08-22 20:00:44.467,9.58804,-11.710474,1.8017955,-1.3723078,0.12576179,4.279337,-49.350002,-8.700001,12.375001,0.3631533,-0.6246691,0.60703284,994.2692, , , , 
2025-08-22 20:00:44.487,10.234102,-12.794423,2.5698915,-1.1053598,-0.2370919,4.1828203,-47.71875,-3.45,13.6125,0.32422552,-0.6515859,0.61458796,994.2946, , , , 
2025-08-22 20:00:44.507,10.872986,-13.244273,2.481357,-0.6875283,-0.68852097,4.094245,-49.593754,0.22500001,12.20625,0.29701418,-0.6704872,0.6199104,994.2946, , , , 
2025-08-22 20:00:44.527,11.531013,-13.2203455,1.3280165,-0.32833982,-0.9511928,3.8798313,-49.275,3.7687502,10.125,0.27375922,-0.68624914,0.62535846,994.3107, , , , 
2025-08-22 20:00:44.547,11.050055,-12.660424,-0.47856453,-0.24953826,-0.8436806,3.687409,-48.7125,6.2625003,15.01875,0.25342062,-0.69923514,0.63030195,994.3107, , , , 
2025-08-22 20:00:44.567,10.844273,-11.837294,-1.8640088,-0.6221658,-0.14301872,3.5982227,-45.73125,11.775001,17.475,0.23168086,-0.7110224,0.63391227,994.30316, , , , 
2025-08-22 20:00:44.587,11.148161,-10.997413,-1.2418749,-1.1023055,0.59001905,3.3966372,-44.41875,14.306251,13.481251,0.2055885,-0.72298384,0.63499177,994.30316, , , , 
2025-08-22 20:00:44.607,10.741381,-10.396814,0.32542387,-1.3649774,1.2332597,3.1571782,-44.925003,17.1,15.543751,0.17587784,-0.73483413,0.6334683,994.30634, , , , 
2025-08-22 20:00:44.627,10.439885,-9.765109,0.9810573,-1.4327834,1.7054582,2.8615198,-43.4625,19.237501,15.58125,0.13579126,-0.7476954,0.62991095,994.30634, , , , 
2025-08-22 20:00:44.647,9.982856,-9.135797,1.5553347,-1.3741403,1.7934226,2.6055675,-43.443752,19.25625,14.175,0.10363984,-0.7560979,0.62619734,994.3132, , , , 
2025-08-22 20:00:44.667,9.391829,-8.63809,1.9286151,-1.1988221,1.5594615,2.43086,-39.84375,23.1375,12.0375,0.08095282,-0.7612532,0.6233142,994.3132, , , , 
2025-08-22 20:00:44.687,9.303294,-7.812566,1.8903298,-0.9043853,1.0383937,2.2695918,-41.193752,24.468752,13.031251,0.04783185,-0.7677596,0.61939275,994.32684, , , , 
2025-08-22 20:00:44.707,9.592826,-7.460821,2.1631117,-0.51343185,0.3927097,2.1669664,-38.8875,25.81875,14.250001,0.026440894,-0.77131987,0.6176579,994.32684, , , , 
2025-08-22 20:00:44.727,10.380065,-6.853044,1.7228323,-0.021074835,-0.16806418,2.0857215,-37.7625,27.69375,13.25625,0.009747361,-0.7728589,0.61846155,994.32684, , , , 
2025-08-22 20:00:44.747,11.760723,-6.101698,0.57906306,0.37293294,-0.5773436,1.8920773,-37.48125,27.712502,14.306251,-0.002053322,-0.77212924,0.62221074,994.32684, , , , 
2025-08-22 20:00:44.767,13.229917,-5.4628143,-1.416551,0.43401942,-0.5284744,1.559156,-30.843752,31.050001,13.312501,-0.009755881,-0.76992714,0.62741226,994.3195, , , , 
2025-08-22 20:00:44.787,13.816158,-4.7688956,-1.8137596,0.21410811,-0.3342194,1.0716859,-28.35,34.050003,13.8,-0.01620029,-0.7677337,0.63197994,994.3195,37.88838531,127.73989501,150.2684326171875,0.24
2025-08-22 20:00:44.807,13.612768,-4.7114677,-0.88295156,0.08888082,-0.19799654,0.6727912,-28.5375,34.7625,16.10625,-0.019006336,-0.76705515,0.6335107,994.3132, , , , 
2025-08-22 20:00:44.827,13.890335,-5.0775695,-0.16510476,0.0876591,-0.06971494,0.2738965,-27.468752,34.875,15.20625,-0.019700263,-0.76656497,0.63432705,994.3132, , , , 
2025-08-22 20:00:44.847,13.986049,-5.663811,0.44985065,0.17928882,0.022525638,-0.18364123,-26.812502,35.081253,13.593751,-0.018158294,-0.7656925,0.63511693,994.3171, , , , 
2025-08-22 20:00:44.867,14.694324,-6.7908306,0.5766702,0.27030766,-0.07887791,-0.6558397,-29.156252,35.081253,13.368751,-0.0134841,-0.7642091,0.6362607,994.3171, , , , 
2025-08-22 20:00:44.887,15.397814,-8.13799,0.5383851,0.3478875,-0.25908303,-1.2526546,-30.075,32.737503,14.062501,-0.004047654,-0.7622607,0.6375544,994.31195, , , , 
2025-08-22 20:00:44.907,14.5818615,-9.332008,0.39720857,0.2886336,-0.32933247,-1.8378631,-30.281252,33.225002,14.681251,0.01092446,-0.76008695,0.63833994,994.31195, , , , 
2025-08-22 20:00:44.927,13.263416,-11.155339,1.2346965,0.19211698,-0.0074067353,-2.23126,-29.493752,32.68125,13.856251,0.033848338,-0.7574328,0.6373967,994.32, , , , 
2025-08-22 20:00:44.947,12.500106,-11.322837,2.617748,0.3509418,0.35056004,-2.3650393,-33.2625,30.056252,14.08125,0.051432714,-0.75408125,0.63626564,994.32, , , , 
2025-08-22 20:00:44.968,13.007384,-10.549955,2.6081767,0.73028886,0.56924963,-2.6051092,-30.91875,27.35625,8.118751,0.06838079,-0.7480303,0.6367167,994.3454, , , , 
2025-08-22 20:00:44.987,13.658232,-10.667203,1.3686945,0.9178243,0.544815,-3.0644796,-35.98125,26.437502,11.025001,0.08715792,-0.7391863,0.638314,994.3454, , , , 
2025-08-22 20:00:45.007,12.825529,-12.143575,0.28713873,0.8970549,0.37194028,-3.540954,-37.5,24.675001,10.05,0.10994031,-0.72881603,0.638842,994.35516, , , , 
2025-08-22 20:00:45.027,11.069198,-13.390236,0.12921242,0.7504474,0.06101012,-3.6832855,-37.237503,23.081251,10.425,0.1359772,-0.71819776,0.6370347,994.35516, , , , 
2025-08-22 20:00:45.047,11.205588,-14.3689,1.6414764,0.6343831,-0.46189013,-3.635638,-40.275,19.556252,9.243751,0.16372058,-0.7085546,0.6327923,994.36884, , , , 
2025-08-22 20:00:45.067,12.516855,-15.014962,3.591627,0.8139773,-1.0275509,-3.7675848,-41.15625,16.612501,7.9500003,0.19416825,-0.69938165,0.6270083,994.36884, , , , 
2025-08-22 20:00:45.087,13.091133,-15.68256,4.5535417,1.3191625,-1.7166064,-4.226344,-41.04375,13.63125,9.20625,0.23983228,-0.6851811,0.61916596,994.3962, , , , 
2025-08-22 20:00:45.107,11.509477,-15.988841,3.0915267,1.7119485,-2.1637595,-4.4609165,-40.893753,12.375001,12.0375,0.28357673,-0.6701743,0.61251676,994.3962, , , , 
2025-08-22 20:00:45.127,10.6408825,-15.158531,1.4811572,1.6814053,-2.2077417,-4.4248753,-46.7625,6.1312504,16.087502,0.32925826,-0.65333664,0.6046144,994.4101, , , , 
2025-08-22 20:00:45.147,10.956735,-13.923835,0.33738798,1.4486659,-1.8094578,-4.382115,-46.725002,3.5062501,17.625,0.37246165,-0.6356753,0.5949772,994.4101, , , , 
2025-08-22 20:00:45.167,10.918449,-12.899707,-0.9068798,1.0442734,-0.92981255,-4.476799,-44.9625,0.93750006,20.98125,0.4107751,-0.61657184,0.5841767,994.3986, , , , 
2025-08-22 20:00:45.187,9.891929,-12.131611,-1.6390835,0.6374374,-0.07887791,-4.5769806,-45.05625,-5.4187503,19.81875,0.44292697,-0.5955125,0.57284844,994.3986, , , , 
2025-08-22 20:00:45.207,8.035098,-11.696117,-1.2490535,0.2953531,0.5625301,-4.557433,-42.6375,-10.03125,20.90625,0.47471067,-0.56692773,0.55831957,994.3664, , , , 
2025-08-22 20:00:45.228,6.4558353,-10.951949,0.11724831,0.35888305,0.5472585,-4.3790607,-42.881252,-15.656251,20.643751,0.49531475,-0.5428895,0.54698986,994.3664, , , , 
2025-08-22 20:00:45.249,4.6971107,-9.966106,0.46899325,0.6307179,-0.019013166,-4.116389,-42.0,-18.54375,20.550001,0.51592475,-0.51894164,0.53526807,994.3471, , , , 
2025-08-22 20:00:45.269,4.24726,-9.298509,-0.6628119,0.7333432,-0.3861429,-3.8592145,-41.49375,-21.112501,20.962502,0.53830534,-0.49668667,0.52219516,994.3471, , , , 
2025-08-22 20:00:45.288,3.1752756,-8.405986,-2.012364,0.5207622,-0.43684468,-3.5525606,-38.8875,-24.075,21.46875,0.5601716,-0.47645915,0.507998,994.3371, , , , 
2025-08-22 20:00:45.309,2.1296122,-7.8197446,-1.6941184,0.19700389,-0.2694677,-3.1744351,-37.143753,-25.650002,21.375,0.58276004,-0.45431423,0.48994792,994.3371, , , , 
2025-08-22 20:00:45.328,1.416551,-7.24786,-0.9451649,0.052839804,-0.08987348,-2.7523277,-35.175003,-28.931252,21.675001,0.596134,-0.43890855,0.47701108,994.3134, , , , 
2025-08-22 20:00:45.349,1.1246266,-6.9559355,-0.8781659,-0.024129158,0.10377065,-2.3375504,-33.84375,-31.0125,20.868752,0.60386926,-0.4284595,0.4687983,994.3134, , , , 
2025-08-22 20:00:45.369,-0.12921242,-6.6089764,-1.282553,-0.0650571,0.1844048,-1.7517312,-34.0875,-32.90625,21.31875,0.6131341,-0.41316327,0.45811075,994.3005, , , , 
2025-08-22 20:00:45.389,-0.10289137,-6.3050876,-1.1389836,-0.08277218,0.0561232,-1.1463641,-32.04375,-33.7125,21.618752,0.61790013,-0.40444106,0.451944,994.3005, , , , 
2025-08-22 20:00:45.409,0.4019942,-6.424729,-1.2466606,-0.10231985,0.012140937,-0.63262683,-30.35625,-36.2625,21.112501,0.6208306,-0.39977723,0.44771385,994.2922, , , , 
2025-08-22 20:00:45.429,-0.09810573,-6.63769,-1.4787644,-0.18417573,0.18684827,-0.077961616,-30.056252,-35.49375,21.50625,0.6212526,-0.3980936,0.4459618,994.2922, , , , 
2025-08-22 20:00:45.449,-0.7178468,-6.9678993,-1.39023,-0.20433427,0.2485456,0.60803956,-29.718752,-35.2125,21.45,0.61813533,-0.4000861,0.44832987,994.2758, , , , 
2025-08-22 20:00:45.469,-0.6412765,-7.1617184,-1.8041883,-0.20677772,0.10621411,1.3074797,-30.975,-34.96875,21.2625,0.61393553,-0.40456194,0.45240262,994.2758, , , , 
2025-08-22 20:00:45.489,1.038485,-6.843473,-2.2372892,-0.34361145,-0.09598213,2.1449754,-34.162502,-34.6875,22.81875,0.60377586,-0.4194749,0.46206754,994.2587, , , , 
2025-08-22 20:00:45.509,2.885744,-6.862615,-2.0554347,-0.5763509,0.14836378,2.7399576,-34.068752,-32.90625,20.85,0.59160745,-0.43662214,0.47216457,994.2587, , , , 
2025-08-22 20:00:45.529,3.6993039,-7.8436728,-1.4261223,-0.7473931,0.5173261,3.1303003,-36.112503,-30.6375,21.09375,0.5744936,-0.45563704,0.48505527,994.24603, , , , 
2025-08-22 20:00:45.549,3.735196,-9.329616,-0.782453,-0.7174607,0.517937,3.5725663,-38.49375,-28.650002,21.69375,0.55299836,-0.47571337,0.5005168,994.24603, , , , 
2025-08-22 20:00:45.569,4.816752,-11.124232,-0.997807,-0.48716468,0.054901473,4.166327,-40.36875,-25.087502,18.75,0.5234696,-0.50404,0.521586,994.2487, , , , 
2025-08-22 20:00:45.589,6.472585,-12.763316,-2.5004997,-0.4309651,-0.38064513,4.717327,-41.25,-21.31875,20.325,0.4991129,-0.53013015,0.5384831,994.2487, , , , 
2025-08-22 20:00:45.609,8.846265,-13.866407,-2.737389,-0.5922334,-0.45150542,5.173032,-42.91875,-16.63125,19.462502,0.4722644,-0.55926985,0.55441886,994.2382, , , , 
2025-08-22 20:00:45.630,10.147961,-14.459827,-1.9501505,-0.8176425,-0.092927806,5.4295955,-44.025,-11.90625,20.38125,0.44108754,-0.5889645,0.56947863,994.2382, , , , 
2025-08-22 20:00:45.648,10.695917,-14.170296,-1.457229,-1.0204496,0.41103563,5.5022883,-44.925003,-5.8500004,14.887501,0.4044978,-0.6169233,0.58409935,994.2409, , , , 
2025-08-22 20:00:45.668,10.801202,-13.8688,-0.55752766,-1.2495239,0.7109702,5.4796863,-45.881252,-3.9750001,16.725,0.3631243,-0.64254785,0.5973769,994.2409, , , , 
2025-08-22 20:00:45.687,10.920842,-13.811373,0.3397808,-1.2922845,0.4550179,5.3752284,-47.11875,3.2062502,19.85625,0.32041827,-0.66622144,0.60791045,994.2546, , , , 
2025-08-22 20:00:45.707,12.244074,-13.617554,0.97866446,-1.2055416,0.14347686,5.264051,-45.787502,8.94375,18.768751,0.27936533,-0.68815535,0.6155066,994.2546, , , , 
2025-08-22 20:00:45.727,13.433307,-13.229917,1.375873,-1.0619885,0.123929195,4.978777,-46.125,12.281251,17.212502,0.24068987,-0.70732224,0.62222856,994.2724, , , , 
2025-08-22 20:00:45.748,13.512269,-12.830315,1.1270195,-0.92210037,0.21372631,4.6159234,-43.85625,13.387501,17.7,0.20423548,-0.7228104,0.62539357,994.2724, , , , 
2025-08-22 20:00:45.768,13.808979,-12.265609,1.0025927,-0.84452057,0.3181842,4.2396307,-40.612503,19.837502,15.750001,0.16153885,-0.7378816,0.62916327,994.28046, , , , 
2025-08-22 20:00:45.788,14.404793,-11.205588,0.80159557,-0.7553343,0.43730283,3.9006007,-40.425003,20.212502,16.95,0.13749978,-0.74497545,0.63067675,994.28046,37.88838531,127.73989501,150.2684326171875,0.24
2025-08-22 20:00:45.808,14.151154,-9.662218,0.19381863,-0.788321,0.73662657,3.4326782,-38.60625,25.500002,16.7625,0.09995759,-0.75415087,0.6319115,994.2768, , , , 
2025-08-22 20:00:45.828,14.3689,-8.338987,0.6723832,-0.8610139,0.9021709,3.1101418,-37.5,25.987501,17.7,0.071159385,-0.7602366,0.6311229,994.2768, , , , 
2025-08-22 20:00:45.847,14.687145,-7.283752,1.6965113,-0.71318465,0.7402918,2.6868124,-36.225002,28.725,17.56875,0.045101136,-0.76517785,0.6293537,994.27264, , , , 
2025-08-22 20:00:45.867,14.931213,-6.4869423,1.6223338,-0.31917685,0.38110328,2.245768,-32.006252,30.656252,17.00625,0.024112731,-0.768043,0.62858,994.27264, , , , 
2025-08-22 20:00:45.888,15.950556,-6.0921264,0.33738798,-0.015577052,0.16913319,1.8425972,-31.837502,32.287502,17.04375,0.0049853846,-0.76875675,0.62993467,994.28314, , , , 
2025-08-22 20:00:45.908,16.957933,-6.0825553,-0.53359944,0.03329213,0.14103341,1.4950151,-30.35625,32.2125,15.675,-0.0036417446,-0.7683637,0.6312289,994.28314, , , , 
2025-08-22 20:00:45.928,18.465412,-6.652047,-0.8566305,-0.0650571,-0.1344666,0.8719331,-29.41875,34.143753,18.54375,-0.01286945,-0.76798815,0.63240844,994.28143, , , , 
2025-08-22 20:00:45.948,19.439291,-6.7429743,-0.25842485,-0.13225223,-0.29206973,0.4266127,-30.31875,33.9375,16.650002,-0.014067086,-0.76855284,0.6320433,994.28143, , , , 
2025-08-22 20:00:45.968,20.53281,-7.281359,0.71306115,-0.22876886,-0.08071051,-0.5116756,-30.54375,34.29375,17.118752,-0.009898575,-0.76961654,0.630574,994.28754, , , , 
2025-08-22 20:00:45.988,19.941784,-8.260024,2.589034,-0.083383046,0.24304782,-1.2080615,-29.906252,33.862503,17.23125,-0.0016563497,-0.77032846,0.6283218,994.28754, , , , 
2025-08-22 20:00:46.008,17.534605,-8.216953,2.7493532,0.44073895,0.27236933,-2.0840416,-32.4,33.73125,16.25625,0.0144414,-0.76756924,0.62781364,994.3178, , , , 
2025-08-22 20:00:46.028,16.094126,-8.283952,2.2372892,0.74128443,0.04329504,-2.6124396,-31.48125,32.34375,14.85,0.033872385,-0.7623499,0.6294049,994.3178, , , , 
2025-08-22 20:00:46.048,14.713467,-10.262816,1.3615161,0.9941824,-0.2694677,-3.2422411,-33.412502,30.675001,12.993751,0.05920809,-0.75509274,0.63150126,994.34247, , , , 
2025-08-22 20:00:46.068,13.598412,-11.784652,1.0600204,1.1279619,-0.6317105,-3.5898232,-36.45,28.725,14.343751,0.0818465,-0.74853927,0.632846,994.34247, , , , 
2025-08-22 20:00:46.087,12.904492,-13.406985,0.6149554,1.2110394,-1.1472805,-3.8506625,-37.4625,25.031252,12.187501,0.12536353,-0.73608476,0.6339112,994.3503, , , , 
2025-08-22 20:00:46.107,12.957134,-14.311472,0.41635114,1.1695006,-1.5406773,-3.948401,-36.9375,22.706251,14.118751,0.1642238,-0.72548825,0.632778,994.3503, , , , 
2025-08-22 20:00:46.127,14.6536455,-15.046069,0.67477596,1.0320561,-1.7679191,-4.1084476,-40.59375,19.85625,14.19375,0.19479705,-0.71746373,0.63024896,994.3503, , , , 
2025-08-22 20:00:46.147,15.364314,-16.094126,0.9020941,0.88911366,-1.605429,-4.476188,-41.11875,19.5375,15.975,0.24736573,-0.7027377,0.6226527,994.3466, , , , 
2025-08-22 20:00:46.167,14.957535,-16.120445,1.2203395,0.743117,-1.2511275,-4.742525,-45.412502,14.45625,19.03125,0.28873497,-0.6888561,0.61404306,994.33905, , , , 
2025-08-22 20:00:46.187,14.390435,-15.594026,0.7513463,0.5726857,-0.711123,-5.077279,-38.79375,13.368751,21.487501,0.3282232,-0.67252195,0.6038061,994.33905, , , , 
2025-08-22 20:00:46.207,13.009777,-15.541383,0.7704889,0.39675668,0.09460768,-5.31796,-50.943752,5.53125,22.743752,0.3645959,-0.6533448,0.592148,994.3459, , , , 
2025-08-22 20:00:46.227,11.330015,-15.452848,1.1581261,0.4205804,0.712192,-5.406535,-45.956253,3.43125,22.800001,0.3960894,-0.6305499,0.5805929,994.3459, , , , 
2025-08-22 20:00:46.247,9.35833,-14.916857,1.0217353,0.65942854,0.7903827,-5.347281,-43.55625,-3.99375,17.56875,0.43094522,-0.5972959,0.5672641,994.3422, , , , 
2025-08-22 20:00:46.267,7.408179,-14.045869,0.4235296,0.83780104,0.44341147,-5.173185,-43.18125,-9.9375,19.25625,0.45150867,-0.5760806,0.5590685,994.3422, , , , 
2025-08-22 20:00:46.287,5.8911295,-12.550355,-0.031106694,0.9288199,-0.049556404,-4.8054442,-43.0125,-14.26875,18.4125,0.48639414,-0.5419119,0.5435054,994.3276, , , , 
2025-08-22 20:00:46.308,5.400601,-11.320444,-0.56470615,0.9135483,-0.07399099,-4.531166,-43.068752,-16.7625,18.243752,0.5133248,-0.5160702,0.52984303,994.3276, , , , 
2025-08-22 20:00:46.327,4.395615,-10.212567,-1.6247265,0.77915806,0.18318307,-4.2764354,-41.737503,-21.84375,16.85625,0.5374402,-0.49032745,0.51642156,994.2985, , , , 
2025-08-22 20:00:46.347,2.6344976,-9.389436,-2.3688943,0.5549707,0.25648686,-3.9606183,-40.0125,-24.7875,19.0125,0.5579698,-0.46498162,0.50337946,994.2985, , , , 
2025-08-22 20:00:46.368,1.6438692,-8.590233,-2.0075781,0.35216355,-0.010461059,-3.6331947,-36.862503,-27.31875,18.206251,0.575509,-0.44222596,0.48967272,994.2985, , , , 
2025-08-22 20:00:46.387,0.9284152,-7.9034934,-1.2011969,0.26542073,-0.5932261,-3.1237335,-34.068752,-30.150002,18.69375,0.59593517,-0.41970333,0.47011772,994.27484, , , , 
2025-08-22 20:00:46.407,0.25842485,-7.7479596,-1.3686945,0.25992295,-0.70318174,-2.6820781,-32.362503,-33.975002,19.5,0.61146104,-0.4058114,0.45388848,994.269, , , , 
2025-08-22 20:00:46.427,-0.15553348,-7.5182486,-1.8376877,0.15607595,-0.5174788,-2.1243587,-30.4125,-35.1375,20.2875,0.62431645,-0.3945239,0.43980837,994.269, , , , 
2025-08-22 20:00:46.447,-0.9834501,-7.503892,-2.1128623,-0.043065965,-0.07032581,-1.4298054,-27.91875,-37.143753,22.29375,0.6329983,-0.38577676,0.42944843,994.26337, , , , 
2025-08-22 20:00:46.468,-2.2660031,-7.542177,-2.1272194,-0.18356487,0.23938264,-0.7462477,-28.237501,-36.768753,19.21875,0.6365304,-0.3796742,0.42416415,994.26337, , , , 
2025-08-22 20:00:46.487,-2.7972097,-7.381858,-2.3808584,-0.3753764,0.31451902,0.2409098,-26.812502,-36.787502,22.1625,0.6352592,-0.37811607,0.4238187,994.2587, , , , 
2025-08-22 20:00:46.507,-1.8831514,-7.3196445,-1.3639089,-0.54580766,0.24488042,1.1046726,-27.4125,-37.800003,18.431252,0.62979823,-0.38269857,0.4271869,994.2587, , , , 
2025-08-22 20:00:46.528,-0.8327023,-7.664211,-0.2847459,-0.42302385,0.1721875,1.7515785,-29.062502,-37.350002,17.94375,0.6208681,-0.39283204,0.43419576,994.2587, , , , 
2025-08-22 20:00:46.547,0.8135597,-7.331609,-0.92602235,-0.1517999,-0.010461059,2.5658612,-30.937502,-35.68125,19.29375,0.60757464,-0.41097513,0.44801033,994.25824, , , , 
2025-08-22 20:00:46.567,2.6368906,-7.496713,-2.050649,-0.17318016,-7.63581E-5,2.9995751,-30.50625,-33.6375,17.268751,0.59516704,-0.42895445,0.4617805,994.2619, , , , 
2025-08-22 20:00:46.587,3.7950168,-8.772088,-2.644069,-0.42485645,0.012751802,3.4021351,-34.706253,-31.218752,18.35625,0.57998604,-0.4494041,0.47655508,994.2619, , , , 
2025-08-22 20:00:46.607,4.644469,-10.351351,-2.3186452,-0.66614807,-0.14301872,3.8059165,-35.5875,-29.79375,17.4375,0.5613598,-0.47282025,0.49142462,994.24677, , , , 
2025-08-22 20:00:46.627,6.168697,-11.478371,-1.1270195,-0.733954,-0.48449212,4.223748,-36.16875,-27.50625,18.45,0.53992367,-0.4998513,0.505505,994.24677, , , , 
2025-08-22 20:00:46.647,6.9559355,-12.792029,-0.45942193,-0.66614807,-0.5577959,4.6965575,-41.550003,-24.45,18.675001,0.5165592,-0.5293902,0.51913077,994.2485, , , , 
2025-08-22 20:00:46.668,8.4012,-14.05544,-0.2105684,-0.6026181,-0.25725043,5.1754756,-42.28125,-21.431252,19.66875,0.48933998,-0.5595185,0.5343927,994.2485, , , , 
2025-08-22 20:00:46.687,11.181661,-14.203795,-0.6436693,-0.6496547,0.16668972,5.3880563,-41.850002,-15.0375,19.10625,0.44803664,-0.59523076,0.55616707,994.26117, , , , 
2025-08-22 20:00:46.707,11.23191,-13.899907,-0.5383851,-0.7999274,0.2314414,5.2878747,-42.24375,-12.69375,17.925001,0.411728,-0.6212316,0.5722789,994.26117, , , , 
2025-08-22 20:00:46.727,10.798809,-14.012369,0.2727818,-0.90194184,0.116598815,5.3727846,-43.36875,-4.8187504,13.89375,0.38377288,-0.63991153,0.58245075,994.26117, , , , 
2025-08-22 20:00:46.747,12.863814,-14.07219,1.8041883,-0.76144296,0.011530072,5.463193,-47.4375,-1.5187501,16.7625,0.33591565,-0.6695796,0.59696954,994.269, , , , 
2025-08-22 20:00:46.767,13.914264,-13.438092,2.158326,-0.49388418,0.14225514,5.2310643,-43.78125,3.91875,21.0,0.29784772,-0.68927795,0.60787445,994.269, , , , 
2025-08-22 20:00:46.787,13.969298,-12.672389,1.3064811,-0.23732096,0.30474517,4.8382783,-42.581253,9.543751,17.775002,0.2613446,-0.7039835,0.618618,994.28754,37.88836483,127.73989563,150.1539306640625,1.69
2025-08-22 20:00:46.807,14.196617,-11.928221,0.09571291,-0.21899502,0.25648686,4.477868,-44.0625,13.012501,16.5,0.21871321,-0.71758246,0.6303026,994.30536, , , , 
2025-08-22 20:00:46.827,14.471791,-11.150554,-0.06699903,-0.2941314,0.2399935,4.179155,-42.9,15.750001,15.3,0.19502516,-0.72448075,0.63549393,994.30536, , , , 
2025-08-22 20:00:46.847,14.52204,-9.906285,0.17467605,-0.41141742,0.4482984,3.768043,-40.331253,19.10625,15.918751,0.15791482,-0.73429865,0.6413319,994.29706, , , , 
2025-08-22 20:00:46.867,14.6129675,-8.922835,1.0600204,-0.40897396,0.712192,3.3496006,-39.43125,22.181252,16.575,0.12966505,-0.74050605,0.64416736,994.29706, , , , 
2025-08-22 20:00:46.887,14.433506,-8.001599,0.33020952,-0.18051054,0.98341596,2.9488733,-37.256252,25.650002,16.29375,0.102894805,-0.74429065,0.64703304,994.30365, , , , 
2025-08-22 20:00:46.907,14.3569355,-7.0612197,-1.6582261,-0.20250167,1.1178062,2.6965861,-37.050003,26.550001,15.150001,0.07728108,-0.7461021,0.65006864,994.30365, , , , 
2025-08-22 20:00:46.927,15.282958,-6.4845495,-2.2875385,-0.43340856,1.0811543,2.4614034,-32.86875,28.987501,12.712501,0.053032786,-0.7481656,0.6512168,994.30365, , , , 
2025-08-22 20:00:46.947,16.680367,-5.319245,-1.1892328,-0.7290671,0.8361975,1.8810817,-31.25625,30.50625,13.687501,0.027055046,-0.7525238,0.648594,994.28827, , , , 
2025-08-22 20:00:46.967,17.718851,-5.54417,-0.06699903,-0.6960804,0.43485937,1.3355795,-30.0375,32.25,14.231251,0.01578635,-0.75558805,0.64568776,994.2824, , , , 
2025-08-22 20:00:46.987,17.699709,-6.096912,0.72023964,-0.4865538,0.035964664,0.6929497,-28.593752,34.893753,12.69375,0.0063149375,-0.759833,0.6411635,994.2824, , , , 
2025-08-22 20:00:47.007,17.594425,-5.953343,0.88295156,-0.3827068,0.10682498,0.14928009,-30.150002,32.49375,14.700001,0.0048925644,-0.7621063,0.6383533,994.29315, , , , 
2025-08-22 20:00:47.028,17.00579,-6.7836523,1.9046868,-0.26358816,0.4220312,-0.44448048,-29.56875,33.05625,13.218751,0.006311064,-0.7636006,0.6355884,994.29315, , , , 
2025-08-22 20:00:47.047,15.890736,-7.015756,2.7900312,0.11636974,0.39209884,-0.83176875,-30.31875,33.206253,16.21875,0.010052652,-0.76341057,0.6339135,994.3239, , , , 
2025-08-22 20:00:47.067,16.070196,-6.6568327,2.5220351,0.594066,-0.1955531,-1.2184461,-30.618752,32.943752,13.33125,0.017987732,-0.7605828,0.63501966,994.3239, , , , 
2025-08-22 20:00:47.087,16.283157,-7.4536424,1.5026926,0.9459241,-1.0654246,-1.8354195,-28.875002,32.756252,11.925,0.034391988,-0.7557153,0.6384529,994.34125, , , , 
2025-08-22 20:00:47.107,15.74238,-9.779466,0.043070808,0.90377444,-1.5309035,-2.4866014,-32.287502,31.9125,12.7875,0.067782484,-0.7485069,0.6426128,994.34125, , , , 
2025-08-22 20:00:47.127,15.622739,-12.492927,-0.12203395,0.6148354,-1.4417173,-2.9227588,-34.48125,29.175001,15.337501,0.099527255,-0.74318594,0.64290994,994.3461, , , , 
2025-08-22 20:00:47.147,15.570097,-14.715859,0.552742,0.40347618,-1.0929134,-3.2233043,-34.7625,26.925001,13.650001,0.13161404,-0.7379825,0.64036304,994.3461, , , , 
2025-08-22 20:00:47.167,16.046268,-16.22573,1.0289137,0.31184646,-0.9035454,-3.5348454,-37.0125,26.906252,17.2875,0.16318737,-0.73191875,0.6360586,994.3593, , , , 
2025-08-22 20:00:47.187,15.806987,-16.622938,1.6151553,0.26419902,-0.89865845,-3.9593964,-39.35625,21.075,16.63125,0.19572958,-0.7245318,0.6301777,994.3593, , , , 
2025-08-22 20:00:47.207,15.0221405,-15.658631,2.617748,0.35766134,-0.9212604,-4.3802824,-39.24375,20.962502,16.78125,0.23061013,-0.71535844,0.62265193,994.3652, , , , 
2025-08-22 20:00:47.228,13.816158,-14.790037,2.8163524,0.51648617,-0.75327265,-4.7406926,-41.34375,17.25,18.900002,0.26757059,-0.70302016,0.61432534,994.3652, , , , 
2025-08-22 20:00:47.247,12.169896,-14.249259,1.7347964,0.6740893,-0.27801985,-5.1628,-40.612503,12.843751,18.46875,0.3142547,-0.6820575,0.6035007,994.37177, , , , 
2025-08-22 20:00:47.268,10.650454,-14.431113,0.634098,0.68019795,0.034742933,-5.3564444,-47.5125,7.2562504,22.29375,0.34137642,-0.6667139,0.59659976,994.37177, , , , 
2025-08-22 20:00:47.287,8.700303,-14.567504,0.30867413,0.6221658,0.2296088,-5.3943176,-44.662502,3.7125,18.7875,0.3839953,-0.63814944,0.5836331,994.35004, , , , 
2025-08-22 20:00:47.307,7.8987074,-14.31865,0.28953153,0.6997456,0.1740201,-5.3142943,-42.9375,-0.09375,19.29375,0.4160209,-0.61360157,0.5720504,994.35004, , , , 
2025-08-22 20:00:47.327,7.30768,-13.909478,-0.30867413,0.7669407,0.119653136,-5.1878457,-44.7,-5.86875,19.181252,0.4393057,-0.594422,0.5628752,994.35004, , , , 
2025-08-22 20:00:47.347,5.4125648,-13.158132,-1.6749759,0.7480039,-0.0019089525,-4.837209,-43.7625,-12.8625,19.181252,0.47621295,-0.5619393,0.5467205,994.33026, , , , 
2025-08-22 20:00:47.369,4.9531426,-12.232109,-2.28036,0.53114694,-0.06971494,-4.4609165,-41.71875,-16.40625,20.550001,0.50290555,-0.537512,0.53278893,994.28217, , , , 
2025-08-22 20:00:47.387,4.302295,-11.313266,-1.8927227,0.3460549,-0.16928591,-4.160371,-43.36875,-19.44375,21.206251,0.52646434,-0.5152949,0.5177919,994.28217, , , , 
2025-08-22 20:00:47.407,3.4193435,-10.162318,-1.6223338,0.19272783,-0.21143557,-3.8787622,-37.331253,-21.65625,19.3125,0.55252415,-0.48996478,0.49795067,994.25116, , , , 
2025-08-22 20:00:47.427,1.8592232,-9.597611,-1.5936198,0.076052666,-0.16806418,-3.577606,-37.350002,-26.75625,19.29375,0.57069457,-0.47112116,0.48189878,994.25116, , , , 
2025-08-22 20:00:47.447,0.5886344,-9.212367,-1.1988041,0.016187917,-0.07093667,-3.134118,-33.05625,-30.281252,17.5125,0.5858591,-0.45386127,0.46688357,994.23456, , , , 
2025-08-22 20:00:47.467,-0.5192425,-8.815159,-1.0432707,0.088269964,-0.06360629,-2.5727334,-31.556252,-31.406252,20.34375,0.59808564,-0.43862203,0.45419154,994.23456, , , , 
2025-08-22 20:00:47.487,-1.0935199,-8.807981,-1.8305093,0.097432934,-0.21387903,-1.8415282,-31.575,-35.025,21.31875,0.6081909,-0.42663893,0.4438491,994.2253, , , , 
2025-08-22 20:00:47.507,-1.8592232,-8.822337,-2.5268207,-0.043065965,-0.14973822,-1.0779473,-29.906252,-32.71875,19.0125,0.61555755,-0.4191596,0.43593612,994.2253, , , , 
2025-08-22 20:00:47.527,-2.0051854,-8.626125,-2.7110682,-0.3442223,0.19784383,-0.07735075,-30.31875,-35.268753,22.29375,0.61785924,-0.41669044,0.43169892,994.2082, , , , 
2025-08-22 20:00:47.547,-1.9645073,-8.508878,-2.347359,-0.59284425,0.57352567,0.7717513,-30.112501,-36.487503,21.712502,0.61261106,-0.41984534,0.43427163,994.2082, , , , 
2025-08-22 20:00:47.567,-1.4668003,-7.9633136,-1.4452649,-0.74556047,0.7781654,1.5298345,-29.587502,-34.800003,19.25625,0.6013047,-0.42735898,0.44205806,994.19525, , , , 
2025-08-22 20:00:47.587,-0.17228323,-7.5613194,0.09571291,-0.8005383,0.84719306,2.3942082,-32.831253,-35.006252,18.056252,0.58497506,-0.43920165,0.45412332,994.19525, , , , 
2025-08-22 20:00:47.607,1.8999012,-7.4775705,1.1365907,-0.5904008,0.9082796,3.0472226,-33.28125,-30.056252,16.425001,0.56505895,-0.45403486,0.46999076,994.20013, , , , 
2025-08-22 20:00:47.627,3.5126636,-8.118847,0.7298109,-0.38026333,0.81542814,3.3037858,-35.79375,-30.187502,16.556252,0.54884034,-0.46588928,0.48407716,994.20013, , , , 
2025-08-22 20:00:47.647,5.005785,-9.482756,-0.2009971,-0.02046397,-0.1796706,3.5438557,-37.443752,-27.618752,15.0375,0.5232253,-0.487516,0.50773436,994.20355, , , , 
2025-08-22 20:00:47.667,5.532206,-10.612168,-1.2729816,0.23915356,-1.1423935,3.7643778,-40.050003,-25.781252,17.5125,0.5075425,-0.5086437,0.5231896,994.20355, , , , 
2025-08-22 20:00:47.687,5.8743796,-11.856436,-2.6344976,0.23976442,-1.4160609,4.1217337,-41.362503,-21.956251,19.9125,0.4914248,-0.5391653,0.5389177,994.19867, , , , 
2025-08-22 20:00:47.707,6.3361945,-12.634104,-2.9240294,0.0015271619,-0.8803325,4.6592946,-42.768753,-19.59375,18.69375,0.47422567,-0.5649491,0.5518992,994.19867, , , , 
2025-08-22 20:00:47.727,7.587641,-13.062419,-2.6392834,-0.38331765,-0.012904518,5.111335,-41.756252,-13.89375,18.4125,0.45526493,-0.5843928,0.5632152,994.19867, , , , 
2025-08-22 20:00:47.747,9.638289,-13.119846,-1.0648061,-0.84329885,0.94370973,5.3788934,-44.268753,-11.043751,18.975,0.4105977,-0.6155171,0.58413017,994.19403, , , , 
2025-08-22 20:00:47.768,11.301301,-12.77528,0.4426722,-0.95020014,0.9443206,5.204797,-46.237503,-5.64375,17.475,0.36845887,-0.6381179,0.5998208,994.1982, , , , 
2025-08-22 20:00:47.787,11.4903345,-12.97867,0.6029913,-0.78709924,0.4641809,5.032533,-47.30625,-0.90000004,16.706251,0.32822084,-0.6584226,0.6124436,994.1982,37.88835086,127.73989878,150.10833740234375,1.76
2025-08-22 20:00:47.807,11.813365,-12.849458,0.47138608,-0.64415693,0.06101012,4.929908,-44.643753,5.8500004,17.4375,0.29154542,-0.6767367,0.6225555,994.2165, , , , 
2025-08-22 20:00:47.827,12.562319,-12.397214,0.6053841,-0.5158753,-0.17050762,4.801626,-43.93125,9.168751,14.700001,0.2576715,-0.69309366,0.6307006,994.2165, , , , 
2025-08-22 20:00:47.847,14.440684,-11.550155,0.18424734,-0.40591964,-0.04344776,4.446714,-44.475002,12.337501,15.806251,0.2185385,-0.7099297,0.63880634,994.2319, , , , 
2025-08-22 20:00:47.867,15.2063875,-10.480563,-1.6199409,-0.57696176,0.5759691,3.9794023,-42.112503,16.181252,17.5125,0.1880503,-0.7200912,0.64379454,994.2319, , , , 
2025-08-22 20:00:47.887,15.189638,-9.379865,-1.4093726,-1.0015128,1.1165844,3.582951,-40.2,19.650002,14.025001,0.15630347,-0.7294709,0.6456487,994.2365, , , , 
2025-08-22 20:00:47.907,15.6466675,-7.5661054,-0.09332009,-1.2880083,1.2314271,3.135798,-39.73125,22.78125,16.10625,0.124420136,-0.7389674,0.6440493,994.2365, , , , 
2025-08-22 20:00:47.927,15.677774,-6.2811594,1.7204394,-1.2067634,0.7378483,2.719799,-38.7,23.5125,15.806251,0.0959722,-0.7479754,0.6401363,994.24945, , , , 
2025-08-22 20:00:47.947,15.850058,-5.623133,3.65384,-0.74128443,0.10254893,2.3557236,-36.9375,26.437502,14.981251,0.07412658,-0.7552096,0.6364219,994.24945, , , , 
2025-08-22 20:00:47.967,17.012968,-5.4149575,3.7854455,0.066889696,-0.4191296,2.038074,-34.800003,28.3875,16.35,0.05960186,-0.7587813,0.6360572,994.2944, , , , 
2025-08-22 20:00:47.987,18.874584,-5.4819565,0.8709874,0.77304935,-0.69951653,1.5823689,-31.650002,30.206251,15.76875,0.05019451,-0.7567444,0.6421964,994.2944, , , , 
2025-08-22 20:00:48.007,20.291136,-5.7786665,-2.6344976,0.7638864,-0.71967506,1.0399209,-30.6375,32.193752,13.9875,0.048509344,-0.7526011,0.6489257,994.31903, , , , 
2025-08-22 20:00:48.028,21.207586,-5.9676995,-3.888337,0.3100139,-0.36415178,0.4577668,-32.025,30.4125,15.31875,0.04958038,-0.7504358,0.65208054,994.31903, , , , 
2025-08-22 20:00:48.047,21.54976,-7.542177,-2.132005,-0.44501498,0.49350238,-0.52144945,-31.518751,33.693752,15.8625,0.05291432,-0.75067735,0.6510709,994.2966, , , , 
2025-08-22 20:00:48.068,20.575882,-9.133404,-0.47377887,-0.64476776,0.951651,-1.2050071,-31.518751,32.34375,15.937501,0.056798104,-0.7526908,0.64616853,994.2966, , , , 
2025-08-22 20:00:48.087,19.054047,-10.284351,1.2514462,-0.5506946,1.1379647,-1.9985205,-31.931252,32.41875,15.50625,0.06305327,-0.7539401,0.6401111,994.3105, , , , 
2025-08-22 20:00:48.107,17.419748,-11.215159,1.8687944,-0.28252497,1.015181,-2.6839108,-34.3875,28.931252,15.975,0.07389867,-0.75302416,0.63429433,994.3105, , , , 
2025-08-22 20:00:48.127,14.397614,-12.519248,2.213361,0.0772744,0.71830064,-3.2776713,-36.15,25.781252,12.937501,0.095345534,-0.7480808,0.6279318,994.34, , , , 
2025-08-22 20:00:48.147,12.354143,-13.170095,2.696711,0.46700612,0.17890702,-3.5440085,-36.2625,26.643751,12.900001,0.11819606,-0.7412149,0.6238545,994.34, , , , 
2025-08-22 20:00:48.167,11.928221,-13.674981,2.902494,0.89094627,-0.67324936,-3.7327657,-41.006252,22.9125,14.85,0.14689839,-0.73215467,0.62086767,994.37006, , , , 
2025-08-22 20:00:48.188,13.100704,-14.455042,2.120041,1.235474,-1.7251585,-4.0711846,-42.206253,20.456251,12.168751,0.18318488,-0.7215238,0.6179674,994.37006, , , , 
2025-08-22 20:00:48.207,12.801601,-14.512469,1.5840486,1.3209951,-2.1130576,-4.3161416,-39.956253,18.5625,12.656251,0.22632048,-0.70972556,0.61332476,994.37933, , , , 
2025-08-22 20:00:48.227,12.500106,-13.952549,1.3854443,1.2305871,-1.8662683,-4.517727,-41.8125,14.718751,16.63125,0.27140218,-0.6963649,0.60653913,994.37933, , , , 
2025-08-22 20:00:48.247,11.303694,-13.579268,0.96909314,1.072984,-1.0208313,-4.650895,-41.11875,11.2875,20.925001,0.313886,-0.68046165,0.59839195,994.3674, , , , 
2025-08-22 20:00:48.267,10.360922,-13.019348,0.38763726,0.9178243,-0.14362958,-4.675941,-47.8125,6.4875,21.581251,0.3504427,-0.6614925,0.59037906,994.3674, , , , 
2025-08-22 20:00:48.287,9.518648,-12.35175,0.05742774,0.8616248,0.36583164,-4.6899905,-44.831253,4.3125,19.556252,0.3886773,-0.6340939,0.58096594,994.35004, , , , 
2025-08-22 20:00:48.307,8.7266245,-11.899507,-0.8805587,0.82191855,0.41103563,-4.6893797,-44.49375,-2.8500001,17.75625,0.41643736,-0.61015356,0.57297975,994.35004, , , , 
2025-08-22 20:00:48.327,7.7671022,-11.416157,-1.3184453,0.70585424,0.20761767,-4.653339,-42.99375,-7.6687503,18.0375,0.44343957,-0.5859294,0.5630793,994.3266, , , , 
2025-08-22 20:00:48.347,6.640083,-10.770095,-1.1796615,0.6191115,0.08605558,-4.54094,-43.612503,-10.6125,19.35,0.46969864,-0.56218004,0.5510658,994.3266, , , , 
2025-08-22 20:00:48.368,5.7810597,-10.403993,-1.3280165,0.5207622,0.026801692,-4.390667,-39.84375,-14.56875,17.625,0.494626,-0.5389051,0.53764564,994.3266, , , , 
2025-08-22 20:00:48.387,4.409972,-9.743574,-1.4380864,0.4395172,0.0029779659,-4.1579275,-41.2125,-18.431252,18.0,0.5176236,-0.5162494,0.52338094,994.30145, , , , 
2025-08-22 20:00:48.407,3.4695928,-9.188439,-1.6845472,0.2782489,-0.06666062,-3.8140106,-38.90625,-20.925001,16.5,0.5432585,-0.48975015,0.50493765,994.2797, , , , 
2025-08-22 20:00:48.427,2.4765713,-8.774481,-1.1389836,0.17928882,-0.042226028,-3.4322202,-37.3875,-27.13125,17.475,0.5607561,-0.47064954,0.49021146,994.2797, , , , 
2025-08-22 20:00:48.447,1.8735801,-8.403593,-0.8446664,0.19883649,-0.07093667,-3.0021713,-36.45,-30.91875,20.681252,0.5755736,-0.45339078,0.47673917,994.2536, , , , 
2025-08-22 20:00:48.467,1.308874,-8.327023,-1.2323036,0.21288638,-0.11369721,-2.5263076,-33.7125,-31.368752,18.2625,0.58829546,-0.4382511,0.46496016,994.2536, , , , 
2025-08-22 20:00:48.488,0.95712906,-7.984849,-1.4045869,0.22021675,-0.32139122,-2.0840416,-32.775,-33.018753,20.71875,0.596632,-0.42889813,0.45707124,994.2536, , , , 
2025-08-22 20:00:48.507,1.0815558,-7.9106717,-1.7682959,0.15363249,-0.8412372,-1.4719551,-30.0375,-35.475002,20.118752,0.6095144,-0.41875735,0.4442566,994.2336, , , , 
2025-08-22 20:00:48.527,0.6795616,-8.408379,-1.7467605,0.09498947,-0.9707405,-0.9594395,-30.393751,-35.756252,20.475,0.6188758,-0.4160598,0.433893,994.21625, , , , 
2025-08-22 20:00:48.547,-0.64845496,-8.618947,-2.0889342,0.00763581,-0.7428879,-0.1702022,-29.5125,-36.54375,19.650002,0.62684983,-0.4177901,0.4244968,994.21625, , , , 
2025-08-22 20:00:48.567,-1.8017955,-8.29113,-2.5196424,-0.18845178,-0.2248746,0.74792755,-27.900002,-35.23125,17.71875,0.62799114,-0.4215455,0.4226291,994.2038, , , , 
2025-08-22 20:00:48.587,-1.9908284,-7.348358,-2.6105695,-0.5525272,0.43608108,1.8181627,-29.8875,-36.09375,21.206251,0.6203914,-0.4329229,0.42837545,994.2038, , , , 
2025-08-22 20:00:48.607,0.16510476,-7.2358956,-1.2921243,-0.8597922,0.9846377,2.6715407,-29.906252,-35.5875,19.48125,0.60433424,-0.4469186,0.44074267,994.1962, , , , 
2025-08-22 20:00:48.627,2.009971,-8.322237,-0.36131623,-0.8848376,1.2069924,3.1742826,-31.95,-33.412502,18.65625,0.5878077,-0.4591295,0.45341516,994.1962, , , , 
2025-08-22 20:00:48.647,4.3669014,-10.375279,-0.28953153,-0.6343831,0.9351576,3.632431,-35.53125,-30.91875,18.2625,0.55621344,-0.48143092,0.4781371,994.20795, , , , 
2025-08-22 20:00:48.667,5.0536413,-11.990435,-0.69152576,-0.38209593,0.18073961,4.0441537,-36.75,-29.04375,17.5125,0.5312099,-0.5018284,0.4979671,994.20795, , , , 
2025-08-22 20:00:48.687,6.812366,-13.095919,-1.2849457,-0.0858265,-0.86567175,4.562778,-38.5125,-25.500002,16.725,0.5083535,-0.5265,0.5159332,994.2016, , , , 
2025-08-22 20:00:48.707,10.13839,-12.459428,-3.196811,0.06139191,-1.6793436,4.7924633,-39.54375,-21.018751,18.431252,0.48351148,-0.5626608,0.5344192,994.2016, , , , 
2025-08-22 20:00:48.727,11.265409,-11.210374,-4.4051867,-0.27763805,-1.691561,4.603706,-41.006252,-17.325,20.0625,0.4652409,-0.5923748,0.5444276,994.18646, , , , 
2025-08-22 20:00:48.747,10.090533,-10.497313,-2.2875385,-0.6734784,-1.0751984,4.4711485,-42.35625,-13.743751,21.393751,0.44413224,-0.62061805,0.5511094,994.18646, , , , 
2025-08-22 20:00:48.767,8.872586,-10.724631,-0.5599205,-0.79076445,-0.23037238,4.63486,-43.65,-9.900001,22.3875,0.4171869,-0.6460315,0.5584079,994.1796, , , , 
2025-08-22 20:00:48.787,9.353543,-10.932807,0.7106683,-0.75961035,0.440968,4.9085274,-44.475002,-4.7250004,19.875,0.38331762,-0.6686144,0.56831497,994.1796,37.88833468,127.73990016,150.17626953125,1.81
2025-08-22 20:00:48.807,10.810773,-10.779666,1.7611175,-0.4725039,0.6743184,4.9806094,-46.29375,-0.35625002,24.13125,0.34496474,-0.68788725,0.5802507,994.2045, , , , 
2025-08-22 20:00:48.827,11.830115,-11.25823,1.5361922,-0.05222894,0.34689483,4.8956995,-43.74375,3.9375002,19.29375,0.30699608,-0.70335484,0.5929209,994.2045, , , , 
2025-08-22 20:00:48.847,13.746766,-11.5621195,-0.2536392,0.29840744,0.053679742,4.748481,-43.800003,11.00625,20.90625,0.26410744,-0.717842,0.60869783,994.2233, , , , 
2025-08-22 20:00:48.867,14.641682,-10.18146,-1.6438692,0.2855793,0.2851975,4.4479356,-43.21875,12.95625,17.962502,0.23228095,-0.7262478,0.6201623,994.2233, , , , 
2025-08-22 20:00:48.887,14.763716,-9.209974,-2.3952155,0.04856375,0.62422746,4.1541095,-39.6375,15.431251,18.206251,0.20855293,-0.73138946,0.62721807,994.2233, , , , 
2025-08-22 20:00:48.907,14.897714,-8.518449,-0.70348984,-0.29962918,1.0713805,3.7057347,-40.21875,18.6,20.41875,0.16829346,-0.7394556,0.63484,994.21893, , , , 
2025-08-22 20:00:48.927,15.873985,-7.460821,0.3397808,-0.16340633,0.9699769,3.2787404,-38.456253,20.53125,17.962502,0.13773516,-0.7442256,0.6392254,994.2255, , , , 
2025-08-22 20:00:48.947,16.814365,-6.735796,-0.4761717,-0.017409647,0.8349758,2.860298,-38.53125,24.0,19.612501,0.111582,-0.7466694,0.6435158,994.2255, , , , 
2025-08-22 20:00:48.967,18.82912,-5.812166,-0.44027936,-0.074830934,0.7622829,2.4504077,-37.125,27.018751,16.66875,0.08886756,-0.7480955,0.64698136,994.24554, , , , 
2025-08-22 20:00:48.987,20.949162,-5.1852465,0.63888365,0.03084867,0.621784,1.5732058,-32.53125,30.750002,13.968751,0.06723088,-0.74895155,0.6496455,994.24554, , , , 
2025-08-22 20:00:49.007,20.264814,-5.871987,-0.15792629,0.2715294,0.3908771,0.7271582,-32.081253,29.41875,15.075001,0.05850388,-0.74767345,0.65196574,994.2546, , , , 
2025-08-22 20:00:49.027,18.927227,-5.977271,-1.6151553,0.31551164,0.24549128,0.18409938,-32.737503,29.85,15.900001,0.056558363,-0.7458888,0.65386677,994.2546, , , , 
2025-08-22 20:00:49.047,17.984455,-6.0729837,-2.361716,0.045509428,0.4739547,-0.40171996,-32.0625,33.037502,13.781251,0.05834036,-0.74355865,0.65514505,994.25336, , , , 
2025-08-22 20:00:49.068,16.902899,-7.216753,-1.4620147,-0.2122755,0.7812197,-0.82810354,-33.0,29.831251,13.762501,0.060987655,-0.7429251,0.6534383,994.25336, , , , 
2025-08-22 20:00:49.087,16.369299,-7.716853,0.27756742,-0.11636974,0.45135272,-1.1891247,-33.9375,29.60625,14.493751,0.065285824,-0.7424242,0.6505948,994.2663, , , , 
2025-08-22 20:00:49.107,16.701902,-8.30788,0.83748794,0.11026109,-0.20349433,-1.661934,-33.6375,29.00625,15.1125,0.07522819,-0.74092615,0.6482632,994.2663, , , , 
2025-08-22 20:00:49.127,16.52244,-9.731609,1.3974084,0.25198174,-0.8784999,-2.4151304,-35.9625,28.1625,13.087501,0.0991265,-0.73773664,0.6451626,994.2917, , , , 
2025-08-22 20:00:49.147,15.098711,-11.413764,2.036292,0.37048948,-1.3287072,-3.070588,-37.050003,25.81875,13.950001,0.12732024,-0.7339338,0.6415198,994.2917, , , , 
2025-08-22 20:00:49.168,13.249059,-13.100704,2.8426733,0.56413364,-1.6420809,-3.437718,-38.643753,25.25625,16.0125,0.16126293,-0.72842187,0.63701725,994.31366, , , , 
2025-08-22 20:00:49.187,12.454642,-14.297115,2.861816,0.85490525,-1.8467206,-3.537289,-39.862503,22.893751,15.656251,0.19809201,-0.7204897,0.6328086,994.31366, , , , 
2025-08-22 20:00:49.207,12.638889,-14.16551,1.6749759,1.046106,-1.9853868,-3.6075382,-41.850002,18.09375,16.125,0.23637532,-0.71020824,0.6289944,994.33514, , , , 
2025-08-22 20:00:49.228,12.600604,-13.189239,0.7106683,0.9740239,-1.8002949,-3.736431,-42.487503,16.518751,17.362501,0.27506933,-0.6983085,0.624322,994.33514, , , , 
2025-08-22 20:00:49.247,12.2584305,-12.172289,-0.2321038,0.72540194,-1.3506984,-3.9447358,-39.73125,14.306251,18.13125,0.3123571,-0.68516654,0.6180197,994.34125, , , , 
2025-08-22 20:00:49.267,11.586047,-11.609976,-0.715454,0.35399613,-0.71295553,-4.1493754,-39.525,12.7875,23.456251,0.34664336,-0.6710814,0.6097605,994.34125, , , , 
2025-08-22 20:00:49.287,10.796415,-11.456835,-0.51206404,-0.021685699,0.053679742,-4.413269,-44.5125,5.3250003,21.0,0.38371974,-0.6519673,0.5971365,994.33, , , , 
2025-08-22 20:00:49.307,9.939785,-11.645867,-0.11724831,-0.18173227,0.55642146,-4.6001935,-42.525,5.6625004,20.306252,0.40908125,-0.6345827,0.58606803,994.33, , , , 
2025-08-22 20:00:49.327,8.980264,-11.813365,0.3469593,-0.17928882,0.7897718,-4.693656,-43.3125,-0.28125,21.65625,0.42632893,-0.62004465,0.5775341,994.33, , , , 
2025-08-22 20:00:49.347,7.6019974,-11.928221,0.5694918,-0.0070249448,0.84658223,-4.671054,-43.59375,-5.90625,23.25,0.4530911,-0.5930626,0.56336695,994.30707, , , , 
2025-08-22 20:00:49.367,6.3290157,-11.6339035,0.57188463,0.17195843,0.3835467,-4.5653744,-44.11875,-10.181251,20.306252,0.4743552,-0.5701467,0.5515872,994.2968, , , , 
2025-08-22 20:00:49.387,4.867001,-10.906486,0.96909314,0.47922343,-0.6946296,-4.345463,-43.2,-15.806251,20.212502,0.49854174,-0.5484401,0.53726965,994.2968, , , , 
2025-08-22 20:00:49.407,3.9194436,-10.4351,0.14596218,0.6050616,-1.3494767,-4.0626326,-40.59375,-19.518751,20.775002,0.5263493,-0.5291977,0.51991725,994.28754, , , , 
2025-08-22 20:00:49.427,3.251846,-9.533006,-0.6221339,0.4865538,-1.420337,-3.6612945,-38.86875,-22.462502,22.462502,0.561116,-0.5085349,0.49591857,994.28754, , , , 
2025-08-22 20:00:49.447,2.507678,-8.599805,-1.1653047,0.28252497,-1.0446551,-3.3118799,-37.125,-26.156252,22.63125,0.58495766,-0.493564,0.47739854,994.26776, , , , 
2025-08-22 20:00:49.468,1.6510476,-8.544769,-1.8113668,-0.022907428,-0.44478592,-2.908709,-35.4,-27.6,24.243752,0.60320634,-0.47921723,0.46143922,994.26776, , , , 
2025-08-22 20:00:49.487,0.76570326,-8.999406,-1.9046868,-0.26603162,-0.069104075,-2.353433,-32.49375,-31.29375,24.91875,0.61561733,-0.46625155,0.44857234,994.2575, , , , 
2025-08-22 20:00:49.507,-0.11964113,-9.066405,-1.8257236,-0.33322674,-7.63581E-5,-1.716301,-31.06875,-32.25,24.35625,0.62356484,-0.4559514,0.43858403,994.2575, , , , 
2025-08-22 20:00:49.528,-0.5407779,-8.925228,-1.8257236,-0.36132652,0.031077746,-1.0858885,-28.29375,-32.568752,21.0,0.62801605,-0.44960678,0.43147436,994.2575, , , , 
2025-08-22 20:00:49.547,-0.6963114,-8.374879,-1.8089739,-0.40775225,0.109268434,-0.27527094,-30.6375,-32.9625,24.975,0.62896264,-0.44752145,0.42764887,994.2397, , , , 
2025-08-22 20:00:49.567,-0.5288138,-8.451449,-1.6486548,-0.4639518,0.2088394,0.4418843,-29.400002,-33.675003,21.6375,0.6262725,-0.4495526,0.42728755,994.23676, , , , 
2025-08-22 20:00:49.587,-0.79441714,-8.29113,-1.0815558,-0.4572323,0.3853793,1.3117558,-30.825,-34.612503,25.237501,0.6172846,-0.45769548,0.43248248,994.23676, , , , 
2025-08-22 20:00:49.607,-0.059820566,-7.8436728,-0.59342,-0.40775225,0.49228066,2.0881648,-30.91875,-33.956253,21.65625,0.6054134,-0.46848202,0.44166735,994.2221, , , , 
2025-08-22 20:00:49.627,1.820938,-8.035098,-0.46181476,-0.3234529,0.5032762,2.6697083,-32.006252,-30.712502,20.5125,0.5900274,-0.48255524,0.45451096,994.2221, , , , 
2025-08-22 20:00:49.647,3.5988052,-9.107083,-0.526421,-0.123089254,0.48556113,3.050277,-32.831253,-28.931252,21.4125,0.572371,-0.49844742,0.4697802,994.2199, , , , 
2025-08-22 20:00:49.669,3.7830527,-10.468599,-1.5194423,0.054672398,0.34628397,3.4222937,-35.98125,-27.768751,21.993752,0.55350775,-0.51504797,0.48685575,994.2199, , , , 
2025-08-22 20:00:49.687,4.5320063,-11.485549,-2.1870399,0.13530655,-0.0037415468,3.9012115,-39.881252,-26.04375,21.84375,0.5334814,-0.53372085,0.5046353,994.216, , , , 
2025-08-22 20:00:49.707,5.7379885,-11.99522,-3.1369905,0.083383046,-0.20044,4.40884,-38.737503,-22.050001,19.181252,0.5063838,-0.5610023,0.5262651,994.216, , , , 
2025-08-22 20:00:49.727,6.704689,-12.05504,-3.6227336,-0.228158,0.0891099,4.7729154,-41.90625,-18.0375,21.28125,0.48038465,-0.5847248,0.5431115,994.1989, , , , 
2025-08-22 20:00:49.747,8.020741,-12.162718,-2.5148566,-0.6215549,0.36216646,5.053303,-41.550003,-14.775001,21.375,0.44850713,-0.6093269,0.5590806,994.1989, , , , 
2025-08-22 20:00:49.767,9.676575,-11.818151,-0.4977071,-0.75411254,0.3908771,5.1644797,-43.125,-8.94375,20.118752,0.41240406,-0.6339565,0.5733636,994.1962, , , , 
2025-08-22 20:00:49.788,10.703095,-11.542976,0.997807,-0.5677988,0.37621635,5.1125565,-46.331253,-3.05625,19.35,0.37520504,-0.6564574,0.58634615,994.1962,37.88832196,127.73990767,150.155517578125,1.73
2025-08-22 20:00:49.807,12.57189,-11.485549,1.7036897,-0.24159703,0.20945026,5.033755,-45.61875,0.50625,19.5375,0.33850947,-0.6755357,0.59898955,994.22064, , , , 
2025-08-22 20:00:49.827,14.739787,-11.12184,0.8207382,0.04734202,0.059177525,4.724046,-42.675003,5.775,21.243752,0.30455187,-0.69060016,0.6113166,994.22064, , , , 
2025-08-22 20:00:49.847,15.299708,-10.645668,-1.5002998,-0.1432478,0.22288929,4.1192904,-43.050003,8.625,16.800001,0.27423432,-0.7020781,0.62182844,994.2436, , , , 
2025-08-22 20:00:49.867,14.208581,-9.896714,-0.8279166,-0.60689414,0.52343476,3.6666396,-42.2625,12.0375,19.9125,0.24533592,-0.71276814,0.6282012,994.2436, , , , 
2025-08-22 20:00:49.887,13.088739,-9.188439,2.0410776,-0.6673698,0.43669197,3.311727,-40.612503,16.35,16.556252,0.21038973,-0.72570354,0.6315123,994.2431, , , , 
2025-08-22 20:00:49.907,12.404392,-8.9348,3.1393833,-0.0736092,0.24610215,3.2176538,-41.8125,16.331251,18.69375,0.18543525,-0.73304695,0.63481754,994.2431, , , , 
2025-08-22 20:00:49.927,13.009777,-8.181061,0.6891329,0.48227775,0.18318307,3.2286494,-39.9,19.3875,19.40625,0.16255125,-0.735911,0.64180475,994.27386, , , , 
2025-08-22 20:00:49.947,15.014962,-6.6975107,-2.603391,0.46273008,0.5319869,3.0062947,-37.256252,23.53125,17.34375,0.14038475,-0.73633057,0.64998335,994.27386, , , , 
2025-08-22 20:00:49.967,15.960127,-5.276174,-3.603591,0.00641408,0.9418771,2.5426483,-36.43125,24.843752,18.73125,0.11797913,-0.73698974,0.6557579,994.2685, , , , 
2025-08-22 20:00:49.987,16.053448,-5.029713,-2.4430718,-0.36193737,0.9730312,1.9177337,-36.018753,27.393751,15.918751,0.09711384,-0.7392868,0.6574738,994.2685, , , , 
2025-08-22 20:00:50.007,14.914464,-5.6350975,-0.90448695,-0.39920014,0.67065316,1.3209187,-34.575,29.531252,16.725,0.07763856,-0.7429763,0.6561956,994.26117, , , , 
2025-08-22 20:00:50.027,14.567504,-6.611369,-0.31106696,-0.20494513,0.30718863,1.0191516,-34.3875,28.312502,16.462502,0.06980998,-0.74461985,0.65532386,994.26117, , , , 
2025-08-22 20:00:50.047,15.393028,-7.585248,-1.2658032,0.016187917,-0.17600541,0.70272356,-31.48125,30.862501,14.325001,0.06320007,-0.74565756,0.6552791,994.2756, , , , 
2025-08-22 20:00:50.067,16.345371,-7.501499,-2.0315065,-0.02046397,-0.34338236,0.28794637,-31.425001,31.85625,13.63125,0.063351825,-0.74597543,0.6553396,994.2756, , , , 
2025-08-22 20:00:50.087,16.754543,-8.128419,-1.5601203,-0.25442517,-0.06788235,-0.28076872,-30.562502,30.337502,13.481251,0.06672644,-0.7468789,0.6539095,994.279, , , , 
2025-08-22 20:00:50.107,16.338194,-8.439486,-0.078963146,-0.21838416,0.24915648,-0.7474694,-31.06875,31.63125,16.5375,0.07165376,-0.74800205,0.6511544,994.279, , , , 
2025-08-22 20:00:50.127,15.969698,-8.099705,0.148355,-0.025961753,0.3841576,-1.092608,-32.04375,31.050001,14.3625,0.07788096,-0.7474728,0.6492385,994.279, , , , 
2025-08-22 20:00:50.147,16.421942,-8.516056,-0.19621146,0.07116575,0.15202898,-1.6668209,-32.081253,29.41875,15.075001,0.087251715,-0.74538493,0.6479708,994.2873, , , , 
2025-08-22 20:00:50.167,16.756937,-9.573684,0.1698904,0.16340633,-0.2926806,-2.3809218,-33.35625,29.775002,17.04375,0.10272264,-0.7425217,0.64594364,994.2873, , , , 
2025-08-22 20:00:50.187,15.737595,-11.243874,0.6867401,0.3423897,-0.8558979,-3.12129,-34.987503,26.75625,16.3125,0.13333514,-0.737078,0.6421093,994.3073, , , , 
2025-08-22 20:00:50.207,14.608182,-12.524034,0.85902333,0.503658,-1.1460587,-3.5702755,-37.631252,25.125002,14.83125,0.16511264,-0.73062956,0.63819146,994.3288, , , , 
2025-08-22 20:00:50.227,13.919049,-13.622339,0.57906306,0.5751292,-1.3171008,-3.880595,-37.96875,22.21875,16.875,0.20024896,-0.7222172,0.6334922,994.3288, , , , 
2025-08-22 20:00:50.247,13.361522,-13.9023,0.19142582,0.49999282,-1.3781873,-4.087067,-41.025,20.15625,17.325,0.23730704,-0.7123995,0.62725383,994.34467, , , , 
2025-08-22 20:00:50.267,13.256237,-13.46202,0.74895346,0.36376998,-1.36597,-4.231231,-41.006252,18.7875,17.400002,0.27489164,-0.7018021,0.6187706,994.34467, , , , 
2025-08-22 20:00:50.287,13.062419,-12.772887,0.72263247,0.2159407,-1.0312161,-4.517727,-41.23125,15.000001,20.1,0.31212336,-0.68994033,0.60832953,994.3483, , , , 
2025-08-22 20:00:50.307,11.58844,-12.406785,1.442872,0.08888082,-0.25541782,-4.7810097,-40.537502,10.6875,23.362501,0.3555105,-0.67182267,0.5934968,994.3483, , , , 
2025-08-22 20:00:50.327,10.013963,-12.390036,1.6606189,0.18539746,0.29497132,-4.886689,-47.98125,5.71875,22.575,0.37867132,-0.6583381,0.5850328,994.3483, , , , 
2025-08-22 20:00:50.347,8.243274,-12.284752,1.2323036,0.38209593,0.6566033,-4.815218,-43.2,-2.0062501,20.98125,0.41300452,-0.63146347,0.5729313,994.3481, , , , 
2025-08-22 20:00:50.367,7.1186476,-11.79183,0.8877372,0.5861248,0.544815,-4.66128,-43.78125,-5.6625004,20.00625,0.43828398,-0.60755265,0.56423503,994.34735, , , , 
2025-08-22 20:00:50.387,6.680761,-11.076376,0.38285163,0.7351758,0.11232276,-4.462749,-43.518753,-10.743751,21.65625,0.46356755,-0.58324116,0.5549853,994.34735, , , , 
2025-08-22 20:00:50.407,5.1924253,-10.470992,-0.26799613,0.765719,-0.19372049,-4.187249,-42.506252,-13.63125,22.95,0.48938665,-0.5597417,0.5442118,994.3278, , , , 
2025-08-22 20:00:50.427,4.5966125,-9.769895,-0.48095736,0.69180435,-0.31528258,-3.8243954,-40.256252,-17.868752,21.112501,0.51404035,-0.5379437,0.5324889,994.3278, , , , 
2025-08-22 20:00:50.448,4.4554358,-9.08794,-0.50488555,0.58001614,-0.21876594,-3.5000262,-39.956253,-19.10625,22.987501,0.54130834,-0.51293564,0.5177468,994.3095, , , , 
2025-08-22 20:00:50.467,3.5964124,-8.499306,-0.33499518,0.5335904,-0.11064288,-3.24835,-38.11875,-21.75,20.79375,0.5599593,-0.49376556,0.5067555,994.3095, , , , 
2025-08-22 20:00:50.487,3.2757742,-8.535198,0.19860429,0.5922334,-0.46860963,-2.9868996,-35.943752,-24.656252,22.893751,0.5770866,-0.47582024,0.49603552,994.2773, , , , 
2025-08-22 20:00:50.507,2.7948167,-9.008977,-0.05503492,0.7547234,-1.0141119,-2.7792056,-36.3375,-28.1625,20.962502,0.5955991,-0.46044752,0.48365143,994.2773, , , , 
2025-08-22 20:00:50.527,0.36131623,-8.774481,-1.5337993,0.70707595,-1.0819179,-2.3271658,-34.21875,-28.35,23.53125,0.6147083,-0.4473469,0.47045037,994.26166, , , , 
2025-08-22 20:00:50.547,-1.3471591,-8.142776,-2.0673988,0.4327977,-0.78625935,-1.6747621,-31.725,-31.725,26.550001,0.63055646,-0.43722516,0.45879582,994.26166, , , , 
2025-08-22 20:00:50.567,-2.2301106,-7.771888,-0.96909314,0.22082762,-0.4869356,-0.8671989,-31.500002,-32.925003,25.218752,0.64076155,-0.43105677,0.45056057,994.2309, , , , 
2025-08-22 20:00:50.587,-1.6247265,-8.185846,-0.2727818,0.28619015,-0.35743225,2.290743E-4,-29.212502,-31.593752,26.437502,0.6456926,-0.4292738,0.44706416,994.2309, , , , 
2025-08-22 20:00:50.607,-0.26799613,-9.257831,-1.3280165,0.4535671,-0.22243114,0.9366848,-29.531252,-30.900002,28.44375,0.6467291,-0.43326128,0.44976306,994.2214, , , , 
2025-08-22 20:00:50.627,0.9403793,-8.702696,-2.5124638,0.31428993,-0.03367392,1.6306272,-30.056252,-30.806252,25.706251,0.64447427,-0.43895742,0.45482025,994.2214, , , , 
2025-08-22 20:00:50.647,3.5102708,-8.516056,-3.0556345,-0.10598504,0.36460993,2.2158356,-29.98125,-29.56875,27.6375,0.6339606,-0.45375448,0.46723095,994.2109, , , , 
2025-08-22 20:00:50.667,4.220939,-9.360723,-2.9096723,-0.5720749,0.93332505,2.634278,-32.41875,-28.687502,26.456251,0.6191923,-0.4685887,0.47962135,994.2109, , , , 
2025-08-22 20:00:50.687,4.3357944,-10.2723875,-1.902294,-0.9141591,1.4452298,3.0600507,-35.625,-26.5125,25.275002,0.59772456,-0.48510328,0.49487093,994.2043, , , , 
2025-08-22 20:00:50.707,4.2520456,-10.750952,-0.65084773,-0.95386535,1.340161,3.4864345,-36.412502,-23.962502,23.831251,0.5707882,-0.50343186,0.5121071,994.2043, , , , 
2025-08-22 20:00:50.727,4.6707897,-11.131411,-0.8853444,-0.9098831,1.1324669,3.8645597,-38.9625,-22.743752,24.6375,0.54186064,-0.5240844,0.5292346,994.2043, , , , 
2025-08-22 20:00:50.747,6.1710896,-11.389835,-1.698904,-1.1530073,1.5142574,4.319654,-40.95,-20.550001,21.018751,0.5010928,-0.55203503,0.5509673,994.20746, , , , 
2025-08-22 20:00:50.767,7.4656067,-11.215159,-0.31585258,-1.3845251,1.5851177,4.4216685,-44.68125,-17.962502,21.581251,0.46273285,-0.5747018,0.56811094,994.20917, , , , 
2025-08-22 20:00:50.788,8.329415,-10.707881,0.7704889,-1.2421936,0.91438824,4.3184323,-43.706253,-11.868751,19.575,0.42464474,-0.5969914,0.58243096,994.20917,37.88830759,127.73991542,150.43975830078125,1.65
2025-08-22 20:00:50.807,7.8293157,-10.313066,1.0217353,-0.9392046,-0.053221595,4.1797657,-45.318752,-8.2875,18.46875,0.3919984,-0.6186708,0.5928907,994.2297, , , , 
2025-08-22 20:00:50.827,7.501499,-10.547563,1.1796615,-0.7144064,-0.50342894,4.2775044,-44.5125,-3.825,15.50625,0.36423275,-0.63984716,0.60073715,994.2297, , , , 
2025-08-22 20:00:50.847,9.255438,-11.145768,0.27517462,-0.46517354,-0.31039566,4.540176,-45.43125,1.1812501,16.237501,0.33707124,-0.6596564,0.60866207,994.2541, , , , 
2025-08-22 20:00:50.867,11.073983,-11.624332,-1.0360922,-0.54764026,0.42447466,4.5749955,-44.456253,2.8312502,22.368752,0.30649674,-0.6768505,0.6176614,994.2541, , , , 
2025-08-22 20:00:50.887,11.882757,-11.856436,-1.4715859,-0.85368353,1.0396155,4.5078,-42.80625,9.76875,16.237501,0.26151618,-0.6952959,0.6280867,994.2741, , , , 
2025-08-22 20:00:50.907,12.693924,-11.523834,-1.1006985,-1.1267401,1.0304525,4.400899,-43.237503,12.6,15.056251,0.22283643,-0.7092446,0.63351524,994.2741, , , , 
2025-08-22 20:00:50.927,13.79223,-10.951949,0.485743,-1.2049308,0.61750793,4.074697,-44.86875,13.312501,15.168751,0.18633495,-0.7228551,0.6354291,994.2861, , , , 
2025-08-22 20:00:50.947,14.167903,-10.066605,1.7204394,-0.99234986,0.20273075,3.5994444,-40.78125,20.550001,16.35,0.15513605,-0.73473483,0.635375,994.2861, , , , 
2025-08-22 20:00:50.967,14.337793,-9.281759,2.132005,-0.70585424,0.1343139,3.198717,-39.862503,22.143751,16.1625,0.12912582,-0.7439342,0.6351084,994.2861, , , , 
2025-08-22 20:00:50.987,14.641682,-7.743174,1.9908284,-0.36132652,0.3994292,2.8132613,-37.93125,22.96875,15.6,0.10611705,-0.7498509,0.63598806,994.3149, , , , 
2025-08-22 20:00:51.007,14.746966,-6.7932234,1.1892328,-0.08460477,0.5851321,2.3551128,-39.581253,25.031252,16.425001,0.08511555,-0.7525158,0.63833493,994.33, , , , 
2025-08-22 20:00:51.028,14.526826,-6.2787666,-0.1363909,0.10293072,0.65538156,1.8590906,-35.268753,28.10625,14.718751,0.06289185,-0.75269747,0.6423366,994.33, , , , 
2025-08-22 20:00:51.047,14.244473,-6.13759,-1.1820544,0.1065959,0.52160215,1.4699697,-34.706253,28.893751,16.3125,0.048860632,-0.75184333,0.64526635,994.3205, , , , 
2025-08-22 20:00:51.067,14.691931,-6.7501526,-1.5026926,0.057726722,0.17463097,1.1138356,-35.1375,28.63125,13.125001,0.039030194,-0.7513011,0.6471686,994.3205, , , , 
2025-08-22 20:00:51.087,15.330814,-7.812566,-1.6486548,-0.057115857,-0.061773703,0.7088322,-31.237501,30.525002,12.618751,0.03387032,-0.75138,0.64795333,994.31854, , , , 
2025-08-22 20:00:51.107,16.223337,-8.140383,-1.5816557,-0.27336198,0.040240716,0.32887432,-31.050001,31.406252,12.543751,0.031862732,-0.75230175,0.64725536,994.31854, , , , 
2025-08-22 20:00:51.127,17.142181,-8.729017,-0.4546363,-0.4865538,0.31451902,-0.16165009,-32.5875,31.875002,13.293751,0.031605292,-0.75426614,0.64448595,994.3178, , , , 
2025-08-22 20:00:51.147,16.855043,-9.044869,1.1437693,-0.4657844,0.5283217,-0.6637809,-30.675001,29.812502,14.606251,0.033193998,-0.75640017,0.6403504,994.3178, , , , 
2025-08-22 20:00:51.167,16.266409,-8.839087,2.143969,-0.20983206,0.44768754,-1.1854595,-32.568752,31.25625,13.481251,0.037589327,-0.7572227,0.63660973,994.33295, , , , 
2025-08-22 20:00:51.187,15.287744,-9.30808,2.2037897,0.15424335,0.100105464,-1.824424,-32.98125,31.331251,13.368751,0.05072653,-0.7554326,0.63378304,994.33295, , , , 
2025-08-22 20:00:51.207,14.08894,-10.018748,1.9860427,0.3741547,-0.061773703,-2.312505,-33.75,30.50625,13.33125,0.06760789,-0.75187373,0.6325747,994.3527, , , , 
2025-08-22 20:00:51.227,12.492927,-10.686346,2.0817556,0.5335904,-0.06788235,-2.5977788,-35.456253,27.843752,13.81875,0.082692824,-0.74807024,0.6319108,994.3527, , , , 
2025-08-22 20:00:51.247,11.559726,-10.887343,2.2827528,0.84024453,-0.23037238,-2.8402922,-36.3375,26.38125,14.00625,0.11028306,-0.7393568,0.63154215,994.37885, , , , 
2025-08-22 20:00:51.267,11.432906,-11.265409,1.9669002,1.1004729,-0.65064734,-3.0583708,-39.862503,24.7875,12.150001,0.1356182,-0.73021966,0.6320735,994.37885, , , , 
2025-08-22 20:00:51.287,11.358729,-11.609976,1.4763715,1.2513565,-1.1906518,-3.2782822,-39.487503,21.6,12.281251,0.16558594,-0.7197362,0.63242286,994.3859, , , , 
2025-08-22 20:00:51.307,11.739188,-11.327622,1.6701902,1.3051126,-1.659796,-3.5165195,-39.9375,17.19375,12.731251,0.20935103,-0.705782,0.6308338,994.3859, , , , 
2025-08-22 20:00:51.327,11.741581,-11.073983,1.4356936,1.2483022,-1.560225,-3.776748,-42.075,17.587502,14.175,0.24715176,-0.69334376,0.6275559,994.3859, , , , 
2025-08-22 20:00:51.347,11.880364,-11.148161,1.0145568,1.0876447,-1.0727549,-4.034533,-42.2625,14.156251,19.181252,0.28411248,-0.679124,0.62258184,994.3857, , , , 
2025-08-22 20:00:51.367,12.428321,-11.397015,0.7896315,0.94164807,-0.52053314,-4.345463,-47.643753,10.63125,18.393751,0.31857157,-0.66277325,0.61619186,994.37885, , , , 
2025-08-22 20:00:51.388,11.727223,-11.897114,0.30149564,0.8323033,0.047571093,-4.7455792,-42.16875,2.7562501,16.275002,0.35087463,-0.6435122,0.6086421,994.37885, , , , 
2025-08-22 20:00:51.407,10.114461,-12.193824,-0.5766702,0.7192933,0.45562875,-4.9441104,-42.43125,0.84375006,17.643751,0.38109702,-0.62133235,0.60000587,994.3547, , , , 
2025-08-22 20:00:51.429,8.271988,-12.165111,-1.0456635,0.5531381,0.6840922,-4.8915763,-44.04375,-5.6625004,17.56875,0.40834686,-0.59740597,0.59023094,994.3547, , , , 
2025-08-22 20:00:51.448,6.5898337,-11.796616,-0.45224348,0.4413498,0.48861545,-4.5879765,-45.0,-8.25,17.04375,0.43813375,-0.567786,0.5763184,994.3276, , , , 
2025-08-22 20:00:51.467,6.087341,-11.191232,-0.27996024,0.47739083,0.17646356,-4.3253045,-44.15625,-13.725,14.175,0.45528394,-0.5510302,0.56701744,994.3276, , , , 
2025-08-22 20:00:51.487,5.7140603,-10.265209,-0.5694918,0.48044515,0.07078396,-4.078515,-43.537502,-17.79375,15.58125,0.48294282,-0.52453464,0.5505864,994.3134, , , , 
2025-08-22 20:00:51.507,4.5678983,-9.332008,-1.2251252,0.44623673,-0.0080176005,-3.8885362,-42.24375,-21.0,13.312501,0.50355613,-0.5038789,0.5370602,994.3134, , , , 
2025-08-22 20:00:51.527,3.306881,-8.927621,-1.4356936,0.35033095,-0.10758856,-3.6594617,-39.9,-23.00625,15.637501,0.51819223,-0.48921585,0.52639544,994.3134, , , , 
2025-08-22 20:00:51.547,1.5696917,-8.796016,-1.4715859,0.23243405,-0.17356196,-3.147557,-38.550003,-25.743752,16.425001,0.5399584,-0.46727255,0.5085018,994.29, , , , 
2025-08-22 20:00:51.567,0.46181476,-8.693125,-1.4333007,0.17134757,-0.24197881,-2.5275295,-35.925003,-30.300001,13.481251,0.5543141,-0.4527328,0.4954588,994.2675, , , , 
2025-08-22 20:00:51.587,0.40677986,-8.633304,-1.4093726,0.16829325,-0.3739256,-1.8861214,-35.943752,-30.093752,17.493752,0.56583077,-0.44199517,0.48445487,994.2675, , , , 
2025-08-22 20:00:51.607,-0.031106694,-8.413164,-2.0554347,0.091324285,-0.33727372,-1.2062289,-34.875,-32.100002,17.643751,0.5766961,-0.43380886,0.4740097,994.2509, , , , 
2025-08-22 20:00:51.627,-0.4977071,-8.049456,-2.4191437,-0.13530655,-0.16012293,-0.55443615,-33.1875,-33.16875,17.0625,0.58126944,-0.43127123,0.46883357,994.2509, , , , 
2025-08-22 20:00:51.647,-0.9954142,-8.128419,-2.5674987,-0.37293294,0.098272875,0.15477787,-33.131252,-32.15625,17.15625,0.58098835,-0.4325074,0.46707404,994.23773, , , , 
2025-08-22 20:00:51.668,-1.6079768,-7.7551384,-2.969493,-0.6551525,0.32429284,0.9427934,-31.725,-34.631252,17.15625,0.5751815,-0.43773973,0.46938515,994.23773, , , , 
2025-08-22 20:00:51.687,-0.57188463,-7.795816,-1.538585,-0.9899064,0.37132943,1.8462625,-32.925003,-32.756252,15.31875,0.56358135,-0.44815776,0.47501385,994.23456, , , , 
2025-08-22 20:00:51.707,0.9619147,-8.315059,0.009571291,-0.94164807,0.26748243,2.471177,-36.80625,-33.15,15.13125,0.5474317,-0.46325123,0.48339942,994.23456, , , , 
2025-08-22 20:00:51.727,2.4646072,-9.071191,0.3493521,-0.73884094,0.109268434,2.913443,-35.925003,-30.300001,13.950001,0.52918905,-0.48117295,0.4943927,994.23456, , , , 
2025-08-22 20:00:51.747,4.063013,-10.315458,-0.19142582,-0.41141742,-0.14546217,3.4119089,-36.24375,-28.331251,12.7875,0.5055603,-0.50584793,0.51095337,994.24506, , , , 
2025-08-22 20:00:51.767,4.8382874,-11.246266,-0.8135597,-0.23243405,-0.35071275,3.8413467,-38.568752,-24.6,13.44375,0.48606214,-0.5270404,0.5257442,994.2568, , , , 
2025-08-22 20:00:51.787,6.06102,-12.155539,-1.3351951,-0.14630212,-0.40263626,4.273228,-41.15625,-22.987501,12.075001,0.46501034,-0.5495838,0.5415491,994.2568,37.88829351,127.73992387,150.7239990234375,1.73
2025-08-22 20:00:51.807,6.762117,-12.894921,-1.8903298,-0.20494513,-0.23892449,4.689838,-43.818752,-18.54375,14.418751,0.44069695,-0.5726209,0.5583991,994.25653, , , , 
2025-08-22 20:00:51.827,8.123632,-13.395021,-1.4476577,-0.38331765,-0.07826705,5.1211085,-43.800003,-15.675,13.1625,0.41179156,-0.5960335,0.5755998,994.25653, , , , 
2025-08-22 20:00:51.847,10.219746,-13.395021,-0.32063824,-0.43157595,-0.040393434,5.2664943,-45.581253,-9.262501,13.293751,0.37901098,-0.6192712,0.5920504,994.2585, , , , 
2025-08-22 20:00:51.867,11.906686,-12.758531,-0.11246266,-0.3527744,-0.08681916,5.0630765,-43.66875,-1.35,12.337501,0.3453352,-0.6404792,0.6069348,994.2585, , , , 
2025-08-22 20:00:51.887,12.392428,-12.040684,-0.5192425,-0.43768463,0.012751802,4.686784,-48.187504,0.52500004,15.7875,0.31304812,-0.65867376,0.61939985,994.27826, , , , 
2025-08-22 20:00:51.907,11.983255,-11.760723,-0.4331009,-0.61239195,0.067118764,4.3245406,-44.8875,4.0687504,19.25625,0.2743101,-0.67832077,0.6306958,994.27826, , , , 
2025-08-22 20:00:51.927,12.071791,-11.502298,0.30388847,-0.6838631,-0.008628465,4.1498337,-42.3375,11.83125,13.293751,0.2519155,-0.6891652,0.6353439,994.27826, , , , 
2025-08-22 20:00:51.947,13.000205,-10.722239,1.0695918,-0.64721125,-0.0037415468,3.8560076,-42.15,12.731251,12.450001,0.21668762,-0.70534265,0.64079475,994.2797, , , , 
2025-08-22 20:00:51.967,13.27538,-10.179068,1.6199409,-0.5348121,0.31574073,3.4436738,-43.875,15.918751,13.5375,0.19011751,-0.71553165,0.6441831,994.2934, , , , 
2025-08-22 20:00:51.987,11.913864,-9.209974,2.0075781,-0.2452622,0.51976955,3.2103236,-40.893753,17.587502,13.44375,0.16438511,-0.7226122,0.64792114,994.2934, , , , 
2025-08-22 20:00:52.007,11.533405,-8.585447,1.0313065,0.07238748,0.35361436,3.1926084,-40.59375,21.975,13.6125,0.13957594,-0.7266537,0.6531168,994.30853, , , , 
2025-08-22 20:00:52.027,12.710674,-7.5996046,-0.72023964,0.25747952,0.057955798,3.0618834,-38.625,23.8875,15.76875,0.11698289,-0.72875106,0.6591301,994.30853, , , , 
2025-08-22 20:00:52.047,13.330415,-6.5108705,-2.359323,0.14874557,-0.14729477,2.7344599,-35.5125,26.85,13.275001,0.09386057,-0.7304142,0.6653871,994.2912, , , , 
2025-08-22 20:00:52.067,14.364115,-5.8839507,-2.926422,-0.20799945,0.06772963,2.4192536,-35.550003,27.562502,15.543751,0.07788447,-0.7327073,0.6675447,994.2912, , , , 
2025-08-22 20:00:52.087,15.7184515,-6.0658054,-1.4763715,-0.42668906,0.53748465,2.0625086,-33.28125,31.312502,12.937501,0.06188761,-0.7362723,0.6668357,994.2673, , , , 
2025-08-22 20:00:52.107,16.917255,-6.532406,-1.4883357,-0.39553493,0.7128028,1.60436,-30.581251,32.23125,11.0625,0.046167642,-0.73919094,0.6655204,994.2673, , , , 
2025-08-22 20:00:52.127,18.427128,-6.3625154,-1.9238294,-0.5280926,0.68164873,1.1407136,-32.081253,33.037502,14.56875,0.03349097,-0.7418764,0.6634416,994.2673, , , , 
2025-08-22 20:00:52.147,20.317457,-6.4606214,-0.70588267,-0.7822124,0.76594806,0.25801402,-31.66875,33.581253,14.025001,0.025479374,-0.745604,0.6591456,994.2675, , , , 
2025-08-22 20:00:52.167,19.81975,-7.944171,1.3112668,-0.74067354,0.9113339,-0.5935315,-30.243752,32.60625,13.1625,0.022694776,-0.7496344,0.65316224,994.27606, , , , 
2025-08-22 20:00:52.187,17.42932,-8.080562,2.8977082,-0.24098615,0.8380301,-1.3070215,-30.69375,31.931252,14.325001,0.02625263,-0.75180316,0.6470638,994.27606, , , , 
2025-08-22 20:00:52.207,16.323835,-8.073383,2.8642087,0.31612253,0.18257222,-1.883678,-30.768751,32.081253,11.55,0.036007665,-0.74969906,0.64552927,994.31195, , , , 
2025-08-22 20:00:52.227,15.373885,-9.851251,2.428715,0.79198617,-0.8552871,-2.4951537,-33.693752,30.768751,13.63125,0.05604972,-0.7449946,0.6463343,994.31195, , , , 
2025-08-22 20:00:52.247,13.730017,-12.552748,0.8877372,1.145066,-1.8577162,-2.9826236,-35.79375,28.312502,12.900001,0.08669494,-0.738311,0.6483267,994.33685, , , , 
2025-08-22 20:00:52.267,12.387643,-13.770695,-0.2536392,1.0344995,-2.1961353,-3.1316748,-34.912502,28.275002,12.656251,0.12376808,-0.7307791,0.6494864,994.33685, , , , 
2025-08-22 20:00:52.287,12.303894,-14.244473,0.33738798,0.79076445,-2.2022438,-3.229413,-36.45,25.7625,13.275001,0.16210495,-0.72368276,0.6479493,994.3442, , , , 
2025-08-22 20:00:52.307,13.177275,-14.457435,0.88295156,0.6478221,-2.084347,-3.5250716,-39.581253,20.56875,15.3,0.20052928,-0.7164429,0.6438962,994.3442, , , , 
2025-08-22 20:00:52.328,12.825529,-13.974084,0.45224348,0.46456265,-1.5009711,-3.9636724,-42.206253,19.40625,17.475,0.23908265,-0.7077465,0.6378121,994.3488, , , , 
2025-08-22 20:00:52.347,10.884951,-12.880565,0.5168497,0.2715294,-0.39347327,-4.3063674,-40.40625,16.725,18.525002,0.2831319,-0.6937978,0.62833744,994.3488, , , , 
2025-08-22 20:00:52.367,8.805588,-12.057433,0.5024927,0.2904662,0.5154935,-4.3698974,-40.706253,13.950001,19.800001,0.31205222,-0.67928326,0.6214245,994.3349, , , , 
2025-08-22 20:00:52.387,8.04467,-11.4496565,-0.28713873,0.38515025,0.8508583,-4.3198066,-43.10625,10.06875,21.0375,0.33621588,-0.6618883,0.6159038,994.3349, , , , 
2025-08-22 20:00:52.407,8.372486,-10.834701,-0.9164511,0.43340856,0.5643627,-4.353404,-42.393753,5.9625,15.637501,0.35928825,-0.6430572,0.6099359,994.32245, , , , 
2025-08-22 20:00:52.427,8.678768,-10.870593,-1.268196,0.40958482,0.18562654,-4.4731336,-44.71875,0.4875,18.056252,0.38433328,-0.6238829,0.60150117,994.32245, , , , 
2025-08-22 20:00:52.447,8.530413,-10.906486,-1.6199409,0.30329436,-0.14240785,-4.6515064,-45.3375,-3.9375002,19.143751,0.4115117,-0.6046282,0.58987373,994.2929, , , , 
2025-08-22 20:00:52.467,7.3579297,-11.310873,-1.4189439,0.13897173,-0.31344998,-4.6997647,-44.475002,-8.681251,16.087502,0.43962348,-0.5854215,0.5750057,994.2929, , , , 
2025-08-22 20:00:52.487,5.572884,-10.944771,-1.0217353,0.018631376,-0.34216064,-4.479853,-42.99375,-12.0375,18.13125,0.4731633,-0.56195956,0.5536057,994.26215, , , , 
2025-08-22 20:00:52.507,4.4554358,-10.317851,-1.3232309,-0.1084285,-0.049556404,-4.0998955,-41.23125,-17.19375,17.00625,0.4962993,-0.54380924,0.5365433,994.26215, , , , 
2025-08-22 20:00:52.527,3.6849468,-9.540184,-1.4548361,-0.27275112,0.31146467,-3.7315438,-41.34375,-19.81875,18.243752,0.51022935,-0.53056836,0.5248308,994.26215, , , , 
2025-08-22 20:00:52.547,2.6871397,-8.539984,-0.8757731,-0.40042186,0.6749292,-3.2214718,-40.068752,-24.31875,19.59375,0.5267548,-0.50933343,0.5079868,994.2392, , , , 
2025-08-22 20:00:52.567,1.7970098,-8.207381,-0.6556334,-0.4187478,0.7115811,-2.8299074,-38.2125,-26.325,15.0375,0.53570646,-0.4933057,0.49672452,994.2214, , , , 
2025-08-22 20:00:52.587,0.79441714,-8.068598,-0.24885355,-0.34910923,0.5784126,-2.3876414,-37.143753,-27.562502,14.231251,0.54243815,-0.47908637,0.48683634,994.2214, , , , 
2025-08-22 20:00:52.607,-0.27038896,-8.056634,0.02871387,-0.16157374,0.28886268,-1.8354195,-36.54375,-30.2625,16.331251,0.5480132,-0.46739265,0.4784869,994.2155, , , , 
2025-08-22 20:00:52.627,-0.7896315,-7.836494,-0.52163535,0.0632245,-0.066049755,-1.12926,-34.256252,-30.6375,15.01875,0.5532118,-0.4592837,0.47219616,994.2155, , , , 
2025-08-22 20:00:52.647,-0.009571291,-7.432107,-1.8927227,0.113926284,-0.3024544,-0.3491856,-34.706253,-33.675003,14.325001,0.5586114,-0.4557009,0.467637,994.216, , , , 
2025-08-22 20:00:52.667,0.4953143,-7.3268228,-2.5507488,-0.10293072,-0.123471044,0.2738965,-34.237503,-32.643753,16.5375,0.559757,-0.45756862,0.46680462,994.216, , , , 
2025-08-22 20:00:52.687,0.55034924,-7.8987074,-1.9788643,-0.36254823,0.3249037,0.99593866,-33.15,-30.91875,16.1625,0.5555628,-0.46253738,0.46954674,994.2111, , , , 
2025-08-22 20:00:52.707,0.4139583,-8.269595,-1.5768701,-0.4621192,0.52709997,1.6868267,-35.2125,-30.35625,14.793751,0.5456983,-0.4700618,0.4766982,994.2111, , , , 
2025-08-22 20:00:52.727,1.1318051,-8.051848,-1.0743774,-0.5232057,0.46662432,2.273257,-34.575,-30.16875,13.8,0.53144425,-0.48097837,0.4873112,994.2111, , , , 
2025-08-22 20:00:52.747,2.9910283,-8.305488,-0.7752745,-0.56535536,0.27053675,2.805931,-37.18125,-28.575,13.81875,0.5143411,-0.49551544,0.49967533,994.2128, , , , 
2025-08-22 20:00:52.767,4.223332,-8.989835,-0.47138608,-0.5421425,0.14164427,3.1296895,-39.768753,-27.6,14.19375,0.49545708,-0.5125405,0.51269716,994.21356, , , , 
2025-08-22 20:00:52.787,5.1756754,-10.269995,-0.6221339,-0.4468476,-0.057497647,3.4510043,-39.5625,-23.7,13.33125,0.47015432,-0.5356888,0.52972674,994.21356,37.88827969,127.73993293,150.784423828125,1.71
2025-08-22 20:00:52.807,6.1471615,-11.32523,-0.8709874,-0.3686569,-0.3910298,3.7350564,-41.68125,-21.075,14.493751,0.44928017,-0.5556642,0.5433689,994.21796, , , , 
2025-08-22 20:00:52.827,6.8410797,-12.337394,-0.8446664,-0.27397284,-0.7086795,4.045376,-44.90625,-19.66875,14.437501,0.4336184,-0.57175195,0.55317897,994.21796, , , , 
2025-08-22 20:00:52.847,8.508878,-13.282558,-1.0432707,-0.16646065,-0.9078214,4.4528227,-43.4625,-14.6625,14.00625,0.4065112,-0.5998838,0.56945544,994.2248, , , , 
2025-08-22 20:00:52.867,10.693524,-13.036098,-0.9810573,-0.19578215,-0.86445004,4.612869,-43.275,-10.05,15.1125,0.38284513,-0.6222388,0.5822272,994.2248, , , , 
2025-08-22 20:00:52.887,12.201003,-12.009577,-0.6843473,-0.27336198,-0.7483857,4.4509897,-43.443752,-4.33125,14.793751,0.35804293,-0.64309925,0.59358484,994.23773, , , , 
2025-08-22 20:00:52.907,11.99522,-11.23191,-0.7106683,-0.4413498,-0.36109746,4.170603,-46.143753,1.10625,14.45625,0.33288586,-0.6615095,0.60292774,994.23773, , , , 
2025-08-22 20:00:52.927,11.236695,-10.590633,-0.3684947,-0.7015782,0.16241367,4.0184975,-48.80625,3.0187502,22.2,0.305657,-0.6777581,0.6104716,994.23773, , , , 
2025-08-22 20:00:52.947,10.459028,-9.834501,1.2753744,-1.010065,0.92965984,3.835849,-42.693752,8.2875,18.018751,0.26624954,-0.6957567,0.6178839,994.247, , , , 
2025-08-22 20:00:52.967,10.437492,-9.250652,2.9168508,-0.878729,1.1648427,3.6953502,-44.362503,11.475,16.1625,0.2320123,-0.7076302,0.623149,994.247, , , , 
2025-08-22 20:00:52.987,10.853844,-8.961121,2.6871397,-0.43646288,1.0335069,3.5004842,-43.912502,13.5375,13.837501,0.19871293,-0.71602464,0.629405,994.259, , , , 
2025-08-22 20:00:53.007,11.107483,-8.79123,1.174876,-0.18784092,0.81542814,3.2762969,-42.375,15.20625,12.337501,0.16878627,-0.72135746,0.63646984,994.2829, , , , 
2025-08-22 20:00:53.027,11.133803,-8.484949,0.18185452,-0.16646065,0.7292962,3.1076982,-43.893753,18.6375,13.5375,0.14194524,-0.72513247,0.6429674,994.2829, , , , 
2025-08-22 20:00:53.047,11.408978,-8.188239,0.040677983,-0.18845178,0.66943145,2.9531493,-41.006252,19.2,12.900001,0.11675011,-0.72835726,0.6481714,994.2841, , , , 
2025-08-22 20:00:53.067,12.064611,-8.078169,0.15792629,-0.116980605,0.5796343,2.8083744,-41.15625,22.78125,12.8625,0.093059406,-0.7309031,0.65255916,994.2841, , , , 
2025-08-22 20:00:53.087,13.052848,-7.3579297,-0.06699903,0.04856375,0.50388706,2.5634177,-38.5875,25.29375,12.750001,0.066348515,-0.7324169,0.6578796,994.2795, , , , 
2025-08-22 20:00:53.107,13.392629,-6.5778694,-0.89491564,0.08888082,0.51976955,2.2836416,-37.18125,26.212502,9.618751,0.047700737,-0.73225975,0.6620635,994.2795, , , , 
2025-08-22 20:00:53.127,13.914264,-6.623333,-1.0193424,0.0650571,0.5307651,2.0478477,-36.1875,29.04375,10.59375,0.030824073,-0.7317809,0.66538364,994.267, , , , 
2025-08-22 20:00:53.147,16.051054,-7.5517483,-1.2777673,0.13775001,0.20639594,1.7179809,-36.037502,31.29375,11.53125,0.016525129,-0.73105705,0.6681891,994.267, , , , 
2025-08-22 20:00:53.167,17.85285,-7.9274216,-2.115255,0.092546016,-0.05016727,1.247004,-32.41875,32.53125,10.6125,0.0073248846,-0.73028666,0.6705597,994.2692, , , , 
2025-08-22 20:00:53.187,19.101904,-7.353144,-2.1655045,-0.1744019,0.27542365,0.6459131,-32.325,33.037502,11.34375,0.0024270527,-0.7304183,0.6711868,994.2692, , , , 
2025-08-22 20:00:53.207,19.554146,-7.4392858,-1.0432707,-0.4621192,0.93149245,-0.10728313,-33.881252,32.287502,8.15625,-0.0010070894,-0.731854,0.668877,994.26483, , , , 
2025-08-22 20:00:53.227,18.068203,-7.3292155,0.6149554,-0.34361145,1.3597087,-1.0040326,-30.956251,33.91875,11.00625,-0.0033048142,-0.7335242,0.6632768,994.26483, , , , 
2025-08-22 20:00:53.247,15.972091,-8.037491,0.34217364,-0.03940078,1.1446842,-1.6442189,-33.91875,31.518751,9.431251,-1.5299843E-4,-0.73266363,0.6593547,994.28314, , , , 
2025-08-22 20:00:53.267,14.924035,-9.188439,-0.059820566,0.1951713,0.71707886,-2.1439064,-33.73125,31.66875,8.475,0.00924379,-0.73032403,0.65616643,994.28314, , , , 
2025-08-22 20:00:53.287,14.349757,-10.542776,-0.48095736,0.42302385,0.26198465,-2.6393178,-35.4,29.775002,7.0687504,0.024734404,-0.7269646,0.6532252,994.2907, , , , 
2025-08-22 20:00:53.307,13.875978,-11.382657,-1.3615161,0.49632764,-0.066049755,-3.0675337,-37.443752,27.69375,7.2375,0.045756023,-0.722736,0.6500219,994.2907, , , , 
2025-08-22 20:00:53.331,13.234702,-12.830315,-2.2875385,0.39553493,-0.34765843,-3.5696647,-39.91875,23.98125,5.25,0.078324646,-0.71717536,0.64369804,994.2895, , , , 
2025-08-22 20:00:53.347,12.263216,-13.794622,-2.4478576,0.24465135,-0.43501207,-3.8048477,-39.9,23.475,6.6562505,0.10771887,-0.71291655,0.6357194,994.2895, , , , 
2025-08-22 20:00:53.367,11.834901,-13.931013,-2.4670002,0.08704823,-0.42829257,-3.902586,-40.66875,20.175001,4.93125,0.13780737,-0.7087546,0.62529325,994.28314, , , , 
2025-08-22 20:00:53.387,11.808579,-13.397414,-3.0843484,-0.1621846,-0.05016727,-4.0076547,-44.7,17.118752,7.2187505,0.15967456,-0.70533735,0.61616224,994.28314, , , , 
2025-08-22 20:00:53.407,11.88515,-12.665211,-2.9575288,-0.50976664,0.56924963,-4.2080183,-43.3125,13.031251,6.5437503,0.19204412,-0.69856733,0.59768844,994.2702, , , , 
2025-08-22 20:00:53.427,11.533405,-12.629318,-2.213361,-0.6679806,1.0353395,-4.503066,-46.612503,10.575001,8.1,0.21439254,-0.6910664,0.5800493,994.2702, , , , 
2025-08-22 20:00:53.447,10.370493,-12.911671,-1.8903298,-0.52687085,1.1623993,-4.768792,-49.050003,4.96875,7.5937505,0.23591736,-0.68063426,0.5610154,994.2563, , , , 
2025-08-22 20:00:53.468,8.975478,-12.906885,-2.2899313,-0.44379327,0.8893428,-4.886689,-46.893753,-0.6,2.7375002,0.25864887,-0.6678354,0.5410714,994.2563, , , , 
2025-08-22 20:00:53.487,7.422536,-12.799209,-1.9549361,-0.40469792,0.4739547,-4.8317113,-45.99375,-4.0125003,4.2375,0.28297544,-0.65474266,0.51938766,994.2465, , , , 
2025-08-22 20:00:53.507,6.317052,-12.1148615,-1.3806586,-0.36987862,0.09888373,-4.635624,-46.18125,-10.012501,5.0625,0.3143108,-0.63925403,0.4906601,994.2465, , , , 
2025-08-22 20:00:53.528,5.584848,-11.590833,-0.9882358,-0.30695954,-0.04344776,-4.445645,-44.5125,-13.762501,-0.61875004,0.3328821,-0.6303083,0.4730824,994.2465, , , , 
2025-08-22 20:00:53.547,4.85743,-10.703095,-0.99302137,-0.15790854,-0.106977694,-4.1408234,-44.006252,-20.98125,4.9875,0.3625829,-0.61523694,0.4445844,994.23676, , , , 
2025-08-22 20:00:53.567,4.098905,-9.781859,-1.524228,-0.076052666,-0.08315397,-3.9105272,-41.362503,-24.16875,0.88125,0.3849289,-0.6026106,0.4232691,994.2309, , , , 
2025-08-22 20:00:53.587,3.0675986,-9.303294,-2.0841484,-0.113926284,-0.022067491,-3.649688,-38.71875,-24.768751,2.34375,0.40046197,-0.5930405,0.40808386,994.2309, , , , 
2025-08-22 20:00:53.607,1.430908,-8.958728,-2.589034,-0.2751946,-0.03367392,-3.1176248,-38.287502,-28.35,3.1125002,0.4227369,-0.5781666,0.3841005,994.2233, , , , 
2025-08-22 20:00:53.627,0.89013004,-8.920443,-2.2325034,-0.3753764,-0.10392337,-2.6545892,-37.518753,-31.125002,2.41875,0.43655422,-0.5685801,0.3664771,994.2233, , , , 
2025-08-22 20:00:53.647,0.44745782,-8.5016985,-1.6701902,-0.38881543,-0.21998768,-1.9276602,-35.5125,-32.8875,0.91875005,0.44909936,-0.56039613,0.34764636,994.20844, , , , 
2025-08-22 20:00:53.667,0.27038896,-8.257631,-1.8185452,-0.3924806,-0.3201695,-1.3601668,-33.54375,-35.325,2.5500002,0.45591572,-0.5570526,0.33574072,994.20844, , , , 
2025-08-22 20:00:53.687,-0.08135597,-7.9393854,-2.1128623,-0.5085449,-0.2627482,-0.76640624,-31.85625,-35.1375,0.975,0.45945182,-0.55648255,0.3266989,994.20526, , , , 
2025-08-22 20:00:53.707,-0.3278167,-8.178668,-2.132005,-0.68019795,-0.1711185,-0.13416117,-30.712502,-35.8875,1.66875,0.4585874,-0.55853236,0.32077956,994.20526, , , , 
2025-08-22 20:00:53.727,-1.2131611,-8.420342,-1.8975084,-0.83963364,-0.04344776,0.61964595,-31.06875,-37.143753,-1.3125,0.45269245,-0.56350034,0.31842536,994.1984, , , , 
2025-08-22 20:00:53.747,-0.93559366,-7.6139617,-1.4691931,-1.072984,0.098272875,1.613523,-32.25,-35.662502,0.28125,0.4408011,-0.5717737,0.32054552,994.1984, , , , 
2025-08-22 20:00:53.767,0.49052864,-7.587641,-0.30867413,-1.1804962,0.33773187,2.2976916,-34.18125,-34.36875,0.24375,0.42246288,-0.5829209,0.32702005,994.2045, , , , 
2025-08-22 20:00:53.787,2.3641088,-8.34138,-0.09332009,-1.1682789,0.55519974,2.8633523,-37.162502,-33.300003,-1.0500001,0.39249963,-0.5979756,0.34108984,994.2045,37.88826596,127.73994133,150.88629150390625,1.7
2025-08-22 20:00:53.807,3.4911282,-9.456435,-0.3493521,-1.1120794,0.5814669,3.2084908,-36.54375,-29.38125,-0.41250002,0.36483985,-0.61028236,0.35575894,994.2045, , , , 
2025-08-22 20:00:53.829,3.8380876,-10.552348,-0.40438703,-1.0357212,0.20028728,3.5847836,-41.30625,-29.343752,-3.61875,0.33542573,-0.6237761,0.37199482,994.2045, , , , 
2025-08-22 20:00:53.847,4.8693943,-11.684153,-0.42592242,-0.9324851,-0.27740896,4.06248,-39.787502,-24.69375,-4.2000003,0.30506286,-0.6401571,0.38932374,994.2153, , , , 
2025-08-22 20:00:53.868,6.439086,-12.507284,-0.5288138,-0.8848376,-0.4325686,4.5615563,-41.11875,-21.112501,-3.16875,0.27295667,-0.6585391,0.40819484,994.2153, , , , 
2025-08-22 20:00:53.887,7.9561353,-12.727424,-0.7848458,-1.0002911,-0.21326816,4.8700433,-42.675003,-17.2875,-3.8437502,0.2377673,-0.6764349,0.42823914,994.2221, , , , 
2025-08-22 20:00:53.907,8.843872,-12.904492,-0.37328035,-1.2226459,-0.011682789,5.04475,-43.8375,-11.83125,-0.63750005,0.1987238,-0.69260913,0.44785744,994.2221, , , , 
2025-08-22 20:00:53.927,10.035499,-13.026526,0.86859465,-1.3509275,-0.015958842,5.168145,-46.36875,-4.36875,-3.43125,0.14592628,-0.7106896,0.47011754,994.2375, , , , 
2025-08-22 20:00:53.948,11.152946,-12.971492,1.605584,-1.2977822,-0.03367392,5.1241627,-47.9625,1.2375001,-7.89375,0.1030368,-0.72293323,0.48630092,994.2375, , , , 
2025-08-22 20:00:53.968,12.279965,-12.538391,2.0171494,-1.1927135,0.033521205,4.8737082,-50.04375,4.89375,4.4625,0.06155732,-0.7324857,0.500953,994.257, , , , 
2025-08-22 20:00:53.987,12.440285,-12.504891,2.199004,-1.068708,0.1343139,4.527959,-44.25,11.2875,-3.0,0.022685967,-0.7390417,0.5136973,994.257, , , , 
2025-08-22 20:00:54.007,12.796816,-12.401999,2.6703901,-0.87017685,-0.028176138,4.2078657,-45.300003,13.06875,-6.39375,-0.013133835,-0.7430787,0.5249629,994.2802, , , , 
2025-08-22 20:00:54.027,12.789637,-12.019148,3.6610186,-0.4401281,-0.8998802,3.9164832,-43.5,16.35,-3.825,-0.042802967,-0.7461352,0.53615195,994.2802, , , , 
2025-08-22 20:00:54.047,13.426127,-10.882557,3.7304106,0.39553493,-1.650633,3.7429976,-42.61875,19.29375,-4.0875,-0.06335426,-0.74856365,0.55036473,994.30096, , , , 
2025-08-22 20:00:54.067,14.289937,-9.667004,2.6009982,1.1187989,-1.4734823,3.5817292,-39.412502,22.96875,-2.325,-0.07778916,-0.7473864,0.5686255,994.30096, , , , 
2025-08-22 20:00:54.088,15.213567,-8.879765,-0.14117654,1.470046,-0.6958513,3.3996916,-39.675003,25.312502,-2.11875,-0.09076857,-0.740753,0.5893598,994.30096, , , , 
2025-08-22 20:00:54.107,15.668202,-7.7623167,-4.0677986,1.2269219,0.58818644,3.0930374,-36.506252,27.243752,-1.3125,-0.11139824,-0.727181,0.61253935,994.32367, , , , 
2025-08-22 20:00:54.127,16.883757,-7.135397,-5.0919266,0.59589857,1.2961787,2.8639631,-32.456253,29.775002,-2.8125,-0.13313848,-0.7163979,0.62469053,994.31146, , , , 
2025-08-22 20:00:54.147,19.133009,-6.769295,-3.6059837,-0.0033597562,1.8545091,2.2891395,-31.406252,30.6375,-3.1312501,-0.1576849,-0.70772785,0.6301064,994.31146, , , , 
2025-08-22 20:00:54.167,20.001604,-6.8602223,-2.7397819,-0.2849684,2.2198062,1.4320961,-26.868752,34.3875,-10.14375,-0.1809236,-0.7009258,0.6298698,994.28827, , , , 
2025-08-22 20:00:54.187,19.441685,-6.3481584,-2.1391835,-0.4896081,2.5545602,0.4247801,-27.900002,36.131252,-6.2812505,-0.2006225,-0.695788,0.6244597,994.28827, , , , 
2025-08-22 20:00:54.207,17.419748,-7.099505,-1.3615161,-0.5513055,2.6510768,-0.47502372,-26.23125,36.43125,-6.7875004,-0.215765,-0.6922515,0.6142861,994.2851, , , , 
2025-08-22 20:00:54.228,14.4693985,-7.281359,-0.82313097,-0.16951497,2.2198062,-1.0767255,-26.8875,35.98125,-7.14375,-0.22666004,-0.6886256,0.59919316,994.2851, , , , 
2025-08-22 20:00:54.247,13.2203455,-6.853044,-2.1104696,0.15668681,1.4110212,-1.2770892,-27.187502,34.256252,-11.043751,-0.22785285,-0.68559843,0.58980924,994.3056, , , , 
2025-08-22 20:00:54.267,13.981263,-7.7479596,-3.6107693,0.13530655,0.5289325,-1.6002367,-26.8875,33.412502,-12.4125,-0.2218641,-0.6850649,0.5823182,994.3056, , , , 
2025-08-22 20:00:54.287,14.55554,-9.38465,-3.9673,-0.15668681,-0.021456625,-2.015014,-29.38125,34.143753,-11.71875,-0.20962492,-0.68892974,0.5736717,994.29364, , , , 
2025-08-22 20:00:54.307,14.641682,-10.851451,-2.9312077,-0.52992517,-0.029397868,-2.4071891,-30.393751,30.562502,-12.50625,-0.1942269,-0.69625115,0.5617728,994.29364, , , , 
2025-08-22 20:00:54.327,15.20878,-11.609976,-2.0291135,-0.70585424,0.2296088,-2.7468297,-30.581251,31.9125,-11.625,-0.1782996,-0.70450413,0.5463131,994.29364, , , , 
2025-08-22 20:00:54.348,15.8357,-12.830315,-1.4356936,-0.7064651,0.68714654,-3.347921,-33.99375,28.181252,-9.356251,-0.16158047,-0.7119691,0.5273808,994.2836, , , , 
2025-08-22 20:00:54.368,14.94557,-13.519448,-1.9166509,-0.6539307,1.1000911,-3.930075,-34.7625,27.018751,-12.918751,-0.13805455,-0.7184578,0.49936056,994.28534, , , , 
2025-08-22 20:00:54.387,13.387843,-13.641482,-1.9214365,-0.5842922,1.3377175,-4.2623854,-35.568752,24.562502,-12.39375,-0.11760132,-0.7210298,0.47403494,994.28534, , , , 
2025-08-22 20:00:54.407,12.428321,-13.622339,-2.0602202,-0.47677997,1.4519492,-4.499401,-38.90625,20.775002,-15.525001,-0.09571244,-0.72133607,0.4471742,994.2785, , , , 
2025-08-22 20:00:54.428,11.339586,-13.651053,-2.3521447,-0.32223117,1.5496876,-4.6362348,-37.875,19.48125,-13.70625,-0.07252267,-0.71917874,0.4195004,994.2785, , , , 
2025-08-22 20:00:54.447,10.296316,-13.361522,-2.3234308,-0.17562363,1.4433972,-4.697321,-41.268753,15.0375,-14.325001,-0.048325446,-0.71480155,0.3916846,994.26776, , , , 
2025-08-22 20:00:54.467,9.71486,-12.930814,-2.1343977,-0.045509428,1.1202496,-4.7858963,-41.850002,9.76875,-16.743752,-0.022437029,-0.70951414,0.36387765,994.26776, , , , 
2025-08-22 20:00:54.487,8.623733,-12.758531,-2.2229323,0.08888082,0.8050434,-4.829879,-42.037502,5.15625,-17.868752,0.00584861,-0.70430404,0.33597258,994.25995, , , , 
2025-08-22 20:00:54.507,6.908079,-12.05504,-2.900101,0.14874557,0.5967385,-4.6997647,-42.881252,0.3375,-16.575,0.0428646,-0.6974693,0.3016713,994.25995, , , , 
2025-08-22 20:00:54.527,6.06102,-11.416157,-3.1872396,0.029626941,0.48006335,-4.507953,-42.24375,-2.5500002,-19.875,0.06445441,-0.6933188,0.2813642,994.23846, , , , 
2025-08-22 20:00:54.547,5.453243,-10.444671,-2.5866413,-0.18051054,0.44463322,-4.283155,-41.625,-8.212501,-19.612501,0.09742768,-0.68651885,0.24719593,994.23846, , , , 
2025-08-22 20:00:54.567,4.601398,-9.844072,-2.0793629,-0.29474226,0.6950878,-4.1060038,-43.10625,-11.1,-19.143751,0.1207594,-0.6796603,0.21983412,994.23846, , , , 
2025-08-22 20:00:54.587,3.306881,-9.205189,-1.0360922,-0.27458373,0.91255563,-3.7785804,-38.86875,-14.156251,-20.025002,0.14123084,-0.67029524,0.19365248,994.215, , , , 
2025-08-22 20:00:54.607,1.7874385,-8.62134,-0.8135597,-0.014966187,0.6700423,-3.3179884,-37.537502,-17.00625,-19.6875,0.16021676,-0.66005164,0.17045975,994.2055, , , , 
2025-08-22 20:00:54.628,1.0552348,-8.149954,-1.0336994,0.14385866,0.20578507,-2.9184828,-35.025,-20.7,-22.837502,0.17837682,-0.65174174,0.15090552,994.2055, , , , 
2025-08-22 20:00:54.647,-0.07178468,-7.9944205,-1.1820544,0.32223117,-0.5803979,-2.339994,-34.78125,-22.181252,-20.15625,0.19563527,-0.6478604,0.1344726,994.2111, , , , 
2025-08-22 20:00:54.671,-0.9403793,-7.743174,-1.430908,0.44257152,-1.2828923,-1.5422045,-33.018753,-25.125002,-20.475,0.21479142,-0.65036976,0.11880438,994.2111, , , , 
2025-08-22 20:00:54.687,-1.0839486,-7.752745,-1.861616,0.43646288,-1.5889356,-0.9386701,-31.9125,-24.750002,-20.925001,0.2265985,-0.6573783,0.11070533,994.20404, , , , 
2025-08-22 20:00:54.707,-1.0145568,-7.972885,-2.9431717,0.26664248,-1.560225,-0.17264566,-33.3375,-26.643751,-19.575,0.23370464,-0.6675122,0.10660783,994.20404, , , , 
2025-08-22 20:00:54.727,-0.63170516,-8.755338,-3.9960139,-0.160352,-0.97501653,0.6923389,-35.287502,-27.375002,-17.175001,0.23428088,-0.6753978,0.106432594,994.20404, , , , 
2025-08-22 20:00:54.747,0.040677983,-8.487342,-3.993621,-0.82558376,-0.31955865,1.6562835,-34.987503,-25.968752,-18.056252,0.2230266,-0.68646413,0.111257136,994.19525, , , , 
2025-08-22 20:00:54.767,1.7563318,-8.346166,-2.7493532,-1.3918554,0.05184715,2.38138,-35.5125,-24.16875,-16.556252,0.20270084,-0.6937961,0.11812143,994.19257, , , , 
2025-08-22 20:00:54.787,3.4983068,-8.740981,-1.0671989,-1.664912,0.27175847,2.7625597,-37.706253,-23.5125,-18.075,0.17422763,-0.70009845,0.12639295,994.19257,37.88825228,127.73994702,151.09136962890625,1.61
2025-08-22 20:00:54.807,5.3982077,-9.631111,0.34217364,-1.696066,0.41775516,2.9788058,-40.36875,-20.79375,-18.5625,0.13309409,-0.7057109,0.13842918,994.20575, , , , 
2025-08-22 20:00:54.827,5.3742795,-10.514063,0.8925229,-1.5525129,0.23816091,3.0942593,-40.818752,-15.843751,-19.725,0.10782506,-0.70833796,0.14651895,994.20575, , , , 
2025-08-22 20:00:54.847,4.7832522,-11.07159,1.5074782,-1.208596,-0.21082471,3.4766605,-38.475002,-12.13125,-18.6375,0.06596368,-0.7137984,0.1631608,994.22675, , , , 
2025-08-22 20:00:54.867,5.4556355,-11.574083,0.8805587,-0.9153809,-0.417297,3.954357,-39.487503,-10.106251,-20.962502,0.032200757,-0.71930957,0.18159506,994.22675, , , , 
2025-08-22 20:00:54.887,7.125826,-11.557333,0.20338993,-0.77732545,-0.25175264,4.2854457,-40.631252,-6.1312504,-18.45,-0.0028965801,-0.72375226,0.20382354,994.2587, , , , 
2025-08-22 20:00:54.907,8.260024,-11.272588,-0.14596218,-0.82191855,0.059177525,4.4033422,-41.23125,-2.7,-19.96875,-0.039337717,-0.7252761,0.2272715,994.2587, , , , 
2025-08-22 20:00:54.927,9.133404,-10.932807,-0.20338993,-0.92393297,0.23816091,4.392347,-41.550003,1.6125001,-19.25625,-0.07697463,-0.72373027,0.24980283,994.2587, , , , 
2025-08-22 20:00:54.947,9.925428,-10.679168,0.5312066,-1.0625993,0.28092143,4.3220973,-39.9,10.8,-25.050001,-0.12443787,-0.7193065,0.2751747,994.2673, , , , 
2025-08-22 20:00:54.968,10.157532,-10.226924,1.2394822,-1.0858121,0.4134791,4.2133636,-41.04375,12.637501,-21.46875,-0.16176553,-0.71408105,0.29348075,994.2719, , , , 
2025-08-22 20:00:54.987,10.382458,-10.392029,1.1820544,-1.1817179,1.0219004,4.0997424,-39.412502,15.993751,-16.743752,-0.19896689,-0.7057441,0.30957156,994.2719, , , , 
2025-08-22 20:00:55.007,10.875379,-10.648061,2.254039,-1.2366958,1.3859758,3.8926594,-35.25,20.325,-21.28125,-0.23698947,-0.6934975,0.32224634,994.27875, , , , 
2025-08-22 20:00:55.027,11.389835,-10.590633,2.7637103,-1.063821,1.2357031,3.7393324,-34.725002,22.987501,-21.0375,-0.27314728,-0.67950284,0.33323452,994.27875, , , , 
2025-08-22 20:00:55.047,12.375679,-10.514063,1.698904,-0.7968731,0.8581886,3.443063,-31.3875,25.575,-23.081251,-0.30502686,-0.6658137,0.34457377,994.2824, , , , 
2025-08-22 20:00:55.067,12.2991085,-10.236495,0.8039884,-0.79320794,0.53931725,3.2158213,-27.393751,27.862501,-24.093752,-0.3325367,-0.65378404,0.35567537,994.2824, , , , 
2025-08-22 20:00:55.087,12.277573,-9.267402,0.9834501,-0.90866137,0.4256964,3.1076982,-24.7875,29.23125,-22.275002,-0.36398733,-0.6409526,0.3681066,994.2785, , , , 
2025-08-22 20:00:55.107,13.141382,-8.5016985,2.0865414,-0.85673785,0.5967385,2.982471,-24.91875,31.575,-21.31875,-0.38813528,-0.6307896,0.3765067,994.2785, , , , 
2025-08-22 20:00:55.127,14.275579,-7.2358956,2.3521447,-0.6490438,0.9302707,2.7503424,-21.4125,33.9,-18.581251,-0.40530992,-0.62194645,0.38172162,994.2785, , , , 
2025-08-22 20:00:55.147,15.048462,-6.6687965,1.2251252,-0.37232208,1.2705224,2.235994,-20.868752,35.100002,-19.78125,-0.43045798,-0.6051109,0.38748726,994.2917, , , , 
2025-08-22 20:00:55.167,15.026926,-6.6017976,0.031106694,-0.31062475,1.1709514,1.8102214,-17.118752,37.59375,-20.925001,-0.44702572,-0.59192395,0.38934287,994.31244, , , , 
2025-08-22 20:00:55.187,15.644275,-6.7022963,-0.53359944,-0.36621344,0.71402454,1.509676,-16.25625,37.331253,-23.325,-0.46066484,-0.5812124,0.3901283,994.31244, , , , 
2025-08-22 20:00:55.207,17.027327,-7.01097,-0.46899325,-0.5177079,-0.0049632764,1.0765728,-11.85,37.518753,-21.9375,-0.4705244,-0.575353,0.39091238,994.30927, , , , 
2025-08-22 20:00:55.227,18.03949,-6.5491557,0.5910272,-0.6233875,-0.34826928,0.5310706,-11.493751,38.550003,-21.88125,-0.4758976,-0.5755384,0.3911176,994.30927, , , , 
2025-08-22 20:00:55.247,18.754944,-7.01097,1.5170496,-0.72479105,0.117820546,-0.23678645,-12.150001,38.98125,-21.075,-0.477862,-0.5806222,0.38659605,994.30707, , , , 
2025-08-22 20:00:55.267,17.489141,-7.1569324,3.2398818,-0.5537489,0.9247729,-0.91179204,-11.64375,40.893753,-19.987501,-0.4776853,-0.5844052,0.37564176,994.30707, , , , 
2025-08-22 20:00:55.287,15.000606,-6.7573314,3.5796626,-0.07422007,1.2430334,-1.4322488,-13.293751,40.725002,-19.5,-0.47467753,-0.5858899,0.36070788,994.3361, , , , 
2025-08-22 20:00:55.308,13.459627,-7.5517483,3.2446675,0.5042689,0.7225767,-1.8482478,-14.212501,38.381252,-19.275002,-0.46655616,-0.5872699,0.34652323,994.3361, , , , 
2025-08-22 20:00:55.327,13.375878,-8.953942,2.4717858,0.90377444,-0.06360629,-2.136576,-13.218751,38.11875,-20.4375,-0.45156994,-0.5917446,0.3363787,994.3361, , , , 
2025-08-22 20:00:55.347,13.426127,-10.377672,1.0767702,1.1603377,-0.9078214,-2.5348597,-17.1,37.2,-18.45,-0.42963454,-0.60100603,0.33027777,994.3608, , , , 
2025-08-22 20:00:55.368,12.748959,-11.239088,0.31106696,1.0632101,-1.1179589,-2.8714464,-17.4375,36.600002,-23.475,-0.40313047,-0.61418694,0.324934,994.35443, , , , 
2025-08-22 20:00:55.387,12.1866455,-12.272787,0.44506502,0.8768964,-0.9218713,-3.1047966,-20.868752,33.375,-23.23125,-0.36846578,-0.6321147,0.3149405,994.35443, , , , 
2025-08-22 20:00:55.407,12.248859,-13.167703,0.72741807,0.80114913,-0.73433584,-3.2923322,-23.493752,32.737503,-22.7625,-0.34082645,-0.6454082,0.30388716,994.35126, , , , 
2025-08-22 20:00:55.427,12.150753,-13.581661,0.70588267,0.81153387,-0.6811906,-3.4639852,-25.275002,31.81875,-23.75625,-0.31961036,-0.6547221,0.2943095,994.35126, , , , 
2025-08-22 20:00:55.447,11.868401,-13.42852,0.51206404,0.8420771,-0.75327265,-3.699168,-27.993752,26.643751,-19.3125,-0.2824342,-0.66973585,0.27684626,994.3376, , , , 
2025-08-22 20:00:55.467,11.784652,-12.847065,0.41635114,0.846964,-0.81008303,-3.9227445,-29.025002,26.550001,-20.2875,-0.25079802,-0.6816457,0.26167613,994.3376, , , , 
2025-08-22 20:00:55.487,10.966306,-12.440285,0.31585258,0.8457423,-0.74960744,-4.134104,-36.825,22.7625,-20.79375,-0.21733448,-0.693203,0.24495304,994.3376, , , , 
2025-08-22 20:00:55.507,9.992428,-12.069397,0.29671,0.8304707,-0.5785653,-4.3033133,-34.96875,20.23125,-21.768751,-0.18275446,-0.70341676,0.22655673,994.3276, , , , 
2025-08-22 20:00:55.527,9.004191,-11.693725,0.27996024,0.83963364,-0.3757582,-4.4181557,-36.487503,15.4875,-23.04375,-0.14755377,-0.7114609,0.20664708,994.30585, , , , 
2025-08-22 20:00:55.547,8.075776,-11.255837,-0.050249275,0.8976658,-0.20471606,-4.4236536,-39.99375,10.743751,-19.63125,-0.10304159,-0.7181684,0.18069696,994.30585, , , , 
2025-08-22 20:00:55.567,7.3028946,-10.987842,-1.1485549,0.90743965,-0.14424044,-4.3167524,-40.818752,5.175,-20.306252,-0.06761775,-0.7211689,0.16024524,994.28973, , , , 
2025-08-22 20:00:55.587,6.6305118,-10.372886,-2.115255,0.6856957,-0.17050762,-4.159149,-40.050003,2.4,-20.23125,-0.033756286,-0.72310543,0.13988225,994.28973, , , , 
2025-08-22 20:00:55.607,6.0825553,-9.743574,-1.5553347,0.36254823,-0.1466839,-4.002768,-41.943752,-2.53125,-19.893751,-0.00278846,-0.7245146,0.1183719,994.2575, , , , 
2025-08-22 20:00:55.627,5.2570314,-9.413364,-0.9284152,0.21288638,-0.054443322,-3.8689885,-40.050003,-6.4125004,-21.88125,0.025649913,-0.72471803,0.0959703,994.2575, , , , 
2025-08-22 20:00:55.647,4.1922255,-9.250652,-0.32542387,0.182954,0.052458014,-3.6557965,-38.86875,-7.6875005,-21.862501,0.05211514,-0.7234328,0.073737964,994.2331, , , , 
2025-08-22 20:00:55.667,2.8594232,-8.717052,-0.1268196,0.33628106,0.14408773,-3.2947755,-39.225002,-10.106251,-21.056252,0.0828169,-0.71981794,0.048661746,994.2331, , , , 
2025-08-22 20:00:55.687,2.062613,-8.336594,-0.8063812,0.4169152,0.11415535,-2.931311,-37.050003,-13.106251,-21.112501,0.1054851,-0.7161416,0.032293886,994.2331, , , , 
2025-08-22 20:00:55.707,0.5838487,-7.8963146,-1.5529419,0.39431322,-0.13141228,-2.335718,-38.2125,-16.59375,-20.025002,0.12524873,-0.7133944,0.019002365,994.2233, , , , 
2025-08-22 20:00:55.728,0.09810573,-7.314859,-1.9190438,0.24709481,-0.4087449,-1.6039019,-34.631252,-19.3125,-22.40625,0.14051992,-0.71289545,0.008777529,994.2082, , , , 
2025-08-22 20:00:55.747,-0.124426775,-7.0612197,-1.7659031,0.0962112,-0.4588358,-0.9221767,-37.0875,-21.31875,-21.73125,0.15032491,-0.7144066,0.0016163966,994.2082, , , , 
2025-08-22 20:00:55.767,-0.2009971,-7.2765737,-1.6558332,-0.044898562,-0.3097848,-0.18303037,-37.275,-19.85625,-19.78125,0.15436338,-0.71673006,-0.0019225065,994.19916, , , , 
2025-08-22 20:00:55.787,-0.076570325,-7.1784678,-1.6271194,-0.18539746,-0.06421716,0.55367255,-35.25,-20.8875,-21.9375,0.15234305,-0.7189055,-0.001245438,994.19916,37.88823917,127.73994529,150.96337890625,1.59
2025-08-22 20:00:55.807,0.4019942,-7.448857,-1.8735801,-0.3827068,0.21555892,1.3300817,-37.95,-20.306252,-19.21875,0.1413247,-0.72074383,0.0053598247,994.19354, , , , 
2025-08-22 20:00:55.827,0.2727818,-7.025327,-1.753939,-0.57940525,0.337121,1.9440008,-38.025,-19.2,-19.275002,0.13011932,-0.721396,0.011920509,994.19354, , , , 
2025-08-22 20:00:55.847,1.7060826,-6.795616,-0.7537391,-0.8090904,0.34322965,2.693532,-36.881252,-17.325,-21.206251,0.10338059,-0.72238016,0.026700439,994.18256, , , , 
2025-08-22 20:00:55.868,3.4743786,-7.611569,-0.011964113,-0.8139773,0.29069528,3.1522913,-37.65,-14.6625,-21.900002,0.07629215,-0.72332364,0.04179083,994.18256, , , , 
2025-08-22 20:00:55.887,5.2809596,-8.578269,0.078963146,-0.74006265,0.2192241,3.4894886,-36.05625,-11.981251,-24.075,0.046462633,-0.7238877,0.059798993,994.1857, , , , 
2025-08-22 20:00:55.907,6.005985,-9.403793,-0.059820566,-0.65881765,0.07383828,3.7210064,-37.125,-9.88125,-22.06875,0.015204634,-0.7241952,0.08002619,994.1857, , , , 
2025-08-22 20:00:55.930,6.6735826,-10.406385,-0.72263247,-0.620944,-0.2615265,4.129064,-40.59375,-6.1312504,-22.3875,-0.025650112,-0.7250713,0.108361244,994.1933, , , , 
2025-08-22 20:00:55.947,7.503892,-10.99502,-1.3998013,-0.7394518,-0.39225155,4.3477535,-38.081253,-3.1312501,-22.96875,-0.05173635,-0.72589856,0.12681201,994.1933, , , , 
2025-08-22 20:00:55.967,9.06162,-11.875579,-1.6438692,-1.0516037,-0.14424044,4.5169635,-41.11875,0.0375,-22.06875,-0.09869095,-0.72610193,0.15724096,994.20135, , , , 
2025-08-22 20:00:55.987,9.79143,-12.201003,-0.9403793,-1.4022402,0.38476846,4.5646105,-40.36875,5.3250003,-20.8875,-0.13953264,-0.7221795,0.17885326,994.20135, , , , 
2025-08-22 20:00:56.007,10.403993,-12.239287,0.4354937,-1.6087124,0.8331432,4.516352,-37.050003,12.056251,-24.712502,-0.18268004,-0.7137421,0.19712844,994.2121, , , , 
2025-08-22 20:00:56.027,10.162318,-12.208181,0.8997013,-1.6869031,1.1440734,4.440605,-38.86875,18.31875,-24.112501,-0.22611333,-0.70157826,0.21271066,994.2121, , , , 
2025-08-22 20:00:56.047,10.126426,-12.368501,-0.009571291,-2.0405939,1.6987386,4.527348,-38.90625,19.275002,-18.300001,-0.27035698,-0.68585587,0.22580294,994.238, , , , 
2025-08-22 20:00:56.067,10.968699,-11.966506,1.5361922,-2.4572036,2.098855,4.4803114,-32.381252,24.562502,-20.6625,-0.31772056,-0.66616255,0.23437238,994.238, , , , 
2025-08-22 20:00:56.087,11.598011,-11.114661,4.2711883,-2.39123,1.9284238,4.220694,-27.862501,28.5375,-24.300001,-0.3652236,-0.6439533,0.23876975,994.2509, , , , 
2025-08-22 20:00:56.107,12.220145,-9.734002,6.101698,-1.6459751,1.0432807,3.7338345,-22.5375,30.093752,-25.875002,-0.41564152,-0.6180426,0.24512029,994.2509, , , , 
