Time,Accel_X,Accel_Y,Accel_Z,Gyro_X,Gyro_Y,Gyro_Z,Mag_X,Mag_Y,Mag_Z,Orient_X,Orient_Y,Orient_Z,Pressure,Lat,Lng,Alt,Speed
2025-09-28 19:43:50.312,0.37328035,4.587041,8.271988,0.11384992,-0.105908684,-0.016798781,25.06875,-27.018751,-37.818752,0.17765653,0.14925376,0.7038238,995.7243,37.88836596,127.73983337,144.98443603515625,0.0
2025-09-28 19:43:50.334,0.44985065,4.469793,8.472985,-0.0064904382,0.014431681,-0.012522728,26.268751,-28.406252,-37.55625,0.17915107,0.14973558,0.7033229,995.7028, , , , 
2025-09-28 19:43:50.351,0.81834537,4.345366,8.891729,-0.030314164,0.2483929,-0.03084867,23.6625,-28.9125,-37.55625,0.17783779,0.15054393,0.70357645,995.7028, , , , 
2025-09-28 19:43:50.371,0.6580262,4.4075794,8.977871,-0.004657844,0.28687736,-0.07422007,24.712502,-28.06875,-37.256252,0.17652759,0.15141076,0.7037888,995.684, , , , 
2025-09-28 19:43:50.392,0.32542387,4.4817567,9.133404,0.053985175,0.14698933,-0.11270455,23.4375,-27.712502,-35.5875,0.17451124,0.15331623,0.70357686,995.684, , , , 
2025-09-28 19:43:50.411,0.22971097,4.469793,8.963513,0.061926417,0.13110685,-0.09987639,26.737501,-26.737501,-37.068752,0.17350496,0.15484841,0.7030116,995.6557, , , , 
2025-09-28 19:43:50.431,0.16749759,4.5798626,8.939586,0.056428634,0.14149155,-0.109650224,27.243752,-29.531252,-39.9,0.17291318,0.15597443,0.702597,995.6557, , , , 
2025-09-28 19:43:50.451,0.11964113,4.6492543,9.102298,0.045433067,0.13293944,-0.10354158,23.475,-28.837502,-33.84375,0.17152284,0.15826511,0.70188856,995.62177, , , , 
2025-09-28 19:43:50.471,-0.10049855,4.54397,9.107083,0.019776747,-0.028328855,-0.08888082,24.825,-27.31875,-35.1375,0.1708067,0.15946253,0.70125204,995.62177, , , , 
2025-09-28 19:43:50.491,0.17467605,4.4243293,8.671589,-0.046807513,-0.24029893,0.022907428,23.8875,-29.79375,-34.74375,0.17106858,0.15883586,0.70048857,995.5793, , , , 
2025-09-28 19:43:50.511,0.22492532,4.843073,8.492127,-0.093233235,-0.17188208,0.040011644,25.968752,-27.806252,-38.943752,0.17206633,0.15762974,0.7003403,995.5793, , , , 
2025-09-28 19:43:50.531,0.47138608,4.4171505,9.2075815,-0.06391173,-0.05337431,0.044287696,25.218752,-29.250002,-37.537502,0.17282626,0.15597314,0.7005329,995.55585, , , , 
2025-09-28 19:43:50.551,0.47856453,4.249653,9.444471,0.046043932,-0.014889829,0.03451386,25.29375,-27.900002,-35.006252,0.17279778,0.15500402,0.7008905,995.55585, , , , 
2025-09-28 19:43:50.571,0.41874397,4.17069,9.298509,0.14561489,-0.047265664,0.022296565,25.81875,-27.69375,-37.3875,0.17295285,0.15482199,0.7009965,995.55927, , , , 
2025-09-28 19:43:50.591,0.40438703,4.546363,8.475378,0.20609051,-0.16210824,0.027794348,26.8875,-26.831251,-38.475002,0.17571472,0.15506694,0.7005622,995.55927, , , , 
2025-09-28 19:43:50.611,0.93559366,4.6085763,8.346166,0.09552398,0.0816268,-9.162972E-4,24.45,-27.112501,-36.037502,0.17845477,0.15572934,0.7001887,995.5822, , , , 
2025-09-28 19:43:50.631,0.849452,4.766503,8.338987,0.047876526,0.22518003,-0.0027488915,23.081251,-28.218752,-38.456253,0.17875245,0.15628384,0.70026976,995.5822, , , , 
2025-09-28 19:43:50.651,0.02871387,4.7832522,8.312666,-0.10300707,0.26855144,0.024740024,25.0125,-29.400002,-36.581253,0.17766516,0.15838507,0.7007933,995.5988, , , , 
2025-09-28 19:43:50.671,0.15314065,4.759324,8.961121,-0.14271328,0.21968225,0.098654665,26.75625,-28.218752,-38.53125,0.17456818,0.16022494,0.70188415,995.5988, , , , 
2025-09-28 19:43:50.691,0.2656033,4.613362,9.171689,-0.0834594,0.067576915,0.09987639,26.306252,-28.143751,-37.256252,0.1732787,0.16038725,0.7026847,995.61053, , , , 
2025-09-28 19:43:50.711,0.2321038,4.2568316,9.327223,0.07170025,0.009544762,0.12186752,23.38125,-27.975,-35.268753,0.1724938,0.15997078,0.70363533,995.61053, , , , 
2025-09-28 19:43:50.731,0.4761717,4.5391846,8.752945,0.13461933,-0.09063706,0.08093958,24.487501,-26.868752,-35.287502,0.17297545,0.15990427,0.70428514,995.63007, , , , 
2025-09-28 19:43:50.751,0.37328035,4.4482574,8.336594,0.1004109,-0.06314815,0.035124727,24.993752,-28.66875,-35.4,0.17470895,0.15994118,0.704398,995.63007, , , , 
2025-09-28 19:43:50.771,0.38524446,4.6061835,8.422736,0.049098257,0.040088,0.027183482,24.562502,-28.706251,-36.43125,0.17564295,0.16041146,0.7044086,995.64105, , , , 
2025-09-28 19:43:50.791,0.5766702,4.694718,8.633304,-0.013209951,0.093233235,0.00763581,23.56875,-28.556252,-36.3375,0.17583069,0.16082074,0.7045331,995.64105, , , , 
2025-09-28 19:43:50.813,0.5383851,4.510471,8.834301,-0.027870705,0.03642281,-0.052839804,25.725,-27.975,-35.5125,0.17568673,0.16089445,0.7046821,995.6618, , , , 
2025-09-28 19:43:50.831,0.44506502,4.57747,9.269794,0.035048366,-0.0778089,-0.08032872,25.5375,-28.237501,-36.412502,0.17562188,0.16056561,0.70438606,995.6618, , , , 
2025-09-28 19:43:50.851,0.45224348,4.3764725,9.501899,0.18165591,-0.28794637,-0.116980605,25.031252,-28.650002,-36.787502,0.17704666,0.15977651,0.70343673,995.6857, , , , 
2025-09-28 19:43:50.871,0.3924229,4.7306104,7.893922,0.20486878,-0.26473352,-0.16951497,25.44375,-27.993752,-36.5625,0.18036197,0.15892035,0.701742,995.6857, , , , 
2025-09-28 19:43:50.891,0.31585258,4.8502517,7.735996,-0.011988222,0.050472703,-0.13041963,26.325,-29.5125,-37.5,0.18273646,0.15970205,0.7000701,995.6894, , , , 
2025-09-28 19:43:50.911,0.6795616,4.8095737,8.544769,-0.16165009,0.1928042,-0.07971785,24.300001,-28.500002,-35.643753,0.18152565,0.16103876,0.6994698,995.6894, , , , 
2025-09-28 19:43:50.931,0.22013968,4.84068,8.690732,-0.19769111,0.16409355,-0.083993904,23.5125,-28.593752,-33.393753,0.18053651,0.16116437,0.69949025,995.69574, , , , 
2025-09-28 19:43:50.951,0.02871387,4.386044,9.573684,-0.13416117,-0.09124792,-0.09315688,24.243752,-28.7625,-35.006252,0.1776283,0.16023882,0.6991951,995.69574, , , , 
2025-09-28 19:43:50.971,-0.20338993,4.2759743,9.958928,-0.015653409,-0.16088651,-0.068722285,23.8125,-28.050001,-35.15625,0.17685868,0.1590782,0.6987655,995.69305, , , , 
2025-09-28 19:43:50.991,0.41635114,4.517649,8.178668,-0.012599086,-0.10407609,-0.021685699,25.3875,-27.618752,-36.73125,0.17701663,0.15793969,0.6980552,995.69305, , , , 
2025-09-28 19:43:51.011,0.75613195,4.668397,7.8987074,-0.16653702,0.08223767,-0.0858265,24.7875,-28.312502,-36.018753,0.1773782,0.15749642,0.6978441,995.69305, , , , 
2025-09-28 19:43:51.031,0.20817557,4.316652,9.0544405,-0.27832526,0.10789399,-0.13408482,25.743752,-28.706251,-36.393753,0.17516628,0.15697764,0.69770676,995.69305, , , , 
2025-09-28 19:43:51.051,-0.021535404,4.211368,9.473185,-0.2532798,-0.05948296,-0.060781047,25.0125,-28.66875,-36.16875,0.1722752,0.15547387,0.6975171,995.686, , , , 
2025-09-28 19:43:51.071,0.23449662,4.1754756,8.867801,-0.28076872,-0.14744748,-0.0021380268,26.2875,-25.81875,-34.143753,0.170367,0.15305947,0.69757086,995.686, , , , 
2025-09-28 19:43:51.091,-0.016749758,4.4410787,9.523434,-0.3400226,-0.38934994,-0.0027488915,25.9125,-25.706251,-36.43125,0.16961414,0.15026172,0.6976418,995.6645, , , , 
2025-09-28 19:43:51.111,0.30388847,4.345366,9.296116,-0.27343833,-0.6654608,0.10415245,22.650002,-28.781252,-36.84375,0.1711733,0.14251786,0.6971638,995.6645, , , , 
2025-09-28 19:43:51.131,0.89730847,4.402794,8.82473,-0.3821723,-0.46937323,0.23182319,21.5625,-25.312502,-34.143753,0.17335941,0.13633466,0.6974604,995.66595, , , , 
2025-09-28 19:43:51.151,0.68195444,4.6971107,8.937193,-0.25999933,-0.19326234,0.35033095,23.925001,-27.018751,-38.625,0.17492186,0.13041733,0.69934654,995.66595, , , , 
2025-09-28 19:43:51.171,0.526421,4.345366,8.717052,-0.1928042,-0.0063377223,0.3197877,23.925001,-27.018751,-38.625,0.1751905,0.12955678,0.6998871,995.69183, , , , 
2025-09-28 19:43:51.191,0.8925229,4.386044,9.79143,0.474871,0.032757625,0.20127994,25.35,-25.125002,-39.65625,0.1751001,0.1315675,0.7038799,995.69183, , , , 
2025-09-28 19:43:51.211,0.9810573,3.9840498,8.276773,0.6459131,0.01809687,0.08643737,22.85625,-26.906252,-34.96875,0.17812276,0.13374588,0.7041768,995.72845, , , , 
2025-09-28 19:43:51.231,0.82313097,4.4554358,8.250452,0.55917037,0.4481457,-0.038179047,21.88125,-26.737501,-36.2625,0.18219599,0.14041917,0.7039286,995.72845, , , , 
2025-09-28 19:43:51.251,0.61016977,4.0677986,9.3511505,0.48403397,0.28748822,-0.1725693,24.956251,-27.656252,-38.23125,0.1826239,0.14665046,0.70338833,995.7431, , , , 
2025-09-28 19:43:51.271,0.11006984,4.912465,11.569298,0.65629786,-0.28855726,-0.1951713,25.44375,-27.375002,-37.518753,0.18343286,0.1497105,0.70217705,995.7431, , , , 
2025-09-28 19:43:51.291,0.30149564,4.4817567,8.420342,0.55245084,-0.5237402,-0.27458373,25.425001,-28.0125,-35.175003,0.19225681,0.15285677,0.6978051,995.7541, , , , 
2025-09-28 19:43:51.311,0.782453,5.0368915,7.0636125,0.3850739,-0.32032222,-0.23487751,26.643751,-28.10625,-39.46875,0.19843653,0.15354668,0.69443613,995.7541,37.88836596,127.73983337,144.98443603515625,0.0
2025-09-28 19:43:51.331,0.77766734,4.8263235,7.60439,-0.09078978,0.45547605,-0.1725693,25.181252,-28.518751,-36.037502,0.19842201,0.15514456,0.6934783,995.7546, , , , 
2025-09-28 19:43:51.351,0.12921242,4.922036,8.769695,-0.04130973,0.2618319,-0.16157374,23.71875,-28.44375,-34.818752,0.19295593,0.15914549,0.69315434,995.7546, , , , 
2025-09-28 19:43:51.371,0.1698904,4.910072,8.82473,-0.021151192,0.16959134,-0.14691298,23.71875,-28.44375,-34.818752,0.19242024,0.15956801,0.6930176,995.7668, , , , 
2025-09-28 19:43:51.391,0.21535404,5.096712,8.676374,0.047265664,-0.18593197,-0.044287696,20.962502,-27.487501,-33.037502,0.19228928,0.1600484,0.69202214,995.7668, , , , 
2025-09-28 19:43:51.411,0.64606214,4.1204405,6.4127645,-0.3278053,0.71203923,-0.16890411,24.35625,-27.487501,-35.23125,0.19278768,0.1591693,0.6916626,995.7734, , , , 
2025-09-28 19:43:51.431,-0.15074782,5.508278,9.1669035,-0.56970775,0.81527543,0.014966187,23.25,-27.862501,-35.100002,0.18438636,0.16159822,0.692796,995.7734, , , , 
2025-09-28 19:43:51.451,0.29671,4.4075794,9.229117,-0.4566978,0.658894,0.059559315,24.768751,-28.331251,-35.23125,0.17560011,0.16323006,0.69533974,995.78973, , , , 
2025-09-28 19:43:51.471,0.0,4.6564326,9.789038,-0.21479532,0.21968225,0.058337588,25.875002,-26.7,-37.29375,0.16970357,0.16389796,0.69716746,995.78973, , , , 
2025-09-28 19:43:51.491,0.18903299,4.56072,8.073383,0.037491824,-8.3993905E-4,0.0876591,26.38125,-28.29375,-34.78125,0.16912644,0.16329493,0.6979558,995.80536, , , , 
2025-09-28 19:43:51.511,0.2321038,4.6492543,8.52802,-0.032757625,0.12072215,0.097432934,24.993752,-27.075,-33.487503,0.16901779,0.16361132,0.69845307,995.80536, , , , 
2025-09-28 19:43:51.531,0.24885355,4.4578285,9.133404,-0.10117448,0.073685564,0.097432934,23.19375,-28.125002,-34.3125,0.16796243,0.163515,0.699575,995.7961, , , , 
2025-09-28 19:43:51.551,0.31106696,4.4913282,9.08794,-0.10483967,0.10178535,0.09193515,23.71875,-28.44375,-34.350002,0.16740009,0.16334967,0.70005494,995.7961, , , , 
2025-09-28 19:43:51.571,0.28953153,4.476971,9.221938,-0.05291616,0.1146135,0.109039366,23.85,-27.806252,-35.175003,0.16595104,0.16312444,0.70124876,995.78705, , , , 
2025-09-28 19:43:51.591,0.4139583,4.4674,9.193225,0.027717989,0.14149155,0.10415245,27.150002,-26.831251,-36.956253,0.16510876,0.16357532,0.7022214,995.78705, , , , 
2025-09-28 19:43:51.612,0.19860429,4.45065,9.188439,0.16760603,-0.018555017,0.046731155,25.275002,-27.281252,-34.725002,0.16545807,0.16506028,0.70299464,995.77826, , , , 
2025-09-28 19:43:51.631,0.23449662,4.4458647,8.989835,0.17676899,-0.028939718,0.038789913,25.275002,-27.281252,-34.725002,0.16578497,0.16528139,0.70299333,995.77826, , , , 
2025-09-28 19:43:51.651,0.18424734,4.5678983,8.575876,0.07841977,0.056581352,0.0021380268,25.25625,-25.1625,-34.85625,0.16691788,0.16654229,0.70293343,995.76483, , , , 
2025-09-28 19:43:51.671,0.09332009,4.610969,8.953942,0.036880963,0.046807513,-0.0015271619,25.5375,-26.75625,-35.4,0.16691902,0.16709311,0.70293057,995.76483, , , , 
2025-09-28 19:43:51.691,0.14117654,4.587041,8.645268,0.01244637,0.12377647,-0.0051923506,25.9125,-27.6,-33.54375,0.16680288,0.1680379,0.7029232,995.757, , , , 
2025-09-28 19:43:51.711,0.22731815,4.610969,8.769695,0.0051159924,0.2013563,-0.016798781,25.593752,-27.862501,-35.34375,0.16610917,0.16881545,0.7030498,995.757, , , , 
2025-09-28 19:43:51.732,0.011964113,4.570291,8.815159,0.008781182,0.21784966,-0.047952887,25.143751,-28.556252,-33.412502,0.16392912,0.1710664,0.7032649,995.74774, , , , 
2025-09-28 19:43:51.751,-0.15314065,4.6301117,9.08794,0.03199404,0.11033745,-0.047952887,26.5125,-27.656252,-34.537502,0.16296573,0.17212531,0.7032333,995.74774, , , , 
2025-09-28 19:43:51.771,-0.14117654,4.6492543,9.15494,0.09308052,-0.09308052,-0.011300999,26.343752,-28.5375,-34.7625,0.16304688,0.17289418,0.7028979,995.7292, , , , 
2025-09-28 19:43:51.791,-0.019142581,4.610969,8.551949,0.09491312,-0.10468695,0.033902995,26.868752,-28.10625,-34.6875,0.16453102,0.17284304,0.7025953,995.7292, , , , 
2025-09-28 19:43:51.811,0.12921242,4.520042,8.422736,0.02527453,0.013209951,0.04734202,24.73125,-26.868752,-32.381252,0.1653223,0.1728804,0.7026225,995.7006, , , , 
2025-09-28 19:43:51.831,0.21774685,4.3812585,8.482556,-0.057192214,0.15065452,0.033902995,27.6375,-29.400002,-35.475002,0.16501138,0.17316861,0.70317036,995.7006, , , , 
2025-09-28 19:43:51.851,0.91405827,4.1228333,9.30808,-0.074907295,0.07551816,-0.045509428,26.437502,-27.91875,-33.73125,0.16383322,0.17315193,0.70374113,995.66595, , , , 
2025-09-28 19:43:51.871,-0.047856454,5.0823555,8.451449,0.017333288,-8.3993905E-4,-0.047952887,25.125002,-28.781252,-34.93125,0.1629117,0.17288098,0.7033552,995.66595, , , , 
2025-09-28 19:43:51.891,-0.038285162,4.496114,8.717052,0.024663666,-0.051541716,-0.04612029,26.175001,-28.66875,-35.68125,0.16329513,0.17335823,0.7029099,995.6342, , , , 
2025-09-28 19:43:51.911,-0.009571291,4.587041,9.025727,0.058872093,-0.2201404,-0.040622506,24.6,-26.75625,-31.9125,0.16414514,0.17296986,0.702416,995.6342, , , , 
2025-09-28 19:43:51.931,-0.031106694,4.6875396,8.547162,0.05093085,-0.21891867,-0.051618073,24.431252,-27.6375,-32.456253,0.16659774,0.17166552,0.70138955,995.6108, , , , 
2025-09-28 19:43:51.951,0.014356935,4.735396,8.602198,0.0032833982,-0.09613484,-0.038179047,25.275002,-27.281252,-35.193752,0.16800272,0.17113538,0.7006628,995.6108, , , , 
2025-09-28 19:43:51.971,-0.0023928226,4.76411,8.62134,-0.049861837,0.04253146,-0.019853106,26.025002,-27.31875,-36.506252,0.16824713,0.17107719,0.70043856,995.59467, , , , 
2025-09-28 19:43:51.991,-0.05742774,4.7018967,8.841479,-0.081015944,0.060857404,-0.0070249448,24.581251,-27.73125,-34.162502,0.16777788,0.17127208,0.7004505,995.59467, , , , 
2025-09-28 19:43:52.011,-0.09810573,4.694718,8.99462,-0.08040508,-0.033826638,0.0058032153,23.98125,-29.925001,-33.05625,0.16695274,0.17109382,0.7005723,995.5876, , , , 
2025-09-28 19:43:52.031,0.0741775,4.5942197,8.657232,-0.087124586,-0.11995857,0.014355322,25.687502,-27.993752,-33.65625,0.16710685,0.16979592,0.70056385,995.5876, , , , 
2025-09-28 19:43:52.051,0.086141616,4.5655055,8.772088,-0.102396205,-0.086361006,0.0027488915,26.85,-28.35,-37.3125,0.1673012,0.16851375,0.7006197,995.5722, , , , 
2025-09-28 19:43:52.071,0.009571291,4.517649,9.262616,-0.03581195,-0.17249294,-0.0015271619,26.250002,-26.812502,-34.85625,0.16745083,0.16685994,0.7005475,995.5722, , , , 
2025-09-28 19:43:52.091,0.3062813,4.5008993,9.008977,0.082084954,-0.2720639,9.162972E-4,25.25625,-28.25625,-36.675003,0.16927546,0.16482334,0.70012057,995.58295, , , , 
2025-09-28 19:43:52.111,0.3469593,4.5224347,8.69791,0.10102176,-0.2512945,-0.003970621,25.218752,-26.156252,-35.4,0.17116691,0.16376367,0.6997306,995.58295, , , , 
2025-09-28 19:43:52.131,0.2321038,4.601398,8.630911,0.07658717,-0.17799072,0.004581486,26.906252,-28.087502,-36.862503,0.17344935,0.16282558,0.69922477,995.6235, , , , 
2025-09-28 19:43:52.151,0.38285163,4.6779685,8.719446,0.052763447,-0.10224349,0.0058032153,25.837502,-28.2,-36.43125,0.174664,0.16250001,0.6989756,995.6235, , , , 
2025-09-28 19:43:52.171,0.33020952,4.651647,8.774481,0.05215258,-0.0674242,-0.01924224,24.431252,-27.112501,-34.96875,0.17632863,0.1620676,0.6986365,995.66254, , , , 
2025-09-28 19:43:52.191,0.27517462,4.7210393,8.724232,0.022831071,-0.035048366,-0.011911863,23.550001,-27.825,-35.1375,0.17716114,0.16209564,0.6982868,995.66254, , , , 
2025-09-28 19:43:52.211,0.4211368,4.725825,8.774481,-0.004657844,0.054748755,-0.0021380268,23.04375,-28.987501,-35.79375,0.17738082,0.16219868,0.6982142,995.695, , , , 
2025-09-28 19:43:52.231,0.37806597,4.694718,8.906086,-0.012599086,0.09750929,-0.014966187,24.862501,-27.937502,-36.037502,0.17704134,0.16256154,0.6983321,995.695, , , , 
2025-09-28 19:43:52.251,0.26081768,4.6636114,8.985049,0.008781182,0.013820816,-0.015577052,23.456251,-27.712502,-36.05625,0.17629054,0.16305026,0.6983662,995.7233, , , , 
2025-09-28 19:43:52.271,0.634098,4.7401814,8.602198,0.036880963,-0.08880447,-0.032681264,25.48125,-27.750002,-35.49375,0.1767074,0.16286945,0.6981687,995.7233, , , , 
2025-09-28 19:43:52.291,0.8566305,4.7832522,8.114061,-0.00160352,-0.056428634,-0.051007207,24.112501,-27.900002,-33.956253,0.17811647,0.16237669,0.69776917,995.7485, , , , 
2025-09-28 19:43:52.311,0.8709874,4.8239303,8.092526,-0.028481571,-0.024663666,-0.05589413,25.031252,-28.425001,-34.0125,0.17879082,0.16215931,0.6975772,995.7485,37.88836596,127.73983337,144.98443603515625,0.0
2025-09-28 19:43:52.331,1.6630118,4.386044,8.025527,-0.06330086,-0.12362376,-0.12553272,27.16875,-27.562502,-38.15625,0.18035667,0.16134934,0.6970369,995.7653, , , , 
2025-09-28 19:43:52.353,0.6412765,3.9338005,6.5635123,-0.1787543,-0.35636324,-0.14813471,26.343752,-25.050001,-36.506252,0.18332198,0.15846013,0.69541025,995.7819, , , , 
2025-09-28 19:43:52.371,0.64606214,4.017549,6.2309103,-0.3333031,-0.4889209,-0.123089254,24.750002,-26.85,-33.46875,0.18520005,0.15482765,0.6940327,995.7819, , , , 
2025-09-28 19:43:52.391,1.1988041,3.5365918,6.652047,-0.405996,-0.5341249,-0.13408482,25.81875,-25.35,-35.5125,0.18667583,0.15067375,0.69310933,995.7819, , , , 
2025-09-28 19:43:52.412,0.90448695,3.3044882,7.001399,-0.41943502,-0.47975793,-0.15546508,25.518751,-27.73125,-37.350002,0.18754403,0.14311332,0.69150054,995.81244, , , , 
2025-09-28 19:43:52.431,0.44506502,3.266203,7.092326,-0.41088292,-0.48097965,-0.110871956,24.73125,-25.706251,-36.15,0.1876905,0.13882513,0.69059944,995.81244, , , , 
2025-09-28 19:43:52.451,0.53599226,3.3667014,7.34118,-0.40294167,-0.7057779,-0.062002774,25.275002,-25.9125,-35.737503,0.18829532,0.13413875,0.689814,995.8278, , , , 
2025-09-28 19:43:52.471,0.27756742,3.4337006,7.925029,-0.4701368,-0.7241038,0.04856375,23.90625,-26.2875,-37.425003,0.1914781,0.12256181,0.68822116,995.8278, , , , 
2025-09-28 19:43:52.491,0.86859465,3.4576287,8.516056,-0.47991064,-0.7112757,0.09315688,25.06875,-26.400002,-38.456253,0.19355686,0.112446755,0.6878028,995.84467, , , , 
2025-09-28 19:43:52.511,1.0743774,3.5724843,8.750552,-0.5153408,-0.58360493,0.1065959,24.35625,-25.706251,-40.443752,0.19434208,0.10654303,0.6877985,995.84467, , , , 
2025-09-28 19:43:52.531,1.105484,3.8069808,9.336794,-0.57154036,-0.4107302,0.09987639,21.956251,-25.968752,-39.393753,0.1942808,0.09916264,0.68803716,995.8659, , , , 
2025-09-28 19:43:52.551,0.9954142,3.9481573,9.946963,-0.5312233,-0.15783219,0.08704823,24.337502,-25.725,-39.65625,0.19163837,0.09211379,0.68890953,995.8659, , , , 
2025-09-28 19:43:52.571,0.89730847,3.9098723,9.920643,-0.5104539,-0.18593197,0.06444623,24.150002,-23.98125,-41.90625,0.18944298,0.087260365,0.6894897,995.8903, , , , 
2025-09-28 19:43:52.591,1.052842,3.888337,10.688739,-0.55077094,0.090178914,0.050396346,21.956251,-24.468752,-39.787502,0.186578,0.08292545,0.690114,995.8903, , , , 
2025-09-28 19:43:52.612,0.7322037,3.7280176,11.270195,-0.38950264,0.2239583,0.043065965,22.237501,-25.425001,-41.006252,0.18192263,0.080544144,0.6911029,995.904, , , , 
2025-09-28 19:43:52.631,0.7082755,3.6610186,10.990234,-0.20196716,0.12988512,0.08949169,23.19375,-25.181252,-43.125,0.17756179,0.07938488,0.6922853,995.904, , , , 
2025-09-28 19:43:52.651,1.1940185,3.8644085,10.595419,-0.12621993,0.108504854,0.1084285,22.275002,-25.181252,-41.025,0.17593396,0.07912113,0.693082,995.92914, , , , 
2025-09-28 19:43:52.671,1.753939,4.0127635,10.473385,-0.1164461,0.026038112,0.03695732,22.893751,-21.487501,-41.90625,0.17472981,0.078615546,0.6938619,995.92914, , , , 
2025-09-28 19:43:52.691,1.7371893,3.9433718,10.547563,-0.12255475,0.16959134,-0.059559315,21.393751,-26.737501,-42.393753,0.1738881,0.07830793,0.6940058,995.9299, , , , 
2025-09-28 19:43:52.711,0.8709874,3.9194436,10.57149,-0.11339177,0.5238929,-0.08643737,22.85625,-24.618752,-41.8875,0.17003216,0.08005592,0.6941276,995.9299, , , , 
2025-09-28 19:43:52.731,0.715454,3.9433718,10.325029,-0.06696605,0.42737627,-0.066889696,23.0625,-25.81875,-43.068752,0.16578834,0.08305798,0.69449115,995.9279, , , , 
2025-09-28 19:43:52.751,0.8350951,3.792624,10.191031,-0.010766491,0.26671883,-0.059559315,25.7625,-23.41875,-44.41875,0.16223852,0.08594251,0.69470507,995.9279, , , , 
2025-09-28 19:43:52.771,0.91884387,3.7567315,10.114461,0.022831071,0.27527094,-0.074830934,23.737501,-26.00625,-42.05625,0.16035096,0.087908976,0.6946849,995.93646, , , , 
2025-09-28 19:43:52.791,0.7728817,3.7663028,9.789038,0.013057235,0.3278053,-0.083383046,23.268751,-24.69375,-41.456253,0.15896015,0.08960521,0.6945943,995.93646, , , , 
2025-09-28 19:43:52.811,0.61734825,3.7016966,9.875179,-0.018707734,0.37850708,-0.062002774,22.25625,-23.8125,-40.78125,0.15651771,0.0921376,0.69460064,995.9379, , , , 
2025-09-28 19:43:52.831,0.5886344,3.6323047,10.114461,0.08575014,0.26122105,-0.051618073,23.325,-24.31875,-41.025,0.15295158,0.096004754,0.69483703,995.9379, , , , 
2025-09-28 19:43:52.851,0.36610186,3.6753755,9.518648,0.12484549,0.08956805,-0.038179047,23.362501,-24.075,-39.65625,0.15237957,0.09808603,0.6946744,995.93256, , , , 
2025-09-28 19:43:52.871,0.36131623,3.6179478,9.312865,0.099800035,0.06269,-0.024740024,26.493752,-25.25625,-39.91875,0.15248172,0.09879951,0.6945548,995.93256, , , , 
2025-09-28 19:43:52.891,0.2536392,3.4839497,9.487542,0.04054615,0.20074543,0.021074835,24.375002,-25.48125,-38.60625,0.15198031,0.10047887,0.69461954,995.9257, , , , 
2025-09-28 19:43:52.911,0.3804588,3.414558,9.671789,0.05459604,0.19219333,0.05222894,26.268751,-24.2625,-40.875,0.1510935,0.10173545,0.6949901,995.9257, , , , 
2025-09-28 19:43:52.931,0.33499518,3.3810585,9.317652,0.14989094,0.059635673,0.07055488,29.400002,-24.91875,-43.18125,0.1505235,0.10448997,0.6958879,995.9118, , , , 
2025-09-28 19:43:52.951,0.38763726,3.3882368,9.099904,0.1523344,-0.008781182,0.07849612,27.093752,-24.562502,-40.78125,0.1511283,0.1053796,0.6961753,995.9118, , , , 
2025-09-28 19:43:52.971,0.38285163,3.37388,9.013762,0.1419497,0.0028252497,0.0858265,27.150002,-25.66875,-40.725002,0.15194075,0.10603938,0.6964483,995.8996, , , , 
2025-09-28 19:43:52.991,0.37567315,3.426522,8.721839,0.098578304,0.05780308,0.097432934,24.018751,-25.987501,-41.006252,0.15243363,0.10708652,0.6969055,995.8996, , , , 
2025-09-28 19:43:53.011,0.33020952,3.4408789,8.781659,0.04054615,0.057192214,0.10720677,25.25625,-24.018751,-38.625,0.15240565,0.10818651,0.6975342,995.8908, , , , 
2025-09-28 19:43:53.031,0.5982057,3.4121652,9.253045,0.055206906,0.026648976,0.1188132,25.25625,-25.500002,-39.15,0.15194955,0.10885611,0.6987129,995.8908, , , , 
2025-09-28 19:43:53.051,0.72741807,3.5030923,8.863015,0.055817768,0.022983788,0.101708986,25.10625,-27.000002,-39.675003,0.15219235,0.109097645,0.69947475,995.88446, , , , 
2025-09-28 19:43:53.071,0.78723866,3.5533416,8.750552,0.011835505,0.027259842,0.083993904,24.656252,-25.575,-38.775,0.15244018,0.10938866,0.7001072,995.88446, , , , 
2025-09-28 19:43:53.091,0.9499506,3.5557344,9.116654,-0.022372922,0.028481571,0.047952887,26.00625,-24.69375,-38.8125,0.15227398,0.109411284,0.7007546,995.8774, , , , 
2025-09-28 19:43:53.111,0.79441714,3.5270207,9.317652,-0.008933897,0.020540329,0.030237807,24.112501,-26.868752,-39.581253,0.15224308,0.10916778,0.70102596,995.8774, , , , 
2025-09-28 19:43:53.131,0.7800602,3.5676985,9.119047,0.018555017,-0.016111558,0.024129158,25.181252,-23.8875,-40.93125,0.15244484,0.10884718,0.70131916,995.8671, , , , 
2025-09-28 19:43:53.151,0.7896315,3.5676985,9.102298,0.013057235,-0.015500694,0.018631376,23.00625,-26.587502,-40.706253,0.15288508,0.10866501,0.7014567,995.8671, , , , 
2025-09-28 19:43:53.171,0.6125626,3.5533416,8.848659,0.0051159924,-0.046043932,0.031459536,24.993752,-25.518751,-40.66875,0.15329,0.108463354,0.70156515,995.86127, , , , 
2025-09-28 19:43:53.192,0.82313097,3.5437703,8.889337,-0.044364054,-0.042989608,0.035124727,25.25625,-26.475,-41.8875,0.15379007,0.107943244,0.7017772,995.86127, , , , 
2025-09-28 19:43:53.211,0.7322037,3.4983068,9.119047,-0.05535962,-0.052763447,0.027794348,26.175001,-26.268751,-41.362503,0.15394498,0.10731048,0.70194274,995.8505, , , , 
2025-09-28 19:43:53.231,0.61016977,3.4432719,9.188439,-0.033368487,-0.08269582,0.036346454,26.437502,-24.993752,-41.925003,0.15399952,0.10664818,0.7020816,995.8505, , , , 
2025-09-28 19:43:53.252,0.7848458,3.5653057,9.0544405,-0.01687514,-0.074143715,0.04734202,22.44375,-23.325,-37.443752,0.15429579,0.10585127,0.702268,995.84515, , , , 
2025-09-28 19:43:53.271,0.6891329,3.6275191,9.102298,-0.06207913,-0.075976305,0.01924224,25.743752,-26.062502,-40.10625,0.15488508,0.10499405,0.7025392,995.84515, , , , 
2025-09-28 19:43:53.291,0.6436693,3.6131623,9.406186,-0.06269,-0.15355614,0.028405212,24.618752,-26.56875,-39.3375,0.15506135,0.104082786,0.70258045,995.8422, , , , 
2025-09-28 19:43:53.311,1.0001999,3.5318062,9.468399,-0.033368487,-0.2201404,0.011300999,25.687502,-25.687502,-41.34375,0.15589975,0.10243085,0.70253223,995.8422,37.88836596,127.73983337,144.98443603515625,0.0
2025-09-28 19:43:53.331,0.91166544,3.4672,9.363115,-0.013209951,-0.24396412,-0.008857539,24.7875,-25.893751,-42.6375,0.15699404,0.10090683,0.70235187,995.84344, , , , 
2025-09-28 19:43:53.351,1.012164,3.5150564,9.186047,0.0075594517,-0.3343721,0.008857539,24.806252,-25.893751,-42.9375,0.15949896,0.09797379,0.7017978,995.84344, , , , 
2025-09-28 19:43:53.371,1.2514462,3.5126636,9.066405,0.033826638,-0.4492147,-0.021074835,23.25,-25.331251,-40.03125,0.16245095,0.09528082,0.7011939,995.84393, , , , 
2025-09-28 19:43:53.391,1.3974084,3.4695928,8.817552,0.014889829,-0.407065,-0.049174614,21.675001,-24.487501,-40.21875,0.1661643,0.092177086,0.7002476,995.84393, , , , 
2025-09-28 19:43:53.411,1.3710874,3.6394832,8.6548395,-0.0040469794,-0.3417025,-0.06811142,23.868752,-25.143751,-39.3375,0.16842721,0.090232655,0.69954795,995.8317, , , , 
2025-09-28 19:43:53.431,1.4620147,3.7663028,8.530413,-0.033368487,-0.4455495,-0.10231985,23.1375,-24.581251,-41.60625,0.17152707,0.08779735,0.6983707,995.8317, , , , 
2025-09-28 19:43:53.451,1.4093726,3.6394832,8.489735,-0.090178914,-0.36980227,-0.13713914,24.581251,-24.806252,-42.675003,0.1740454,0.08555679,0.697233,995.8244, , , , 
2025-09-28 19:43:53.471,1.2634103,3.6107693,8.7984085,-0.17936517,-0.19265148,-0.14019346,21.056252,-23.306252,-41.775,0.17619017,0.08200394,0.6951792,995.8244, , , , 
2025-09-28 19:43:53.491,1.2873386,3.6227336,9.212367,-0.21723878,-0.14928009,-0.13164136,23.868752,-23.1375,-41.60625,0.17612912,0.08005571,0.6940543,995.8105, , , , 
2025-09-28 19:43:53.511,1.2993027,3.505485,9.851251,-0.22640176,-0.10468695,-0.123089254,22.125,-24.675001,-43.2,0.17539336,0.07798709,0.69309944,995.8105, , , , 
2025-09-28 19:43:53.531,1.2586247,3.4360933,10.167104,-0.16409355,-0.09674571,-0.120034926,23.362501,-24.300001,-43.2,0.1744428,0.07645191,0.69249874,995.8151, , , , 
2025-09-28 19:43:53.551,1.0169497,3.4767714,9.683753,-0.06391173,-0.06620247,-0.08888082,22.368752,-23.41875,-42.206253,0.17294571,0.07458526,0.6913535,995.8151, , , , 
2025-09-28 19:43:53.571,0.9882358,3.5557344,9.257831,-0.06024654,0.019929463,-0.06627883,20.306252,-23.60625,-44.15625,0.17244543,0.07450149,0.6909006,995.8156, , , , 
2025-09-28 19:43:53.591,0.9523434,3.615555,9.255438,-0.07612903,0.0956767,-0.054061532,21.431252,-24.375002,-42.05625,0.17137654,0.0750827,0.6905444,995.8156, , , , 
2025-09-28 19:43:53.611,0.7106683,3.586841,9.047262,-0.048029244,-0.08513928,-0.038179047,23.0625,-23.7,-43.350002,0.17006886,0.07599888,0.690154,995.8166, , , , 
2025-09-28 19:43:53.631,0.9738788,3.3284163,8.671589,-0.039477136,-0.28733552,0.018631376,21.1875,-24.150002,-42.506252,0.1705124,0.075558834,0.6896576,995.8166, , , , 
2025-09-28 19:43:53.651,1.5337993,3.1345978,8.279166,-0.043753188,-0.4229475,0.03329213,21.16875,-22.66875,-40.74375,0.17241426,0.0733212,0.68929344,995.8083, , , , 
2025-09-28 19:43:53.671,1.6510476,3.0173492,7.6259255,-0.08651373,-0.6294198,0.014355322,22.40625,-23.90625,-42.506252,0.1758453,0.06934394,0.688702,995.8083, , , , 
2025-09-28 19:43:53.695,1.6007984,2.7421749,7.058827,-0.1702022,-1.0051017,0.029626941,22.06875,-24.91875,-43.18125,0.17952861,0.0647713,0.68786573,995.78876, , , , 
2025-09-28 19:43:53.712,2.0171494,1.9118652,6.7573314,-0.2862665,-1.5469387,0.17684536,20.7,-23.925001,-45.7125,0.19050682,0.049036723,0.68541765,995.78876, , , , 
2025-09-28 19:43:53.731,2.5603201,1.6462619,6.1232333,-0.26977316,-1.7644066,0.25870124,20.325,-20.737501,-45.393753,0.19928631,0.03568713,0.68395674,995.769, , , , 
2025-09-28 19:43:53.751,2.0554347,1.4285151,4.3836513,-0.2758818,-2.3105197,0.35521787,17.23125,-22.29375,-46.068752,0.2102809,0.02017859,0.68218994,995.769, , , , 
2025-09-28 19:43:53.771,1.4476577,1.0935199,2.9503503,-0.39622217,-2.995299,0.5574141,17.4375,-22.7625,-46.8375,0.22505873,-8.1302904E-5,0.6796972,995.7353, , , , 
2025-09-28 19:43:53.791,3.0843484,0.57188463,3.1154552,-0.5568796,-3.6086073,0.7357866,14.493751,-22.81875,-46.518753,0.23873703,-0.019919887,0.6774386,995.7353, , , , 
2025-09-28 19:43:53.811,4.1204405,0.08853444,3.993621,-0.55382526,-3.8596728,0.7394518,10.14375,-22.63125,-47.15625,0.25911513,-0.050768822,0.67330986,995.68475, , , , 
2025-09-28 19:43:53.831,3.7806597,-0.6867401,3.196811,-0.47074768,-3.961687,0.93981546,6.2625003,-23.362501,-52.10625,0.29152378,-0.0986939,0.665175,995.68475, , , , 
2025-09-28 19:43:53.851,3.8572302,-1.1294123,2.143969,-0.70165455,-3.9451938,1.2428044,1.66875,-20.625,-49.93125,0.31192818,-0.13168353,0.6600479,995.6608, , , , 
2025-09-28 19:43:53.871,4.867001,-1.6342978,2.009971,-0.9747111,-4.013611,1.4645483,-3.24375,-23.118752,-48.956253,0.3255341,-0.15820588,0.6565358,995.6608, , , , 
2025-09-28 19:43:53.892,5.328816,-2.2229323,2.2181466,-1.2838087,-4.2078657,1.7259984,-7.9500003,-18.88125,-48.862503,0.34179908,-0.19680138,0.6514251,995.63275, , , , 
2025-09-28 19:43:53.911,6.1184473,-3.318845,4.194618,-1.4878376,-3.9684067,2.1755948,-15.431251,-18.150002,-49.050003,0.35792243,-0.24938846,0.6450007,995.63275, , , , 
2025-09-28 19:43:53.931,6.474978,-3.8285162,4.0965123,-1.4279728,-3.7845364,2.5164576,-15.375001,-16.40625,-48.075,0.36446556,-0.28019658,0.64263296,995.6369, , , , 
2025-09-28 19:43:53.951,8.075776,-4.634897,3.5964124,-1.394986,-4.132118,2.911076,-24.956251,-12.806251,-45.412502,0.37375996,-0.3323075,0.63970643,995.6369, , , , 
2025-09-28 19:43:53.971,9.317652,-5.2929235,3.2398818,-1.3387865,-4.0362124,3.1884086,-27.0375,-10.668751,-43.3125,0.3824453,-0.38620636,0.6358784,995.6486, , , , 
2025-09-28 19:43:53.991,9.987641,-5.773881,2.9958138,-1.309465,-3.4571128,3.3173013,-31.1625,-5.4,-39.9375,0.38547817,-0.42676404,0.6336114,995.6486, , , , 
2025-09-28 19:43:54.011,10.480563,-6.5898337,2.3545375,-1.2831979,-3.1070874,3.5023932,-34.162502,-4.125,-37.068752,0.3841029,-0.46386117,0.63258326,995.664, , , , 
2025-09-28 19:43:54.032,12.538391,-6.6257257,1.4404793,-1.3174063,-2.7931027,3.4871216,-34.66875,-0.69375,-35.2125,0.37978852,-0.49904075,0.6317701,995.664, , , , 
2025-09-28 19:43:54.051,12.813565,-6.984649,0.89730847,-1.5519783,-2.2213335,3.2519386,-35.8125,2.53125,-33.2625,0.37265396,-0.53157246,0.629899,995.6735, , , , 
2025-09-28 19:43:54.071,11.535798,-7.393822,1.7060826,-1.6698753,-1.7735696,3.1383178,-33.91875,4.59375,-34.5,0.36158884,-0.5611948,0.6269596,995.6735, , , , 
2025-09-28 19:43:54.091,10.978271,-8.111669,3.117848,-1.394986,-1.6049708,3.1706936,-36.3375,10.181251,-31.95,0.3442751,-0.5944041,0.6238617,995.68085, , , , 
2025-09-28 19:43:54.111,11.320444,-8.130812,3.103491,-1.1836269,-1.6141338,3.14687,-33.975002,11.775001,-31.518751,0.33734947,-0.6062875,0.6232761,995.68085, , , , 
2025-09-28 19:43:54.131,10.746166,-8.446664,1.6007984,-0.76701707,-1.5102868,3.0137014,-34.55625,14.475,-33.61875,0.32179263,-0.63207436,0.62309736,995.7155, , , , 
2025-09-28 19:43:54.151,11.109876,-8.7673025,0.57427746,-0.6301834,-1.4999021,2.9275694,-36.84375,18.806252,-28.987501,0.3068677,-0.653927,0.6237803,995.7155, , , , 
2025-09-28 19:43:54.171,11.662618,-9.035298,0.46899325,-0.5434406,-1.4803544,2.7980661,-36.375,19.725,-28.312502,0.29860303,-0.6659355,0.62378603,995.7209, , , , 
2025-09-28 19:43:54.191,11.002198,-9.205189,0.25603202,-0.43592837,-1.2683843,2.640463,-33.43125,23.60625,-26.23125,0.28554875,-0.68341446,0.62369436,995.7209, , , , 
2025-09-28 19:43:54.211,10.475778,-9.293723,0.14596218,-0.41271552,-0.9916626,2.590372,-35.737503,23.868752,-25.218752,0.27443087,-0.6954186,0.62389374,995.71747, , , , 
2025-09-28 19:43:54.231,10.750952,-9.145369,0.13399807,-0.428598,-0.57322025,2.4608688,-31.85625,28.3875,-27.431252,0.25833094,-0.7084453,0.62451386,995.71747, , , , 
2025-09-28 19:43:54.251,10.444671,-9.016156,-0.047856454,-0.428598,-0.23663375,2.292881,-31.1625,29.062502,-25.837502,0.24763797,-0.7150347,0.62508935,995.70624, , , , 
2025-09-28 19:43:54.271,9.954143,-8.688339,-0.28953153,-0.46952593,0.005268709,2.14383,-32.081253,29.587502,-25.0125,0.23262125,-0.7226621,0.6258687,995.70624, , , , 
2025-09-28 19:43:54.291,9.829716,-8.403593,-0.1698904,-0.50556695,0.2361756,1.9599596,-28.35,31.331251,-25.500002,0.21716054,-0.72947574,0.6262688,995.69794, , , , 
2025-09-28 19:43:54.311,9.817751,-8.080562,0.38763726,-0.45853037,0.37789622,1.6612468,-26.75625,34.350002,-23.681252,0.19829194,-0.7366401,0.62645054,995.69794,37.88836596,127.73983337,144.98443603515625,0.0
2025-09-28 19:43:54.331,10.1599245,-7.661818,0.5623133,-0.3107011,0.33696827,1.3429862,-28.931252,34.59375,-21.150002,0.18496637,-0.74089575,0.6267827,995.7011, , , , 
2025-09-28 19:43:54.351,9.796216,-7.4153576,0.33738798,-0.17753258,0.3504073,1.0149518,-25.25625,33.525,-26.56875,0.17446788,-0.74353737,0.62751925,995.7011, , , , 
2025-09-28 19:43:54.371,9.487542,-7.3579297,0.08135597,-0.12255475,0.3418552,0.7761037,-25.2,33.16875,-25.931252,0.1662974,-0.74495506,0.628479,995.7275, , , , 
2025-09-28 19:43:54.391,9.805787,-7.365108,-0.038285162,-0.13660464,0.42615455,0.5543598,-24.0375,37.518753,-25.987501,0.16137694,-0.745585,0.62908286,995.7275, , , , 
2025-09-28 19:43:54.411,10.152746,-7.1306114,0.42592242,-0.10300707,0.62163126,0.08155045,-23.19375,35.737503,-27.525002,0.15374616,-0.7457521,0.62975556,995.7319, , , , 
2025-09-28 19:43:54.431,9.542577,-6.678368,0.4977071,0.019776747,0.62407476,-0.30757043,-22.85625,35.268753,-26.925001,0.1513711,-0.7444746,0.63027024,995.7319, , , , 
2025-09-28 19:43:54.451,7.3698936,-6.975078,-0.21774685,0.12851068,0.5306124,-0.6013964,-24.750002,36.1875,-24.6,0.15198699,-0.74193347,0.63104194,995.74066, , , , 
2025-09-28 19:43:54.471,5.74756,-6.74776,-0.71306115,0.15661046,0.29054257,-0.6459895,-23.212502,35.737503,-26.437502,0.15378933,-0.73981994,0.6315522,995.74066, , , , 
2025-09-28 19:43:54.491,6.0083776,-6.1734824,-0.91405827,0.09735657,-0.20731224,-0.6007855,-24.2625,34.65,-29.04375,0.15919411,-0.7371782,0.6316368,995.74457, , , , 
2025-09-28 19:43:54.511,6.7836523,-6.135197,-0.3062813,0.1211803,-0.30566147,-0.57696176,-25.031252,35.41875,-26.38125,0.16551863,-0.73593545,0.6308422,995.74457, , , , 
2025-09-28 19:43:54.531,8.1738825,-5.9294147,-0.4977071,0.17737986,-0.41867146,-0.5366447,-24.375002,35.100002,-25.66875,0.17423888,-0.7340435,0.63023496,995.7387, , , , 
2025-09-28 19:43:54.551,10.487741,-5.503492,-0.40917268,0.11934771,-0.49136436,-0.59345514,-24.768751,35.193752,-26.868752,0.18203558,-0.7326796,0.62943566,995.7387, , , , 
2025-09-28 19:43:54.571,11.954542,-5.4628143,-0.31585258,0.0051159924,-0.19081889,-0.82314026,-23.60625,33.7125,-27.375002,0.18813695,-0.7315491,0.628408,995.7236, , , , 
2025-09-28 19:43:54.591,12.693924,-5.802595,0.8566305,-0.08895718,-0.08391755,-1.0925317,-27.0375,33.581253,-25.29375,0.19669622,-0.7297434,0.62602067,995.7236, , , , 
2025-09-28 19:43:54.611,13.679767,-6.1854467,2.8785655,0.15538873,-0.14317143,-1.4895937,-27.656252,31.9125,-25.143751,0.20458779,-0.72751415,0.6240693,995.7043, , , , 
2025-09-28 19:43:54.631,13.395021,-6.6161547,2.1415763,0.8511637,-0.44982556,-2.0613632,-32.006252,31.575,-23.737501,0.2273814,-0.7172725,0.6233549,995.7043, , , , 
2025-09-28 19:43:54.651,10.8682,-7.0301127,1.0241281,1.1083378,-0.65141094,-2.1591015,-30.075,31.650002,-24.093752,0.24826415,-0.70679533,0.6245104,995.6933, , , , 
2025-09-28 19:43:54.671,11.598011,-6.812366,1.6103697,1.44187,-1.2360085,-2.3771803,-31.275002,29.925001,-26.19375,0.271432,-0.69493127,0.62614197,995.6933, , , , 
2025-09-28 19:43:54.691,9.9015,-7.2215385,-1.416551,1.6538401,-1.1052835,-2.4529276,-34.3125,25.987501,-23.025002,0.30639207,-0.67708164,0.6284296,995.6879, , , , 
2025-09-28 19:43:54.711,9.073584,-7.3698936,-4.005585,1.1168898,-0.48281226,-2.2128577,-35.90625,24.468752,-25.237501,0.32501733,-0.66634417,0.6293922,995.6879, , , , 
2025-09-28 19:43:54.733,9.949356,-6.2548385,-3.022135,0.3991238,-0.061926417,-1.9526292,-39.24375,21.112501,-23.00625,0.346894,-0.6526121,0.62827986,995.6718, , , , 
2025-09-28 19:43:54.751,10.923235,-5.613562,-2.1248264,0.04848739,0.34796384,-1.9740095,-37.93125,17.925001,-26.5125,0.35980466,-0.6442334,0.6251462,995.6718, , , , 
2025-09-28 19:43:54.771,10.351351,-5.1014977,-1.538585,-0.234343,0.7706823,-1.958127,-39.506252,16.875,-23.6625,0.36929783,-0.6362039,0.6213364,995.653, , , , 
2025-09-28 19:43:54.791,10.6408825,-5.0129633,0.09092726,-0.36873326,0.6662244,-1.9740095,-40.256252,16.1625,-23.081251,0.3761738,-0.62874126,0.61685884,995.653, , , , 
2025-09-28 19:43:54.811,10.942378,-4.6037908,1.1222339,-0.22273657,0.2410625,-2.0961826,-39.65625,15.375001,-24.16875,0.38424322,-0.62157893,0.6110678,995.65497, , , , 
2025-09-28 19:43:54.831,11.102697,-4.7784667,0.7178468,0.08575014,0.031535894,-2.2690573,-39.768753,12.618751,-24.937502,0.39597392,-0.6132726,0.6046176,995.65497, , , , 
2025-09-28 19:43:54.851,10.719846,-4.8191447,-0.9523434,0.18837543,0.07063124,-2.3533566,-40.068752,11.1,-24.806252,0.40646443,-0.60560656,0.6000689,995.67645, , , , 
2025-09-28 19:43:54.871,9.963714,-5.2809596,-2.2588246,-0.22518003,0.6747765,-2.3173156,-42.506252,10.837501,-23.00625,0.4219874,-0.59248906,0.59195644,995.67645, , , , 
2025-09-28 19:43:54.891,9.513863,-5.0129633,-0.41635114,-0.52022773,0.96493727,-2.183536,-41.456253,4.875,-25.85625,0.4307674,-0.5802769,0.58349115,995.6806, , , , 
2025-09-28 19:43:54.911,9.860822,-5.0823555,0.0023928226,-0.47624546,1.0773364,-2.134667,-40.818752,4.33125,-26.98125,0.4330457,-0.57547534,0.5802334,995.6806, , , , 
2025-09-28 19:43:54.931,10.207782,-6.5084777,-2.2636101,-0.67111135,-0.3239874,-2.134667,-41.9625,2.2125,-27.806252,0.44023696,-0.5595658,0.571463,995.686, , , , 
2025-09-28 19:43:54.951,9.590433,-6.6017976,-2.2085752,-1.8635193,-2.3868778,-2.6001458,-42.112503,0.93750006,-25.406252,0.4552264,-0.56307155,0.5494981,995.686, , , , 
2025-09-28 19:43:54.971,6.826723,-3.117848,1.7491534,-1.3754385,-1.4583633,-2.3814564,-44.175003,-1.25625,-25.368752,0.47234455,-0.5692806,0.52087766,995.6789, , , , 
2025-09-28 19:43:54.992,6.6975107,-4.7449675,-0.062213387,-0.56787515,-0.8071815,-1.8744385,-44.287502,-2.2875001,-21.900002,0.48761863,-0.56798506,0.49797598,995.6789, , , , 
2025-09-28 19:43:55.011,7.5828547,-4.9268217,-2.0219352,-0.61857694,-1.3679553,-1.8487823,-45.15,-3.6375,-21.581251,0.49941185,-0.5663919,0.48291162,995.69965, , , , 
2025-09-28 19:43:55.033,8.793623,-4.7808595,-2.6919255,-1.0718386,-2.3380086,-2.0735805,-44.53125,-4.2000003,-21.31875,0.51856434,-0.5698409,0.45570233,995.6943, , , , 
2025-09-28 19:43:55.051,7.9011,-4.469793,-2.5698915,-1.1805725,-2.1663556,-2.170708,-45.35625,-6.5437503,-18.150002,0.5308981,-0.57359576,0.435584,995.6943, , , , 
2025-09-28 19:43:55.071,5.503492,-3.7974095,-2.062613,-1.0767255,-1.6752203,-2.1291692,-45.037502,-6.5062504,-18.50625,0.53852725,-0.575233,0.42248514,995.6943, , , , 
2025-09-28 19:43:55.091,3.1441689,-3.2829528,-0.9906286,-0.04253146,-1.2274565,-1.7082833,-44.287502,-6.43125,-19.050001,0.55489534,-0.5746505,0.39719707,995.6999, , , , 
2025-09-28 19:43:55.111,3.3164523,-3.4480574,-1.1318051,0.908585,-0.9568433,-0.9996802,-45.45,-9.056251,-15.69375,0.5712845,-0.56942487,0.38512358,995.6999, , , , 
2025-09-28 19:43:55.131,2.1750758,-2.4741786,-3.4624143,1.5304453,0.8103885,-0.052839804,-47.41875,-12.13125,-14.531251,0.5837516,-0.56315625,0.38842157,995.7128, , , , 
2025-09-28 19:43:55.151,3.7567315,-4.007978,-2.3306093,1.9769875,1.7773874,1.1010838,-47.71875,-12.918751,-14.606251,0.58418006,-0.5546514,0.4059107,995.7128, , , , 
2025-09-28 19:43:55.171,4.6612186,-3.9481573,-2.361716,2.0802236,2.2440882,1.3924663,-44.34375,-11.681251,-17.19375,0.5813898,-0.5503509,0.41908014,995.716, , , , 
2025-09-28 19:43:55.191,7.1545396,-3.8763726,-3.196811,1.9763767,3.2343,2.0558655,-47.100002,-11.34375,-15.543751,0.56613296,-0.5380959,0.4608613,995.716, , , , 
2025-09-28 19:43:55.211,8.944371,-4.6372905,-2.6081767,1.6996549,3.2507932,2.2446227,-44.175003,-8.775001,-19.5375,0.5518514,-0.5306589,0.4884124,995.7331, , , , 
2025-09-28 19:43:55.231,6.3074803,-3.1106694,-1.861616,-1.1042144,-0.020998476,0.90743965,-45.05625,-8.231251,-21.018751,0.5300494,-0.53912693,0.5112711,995.7331, , , , 
2025-09-28 19:43:55.251,6.5922265,-2.053042,2.091327,-0.57520556,0.27649269,1.2831215,-43.3875,-5.925,-22.875,0.5222951,-0.5468474,0.51111436,995.7441, , , , 
2025-09-28 19:43:55.271,4.7545385,-4.046263,-1.119841,-0.08895718,0.3522399,1.619708,-44.850002,-7.0875,-20.34375,0.5113705,-0.5540024,0.5169523,995.7441, , , , 
2025-09-28 19:43:55.291,5.3982077,-5.0679984,-2.1822543,-0.4145481,0.532445,2.388176,-43.518753,-3.6937501,-23.306252,0.49416608,-0.5657761,0.5277787,995.8322, , , , 
2025-09-28 19:43:55.311,6.0227346,-5.666204,-2.6273193,-0.4945714,0.5104539,2.6868887,-43.893753,1.10625,-22.143751,0.4805238,-0.5751022,0.5350529,995.8322,37.88836596,127.73983337,144.98443603515625,0.0
2025-09-28 19:43:55.333,6.647261,-7.456035,-1.2801601,-0.532445,-0.09613484,3.0662358,-43.2,2.1937501,-23.98125,0.45028338,-0.5974285,0.54871583,995.8798, , , , 
2025-09-28 19:43:55.351,3.385844,-10.822737,-0.63888365,-0.2587776,-0.6831759,3.2226171,-42.075,6.80625,-26.98125,0.43624943,-0.6103348,0.55437005,995.8798, , , , 
2025-09-28 19:43:55.371,9.91825,-5.960521,-0.9164511,-0.42248935,-0.24762931,3.6807656,-44.287502,7.6687503,-24.337502,0.41602588,-0.629349,0.5628363,995.87885, , , , 
2025-09-28 19:43:55.391,7.676175,-9.686146,-4.479364,-0.6472876,0.4389827,3.6221228,-41.9625,12.750001,-23.00625,0.38656712,-0.6495036,0.5740154,995.87885, , , , 
2025-09-28 19:43:55.412,7.6953177,-9.064013,-1.6701902,-1.1164317,0.29237515,3.7882779,-40.6875,16.650002,-26.306252,0.3576932,-0.6672876,0.58064556,995.8525, , , , 
2025-09-28 19:43:55.431,10.561919,-8.922835,1.6845472,-0.8537599,0.17264566,3.706422,-37.96875,21.393751,-25.931252,0.3283,-0.68505156,0.5856118,995.8525, , , , 
2025-09-28 19:43:55.451,10.514063,-8.580662,2.4622145,-0.31314456,0.4548652,3.4639087,-38.9625,21.54375,-26.1375,0.30100965,-0.6981505,0.59245646,995.81, , , , 
2025-09-28 19:43:55.471,9.987641,-8.233703,2.321038,-0.014431681,1.0956624,3.4657414,-35.325,26.41875,-27.4125,0.2797853,-0.70433545,0.60005224,995.81, , , , 
2025-09-28 19:43:55.491,12.526426,-9.671789,0.7513463,0.21952952,0.8562033,3.0460773,-34.36875,26.8875,-26.925001,0.2435244,-0.70982414,0.6153157,995.7841, , , , 
2025-09-28 19:43:55.511,12.983456,-7.580462,0.30388847,0.10651954,0.22945608,2.2879941,-31.462502,28.800001,-28.275002,0.22140309,-0.7130113,0.6245208,995.7841, , , , 
2025-09-28 19:43:55.531,10.813166,-6.4701924,-0.6843473,-0.07918335,0.3992765,1.8298454,-31.25625,28.968752,-29.531252,0.20283256,-0.71662956,0.63107044,995.75995, , , , 
2025-09-28 19:43:55.551,10.145568,-6.6424756,-1.7204394,-0.44142616,0.65339625,1.6459751,-28.556252,30.956251,-27.150002,0.18787335,-0.71991694,0.6338229,995.75995, , , , 
2025-09-28 19:43:55.571,8.752945,-6.317052,-1.4739788,-0.7786235,0.5794816,1.6209297,-27.393751,32.325,-27.50625,0.17625996,-0.7236282,0.63384235,995.73676, , , , 
2025-09-28 19:43:55.591,8.140383,-5.209175,3.0388846,-0.61918783,0.5971967,1.8322889,-24.825,33.46875,-27.375002,0.15585762,-0.7315399,0.63174033,995.73676, , , , 
2025-09-28 19:43:55.611,9.410972,-6.070591,1.6462619,-0.07185297,0.4805215,1.9343033,-25.5375,34.36875,-26.118752,0.13855124,-0.73465127,0.6339234,995.7287, , , , 
2025-09-28 19:43:55.631,11.109876,-5.424529,0.5096712,0.09369139,-0.083306685,1.7211115,-22.2,36.3375,-26.737501,0.12412551,-0.73590636,0.637948,995.7287, , , , 
2025-09-28 19:43:55.651,11.82533,-5.151747,0.4235296,0.15172353,-0.4247801,1.3466514,-19.650002,34.893753,-31.25625,0.11548371,-0.73693746,0.64124566,995.7646, , , , 
2025-09-28 19:43:55.671,12.674782,-4.802395,-0.69152576,0.28489205,-0.7106648,1.0235039,-20.23125,35.925003,-26.925001,0.11108007,-0.7375305,0.64468193,995.7646, , , , 
2025-09-28 19:43:55.691,13.947763,-5.259424,-2.4765713,0.20486878,-0.96539545,0.69058263,-20.79375,37.48125,-27.562502,0.11211834,-0.7378534,0.64661217,995.7961, , , , 
2025-09-28 19:43:55.711,15.823736,-5.977271,-2.5866413,-0.0193186,-1.0808488,0.27397284,-21.337502,36.9375,-27.6375,0.11698577,-0.73921055,0.64625704,995.7961, , , , 
2025-09-28 19:43:55.731,18.10649,-7.0301127,-1.0432707,-0.013820816,-0.95134556,-0.39064804,-20.550001,37.143753,-28.650002,0.12551464,-0.74079007,0.6440628,995.82733, , , , 
2025-09-28 19:43:55.751,18.271593,-8.135597,-0.55752766,0.18165591,-0.4644863,-0.9495893,-22.44375,37.537502,-24.468752,0.13717128,-0.7403098,0.6421574,995.82733, , , , 
2025-09-28 19:43:55.771,17.178074,-7.501499,-0.23449662,0.099800035,-0.24457498,-1.244637,-21.75,35.86875,-24.45,0.14930318,-0.73751545,0.6412346,995.89984, , , , 
2025-09-28 19:43:55.791,16.651653,-6.611369,1.3447664,-0.09995275,-0.1107956,-1.7015638,-23.025002,35.8875,-27.093752,0.1623691,-0.73482376,0.63888115,995.89984, , , , 
2025-09-28 19:43:55.811,15.950556,-6.73101,3.1274192,0.018555017,0.08956805,-2.369239,-24.50625,34.4625,-25.143751,0.17779268,-0.73146623,0.63508093,995.97284, , , , 
2025-09-28 19:43:55.831,13.586447,-6.943971,6.4606214,1.8419864,0.81832975,-3.6154032,-26.550001,33.018753,-26.1,0.202629,-0.71615255,0.63671917,995.97284, , , , 
2025-09-28 19:43:55.851,8.023134,-7.9537425,0.39960137,2.3074653,-0.27267477,-3.3466227,-30.73125,30.35625,-27.206251,0.22984895,-0.69338053,0.64556575,996.05, , , , 
2025-09-28 19:43:55.871,8.776874,-8.183454,-1.8185452,1.7112613,-0.84933114,-2.6740606,-30.69375,28.143751,-29.85,0.2582229,-0.67433697,0.6512642,996.05, , , , 
2025-09-28 19:43:55.891,13.184453,-8.29113,0.43070808,1.2616649,-1.3587923,-2.8359396,-33.881252,27.562502,-29.493752,0.28552592,-0.6606294,0.65162265,996.0402, , , , 
2025-09-28 19:43:55.911,13.964513,-8.444271,1.820938,1.4870739,-1.0955096,-3.5408776,-37.706253,22.331251,-30.6375,0.31670007,-0.6462737,0.6487968,996.0402, , , , 
2025-09-28 19:43:55.931,10.475778,-8.346166,1.2370893,1.7686826,-0.8865939,-3.3930485,-39.99375,21.225,-30.337502,0.3493581,-0.6267064,0.64680564,996.01776, , , , 
2025-09-28 19:43:55.951,10.813166,-8.257631,-1.0049855,1.5267801,-0.066813335,-3.1181593,-37.893753,20.925001,-27.45,0.3772057,-0.6059546,0.6467309,996.01776, , , , 
2025-09-28 19:43:55.971,11.772687,-8.329415,-0.79441714,0.62086767,-0.26778784,-3.2659886,-41.475002,16.3125,-26.5125,0.40402257,-0.5820367,0.6445011,995.9836, , , , 
2025-09-28 19:43:55.991,10.9352,-8.46102,1.4835501,0.31238097,-0.57322025,-3.4260352,-41.325,11.75625,-29.5125,0.4260923,-0.5674914,0.63562524,995.9836, , , , 
2025-09-28 19:43:56.011,11.215159,-8.803194,3.2949169,0.6898954,-0.85421807,-3.584249,-40.912502,9.65625,-26.812502,0.44362652,-0.5562422,0.62781084,995.95306, , , , 
2025-09-28 19:43:56.031,10.779666,-9.772287,2.603391,1.1694243,-1.2127956,-3.9257226,-40.59375,4.0875,-26.212502,0.4771714,-0.5331441,0.6147369,995.95306, , , , 
2025-09-28 19:43:56.051,10.277173,-10.633704,1.5433706,1.2928189,-1.5200607,-4.1395254,-43.2,1.5562501,-23.325,0.50808895,-0.51162237,0.6025118,995.9755, , , , 
2025-09-28 19:43:56.071,9.834501,-8.695518,0.16271193,1.1058943,-1.080238,-4.1596837,-45.768753,-5.1937504,-21.13125,0.5394374,-0.4890134,0.58836716,995.9755, , , , 
2025-09-28 19:43:56.091,4.4985065,-7.475178,-0.9403793,0.5964331,-2.0173047,-4.1150904,-45.15,-10.106251,-20.2875,0.5689325,-0.46603924,0.5722545,995.9748, , , , 
2025-09-28 19:43:56.111,3.3714871,-8.334201,-1.3160524,-0.00160352,-1.3215296,-3.0760095,-44.8125,-11.94375,-19.7625,0.6029272,-0.44584897,0.54565114,995.9748, , , , 
2025-09-28 19:43:56.131,3.3882368,-8.334201,-1.4524434,-0.6252965,-0.8053489,-2.4113886,-44.737503,-15.075001,-17.41875,0.6186497,-0.43622956,0.52866197,995.9655, , , , 
2025-09-28 19:43:56.151,3.5772698,-8.886943,-0.7968099,-1.0504583,-0.082084954,-1.9147557,-43.03125,-16.875,-19.2,0.6263786,-0.4303341,0.51497877,995.9655, , , , 
2025-09-28 19:43:56.171,3.3547373,-9.580862,0.26799613,-1.2813653,0.975322,-1.5506803,-43.0875,-18.618752,-18.7875,0.6268322,-0.42537808,0.50613165,995.93304, , , , 
2025-09-28 19:43:56.191,2.321038,-10.090533,0.57427746,-1.2343286,1.4151446,-1.0974185,-42.61875,-20.04375,-20.925001,0.62069935,-0.41958508,0.5035166,995.93304, , , , 
2025-09-28 19:43:56.211,1.9262222,-10.628919,0.9906286,-1.0333542,1.3693298,-0.73700833,-41.568752,-20.90625,-23.60625,0.6115796,-0.4149054,0.50450253,995.892, , , , 
2025-09-28 19:43:56.231,-0.715454,-9.592826,1.2849457,-0.5727621,0.41760245,0.010690134,-41.71875,-20.8125,-22.050001,0.60127336,-0.41261986,0.50704795,995.892, , , , 
2025-09-28 19:43:56.251,-0.7728817,-10.758131,0.09571291,-0.302149,-0.30382887,0.7761037,-41.568752,-20.90625,-24.375002,0.59760267,-0.416134,0.5081663,995.83685, , , , 
2025-09-28 19:43:56.271,-0.7896315,-10.061819,-1.3854443,-0.3229184,-0.36858055,1.660025,-40.65,-18.5625,-24.768751,0.5914862,-0.43003875,0.5116412,995.83685, , , , 
2025-09-28 19:43:56.291,-0.2009971,-8.877372,-1.9381863,-0.69982195,0.018707734,2.5085163,-42.7125,-18.54375,-22.837502,0.5811133,-0.44642192,0.5181157,995.759, , , , 
2025-09-28 19:43:56.311,0.21774685,-10.916057,-2.7852457,-1.1384228,0.50068,3.1120505,-42.412502,-15.656251,-23.6625,0.56449145,-0.46695167,0.5271922,995.759,37.88835955,127.73982171,143.9639892578125,0.84
2025-09-28 19:43:56.331,3.3260236,-11.047662,0.04546363,-1.1909572,0.59108806,3.8004951,-41.850002,-12.1125,-23.456251,0.5380508,-0.48994872,0.54106194,995.69916, , , , 
2025-09-28 19:43:56.351,6.4869423,-12.880565,1.4285151,-0.88430315,0.2587776,4.2293224,-43.275,-7.6312504,-24.956251,0.5103056,-0.51533145,0.5552305,995.69916, , , , 
2025-09-28 19:43:56.371,8.329415,-13.457234,0.997807,-0.39561132,-0.28305948,4.3850927,-41.90625,-5.3812504,-26.456251,0.48357174,-0.5406432,0.5699605,995.6777, , , , 
2025-09-28 19:43:56.391,9.614362,-13.55534,-0.7896315,-0.07612903,-0.7607557,4.4669485,-41.287502,1.29375,-27.206251,0.45473045,-0.57099354,0.5867525,995.6777, , , , 
2025-09-28 19:43:56.411,9.3104725,-12.94517,-1.3471591,-0.12744166,-0.6868411,4.5097094,-42.300003,5.6625004,-26.8875,0.43806714,-0.5883817,0.5955684,995.66034, , , , 
2025-09-28 19:43:56.431,8.575876,-12.524034,-1.2897314,-0.38400486,-0.35269806,4.7320642,-41.943752,9.056251,-25.743752,0.40661576,-0.61643887,0.6088835,995.66034, , , , 
2025-09-28 19:43:56.451,8.6141615,-12.758531,-0.34456646,-0.5275581,-0.14256057,5.011229,-40.818752,13.89375,-25.2,0.37653735,-0.638678,0.61851937,995.6357, , , , 
2025-09-28 19:43:56.471,9.58804,-12.880565,0.52163535,-0.43776098,-0.10407609,5.2403035,-40.0125,16.96875,-27.468752,0.35167778,-0.6547932,0.62540793,995.6357, , , , 
2025-09-28 19:43:56.491,12.045469,-12.514462,-0.32542387,-0.2447277,-0.098578304,5.233584,-37.893753,23.15625,-27.431252,0.30854928,-0.67849964,0.63670385,995.6237, , , , 
2025-09-28 19:43:56.511,13.466805,-11.71526,-0.89491564,-0.35162905,0.07979421,4.988016,-35.737503,26.831251,-23.38125,0.27434033,-0.6944342,0.64399374,995.6237, , , , 
2025-09-28 19:43:56.531,13.998013,-11.016556,-0.46181476,-0.50556695,0.41027206,4.557357,-33.3375,28.575,-23.737501,0.23219597,-0.7114642,0.64964753,995.61053, , , , 
2025-09-28 19:43:56.551,14.433506,-9.798609,-0.04546363,-0.5086213,0.57520556,4.172512,-28.875002,32.53125,-24.581251,0.19913885,-0.7226543,0.6523425,995.61053, , , , 
2025-09-28 19:43:56.571,14.524433,-8.968299,0.29671,-0.43776098,0.5745947,3.8652468,-27.000002,35.325,-23.550001,0.17589396,-0.7294683,0.6537019,995.6066, , , , 
2025-09-28 19:43:56.591,15.103497,-7.300502,0.37088752,-0.18608469,0.68455034,3.2568257,-24.112501,36.487503,-24.69375,0.14078718,-0.73750186,0.6558951,995.6066, , , , 
2025-09-28 19:43:56.611,15.041284,-6.166304,0.0,-0.09812015,0.7572433,2.7143776,-19.48125,37.612503,-25.85625,0.116289794,-0.74112713,0.65789956,995.6025, , , , 
2025-09-28 19:43:56.631,14.201403,-6.099305,-0.35413775,-0.08834632,0.76640624,2.1737623,-18.393751,40.068752,-25.650002,0.10074415,-0.74282736,0.6591196,995.6025, , , , 
2025-09-28 19:43:56.651,12.722638,-7.257431,-0.51206404,0.003894263,0.7926734,1.7076725,-16.612501,41.100002,-22.96875,0.07927315,-0.7445174,0.6606539,995.60077, , , , 
2025-09-28 19:43:56.671,11.875579,-7.204789,-0.78723866,0.12056944,0.84826213,1.6081015,-15.39375,41.86875,-25.612501,0.06414978,-0.74469185,0.66231555,995.60077, , , , 
2025-09-28 19:43:56.691,13.473985,-7.2789664,-2.3688943,-0.06269,0.67050046,1.501811,-12.88125,40.631252,-24.093752,0.045971487,-0.7445831,0.6641591,995.58954, , , , 
2025-09-28 19:43:56.711,15.821343,-6.65444,-1.6773686,-0.21846052,0.428598,1.2428044,-11.493751,40.800003,-26.718752,0.037003573,-0.74550444,0.66382074,995.58954, , , , 
2025-09-28 19:43:56.731,18.482162,-7.0229344,-0.32542387,-0.1494328,0.013209951,0.53236866,-9.431251,40.237503,-24.6,0.029187955,-0.7473715,0.6622129,995.5871, , , , 
2025-09-28 19:43:56.751,19.795822,-6.4414787,-0.019142581,0.11446079,-0.36674795,-0.2849684,-10.200001,43.03125,-24.675001,0.031912487,-0.7474085,0.6619806,995.5871, , , , 
2025-09-28 19:43:56.771,19.17608,-6.099305,-0.5814559,0.154167,-0.47975793,-1.222035,-12.431251,41.53125,-22.35,0.039766945,-0.7464568,0.6623946,995.59686, , , , 
2025-09-28 19:43:56.791,15.268601,-7.568498,-0.485743,0.03932442,-0.36125016,-2.3441937,-12.900001,40.612503,-23.325,0.061953332,-0.74448884,0.66177833,995.59686, , , , 
2025-09-28 19:43:56.811,12.6676035,-9.260223,-0.086141616,0.029550584,-0.33559385,-2.8176138,-16.10625,41.41875,-23.8125,0.084442675,-0.7423661,0.659969,995.59564, , , , 
2025-09-28 19:43:56.831,11.799008,-10.329815,0.997807,0.17554727,-0.3917934,-2.979493,-15.168751,40.66875,-27.4125,0.10899902,-0.73904455,0.65776545,995.59564, , , , 
2025-09-28 19:43:56.851,12.629318,-11.62194,1.375873,0.47914705,-0.60742867,-3.2409432,-21.150002,38.79375,-25.125002,0.1422255,-0.73167944,0.6561504,995.6093, , , , 
2025-09-28 19:43:56.871,13.067204,-12.313465,0.79920274,0.6245329,-0.7900772,-3.5286603,-23.868752,37.65,-25.087502,0.1643422,-0.72544515,0.6554855,995.6093, , , , 
2025-09-28 19:43:56.891,12.780066,-12.748959,0.14356937,0.6324741,-1.0130429,-3.9544332,-26.6625,36.112503,-25.95,0.20555525,-0.71284056,0.6530523,995.6484, , , , 
2025-09-28 19:43:56.911,12.461821,-12.722638,-0.043070808,0.5011382,-0.9415717,-4.1859508,-31.612501,33.35625,-24.956251,0.24096833,-0.7014415,0.64880615,995.6484, , , , 
2025-09-28 19:43:56.931,12.358929,-12.942778,-0.0526421,0.2824486,-0.5603921,-4.3863144,-31.1625,31.181252,-26.437502,0.26712802,-0.6923421,0.64410055,995.6733, , , , 
2025-09-28 19:43:56.951,11.444871,-13.203595,0.60059845,0.05459604,0.15370885,-4.652041,-35.625,27.88125,-27.31875,0.30695498,-0.6756189,0.63409144,995.6733, , , , 
2025-09-28 19:43:56.971,10.502099,-13.452449,0.80159557,0.060704686,0.5171734,-4.753444,-37.237503,28.050001,-24.225,0.33513376,-0.6598579,0.6253285,995.69916, , , , 
2025-09-28 19:43:56.991,9.499506,-13.457234,0.57427746,0.13706279,0.71814793,-4.796205,-39.65625,21.225,-24.35625,0.36707562,-0.6368589,0.6142153,995.69916, , , , 
2025-09-28 19:43:57.011,8.733803,-13.380664,0.5814559,0.23602287,0.6271291,-4.7986484,-41.193752,17.325,-23.19375,0.3854263,-0.6217274,0.6070885,995.7282, , , , 
2025-09-28 19:43:57.031,7.838887,-13.217953,0.5814559,0.37957612,0.34613127,-4.7320642,-41.9625,15.618751,-23.94375,0.4101881,-0.6005227,0.5967176,995.7282, , , , 
2025-09-28 19:43:57.051,6.6041903,-12.684353,0.17228323,0.55489427,-0.17737986,-4.4816093,-42.0,9.525001,-24.825,0.4426871,-0.5739303,0.5819723,995.74945, , , , 
2025-09-28 19:43:57.071,5.804988,-12.155539,-0.050249275,0.5616138,-0.32643086,-4.262309,-43.95,6.4687505,-23.681252,0.46228367,-0.55851936,0.5722835,995.74945, , , , 
2025-09-28 19:43:57.091,4.6779685,-11.813365,-0.4426722,0.4822014,-0.34781113,-3.9678721,-45.9,-0.20625001,-23.25,0.49299288,-0.533926,0.5554098,995.76166, , , , 
2025-09-28 19:43:57.111,3.6466618,-12.023933,-1.052842,0.35819584,-0.23663375,-3.719861,-44.04375,-2.11875,-25.331251,0.51479006,-0.51521474,0.54183483,995.76166, , , , 
2025-09-28 19:43:57.131,2.6153553,-13.076776,-1.6534405,0.08880447,-0.05215258,-3.3246315,-43.8375,-4.70625,-25.687502,0.53279036,-0.49813443,0.5287755,995.77606, , , , 
2025-09-28 19:43:57.151,0.91884387,-12.617353,-1.1413764,-0.22945608,0.12866339,-2.559218,-42.15,-7.89375,-25.218752,0.5482065,-0.48102835,0.51429427,995.77606, , , , 
2025-09-28 19:43:57.171,0.27756742,-11.691332,-0.71306115,-0.3278053,0.25450155,-2.0882413,-42.7125,-11.325001,-23.71875,0.5539688,-0.47329894,0.50716734,995.7829, , , , 
2025-09-28 19:43:57.191,-1.2873386,-11.341979,-0.8470592,-0.37056586,0.5495492,-1.6881248,-44.287502,-12.6,-23.79375,0.5583269,-0.4644997,0.50007343,995.7829, , , , 
2025-09-28 19:43:57.211,-3.8141594,-12.327823,-1.3950156,-0.3644572,0.5263364,-0.78771013,-41.90625,-14.718751,-25.612501,0.5584541,-0.45630863,0.496076,995.79193, , , , 
2025-09-28 19:43:57.231,-4.584648,-12.815958,-1.8448663,-0.3296379,-0.0075594517,0.18539746,-41.193752,-13.275001,-24.69375,0.5565772,-0.45584938,0.4957638,995.79193, , , , 
2025-09-28 19:43:57.251,-3.2709885,-10.313066,-1.3830515,-0.3907244,-0.57138765,1.795637,-42.91875,-13.837501,-23.868752,0.54900444,-0.47030064,0.49879706,995.7902, , , , 
2025-09-28 19:43:57.271,-1.2131611,-9.542577,-0.87338024,-0.47258025,-0.31115925,2.4572036,-43.0125,-14.212501,-23.53125,0.54139966,-0.48293865,0.5033339,995.7902, , , , 
2025-09-28 19:43:57.291,2.7996025,-9.585648,0.27996024,-0.48357582,0.46952593,3.110218,-43.6875,-9.675,-24.487501,0.52008694,-0.50535536,0.51768374,995.789, , , , 
2025-09-28 19:43:57.311,4.74736,-10.880164,0.16271193,-0.2758818,0.5648208,3.3026404,-43.143753,-6.2625003,-24.581251,0.4981735,-0.52191335,0.53357714,995.789,37.88835616,127.73980645,143.58856201171875,1.86
2025-09-28 19:43:57.331,5.548956,-12.212967,-1.0360922,0.020998476,-0.21708608,3.4962845,-43.66875,-3.825,-24.975,0.47716627,-0.53848714,0.54967403,995.78925, , , , 
2025-09-28 19:43:57.351,6.352944,-13.433307,-1.5218352,0.12179117,-0.9482912,3.7058113,-43.050003,-0.15,-26.175001,0.45976156,-0.55763036,0.5631334,995.78925, , , , 
2025-09-28 19:43:57.371,6.960721,-14.053047,-0.89013004,0.17127122,-1.2934299,3.9703157,-41.34375,4.7625003,-25.706251,0.44809186,-0.5737656,0.5714985,995.7775, , , , 
2025-09-28 19:43:57.391,8.013563,-13.483556,-0.20578274,0.34658942,-0.9409608,4.4541206,-43.875,8.34375,-23.643751,0.42114976,-0.6058877,0.5889564,995.7775, , , , 
2025-09-28 19:43:57.411,8.523234,-13.160524,-0.66999036,0.4504364,-0.6440806,4.645932,-42.9,11.043751,-23.118752,0.40448684,-0.6201253,0.59932935,995.7714, , , , 
2025-09-28 19:43:57.431,9.97807,-12.646068,-1.875973,0.4663189,-0.09674571,4.8554587,-40.912502,17.34375,-22.143751,0.37143606,-0.64089584,0.61812186,995.7714, , , , 
2025-09-28 19:43:57.451,10.810773,-12.177074,-3.0867412,0.26106834,0.25450155,4.809033,-36.84375,21.5625,-30.375002,0.3413666,-0.65544325,0.6324232,995.7353, , , , 
2025-09-28 19:43:57.471,11.160125,-11.856436,-3.723232,-0.14882194,0.62407476,4.718625,-37.237503,21.88125,-29.118752,0.31692198,-0.66589856,0.6414396,995.7353, , , , 
2025-09-28 19:43:57.491,11.41855,-11.332408,-2.993421,-0.88369226,0.94477874,4.501768,-36.16875,25.95,-26.23125,0.27229288,-0.6842009,0.65133345,995.69965, , , , 
2025-09-28 19:43:57.511,11.430513,-10.765309,-0.7896315,-1.2062289,0.81588626,4.335613,-33.112503,29.493752,-25.968752,0.23571882,-0.7000175,0.65383005,995.69965, , , , 
2025-09-28 19:43:57.531,11.911471,-10.157532,1.5098711,-1.1249839,0.6057488,4.1596837,-31.725,31.25625,-26.531252,0.20945635,-0.7114798,0.6537329,995.6916, , , , 
2025-09-28 19:43:57.551,13.069597,-9.578469,2.7948167,-0.5342776,0.39438957,3.8487535,-27.825,34.0125,-25.3875,0.16228944,-0.7285984,0.65420735,995.6916, , , , 
2025-09-28 19:43:57.571,14.170296,-9.1669035,1.4356936,-0.13171771,0.40477428,3.6654942,-25.518751,34.612503,-24.431252,0.14121038,-0.7333726,0.6562459,995.7116, , , , 
2025-09-28 19:43:57.591,15.122639,-7.9346,-2.268396,-0.20929754,0.794506,3.1633632,-21.6,39.487503,-24.50625,0.108170785,-0.7378505,0.6604165,995.7116, , , , 
2025-09-28 19:43:57.611,14.55554,-6.6735826,-2.0267208,-0.7602976,0.9227876,2.7009387,-17.23125,39.318752,-25.275002,0.08319625,-0.7427113,0.6598176,995.7104, , , , 
2025-09-28 19:43:57.631,14.768501,-6.6568327,1.227518,-0.79939294,0.61857694,2.266003,-14.718751,41.568752,-25.35,0.061256465,-0.74911195,0.65576625,995.7104, , , , 
2025-09-28 19:43:57.651,15.684953,-6.5778694,2.120041,-0.21907139,0.10911572,1.8774929,-14.45625,43.068752,-23.306252,0.04458124,-0.75330985,0.6530431,995.69696, , , , 
2025-09-28 19:43:57.671,16.72583,-6.7238317,0.34456646,0.2286925,-0.2042579,1.5079197,-12.262501,41.4375,-25.143751,0.03443135,-0.75358945,0.6540903,995.69696, , , , 
2025-09-28 19:43:57.691,17.625532,-6.6711893,-2.1391835,0.20975569,-0.20181446,0.9648609,-8.34375,44.100002,-26.00625,0.02854593,-0.7518254,0.6570413,995.7128, , , , 
2025-09-28 19:43:57.711,18.546768,-7.4512496,-1.1318051,-0.059635673,-0.07841977,0.38209593,-9.1125,41.025,-25.593752,0.02756576,-0.7517123,0.65734327,995.7128, , , , 
2025-09-28 19:43:57.732,19.479969,-8.185846,0.67477596,0.15538873,-0.11751511,-0.3979784,-9.50625,42.09375,-24.843752,0.030852627,-0.7516519,0.6570781,995.71063, , , , 
2025-09-28 19:43:57.754,18.98944,-7.4823565,0.09571291,0.32276568,-0.15050182,-1.2342523,-11.53125,42.881252,-24.825,0.039644055,-0.7495901,0.65845317,995.71063, , , , 
2025-09-28 19:43:57.771,17.070396,-7.4823565,-0.25603202,0.29161158,-0.05093085,-1.9000949,-10.275001,42.525,-26.025002,0.050245292,-0.7473811,0.6594938,995.7221, , , , 
2025-09-28 19:43:57.791,13.342379,-9.169296,-0.16749759,0.33742642,0.12316561,-2.740645,-12.918751,41.756252,-25.556252,0.07329644,-0.7428563,0.6600639,995.7221, , , , 
2025-09-28 19:43:57.811,11.29173,-10.523634,-0.72741807,0.40401068,-0.08147409,-3.0332491,-16.85625,41.325,-22.95,0.095249794,-0.7377668,0.6600647,995.7409, , , , 
2025-09-28 19:43:57.831,11.02852,-11.126625,-1.0145568,0.38079783,-0.27939427,-3.1590872,-17.212502,39.3375,-26.343752,0.11348751,-0.7334138,0.6595376,995.7409, , , , 
2025-09-28 19:43:57.851,12.081362,-12.3708935,-0.22492532,0.2512945,-0.5823832,-3.4651306,-22.462502,38.79375,-25.7625,0.1542601,-0.7243311,0.65564823,995.75726, , , , 
2025-09-28 19:43:57.871,12.722638,-12.8111725,0.37567315,0.19265148,-0.5805506,-3.69787,-23.34375,37.331253,-25.593752,0.17655346,-0.7193017,0.65219355,995.75726, , , , 
2025-09-28 19:43:57.891,12.528819,-13.272987,1.3256238,0.1645517,-0.2042579,-4.2464266,-28.706251,34.78125,-24.581251,0.2150964,-0.7089068,0.6446004,995.77704, , , , 
2025-09-28 19:43:57.911,11.117054,-13.471592,1.5625132,0.23846634,0.0956767,-4.5127635,-32.268753,34.537502,-24.806252,0.24575022,-0.6976157,0.63762337,995.77704, , , , 
2025-09-28 19:43:57.931,10.054641,-13.780266,1.3878372,0.37530005,0.1353829,-4.603782,-32.98125,33.225002,-24.0375,0.26821464,-0.6872319,0.63230646,995.79755, , , , 
2025-09-28 19:43:57.951,10.042677,-13.9023,1.5026926,0.5616138,-0.099800035,-4.6532626,-33.24375,28.44375,-22.5,0.30595073,-0.6674511,0.62281394,995.79755, , , , 
2025-09-28 19:43:57.971,10.133604,-14.067405,1.2993027,0.67218035,-0.25190535,-4.776657,-39.581253,23.7,-24.0375,0.33755416,-0.64961034,0.614146,995.8173, , , , 
2025-09-28 19:43:57.991,8.525627,-14.057833,1.0456635,0.73448855,-0.26534438,-4.872563,-40.18125,19.29375,-23.868752,0.37801844,-0.6247649,0.60140383,995.8173, , , , 
2025-09-28 19:43:58.011,7.396215,-13.648661,0.78723866,0.7601449,-0.2787834,-4.7699375,-40.3125,15.7875,-23.362501,0.40160838,-0.6088508,0.5930856,995.8234, , , , 
2025-09-28 19:43:58.031,6.4773707,-13.024134,0.78723866,0.78457946,-0.31299183,-4.5762935,-41.831253,12.637501,-23.175001,0.43162704,-0.58723646,0.5814787,995.8234, , , , 
2025-09-28 19:43:58.051,5.953343,-12.208181,0.38524446,0.7803034,-0.27633995,-4.221381,-42.487503,6.4875,-23.362501,0.46613514,-0.56024325,0.5668268,995.8161, , , , 
2025-09-28 19:43:58.071,5.3718867,-11.779866,-0.19621146,0.71921694,-0.24029893,-4.028348,-43.03125,4.55625,-22.575,0.48505744,-0.54425794,0.5580563,995.8161, , , , 
2025-09-28 19:43:58.091,4.278367,-11.160125,-0.6125626,0.5438987,-0.12484549,-3.6740463,-45.73125,-3.05625,-23.56875,0.5130891,-0.51882637,0.5433369,995.8134, , , , 
2025-09-28 19:43:58.111,2.7326035,-10.597812,-1.2993027,0.3588067,0.026038112,-3.3173013,-42.91875,-5.86875,-24.7875,0.53189564,-0.4998925,0.53191984,995.8134, , , , 
2025-09-28 19:43:58.131,1.7778672,-10.403993,-1.4213367,0.13461933,0.14149155,-2.938565,-44.1375,-6.6375003,-22.44375,0.5467898,-0.48303077,0.5212174,995.81635, , , , 
2025-09-28 19:43:58.151,0.33499518,-10.155139,-0.91405827,-0.050472703,0.20379977,-2.274555,-44.006252,-12.58125,-22.425001,0.55977345,-0.4659067,0.50957555,995.81635, , , , 
2025-09-28 19:43:58.171,-0.58624154,-9.540184,-0.7537391,-0.07002038,0.2239583,-1.723555,-42.225002,-14.118751,-24.993752,0.5650728,-0.45804045,0.504047,995.8095, , , , 
2025-09-28 19:43:58.191,-1.8496519,-8.877372,-1.2777673,-0.15554145,0.5153408,-0.86712253,-42.206253,-14.512501,-22.66875,0.5693117,-0.44868898,0.49892274,995.8095, , , , 
2025-09-28 19:43:58.211,-2.0147567,-9.45165,-1.5026926,-0.22701262,0.53855366,-0.23732096,-43.2,-13.856251,-25.3875,0.567887,-0.44491738,0.4990266,995.8083, , , , 
2025-09-28 19:43:58.231,-1.9980069,-10.597812,-1.7587247,-0.24961463,0.26488623,0.45478883,-41.8125,-15.69375,-25.725,0.56475425,-0.44530272,0.5009128,995.8083, , , , 
2025-09-28 19:43:58.251,-1.4763715,-9.870394,-1.3280165,-0.34613127,-0.24885105,1.5958842,-42.73125,-16.66875,-25.575,0.5570337,-0.45446327,0.5060522,995.81146, , , , 
2025-09-28 19:43:58.271,-0.0047856453,-9.30808,-0.5479564,-0.37362018,-0.27328563,2.3002114,-42.131252,-14.250001,-24.225,0.54753155,-0.46888295,0.51245725,995.81146, , , , 
2025-09-28 19:43:58.291,2.9336007,-8.894122,0.2632105,-0.29542947,-0.042989608,3.0057602,-43.893753,-10.81875,-25.48125,0.5298193,-0.4909173,0.5253845,995.8095, , , , 
2025-09-28 19:43:58.311,5.0751767,-9.853643,0.059820566,-0.13599378,-0.029550584,3.2073455,-44.100002,-7.9875,-23.456251,0.51705974,-0.5044918,0.53521526,995.8095,37.88835144,127.73979268,144.93316650390625,1.73
2025-09-28 19:43:58.331,5.5202417,-10.992627,-0.062213387,-0.033979353,-0.28733552,3.267821,-42.956253,-3.8812501,-24.112501,0.49980572,-0.5223821,0.5486835,995.7963, , , , 
2025-09-28 19:43:58.351,5.7116675,-12.47857,-0.023928227,0.26595524,-0.6898954,3.6166248,-42.5625,-1.3312501,-26.625002,0.47962558,-0.545586,0.5644094,995.7963, , , , 
2025-09-28 19:43:58.371,6.0753765,-13.196417,-0.98584294,0.41867146,-0.66851515,3.928166,-43.0125,0.09375,-25.10625,0.4674117,-0.5597779,0.57438725,995.7868, , , , 
2025-09-28 19:43:58.391,7.159325,-13.490734,-2.6368906,0.3691914,-0.37041312,4.511542,-45.05625,6.3187504,-20.775002,0.43762684,-0.5883528,0.59654796,995.7868, , , , 
2025-09-28 19:43:58.412,8.425129,-12.904492,-3.2733815,0.116904244,0.030314164,4.758942,-43.2,10.275001,-23.362501,0.418617,-0.6028037,0.6079298,995.7553, , , , 
2025-09-28 19:43:58.431,9.932607,-12.050255,-3.2183464,-0.3107011,0.5141191,4.785209,-43.29375,14.868751,-23.1375,0.38842002,-0.62199354,0.62202495,995.7553, , , , 
2025-09-28 19:43:58.451,10.619347,-11.19841,-1.6965113,-0.6643918,0.7273109,4.5036006,-40.143753,21.150002,-21.675001,0.3458712,-0.6451178,0.6357626,995.7326, , , , 
2025-09-28 19:43:58.471,10.612168,-10.8251295,-0.27996024,-0.59964013,0.43104145,4.1865616,-39.112503,23.775002,-25.95,0.312562,-0.66178954,0.64355534,995.7326, , , , 
2025-09-28 19:43:58.492,10.925629,-10.805987,0.50488555,-0.3180315,-0.16882776,3.9220574,-39.2625,26.625002,-25.781252,0.28349206,-0.6761227,0.6494825,995.7148, , , , 
2025-09-28 19:43:58.512,10.813166,-10.518848,0.37806597,0.028328855,-0.68928456,3.6636615,-37.21875,27.54375,-23.268751,0.26058528,-0.68773067,0.65434515,995.7148, , , , 
2025-09-28 19:43:58.532,10.8682,-10.707881,-1.7778672,-0.045585785,-0.28916812,3.4926193,-34.40625,30.581251,-23.587502,0.23596284,-0.69880664,0.6599224,995.71014, , , , 
2025-09-28 19:43:58.551,10.530812,-10.71506,-2.5220351,-0.5275581,0.38767007,3.476126,-32.5875,33.0,-23.60625,0.2188616,-0.7054489,0.6620217,995.71014, , , , 
2025-09-28 19:43:58.572,11.018949,-9.9756775,-0.11485548,-1.0956624,0.87514013,3.5457647,-29.868752,34.050003,-25.500002,0.18371958,-0.7191454,0.66145563,995.70966, , , , 
2025-09-28 19:43:58.593,12.705888,-8.592627,2.8091738,-0.86353374,0.5971967,3.3826637,-25.743752,36.5625,-22.368752,0.15391903,-0.73033214,0.65886784,995.7192, , , , 
2025-09-28 19:43:58.613,13.983656,-8.020741,3.574877,-0.015653409,-0.049709123,3.0185883,-24.375002,38.193752,-22.59375,0.1290219,-0.7373564,0.65836704,995.7192, , , , 
2025-09-28 19:43:58.633,14.895321,-7.9154572,0.8877372,0.84872025,-0.7454841,2.6972735,-22.987501,40.068752,-22.3875,0.112031475,-0.7380779,0.6626245,995.7192, , , , 
2025-09-28 19:43:58.653,16.407585,-8.030313,-2.9599216,1.1944697,-1.2689952,2.3765695,-22.78125,40.4625,-21.206251,0.10207654,-0.7341943,0.6701243,995.7426, , , , 
2025-09-28 19:43:58.673,18.156738,-8.216953,-5.6685967,0.9409608,-1.6697226,1.949575,-20.1,40.5,-23.643751,0.098423466,-0.72930205,0.6769012,995.7426, , , , 
2025-09-28 19:43:58.693,20.176281,-7.393822,-5.960521,0.101632625,-1.0411427,1.3454297,-17.53125,41.643753,-23.212502,-0.099627934,0.72673404,-0.67959726,995.72015, , , , 
2025-09-28 19:43:58.712,21.365513,-7.4847493,-2.7302105,-0.6643918,0.16959134,0.4346303,-15.000001,41.8875,-22.087502,-0.09966581,0.72961676,-0.67637604,995.7038, , , , 
2025-09-28 19:43:58.731,19.81975,-7.1856465,0.0071784677,-0.63384855,0.67050046,-0.31062475,-18.45,40.050003,-22.706251,-0.09959332,0.7340305,-0.67170775,995.7038, , , , 
2025-09-28 19:43:58.753,16.984255,-5.871987,0.27517462,-0.08773545,0.48174325,-1.1120794,-17.493752,41.8875,-22.612501,0.10279449,-0.7355941,0.6695707,995.7038, , , , 
2025-09-28 19:43:58.773,15.409778,-5.704489,-1.1509477,0.2164752,-0.075976305,-1.818239,-18.69375,41.86875,-20.775002,0.11285646,-0.7334911,0.67005336,995.7133, , , , 
2025-09-28 19:43:58.793,13.756337,-7.3627152,-2.3545375,0.29649848,-0.691728,-2.5793765,-18.5625,40.162502,-22.556252,0.13719645,-0.72792006,0.6709375,995.7282, , , , 
2025-09-28 19:43:58.813,12.658031,-9.355937,-2.8833513,0.20364705,-1.0649664,-2.9636104,-22.556252,38.49375,-22.5,0.15718153,-0.72379786,0.6704251,995.7282, , , , 
2025-09-28 19:43:58.833,12.2991085,-11.303694,-2.605784,-0.085292,-1.1242203,-3.218952,-27.187502,38.8875,-21.73125,0.19491224,-0.7170312,0.6664573,995.7304, , , , 
2025-09-28 19:43:58.853,12.650853,-12.638889,-1.7060826,-0.34674212,-0.83222693,-3.3973246,-26.98125,37.03125,-20.71875,0.22521259,-0.7120815,0.660551,995.7304, , , , 
2025-09-28 19:43:58.873,12.500106,-12.88535,-0.89730847,-0.5275581,-0.25801402,-3.6080728,-31.5375,35.568752,-20.306252,0.25356334,-0.7068143,0.6532906,995.7338, , , , 
2025-09-28 19:43:58.892,11.789437,-12.033505,-0.16271193,-0.6155226,0.33208138,-3.7620108,-34.48125,33.28125,-20.643751,0.27885476,-0.7005022,0.64561754,995.7338, , , , 
2025-09-28 19:43:58.914,11.3683,-11.370693,0.57906306,-0.55565786,0.75052375,-3.977035,-35.79375,32.643753,-20.625,0.30634883,-0.6900534,0.63633895,995.74725, , , , 
2025-09-28 19:43:58.931,11.162518,-11.392229,0.9906286,-0.36995497,0.8030581,-4.2146616,-37.65,29.962502,-19.96875,0.32230583,-0.6817258,0.6309987,995.74725, , , , 
2025-09-28 19:43:58.951,10.770095,-11.947364,0.7537391,-0.13293944,0.65156364,-4.4993243,-38.8125,28.500002,-21.300001,0.34490952,-0.66770774,0.62386745,995.74725, , , , 
2025-09-28 19:43:58.971,10.365707,-12.638889,0.4426722,0.042989608,0.2880991,-4.794983,-40.893753,24.16875,-19.612501,0.37692162,-0.646325,0.61336523,995.76385, , , , 
2025-09-28 19:43:58.993,8.8701935,-12.973885,0.04546363,0.17676899,0.07735075,-4.8969975,-40.59375,19.725,-20.306252,0.40510753,-0.62694126,0.60297775,995.76996, , , , 
2025-09-28 19:43:59.011,7.6402826,-12.825529,-0.19142582,0.199371,0.04619665,-4.7986484,-43.068752,14.85,-19.3125,0.43323353,-0.6063971,0.59126925,995.76996, , , , 
2025-09-28 19:43:59.031,6.666404,-12.466606,-0.46899325,0.17371467,0.06330086,-4.591565,-43.4625,10.59375,-20.868752,0.4595958,-0.58539885,0.57885855,995.76996, , , , 
2025-09-28 19:43:59.051,5.9820566,-12.27518,-0.5766702,0.13706279,0.059635673,-4.3447757,-46.875,6.8625,-18.91875,0.4835586,-0.56461227,0.5660397,995.76337, , , , 
2025-09-28 19:43:59.071,5.2283173,-12.071791,-0.5024927,0.13034327,-0.02527453,-4.1053166,-45.9,4.4812503,-19.03125,0.50539887,-0.54446554,0.55287886,995.76337, , , , 
2025-09-28 19:43:59.091,3.9768713,-11.983255,-0.4833502,0.11873684,-0.15783219,-3.8310385,-48.05625,-1.8375001,-18.300001,0.5256505,-0.52517503,0.5394088,995.7597, , , , 
2025-09-28 19:43:59.111,2.103291,-11.602797,-0.39720857,0.13706279,-0.38385215,-3.413818,-46.612503,-4.18125,-19.237501,0.544495,-0.50757706,0.5256451,995.7597, , , , 
2025-09-28 19:43:59.132,0.51445687,-11.248659,-0.6987042,0.07170025,-0.4815905,-2.7601924,-48.787502,-8.38125,-18.768751,0.5654907,-0.48968995,0.5088674,995.7536, , , , 
2025-09-28 19:43:59.151,-0.6628119,-10.832308,-0.87338024,-0.06330086,-0.3001637,-2.0069962,-47.15625,-11.19375,-18.618752,0.5778711,-0.4792775,0.49779466,995.7536, , , , 
2025-09-28 19:43:59.171,-0.6364908,-10.480563,-0.7322037,-0.18608469,-0.082084954,-1.2299762,-47.287502,-13.950001,-18.300001,0.5849858,-0.47289276,0.49024567,995.7602, , , , 
2025-09-28 19:43:59.191,-0.50488555,-10.057034,-0.69152576,-0.26794055,0.19036074,-0.5207622,-46.48125,-13.6125,-19.03125,0.58722293,-0.46994704,0.4865612,995.76215, , , , 
2025-09-28 19:43:59.211,-0.73459655,-9.836894,-0.7537391,-0.30275986,0.25633413,0.041844238,-46.068752,-14.56875,-19.95,0.5855773,-0.46971327,0.48622718,995.76215, , , , 
2025-09-28 19:43:59.231,-0.7728817,-10.322637,-0.4642076,-0.2520581,0.06635518,0.6655372,-45.581253,-14.26875,-18.46875,0.5813097,-0.47287044,0.48823625,995.76215, , , , 
2025-09-28 19:43:59.251,-1.0815558,-9.762716,-0.26081768,-0.11766783,-0.22808164,1.4370594,-46.800003,-13.89375,-20.5125,0.57537055,-0.4803943,0.49220443,995.7636, , , , 
2025-09-28 19:43:59.271,0.1268196,-8.992228,-0.57906306,-0.12988512,-0.09430225,2.3490806,-44.8875,-10.837501,-18.73125,0.5642581,-0.49623492,0.5009439,995.7719, , , , 
2025-09-28 19:43:59.291,2.0291135,-9.013762,-0.32303107,-0.211741,0.3504073,3.0033166,-46.5,-9.39375,-19.10625,0.5491863,-0.5121298,0.5125048,995.7719, , , , 
2025-09-28 19:43:59.311,4.508078,-9.743574,0.33499518,-0.1164461,0.5519927,3.42237,-46.21875,-6.5062504,-17.90625,0.5287336,-0.52900857,0.52785194,995.7719,37.88835144,127.73979268,144.93316650390625,1.73
2025-09-28 19:43:59.331,6.647261,-10.643275,0.2416751,0.25495967,0.2850448,3.5909686,-45.84375,-2.5875,-20.175001,0.5067761,-0.5455744,0.5449241,995.7753, , , , 
2025-09-28 19:43:59.352,7.728817,-11.676974,-1.442872,0.5322923,-0.03565923,3.6453357,-45.09375,0.24375,-21.975,0.48662636,-0.5612588,0.5618219,995.7753, , , , 
2025-09-28 19:43:59.371,7.925029,-12.021541,-2.737389,0.5023599,-0.116293386,3.7956083,-45.0,4.4625,-20.0625,0.4675244,-0.57658017,0.57774603,995.7631, , , , 
2025-09-28 19:43:59.392,8.681161,-11.856436,-3.010171,0.17554727,0.14882194,4.0191846,-46.0875,6.4500003,-18.50625,0.4405782,-0.5966619,0.5960263,995.73505, , , , 
2025-09-28 19:43:59.411,9.2793665,-11.636296,-2.3114667,-0.087124586,0.40294167,4.0821037,-43.10625,12.375001,-20.7,0.4214384,-0.60909957,0.60607946,995.73505, , , , 
2025-09-28 19:43:59.431,9.35833,-11.69851,-1.2610176,-0.3161989,0.65278536,4.112647,-43.050003,14.868751,-20.400002,0.3856092,-0.62946767,0.6211132,995.73505, , , , 
2025-09-28 19:43:59.451,9.29133,-11.770294,-0.7106683,-0.39683303,0.7370847,4.144412,-42.43125,17.0625,-22.125,0.36243275,-0.6411816,0.6292135,995.7028, , , , 
2025-09-28 19:43:59.471,9.267402,-11.751152,-0.20338993,-0.38583747,0.6607266,4.2384853,-39.75,22.95,-23.98125,0.33044812,-0.6560533,0.63902414,995.7028, , , , 
2025-09-28 19:43:59.491,10.076176,-11.447264,-0.0023928226,-0.31192282,0.48601928,4.274526,-39.99375,23.175001,-23.962502,0.29834935,-0.6698954,0.64775336,995.6962, , , , 
2025-09-28 19:43:59.511,11.129018,-10.679168,0.016749758,-0.15248711,0.010766491,4.1596837,-36.018753,27.562502,-25.087502,0.26114738,-0.68510896,0.6567129,995.6962, , , , 
2025-09-28 19:43:59.531,11.842079,-10.12164,0.19860429,-0.030314164,-0.22747077,3.9855874,-32.287502,29.1,-28.050001,0.24131694,-0.69290835,0.66100717,995.6928, , , , 
2025-09-28 19:43:59.551,12.12204,-9.016156,-0.3278167,0.08452842,-0.19998185,3.6398377,-31.575,32.1375,-25.518751,0.20614955,-0.7047575,0.6682912,995.6928, , , , 
2025-09-28 19:43:59.571,12.217752,-8.4012,-0.634098,0.038713556,-0.042989608,3.4565783,-31.29375,32.8875,-24.0375,0.18955322,-0.7093093,0.6712148,995.6911, , , , 
2025-09-28 19:43:59.591,12.88535,-7.7623167,-0.72502524,-0.013820816,0.30581418,3.182911,-23.550001,35.456253,-27.16875,0.16179542,-0.7157505,0.67486936,995.6911, , , , 
2025-09-28 19:43:59.611,13.974084,-7.5732837,-1.3519448,-0.040698867,0.5941424,2.9074109,-23.625,36.5625,-26.437502,0.1393766,-0.7197059,0.6772357,995.68427, , , , 
2025-09-28 19:43:59.631,14.603396,-6.9655066,-1.7970098,-0.11094832,0.75235635,2.5879285,-21.675001,37.5,-26.23125,0.123022035,-0.7221949,0.67850035,995.68427, , , , 
2025-09-28 19:43:59.651,16.218552,-6.9344,-2.225325,-0.31558803,0.8568142,1.9813399,-19.368752,38.850002,-25.48125,0.098335825,-0.7261999,0.67893726,995.6823, , , , 
2025-09-28 19:43:59.671,16.795221,-7.192825,-1.9980069,-0.44142616,0.7938951,1.5402956,-16.893751,40.85625,-26.925001,0.08268043,-0.72978514,0.6773618,995.6823, , , , 
2025-09-28 19:43:59.691,16.950756,-6.8171515,-1.5026926,-0.53549933,0.73341954,0.9954042,-15.468751,39.2625,-25.9125,0.073984586,-0.7326156,0.67530936,995.6789, , , , 
2025-09-28 19:43:59.711,17.458035,-8.085348,-0.39481574,-0.52022773,0.71936965,0.2489274,-12.750001,41.662502,-28.35,0.06450937,-0.7371214,0.6710485,995.6789, , , , 
2025-09-28 19:43:59.731,16.900507,-8.4705925,0.52163535,-0.1702022,0.44631308,-0.19089524,-12.4875,41.68125,-26.5125,0.0622808,-0.739144,0.66848665,995.69135, , , , 
2025-09-28 19:43:59.751,15.919449,-6.9224358,-0.971486,0.3502546,-0.17982332,-0.8188642,-14.175,40.518753,-26.737501,0.06848263,-0.7372882,0.66919464,995.69135, , , , 
2025-09-28 19:43:59.771,15.21596,-6.9224358,-2.091327,0.34720027,-0.38201955,-1.3411536,-15.056251,40.537502,-26.175001,0.07714727,-0.7349455,0.67032427,995.7138, , , , 
2025-09-28 19:43:59.791,13.823337,-7.9657063,-1.7491534,0.1645517,-0.497473,-1.9599596,-16.3875,39.787502,-26.456251,0.09769527,-0.73135287,0.6702815,995.7138, , , , 
2025-09-28 19:43:59.811,12.734602,-9.406186,-0.70588267,0.09369139,-0.791299,-2.418719,-18.09375,39.35625,-26.1,0.11868029,-0.72856236,0.6684636,995.71747, , , , 
2025-09-28 19:43:59.831,12.564712,-10.234102,-0.038285162,0.077198036,-0.9684498,-2.6551237,-19.125,39.2625,-26.75625,0.13703588,-0.72613776,0.6663428,995.71747, , , , 
2025-09-28 19:43:59.851,12.504891,-11.478371,1.1964114,0.041157015,-0.8285617,-3.0650141,-23.98125,36.393753,-24.862501,0.17785269,-0.7197446,0.66045743,995.7338, , , , 
2025-09-28 19:43:59.871,12.059826,-11.521441,1.5266209,0.032604907,-0.3917934,-3.2849255,-27.675001,36.24375,-24.0,0.19822522,-0.71532613,0.65712166,995.7338, , , , 
2025-09-28 19:43:59.891,11.284552,-11.404193,1.6295122,0.008170316,0.2850448,-3.5366015,-28.9125,34.275,-26.531252,0.22904553,-0.7056748,0.6516055,995.75824, , , , 
2025-09-28 19:43:59.911,10.73181,-11.52862,1.6462619,0.0692568,0.70715237,-3.7638433,-31.3875,34.518753,-25.368752,0.25088105,-0.6955789,0.6473732,995.75824, , , , 
2025-09-28 19:43:59.931,10.296316,-11.729616,1.6031911,0.1957058,0.8103885,-3.9690938,-32.49375,32.662502,-25.44375,0.2667302,-0.6863683,0.6442516,995.78143, , , , 
2025-09-28 19:43:59.951,9.793823,-12.220145,1.1988041,0.3661371,0.69860023,-4.193281,-34.800003,28.556252,-24.50625,0.2942181,-0.66796327,0.6386432,995.78143, , , , 
2025-09-28 19:43:59.971,9.729217,-12.449856,1.0911272,0.41317368,0.53672105,-4.3411107,-34.987503,27.431252,-26.268751,0.317784,-0.6513191,0.63290757,995.7956, , , , 
2025-09-28 19:43:59.991,9.040084,-12.837494,1.5577276,0.48097965,0.33269224,-4.528035,-38.5875,20.587502,-25.66875,0.3428476,-0.6333477,0.6254128,995.7956, , , , 
2025-09-28 19:44:00.011,7.958528,-13.060026,1.7443677,0.62025684,0.0956767,-4.5714064,-39.24375,15.918751,-24.862501,0.3692066,-0.6139696,0.6164728,995.80023, , , , 
2025-09-28 19:44:00.031,7.204789,-12.959527,1.6175481,0.76564264,-0.17982332,-4.511542,-39.43125,14.793751,-27.4125,0.39665762,-0.5935762,0.6064772,995.80023, , , , 
2025-09-28 19:44:00.051,6.0777693,-12.373286,1.2514462,0.94218254,-0.7076105,-4.3007936,-41.006252,9.375,-24.150002,0.43263647,-0.56791615,0.5923347,995.7961, , , , 
2025-09-28 19:44:00.071,5.3886366,-11.815758,0.5312066,0.9348522,-0.8884265,-4.090656,-44.625,5.2875004,-24.31875,0.45474336,-0.55311155,0.5828589,995.7961, , , , 
2025-09-28 19:44:00.091,4.570291,-11.133803,-0.40438703,0.7528145,-0.71677345,-3.8212647,-45.28125,1.35,-23.868752,0.48258016,-0.534262,0.569622,995.7985, , , , 
2025-09-28 19:44:00.111,3.778267,-11.112268,-0.93559366,0.41500625,-0.32215482,-3.4742935,-44.15625,-5.3812504,-23.60625,0.5111849,-0.51213557,0.5534499,995.7985, , , , 
2025-09-28 19:44:00.131,2.7493532,-11.014163,-0.37567315,0.303218,-0.29344416,-3.0857835,-43.350002,-5.90625,-25.050001,0.5289625,-0.4961482,0.54142946,995.78973, , , , 
2025-09-28 19:44:00.151,1.4907285,-9.994821,-0.7298109,0.33925903,-0.4736493,-2.545779,-44.5125,-11.512501,-23.831251,0.5484392,-0.47931883,0.52742577,995.78973, , , , 
2025-09-28 19:44:00.171,0.74416786,-9.911072,-1.5553347,0.25801402,-0.41500625,-2.225075,-44.8875,-12.0375,-24.843752,0.55876386,-0.47094125,0.51974356,995.7863, , , , 
2025-09-28 19:44:00.191,-0.6843473,-10.454242,-2.3282163,0.03138318,-0.21036656,-1.7308854,-44.943752,-12.806251,-22.1625,0.5669899,-0.46404916,0.5130333,995.7863, , , , 
2025-09-28 19:44:00.211,-2.5698915,-11.68176,-2.565106,-0.34307694,-0.154167,-0.5189296,-43.818752,-14.437501,-21.4125,0.5745679,-0.4581646,0.50400734,995.7756, , , , 
2025-09-28 19:44:00.231,-3.330809,-10.99502,-1.7395821,-0.54221886,-0.25679228,0.4816669,-42.45,-14.925,-21.375,0.5738049,-0.46098712,0.50202316,995.7756, , , , 
2025-09-28 19:44:00.251,-0.80159557,-8.851051,0.2656033,-0.61491174,-0.010613776,1.7602068,-44.550003,-13.031251,-21.431252,0.5652847,-0.4743932,0.50380754,995.7675, , , , 
2025-09-28 19:44:00.271,1.1557333,-7.6666036,0.7680961,-0.53794277,0.43531752,2.288605,-44.625,-12.01875,-23.175001,0.5518173,-0.48839164,0.5114319,995.7675, , , , 
2025-09-28 19:44:00.291,2.7565317,-7.793423,0.2536392,-0.43104145,0.96249384,2.6667302,-45.956253,-7.8,-23.41875,0.53358555,-0.50177586,0.52403337,995.77045, , , , 
2025-09-28 19:44:00.312,3.842873,-8.9348,0.086141616,-0.21784966,0.7786235,2.8976371,-45.2625,-7.2375,-23.38125,0.5126697,-0.514539,0.5393535,995.77045,37.88834392,127.73976761,145.75616455078125,1.91
2025-09-28 19:44:00.331,4.898108,-10.320244,-0.7609176,-0.0028252497,0.3436878,3.1071637,-43.85625,-6.0937505,-24.056252,0.49271587,-0.5281943,0.5547555,995.7714, , , , 
2025-09-28 19:44:00.351,6.4438715,-11.856436,-2.4023938,0.053985175,-0.063759014,3.4303112,-44.643753,-1.3125,-24.243752,0.46971664,-0.5475941,0.5726699,995.7714, , , , 
2025-09-28 19:44:00.371,6.8506513,-11.91865,-2.6321049,-0.12438734,0.008323032,3.617236,-43.48125,1.5375,-23.60625,0.44994786,-0.5648117,0.5858555,995.7587, , , , 
2025-09-28 19:44:00.391,7.281359,-11.487942,-1.8999012,-0.36506808,0.19830199,3.7949975,-43.912502,2.86875,-25.48125,0.43273848,-0.5784356,0.5951857,995.7587, , , , 
2025-09-28 19:44:00.411,8.2456665,-10.741381,0.27517462,-0.4976257,0.25938845,3.9018989,-42.506252,9.225,-23.98125,0.40014863,-0.60112035,0.6097504,995.74115, , , , 
2025-09-28 19:44:00.431,8.506484,-10.597812,1.4907285,-0.26305366,0.020540329,3.8780751,-43.050003,12.4125,-23.962502,0.37391657,-0.61805433,0.620353,995.74115, , , , 
2025-09-28 19:44:00.451,8.58784,-10.762917,1.4380864,0.0900262,-0.22747077,3.8902924,-38.550003,17.737501,-26.8875,0.3436038,-0.6360489,0.63355076,995.7402, , , , 
2025-09-28 19:44:00.471,8.700303,-10.762917,1.0839486,0.32582,-0.48464483,3.9165595,-38.68125,20.71875,-26.8875,0.32693052,-0.6452101,0.6415515,995.7402, , , , 
2025-09-28 19:44:00.491,9.334401,-10.332209,-0.25603202,0.614759,-0.8743766,3.9477136,-36.54375,23.925001,-28.237501,0.30227438,-0.658216,0.6543442,995.7458, , , , 
2025-09-28 19:44:00.511,10.360922,-10.095319,-1.2969099,0.52251846,-0.7430406,3.9403832,-35.775,24.993752,-26.362501,0.2836328,-0.66719043,0.66342837,995.7458, , , , 
2025-09-28 19:44:00.531,11.531013,-9.77468,-1.3830515,0.28855726,-0.2842812,3.8389797,-35.362503,25.650002,-25.66875,0.2684101,-0.6735754,0.6691498,995.73773, , , , 
2025-09-28 19:44:00.551,12.246467,-9.961321,-1.3495519,-0.091400646,0.50251263,3.562258,-32.98125,30.018751,-28.181252,0.23911509,-0.6836041,0.6766542,995.73773, , , , 
2025-09-28 19:44:00.571,12.062219,-10.131211,-1.1030912,-0.34796384,0.89957476,3.4608543,-32.175003,29.94375,-24.562502,0.21222807,-0.691503,0.680745,995.72845, , , , 
2025-09-28 19:44:00.591,12.792029,-9.3104725,0.016749758,-0.4267654,0.9240093,3.3606725,-28.25625,33.862503,-27.35625,0.17645536,-0.7013174,0.68365973,995.72845, , , , 
2025-09-28 19:44:00.611,13.92862,-8.3581295,0.4881358,-0.28260133,0.600251,3.0980008,-25.7625,35.34375,-27.075,0.15027495,-0.707711,0.68518496,995.7192, , , , 
2025-09-28 19:44:00.631,14.529219,-7.810173,0.52163535,-0.1390481,0.47991064,2.762025,-21.768751,35.4,-29.19375,0.1335746,-0.7111911,0.6862331,995.7192, , , , 
2025-09-28 19:44:00.651,14.988641,-7.554141,0.30149564,-0.0034361144,0.44631308,2.3087635,-19.5,37.256252,-28.7625,0.10981763,-0.7146481,0.68824565,995.7204, , , , 
2025-09-28 19:44:00.671,15.838093,-8.001599,0.4019942,0.12240203,0.19769111,1.953851,-18.243752,36.2625,-28.06875,0.098458864,-0.71559674,0.6895671,995.7204, , , , 
2025-09-28 19:44:00.691,17.804993,-8.382058,-1.1437693,0.16821688,0.61796606,1.5091414,-16.331251,40.050003,-26.94375,0.08393943,-0.71545786,0.6922967,995.72797, , , , 
2025-09-28 19:44:00.711,19.24308,-8.422736,-2.2995026,-0.14210242,1.2202787,0.928209,-13.500001,40.21875,-27.712502,0.07196993,-0.715452,0.69366384,995.72797, , , , 
2025-09-28 19:44:00.731,19.54936,-7.391429,-0.971486,-0.24717116,1.1200969,0.33689192,-15.225,39.65625,-26.8875,0.061887812,-0.7167504,0.6928411,995.7138, , , , 
2025-09-28 19:44:00.751,19.195223,-5.460421,-0.7298109,-0.074907295,0.60513794,-0.8848376,-14.1,39.412502,-27.150002,0.060180064,-0.71715784,0.6915141,995.7138, , , , 
2025-09-28 19:44:00.771,16.39562,-6.1304116,-1.9453648,-0.20074543,0.7126501,-1.7339396,-14.1,39.1875,-30.375002,0.065699324,-0.71666735,0.6903788,995.70135, , , , 
2025-09-28 19:44:00.791,12.397214,-8.5016985,-1.7180467,-0.61369,1.0571779,-2.396728,-15.8625,37.987503,-27.0375,0.07856798,-0.71697056,0.68521684,995.70135, , , , 
2025-09-28 19:44:00.811,10.765309,-9.568898,0.36610186,-0.65461797,0.75052375,-2.5738788,-16.03125,39.112503,-29.550001,0.09007476,-0.7181098,0.6783799,995.7021, , , , 
2025-09-28 19:44:00.831,10.542776,-9.982856,2.603391,-0.37911797,-0.011835505,-2.6862779,-16.650002,38.287502,-28.518751,0.101555996,-0.71834314,0.6731677,995.7021, , , , 
2025-09-28 19:44:00.851,11.353944,-10.602597,4.2281175,0.22441645,-0.97944534,-2.9642212,-20.025002,37.575,-28.743752,0.12953907,-0.7156148,0.6664769,995.72894, , , , 
2025-09-28 19:44:00.871,11.586047,-10.736595,3.9744785,0.646524,-1.2616649,-3.2336128,-21.5625,37.800003,-30.13125,0.15915124,-0.7096667,0.6631739,995.72894, , , , 
2025-09-28 19:44:00.891,10.949556,-10.652846,2.1966112,0.8255074,-0.99593866,-3.4663522,-24.525002,35.60625,-28.143751,0.18344116,-0.70286447,0.66150314,995.7724, , , , 
2025-09-28 19:44:00.911,9.755538,-10.561919,0.39720857,0.5762746,-0.32643086,-3.625788,-30.243752,32.775,-27.075,0.22835915,-0.68633497,0.657142,995.7724, , , , 
2025-09-28 19:44:00.931,9.923036,-10.57149,1.1724831,0.48281226,-0.3380373,-3.7552912,-30.35625,31.406252,-28.218752,0.2487893,-0.67777795,0.6535064,995.78973, , , , 
2025-09-28 19:44:00.951,9.827323,-10.683953,1.6893328,0.6263655,-0.6929497,-4.104706,-33.1875,30.6,-26.025002,0.2853028,-0.66214776,0.6454101,995.78973, , , , 
2025-09-28 19:44:00.971,8.446664,-11.152946,0.9092726,0.610483,-0.5781072,-4.2616982,-37.96875,23.5125,-26.5125,0.3170773,-0.6475482,0.6373313,995.79803, , , , 
2025-09-28 19:44:00.991,7.5996046,-11.432906,0.51445687,0.5139664,-0.39423686,-4.207331,-37.518753,21.45,-26.2875,0.33987385,-0.63586324,0.63054365,995.79803, , , , 
2025-09-28 19:44:01.012,7.6953177,-11.583654,0.51445687,0.45104727,-0.33742642,-4.0619454,-38.362503,16.63125,-25.462502,0.37460476,-0.61594945,0.6183181,995.8105, , , , 
2025-09-28 19:44:01.031,8.070991,-11.464013,0.25842485,0.43821913,-0.43455392,-4.0295696,-39.675003,15.356251,-23.7,0.4009287,-0.5997102,0.6076416,995.8105, , , , 
2025-09-28 19:44:01.051,7.580462,-11.181661,0.02871387,0.41195193,-0.678289,-4.0246825,-44.71875,7.7625003,-24.13125,0.43410626,-0.5793149,0.5921208,995.80975, , , , 
2025-09-28 19:44:01.071,6.6592255,-10.892129,-0.33499518,0.30627233,-0.659963,-3.9666505,-44.71875,4.875,-22.893751,0.45388463,-0.5671602,0.5816135,995.80975, , , , 
2025-09-28 19:44:01.091,4.7401814,-10.861022,-0.53599226,0.07841977,-0.30749404,-3.6514442,-45.3375,1.95,-21.581251,0.48333737,-0.5472444,0.5635759,995.8027, , , , 
2025-09-28 19:44:01.111,3.7328033,-11.126625,-0.5288138,-0.05108357,-0.063759014,-3.2384996,-45.1875,-2.49375,-23.493752,0.5018561,-0.5322183,0.5502501,995.8027, , , , 
2025-09-28 19:44:01.131,3.022135,-11.179267,-0.5838487,-0.12377647,-0.0026725335,-2.8725917,-43.818752,-3.73125,-23.268751,0.5129069,-0.5219668,0.54134864,995.79364, , , , 
2025-09-28 19:44:01.151,2.4478576,-11.217552,-0.3182454,-0.2483929,-0.06314815,-2.2348487,-44.850002,-5.1937504,-23.85,0.52705026,-0.50807,0.5281838,995.79364, , , , 
2025-09-28 19:44:01.171,1.698904,-11.830115,-0.71306115,-0.2850448,-0.1211803,-1.9648466,-46.275,-8.475,-21.0375,0.5356362,-0.49983576,0.5187285,995.7951, , , , 
2025-09-28 19:44:01.191,-2.2492533,-12.356536,-0.8997013,-0.4182133,-0.49502954,-1.3063344,-46.050003,-10.3125,-21.88125,0.5443422,-0.4939789,0.5071747,995.7951, , , , 
2025-09-28 19:44:01.211,-3.8572302,-12.248859,-0.3397808,-0.41332638,-0.70150185,-0.24098615,-46.725002,-11.26875,-19.9125,0.54825616,-0.49583498,0.4995575,995.7856, , , , 
2025-09-28 19:44:01.231,-3.2973096,-11.102697,0.040677983,-0.3852266,-0.529238,0.7712168,-43.537502,-10.931251,-21.65625,0.54793286,-0.50120467,0.4968927,995.7856, , , , 
2025-09-28 19:44:01.251,-0.28953153,-9.906285,0.3397808,-0.25572327,0.084070265,1.8445061,-44.8875,-8.71875,-19.63125,0.53897816,-0.51450664,0.5007969,995.78754, , , , 
2025-09-28 19:44:01.271,1.2418749,-9.375079,-0.18664017,-0.11400264,0.25755587,2.197586,-44.550003,-7.18125,-20.831251,0.5295302,-0.523281,0.5076244,995.78754, , , , 
2025-09-28 19:44:01.291,2.9072795,-9.8632145,-1.5409778,0.092469655,0.0938441,2.6612325,-44.49375,-5.3250003,-20.175001,0.50763977,-0.541801,0.52542865,995.79315, , , , 
2025-09-28 19:44:01.311,3.6107693,-10.102497,-2.239682,0.12606722,0.0058795735,2.9642212,-47.925003,-2.8125,-20.56875,0.496054,-0.5522252,0.534931,995.79315,37.88834029,127.73975421,145.4022216796875,1.48
2025-09-28 19:44:01.331,4.402794,-10.590633,-2.5004997,0.06314815,0.1390481,3.3069165,-44.568752,-3.05625,-23.53125,0.47852537,-0.5673063,0.54823893,995.7695, , , , 
2025-09-28 19:44:01.351,5.6063833,-10.978271,-2.5148566,-0.12316561,0.5159517,3.7772825,-43.125,3.54375,-21.28125,0.45057237,-0.5873643,0.5665587,995.7695, , , , 
2025-09-28 19:44:01.371,6.515656,-10.863415,-2.0386848,-0.28870997,0.71203923,4.000248,-44.025,7.6875005,-22.2,0.43021375,-0.5997274,0.57804865,995.7504, , , , 
2025-09-28 19:44:01.391,8.298309,-10.284351,-0.21535404,-0.20868668,0.38705918,4.0704975,-41.90625,12.7875,-25.95,0.3934527,-0.6203157,0.5961225,995.7504, , , , 
2025-09-28 19:44:01.411,9.164511,-10.006784,-0.033499517,0.09491312,-0.07903063,3.9269443,-42.43125,15.562501,-22.35,0.36655045,-0.63531274,0.6090155,995.73285, , , , 
2025-09-28 19:44:01.431,9.2793665,-10.279566,-0.74177504,0.26045746,-0.3117701,3.8249297,-42.24375,17.19375,-22.3125,0.34353903,-0.6482377,0.62065214,995.73285, , , , 
2025-09-28 19:44:01.451,9.375079,-10.660025,-1.2131611,0.37224573,-0.55428344,3.7772825,-39.16875,22.7625,-25.725,0.3174295,-0.66235054,0.63364303,995.7277, , , , 
2025-09-28 19:44:01.471,9.906285,-10.794023,-1.3328022,0.38690647,-0.7405972,3.760178,-38.775,23.19375,-26.868752,0.30268753,-0.6701948,0.6404335,995.7277, , , , 
2025-09-28 19:44:01.491,10.186246,-10.686346,-0.8997013,0.42355835,-0.86215925,3.6972592,-36.112503,24.825,-25.706251,0.27978685,-0.68212533,0.64993405,995.7128, , , , 
2025-09-28 19:44:01.511,10.772488,-10.095319,-0.971486,0.38079783,-0.578718,3.6453357,-36.35625,26.531252,-25.462502,0.26124814,-0.69017315,0.6567027,995.7128, , , , 
2025-09-28 19:44:01.531,11.526227,-9.071191,-1.2323036,0.2323577,-0.038713556,3.4871216,-36.225002,30.150002,-25.218752,0.24597271,-0.69542205,0.6613364,995.7099, , , , 
2025-09-28 19:44:01.551,11.315659,-8.382058,-1.8281165,-0.13477205,0.7688497,3.1939065,-32.68125,32.5125,-24.656252,0.21651097,-0.70324093,0.66777295,995.7099, , , , 
2025-09-28 19:44:01.571,11.334801,-8.444271,-1.1318051,-0.24289511,0.87025326,3.0888379,-29.681252,32.175003,-23.400002,0.19059382,-0.7096093,0.6710132,995.7038, , , , 
2025-09-28 19:44:01.591,12.473784,-7.9274216,0.014356935,0.04848739,0.39805475,2.9684975,-28.181252,33.7125,-24.562502,0.16598551,-0.71496373,0.6736716,995.7038, , , , 
2025-09-28 19:44:01.611,14.160725,-7.623533,-1.0313065,0.45532334,-0.116293386,2.7094908,-23.325,37.331253,-26.681252,0.14219074,-0.71760553,0.6785617,995.69525, , , , 
2025-09-28 19:44:01.631,15.273387,-7.30768,-2.6799614,0.57322025,-0.29100072,2.4113886,-24.31875,36.112503,-25.425001,0.13186407,-0.717387,0.6819927,995.69525, , , , 
2025-09-28 19:44:01.651,17.24268,-6.7381887,-4.534399,0.14256057,0.0938441,1.8383975,-22.40625,37.03125,-23.98125,0.11771255,-0.71713126,0.6859759,995.7065, , , , 
2025-09-28 19:44:01.671,18.312271,-6.3194447,-4.1228333,-0.24411684,0.4304306,1.3845251,-18.7875,38.79375,-26.456251,0.107545674,-0.71922463,0.68576384,995.7065, , , , 
2025-09-28 19:44:01.691,18.814764,-6.204589,-2.3258235,-0.6595049,0.8952987,0.62766355,-18.487501,39.5625,-25.612501,0.10102951,-0.7221939,0.68359977,995.69086, , , , 
2025-09-28 19:44:01.712,17.541782,-7.652247,0.16271193,-0.6460659,1.1591923,-0.38453937,-16.425001,38.79375,-27.337502,0.0936974,-0.72759676,0.67827564,995.69086, , , , 
2025-09-28 19:44:01.731,14.998212,-8.063812,0.30388847,-0.28015786,0.83726656,-0.8213077,-16.29375,40.29375,-25.425001,0.09299702,-0.7294873,0.6752889,995.6882, , , , 
2025-09-28 19:44:01.751,13.050455,-7.125826,-1.1533405,0.036270097,0.043753188,-1.2214241,-18.056252,38.98125,-24.075,0.100378916,-0.7282807,0.67408097,995.6882, , , , 
2025-09-28 19:44:01.771,12.677175,-7.391429,-1.2251252,0.047265664,-0.42600182,-1.5665628,-18.28125,39.956253,-24.4125,0.10950973,-0.7269678,0.6732626,995.706, , , , 
2025-09-28 19:44:01.791,12.363714,-8.688339,-0.6197411,0.07170025,-0.8774309,-2.0222678,-20.7,37.987503,-26.831251,0.13203311,-0.7242962,0.6707227,995.706, , , , 
2025-09-28 19:44:01.811,12.160325,-10.116854,-0.32063824,0.056428634,-0.9971604,-2.3307545,-20.90625,37.0875,-25.687502,0.15478955,-0.721321,0.66780627,995.71356, , , , 
2025-09-28 19:44:01.831,12.212967,-10.997413,0.0,0.014889829,-0.96295196,-2.5518875,-22.21875,37.93125,-24.35625,0.17310531,-0.7186377,0.6650519,995.71356, , , , 
2025-09-28 19:44:01.851,12.476177,-11.270195,0.46181476,-0.04497492,-0.65141094,-2.889696,-27.750002,36.0,-23.6625,0.20452909,-0.7131333,0.6594451,995.7304, , , , 
2025-09-28 19:44:01.871,11.834901,-10.978271,0.49292147,-0.092011504,-0.12179117,-3.2116215,-26.5125,34.875,-23.56875,0.22892953,-0.7072345,0.6544486,995.7304, , , , 
2025-09-28 19:44:01.891,10.595419,-10.667203,0.20338993,-0.12927426,0.36018115,-3.4058766,-31.687502,33.318752,-21.243752,0.25129968,-0.6996372,0.6493429,995.7443, , , , 
2025-09-28 19:44:01.911,10.07139,-10.578669,0.15074782,-0.1372155,0.78228873,-3.5616472,-32.925003,29.868752,-24.468752,0.27578476,-0.6878756,0.642914,995.7443, , , , 
2025-09-28 19:44:01.931,10.470992,-10.5690975,0.7585248,-0.05291616,0.68271774,-3.7210827,-35.006252,28.800001,-26.362501,0.28991932,-0.6796487,0.63876325,995.7563, , , , 
2025-09-28 19:44:01.951,10.676775,-10.892129,1.3615161,0.15355614,0.4004982,-3.9672613,-35.15625,27.525002,-24.2625,0.31099612,-0.6668775,0.63252956,995.7563, , , , 
2025-09-28 19:44:01.971,10.080962,-11.272588,1.0336994,0.3832413,0.021762058,-4.308735,-37.912502,21.88125,-24.112501,0.34252393,-0.6475192,0.6233645,995.7602, , , , 
2025-09-28 19:44:01.991,8.79123,-11.88515,1.0073783,0.45715594,0.007101303,-4.4632835,-38.8875,16.95,-24.806252,0.37006494,-0.6299514,0.61438465,995.7602, , , , 
2025-09-28 19:44:02.011,7.726424,-12.033505,0.8997013,0.5432879,0.008933897,-4.410749,-40.893753,14.3625,-23.53125,0.39718288,-0.6108086,0.60474306,995.76776, , , , 
2025-09-28 19:44:02.031,7.068398,-11.921042,0.3278167,0.5915462,0.054748755,-4.285522,-38.662502,13.725,-24.487501,0.4230583,-0.5906622,0.59493655,995.76776, , , , 
2025-09-28 19:44:02.051,6.1854467,-11.581262,-0.27756742,0.56772244,0.13232858,-4.097986,-41.381252,7.5937505,-23.7,0.44113815,-0.5752533,0.5875906,995.7753, , , , 
2025-09-28 19:44:02.071,4.9698925,-11.136196,-1.0408778,0.43272135,0.27832526,-3.79683,-44.662502,1.5375,-23.325,0.46794972,-0.5500397,0.5752728,995.7753, , , , 
2025-09-28 19:44:02.091,3.0197423,-10.564312,-1.6677973,0.14989094,0.48113236,-3.3869398,-41.79375,1.725,-26.718752,0.48962334,-0.5263107,0.56302965,995.77167, , , , 
2025-09-28 19:44:02.111,1.7084754,-10.334601,-1.2442678,-0.0193186,0.4896845,-2.9031348,-45.24375,-4.2562504,-23.400002,0.50246143,-0.50963545,0.55364925,995.77167, , , , 
2025-09-28 19:44:02.131,1.0241281,-10.018748,-0.74177504,-0.06269,0.3852266,-2.4663665,-45.09375,-4.96875,-23.831251,0.509884,-0.49909374,0.54719025,995.7658, , , , 
2025-09-28 19:44:02.151,1.2227324,-9.360723,-0.43070808,-0.027259842,0.14821106,-1.7461569,-43.443752,-8.00625,-27.993752,0.51935166,-0.48579314,0.5381484,995.7658, , , , 
2025-09-28 19:44:02.171,0.9236295,-8.915657,-0.6939186,-0.0077121677,0.11400264,-1.3362668,-42.318752,-8.775001,-25.612501,0.52505183,-0.47847745,0.5325979,995.768, , , , 
2025-09-28 19:44:02.191,-0.5479564,-9.21476,-1.8735801,-0.1268308,0.18669555,-0.87200946,-42.318752,-10.275001,-25.837502,0.52947783,-0.47221896,0.5278166,995.768, , , , 
2025-09-28 19:44:02.212,-2.4837499,-10.652846,-2.9120653,-0.36934412,0.11033745,-0.17318016,-42.225002,-10.63125,-26.737501,0.52936214,-0.47101298,0.5258818,995.7653, , , , 
2025-09-28 19:44:02.231,-3.400201,-10.595419,-2.6368906,-0.6314051,-0.21769693,0.7651081,-42.45,-11.025001,-27.16875,0.5266485,-0.47469085,0.52542,995.7653, , , , 
2025-09-28 19:44:02.251,-1.1964114,-10.042677,-0.9403793,-0.78473216,-0.28000516,1.6807945,-40.706253,-10.2375,-25.3875,0.5186666,-0.4867279,0.5268083,995.7597, , , , 
2025-09-28 19:44:02.271,2.1822543,-9.767502,0.45224348,-0.681496,0.12011129,2.4993532,-39.693752,-5.90625,-25.275002,0.50114137,-0.5068602,0.5345173,995.7597, , , , 
2025-09-28 19:44:02.291,3.7184465,-10.04507,0.148355,-0.55626875,0.42798713,2.8078399,-42.318752,-5.7937503,-24.843752,0.4873678,-0.51879793,0.54247165,995.75165, , , , 
2025-09-28 19:44:02.311,4.7545385,-11.002198,-0.4354937,-0.40233082,0.26671883,3.1444263,-42.075,-1.7812501,-26.19375,0.46154186,-0.53809893,0.55852765,995.75165,37.88833649,127.73974237,144.3397216796875,1.29
2025-09-28 19:44:02.331,5.651847,-11.653047,-0.6580262,-0.25389066,-0.10529782,3.4009898,-43.4625,-0.58125,-24.4125,0.44093987,-0.55474275,0.5714867,995.7504, , , , 
2025-09-28 19:44:02.351,6.8985076,-12.045469,-1.4356936,-0.10117448,-0.52251846,3.7045894,-39.525,6.3187504,-27.69375,0.41655785,-0.5773329,0.5868238,995.7504, , , , 
2025-09-28 19:44:02.371,7.759924,-11.724831,-1.9357935,-0.1702022,-0.42600182,3.8292058,-40.7625,9.7875,-25.125002,0.40168804,-0.5911641,0.59553486,995.74554, , , , 
2025-09-28 19:44:02.391,8.008778,-11.023734,-1.7611175,-0.33085963,-0.19814926,3.8835728,-39.075,9.975,-27.7875,0.37971312,-0.6091423,0.6064568,995.74554, , , , 
2025-09-28 19:44:02.411,8.343773,-10.279566,-0.96909314,-0.5049561,0.015042545,3.9183922,-39.35625,16.03125,-25.781252,0.35497686,-0.6263709,0.6163991,995.73456, , , , 
2025-09-28 19:44:02.431,8.975478,-9.942178,-0.32542387,-0.47929978,-0.020387612,3.8628035,-41.006252,16.706251,-23.175001,0.32247034,-0.64645076,0.6272534,995.73456, , , , 
2025-09-28 19:44:02.451,9.571291,-10.07139,-0.49052864,-0.45547605,-0.042378742,3.7626216,-34.875,21.35625,-28.10625,0.30332282,-0.65739405,0.6329613,995.7304, , , , 
2025-09-28 19:44:02.471,9.71486,-10.375279,-0.23928227,-0.43653923,-0.0881936,3.643503,-36.768753,24.281252,-28.218752,0.27236396,-0.6739241,0.64091223,995.7304, , , , 
2025-09-28 19:44:02.491,9.789038,-10.238888,0.11246266,-0.360792,-0.1786016,3.6019642,-36.300003,26.56875,-28.406252,0.24846095,-0.6857084,0.64624983,995.71967, , , , 
2025-09-28 19:44:02.511,10.155139,-9.343972,0.30388847,-0.15737404,-0.25068364,3.566534,-31.706251,28.800001,-31.181252,0.21987993,-0.69817936,0.65255207,995.71967, , , , 
2025-09-28 19:44:02.531,10.959127,-8.958728,-0.29671,0.0032833982,-0.21219915,3.5103345,-32.15625,30.468752,-28.29375,0.20327944,-0.7041199,0.65652525,995.72235, , , , 
2025-09-28 19:44:02.551,12.177074,-8.573483,-1.7491534,0.057650365,-0.102854356,3.3203554,-29.718752,33.318752,-24.993752,0.17650357,-0.7116807,0.6630819,995.72235, , , , 
2025-09-28 19:44:02.571,12.796816,-8.006385,-2.5316064,-0.108504854,0.058413945,3.1053312,-28.95,34.78125,-27.7875,0.15576878,-0.71676517,0.6670064,995.7238, , , , 
2025-09-28 19:44:02.591,13.2203455,-7.094719,-2.024328,-0.40171996,0.14821106,2.753473,-26.6625,36.862503,-24.750002,0.1357207,-0.7222531,0.6684838,995.7238, , , , 
2025-09-28 19:44:02.611,13.878371,-6.7022963,-0.52163535,-0.45853037,-0.008170316,2.427882,-22.10625,36.84375,-26.775002,0.11778334,-0.72805536,0.6678299,995.7128, , , , 
2025-09-28 19:44:02.631,14.804394,-6.503692,0.552742,-0.29726207,-0.23663375,2.112065,-21.487501,37.03125,-26.081251,0.10362277,-0.73284364,0.66676795,995.7128, , , , 
2025-09-28 19:44:02.651,16.465014,-6.8602223,0.5072784,0.030772313,-0.35269806,1.5219696,-21.487501,39.99375,-24.862501,0.09228272,-0.7357431,0.6669788,995.70624, , , , 
2025-09-28 19:44:02.671,17.012968,-7.3986077,-0.2416751,0.10346522,-0.2702313,1.0247257,-17.6625,39.393753,-25.06875,0.08862981,-0.73602355,0.6678212,995.70624, , , , 
2025-09-28 19:44:02.691,16.931614,-7.5517483,-0.39481574,-0.011377357,0.08590286,0.2623664,-17.04375,38.831253,-24.956251,0.08640719,-0.7358321,0.6687323,995.7282, , , , 
2025-09-28 19:44:02.711,15.9433775,-8.707481,0.36131623,-0.03214676,0.24656029,-0.29779658,-17.5125,39.300003,-26.325,0.08736652,-0.73558325,0.66855174,995.7282, , , , 
2025-09-28 19:44:02.731,14.572289,-8.336594,0.70588267,0.14622575,0.23006694,-0.64354604,-15.900001,40.93125,-23.79375,0.09112508,-0.73432904,0.6687079,995.7358, , , , 
2025-09-28 19:44:02.751,12.454642,-6.704689,-0.078963146,0.3154353,0.13232858,-1.0925317,-18.243752,38.831253,-23.2875,0.09955576,-0.73055875,0.6703302,995.7358, , , , 
2025-09-28 19:44:02.772,11.6339035,-6.74776,0.016749758,0.37835437,-0.19081889,-1.393688,-19.9125,37.6875,-25.35,0.10722596,-0.727749,0.6712692,995.74335, , , , 
2025-09-28 19:44:02.791,11.703296,-8.556734,-0.2943172,0.5096903,-0.8927025,-1.8555018,-21.675001,37.5,-26.550001,0.12667136,-0.7220984,0.67250437,995.74335, , , , 
2025-09-28 19:44:02.812,11.722438,-10.243673,-0.68195444,0.46143198,-1.3844486,-2.1578798,-22.462502,36.54375,-25.63125,0.14919803,-0.7169529,0.67243785,995.7514, , , , 
2025-09-28 19:44:02.831,11.688938,-11.68176,-0.28713873,0.2861138,-1.7460806,-2.369239,-24.337502,35.1375,-28.143751,0.16945091,-0.7133493,0.6709054,995.7514, , , , 
2025-09-28 19:44:02.851,11.789437,-12.519248,1.3806586,0.12056944,-1.9910374,-2.5152357,-25.987501,35.175003,-24.4125,0.1991839,-0.70916736,0.666536,995.75946, , , , 
2025-09-28 19:44:02.871,12.016755,-11.973684,3.8763726,0.19326234,-1.8297691,-2.7375906,-29.8875,34.78125,-24.300001,0.23819162,-0.7029465,0.6594328,995.75946, , , , 
2025-09-28 19:44:02.891,11.361122,-10.650454,4.3070807,0.39057165,-1.1431571,-3.0521858,-35.53125,31.575,-22.743752,0.2682172,-0.6949685,0.65490717,995.7795, , , , 
2025-09-28 19:44:02.911,10.097712,-9.927821,3.5700915,0.5567269,-0.4559342,-3.4046547,-35.7,30.056252,-22.5,0.30239314,-0.6803651,0.65172654,995.7795, , , , 
2025-09-28 19:44:02.931,9.150154,-9.798609,3.0197423,0.65629786,-0.20120358,-3.6044075,-33.862503,31.0125,-23.8125,0.32162315,-0.6693606,0.65068763,995.80927, , , , 
2025-09-28 19:44:02.951,8.348558,-10.241281,2.0267208,0.77052957,-0.28489205,-3.828595,-37.78125,26.362501,-21.28125,0.35370755,-0.6482304,0.6488991,995.80927, , , , 
2025-09-28 19:44:02.971,8.30788,-10.365707,1.995614,0.76747525,-0.4314996,-3.9153378,-40.350002,20.98125,-20.1,0.38065368,-0.6300612,0.6458457,995.8173, , , , 
2025-09-28 19:44:02.991,8.250452,-10.624132,1.98365,0.7625883,-0.6269763,-4.08638,-40.29375,18.993752,-20.60625,0.40873998,-0.61099315,0.64095163,995.8173, , , , 
2025-09-28 19:44:03.011,8.157132,-11.162518,1.902294,0.7699187,-0.75220364,-4.189616,-43.706253,14.531251,-19.368752,0.4376132,-0.59088355,0.63429326,995.82, , , , 
2025-09-28 19:44:03.031,7.5469627,-11.557333,1.7898313,0.75342536,-0.8945351,-4.2097745,-44.11875,12.50625,-19.837502,0.46689007,-0.5699767,0.6258828,995.82, , , , 
2025-09-28 19:44:03.051,6.5347986,-11.473584,1.5002998,0.70089096,-0.9366848,-4.0381217,-43.0125,5.7562504,-17.868752,0.50263554,-0.5437605,0.61330336,995.8249, , , , 
2025-09-28 19:44:03.071,5.960521,-10.939985,1.3543376,0.614759,-0.8053489,-3.833482,-47.756252,0.54375005,-16.462502,0.5224487,-0.5283665,0.6052924,995.8249, , , , 
2025-09-28 19:44:03.091,5.7284174,-10.470992,0.81595254,0.4889209,-0.46387544,-3.607462,-45.46875,-1.3312501,-18.6,0.5456814,-0.50837964,0.5950363,995.8222, , , , 
2025-09-28 19:44:03.111,4.9866424,-10.04507,0.13160525,0.21891867,0.24167338,-3.2782059,-47.11875,-5.7375,-16.0125,0.56772864,-0.48408023,0.5844313,995.8222, , , , 
2025-09-28 19:44:03.131,4.034299,-9.9756775,-0.050249275,0.12362376,0.48724103,-3.0546293,-45.956253,-7.2375,-16.96875,0.57721615,-0.46991846,0.5795153,995.8178, , , , 
2025-09-28 19:44:03.151,2.07697,-9.475577,-0.11485548,0.029550584,0.4231002,-2.487136,-45.318752,-12.13125,-18.0,0.5887498,-0.44849372,0.5728385,995.8178, , , , 
2025-09-28 19:44:03.171,1.5122639,-9.059227,0.11724831,0.020387612,0.1805869,-1.9544618,-46.55625,-13.89375,-17.60625,0.5958931,-0.4351335,0.5677997,995.8134, , , , 
2025-09-28 19:44:03.191,1.2705889,-8.968299,0.2536392,0.047265664,0.099341884,-1.5793909,-45.54375,-15.50625,-18.712502,0.6004421,-0.42744806,0.5643049,995.8134, , , , 
2025-09-28 19:44:03.211,0.44027936,-9.597611,-0.5072784,0.083306685,0.05535962,-0.84329885,-44.9625,-16.95,-18.525002,0.606642,-0.4170158,0.5598913,995.80804, , , , 
2025-09-28 19:44:03.231,-0.57188463,-9.887143,-1.0624132,0.038713556,-0.056428634,-0.22754712,-43.162502,-16.7625,-17.962502,0.6080456,-0.41492578,0.55913615,995.80804, , , , 
2025-09-28 19:44:03.251,-1.253839,-9.217153,-0.9403793,-0.04619665,-0.17249294,0.55863583,-43.518753,-18.54375,-18.900002,0.60765594,-0.41704556,0.55957365,995.7895, , , , 
2025-09-28 19:44:03.271,-0.3278167,-8.025527,-0.11724831,-0.04497492,-0.14744748,1.6581924,-43.96875,-16.237501,-16.66875,0.6021856,-0.4278242,0.5637578,995.7895, , , , 
2025-09-28 19:44:03.291,1.5672989,-7.6259255,-0.2321038,0.0778089,0.032757625,2.3515239,-45.956253,-14.681251,-19.0125,0.59361917,-0.440473,0.57096034,995.7763, , , , 
2025-09-28 19:44:03.311,3.158526,-8.169097,-0.66999036,0.1523344,0.106672265,2.743699,-45.787502,-11.45625,-16.44375,0.58204305,-0.45488513,0.5808776,995.7763,37.88833338,127.73972995,143.8995361328125,1.26
2025-09-28 19:44:03.331,4.211368,-8.85823,-1.0624132,0.24824017,-0.0014508038,3.0137014,-44.9625,-11.1,-17.94375,0.568694,-0.47046015,0.5919472,995.7758, , , , 
2025-09-28 19:44:03.351,5.831309,-9.700503,-1.8281165,0.36308277,-0.33070692,3.3301294,-43.2,-6.3,-20.868752,0.5514683,-0.49157208,0.6053456,995.7758, , , , 
2025-09-28 19:44:03.371,6.798009,-10.145568,-2.4622145,0.3362047,-0.46937323,3.4889543,-45.412502,-3.9375002,-18.150002,0.54116136,-0.50500923,0.6124837,995.7536, , , , 
2025-09-28 19:44:03.391,7.312466,-10.327422,-2.6895328,0.17310381,-0.3850739,3.602575,-46.2,-0.65625,-18.393751,0.52259266,-0.528284,0.62279624,995.7536, , , , 
2025-09-28 19:44:03.411,7.628319,-10.60499,-2.3904297,-0.057192214,-0.14928009,3.7302458,-44.456253,2.8875,-19.10625,0.5050041,-0.5474876,0.63009477,995.7243, , , , 
2025-09-28 19:44:03.431,7.826923,-10.73181,-2.07697,-0.20257804,-0.017333288,3.8053823,-45.16875,5.0625,-20.38125,0.48988008,-0.5621879,0.6351128,995.7243, , , , 
2025-09-28 19:44:03.451,8.329415,-11.219945,-1.416551,-0.34674212,0.13355032,3.8982337,-43.706253,11.15625,-16.556252,0.4615379,-0.5869152,0.6424185,995.6989, , , , 
2025-09-28 19:44:03.471,8.973084,-11.753545,-0.8422736,-0.31375542,0.046807513,3.955044,-43.36875,14.812501,-19.275002,0.43713048,-0.60622936,0.6472673,995.6989, , , , 
2025-09-28 19:44:03.491,9.332008,-11.837294,-0.6867401,-0.26244277,-0.030772313,3.9587092,-43.36875,14.812501,-19.275002,0.424906,-0.6154716,0.6493217,995.68964, , , , 
2025-09-28 19:44:03.511,10.243673,-10.968699,-1.1724831,-0.00160352,-0.52801627,3.8261516,-39.393753,21.225,-22.21875,0.38536933,-0.64391905,0.6543846,995.68964, , , , 
2025-09-28 19:44:03.531,10.746166,-9.982856,-0.9762716,0.14622575,-0.8865939,3.7009242,-40.2,20.775002,-22.725,0.3708151,-0.65427876,0.655151,995.6857, , , , 
2025-09-28 19:44:03.551,11.456835,-9.195618,-1.0145568,0.41195193,-1.2408954,3.466963,-40.068752,22.3875,-19.743752,0.35468358,-0.665659,0.65520346,995.6857, , , , 
2025-09-28 19:44:03.571,12.14836,-8.855837,-2.1415763,0.50602514,-1.0185406,3.1254897,-35.737503,27.16875,-19.3875,0.3382579,-0.67553145,0.6551373,995.68207, , , , 
2025-09-28 19:44:03.591,12.141182,-8.815159,-2.5004997,0.34231335,-0.5487856,2.7882922,-35.60625,29.41875,-18.150002,-0.32500523,0.6817258,-0.65518683,995.68207, , , , 
2025-09-28 19:44:03.611,11.940185,-8.01117,-1.9501505,0.23846634,-0.36125016,2.5867069,-36.2625,29.94375,-15.937501,-0.31122148,0.68755054,-0.6549052,995.6789, , , , 
2025-09-28 19:44:03.631,12.217752,-7.489535,-1.2059826,0.25923574,-0.30443972,2.3942845,-33.80625,33.318752,-16.3875,-0.2977339,0.6927584,-0.65444285,995.6789, , , , 
2025-09-28 19:44:03.651,12.971492,-6.599405,-0.7609176,0.5781072,-0.5341249,2.0198245,-31.500002,35.41875,-15.825001,-0.28360316,0.6963874,-0.65484905,995.675, , , , 
2025-09-28 19:44:03.671,13.562519,-6.175875,-1.6223338,0.8059597,-0.7118865,1.6936226,-31.500002,35.41875,-15.825001,-0.2762669,0.695727,-0.6566517,995.675, , , , 
2025-09-28 19:44:03.691,14.242081,-6.71426,-3.9481573,0.7271582,-0.7436515,1.1615593,-27.825,37.66875,-15.88125,-0.2724474,0.6930386,-0.6589607,995.67596, , , , 
2025-09-28 19:44:03.711,14.455042,-6.6759753,-4.2017965,0.34597853,-0.6947823,0.765719,-28.63125,35.831253,-15.69375,-0.27167717,0.69074804,-0.65988,995.67596, , , , 
2025-09-28 19:44:03.731,14.931213,-7.2957163,-2.9503503,0.020387612,-0.75159276,0.37110037,-30.187502,37.425003,-17.00625,-0.27395874,0.6898425,-0.6586513,995.6657, , , , 
2025-09-28 19:44:03.751,15.113068,-8.673982,0.11964113,0.112017326,-1.1535418,-0.15485422,-29.906252,36.91875,-13.293751,-0.28294197,0.68792796,-0.65580195,995.6657, , , , 
2025-09-28 19:44:03.771,14.821143,-7.838887,0.5982057,0.38629562,-1.3477968,-0.42729992,-27.0375,37.237503,-15.000001,-0.2913813,0.6842885,-0.65519243,995.6611, , , , 
2025-09-28 19:44:03.791,14.311472,-6.4845495,0.07178468,0.52068585,-1.3972769,-0.9007201,-28.85625,38.53125,-13.81875,-0.305594,0.6765309,-0.65588695,995.6611, , , , 
2025-09-28 19:44:03.811,13.459627,-6.95115,0.28235307,0.3514763,-1.0478622,-1.5683954,-32.193752,34.21875,-14.2875,-0.3267187,0.66500896,-0.65758073,995.6828, , , , 
2025-09-28 19:44:03.831,12.492927,-7.958528,0.78723866,0.28733552,-0.967228,-1.985616,-34.0125,34.7625,-12.750001,-0.34053916,0.65754944,-0.65892464,995.6828, , , , 
2025-09-28 19:44:03.851,11.578869,-9.848858,1.3495519,0.28122687,-1.3410772,-2.3808455,-36.35625,34.36875,-9.075001,-0.36698768,0.64316297,-0.6607398,995.70233, , , , 
2025-09-28 19:44:03.871,11.1936245,-10.870593,1.8879371,0.21464261,-1.7637957,-2.5152357,-35.30625,32.11875,-11.38125,-0.39178336,0.62984186,-0.66056055,995.70233, , , , 
2025-09-28 19:44:03.891,11.41855,-10.9375925,3.0652058,0.154167,-2.1113777,-2.5958698,-37.125,32.68125,-9.975,-0.41234633,0.619203,-0.6587757,995.72626, , , , 
2025-09-28 19:44:03.912,11.990435,-10.021141,5.4843497,0.2372446,-2.3441172,-2.925737,-42.65625,28.612501,-8.700001,-0.45766336,0.5950042,-0.65212756,995.72626, , , , 
2025-09-28 19:44:03.931,11.547762,-9.382257,6.020342,0.35514152,-2.21889,-3.2323909,-43.03125,27.337502,-9.525001,-0.48122808,0.58037764,-0.64900136,995.759, , , , 
2025-09-28 19:44:03.951,9.288938,-9.47797,5.5800624,0.3569741,-1.7650174,-3.74735,-45.99375,23.8875,-5.925,-0.5201666,0.5521647,-0.64529806,995.759, , , , 
2025-09-28 19:44:03.971,6.8482585,-9.970892,5.4699926,0.4314996,-1.513952,-3.7076437,-46.818752,20.79375,-2.2687502,-0.5488988,0.5279667,-0.6434315,995.79926, , , , 
2025-09-28 19:44:03.991,7.082755,-10.377672,4.9698925,0.4785362,-1.4302635,-3.4736826,-44.49375,21.28125,-3.4687502,-0.56830156,0.50996,-0.64213246,995.79926, , , , 
2025-09-28 19:44:04.011,9.822537,-10.645668,5.048856,0.5897136,-1.1620939,-3.2959208,-48.80625,15.58125,1.63125,-0.5972998,0.4806613,-0.6396983,995.82513, , , , 
2025-09-28 19:44:04.031,11.239088,-10.822737,4.7210393,0.68928456,-0.8420007,-3.4755151,-49.143753,12.450001,1.0875001,-0.6175988,0.45599657,-0.63938624,995.82513, , , , 
2025-09-28 19:44:04.051,11.284552,-11.358729,3.7543387,0.8029054,-0.41561714,-3.8664687,-48.862503,7.36875,1.3312501,-0.6402827,0.42159587,-0.6416476,995.83563, , , , 
2025-09-28 19:44:04.071,10.131211,-11.69851,2.969493,0.8426116,-0.2323577,-4.045452,-49.968754,2.7562501,3.4125001,-0.6526787,0.39916328,-0.64385855,995.83563, , , , 
2025-09-28 19:44:04.091,8.965906,-12.076576,1.98365,0.8242857,-0.15661046,-4.0656104,-48.693752,1.03125,3.2250001,0.66784626,-0.3682429,0.64678466,995.8381, , , , 
2025-09-28 19:44:04.111,8.17149,-12.0023985,1.7252251,0.6868411,-0.1297324,-3.9892523,-49.893753,-6.20625,5.15625,0.6848963,-0.33023044,0.64882255,995.8381, , , , 
2025-09-28 19:44:04.131,7.8699937,-12.086147,2.0554347,0.7112757,-0.050319985,-3.9171703,-49.7625,-7.8,3.54375,0.69396186,-0.30791473,0.64938,995.81757, , , , 
2025-09-28 19:44:04.151,6.876972,-11.787045,1.7300107,0.9098067,0.08468113,-3.8212647,-47.643753,-12.0375,0.93750006,0.70667136,-0.27035543,0.65057194,995.81757, , , , 
2025-09-28 19:44:04.171,5.5896335,-11.676974,0.72263247,1.0057125,0.19830199,-3.7406304,-47.775,-18.1875,5.0062504,0.71497357,-0.23953529,0.65179515,995.81146, , , , 
2025-09-28 19:44:04.191,1.7563318,-11.645867,-1.1844472,0.9348522,0.26305366,-3.272097,-47.362503,-22.725,4.14375,0.72283334,-0.20229383,0.65330577,995.81146, , , , 
2025-09-28 19:44:04.212,-0.7800602,-11.102697,-2.2875385,0.67034775,0.0040469794,-2.5152357,-44.737503,-21.862501,6.7500005,0.72780395,-0.17795934,0.6531085,995.79877, , , , 
2025-09-28 19:44:04.231,-1.6342978,-10.509277,-2.2660031,0.37896523,-0.21586435,-1.7650938,-45.7125,-24.056252,3.8812501,0.73145664,-0.16487539,0.651428,995.79877, , , , 
2025-09-28 19:44:04.251,-1.5696917,-10.614561,-1.6390835,0.11446079,-0.25373796,-0.7144064,-43.612503,-25.331251,2.6625001,0.7364851,-0.15298983,0.6476416,995.77924, , , , 
2025-09-28 19:44:04.271,-2.1224337,-9.961321,-1.3136597,-0.017486004,-0.19631667,0.07422007,-43.706253,-25.612501,5.30625,0.7385849,-0.15149093,0.6456181,995.77924, , , , 
2025-09-28 19:44:04.291,-1.6103697,-8.556734,-0.36370903,-0.09445497,-0.042989608,1.1218531,-44.550003,-26.812502,5.775,0.73863506,-0.15717198,0.6450735,995.7629, , , , 
2025-09-28 19:44:04.311,0.023928227,-7.7096744,0.31345975,-0.026648976,0.16226095,1.8377867,-42.693752,-24.35625,3.2812502,0.7359886,-0.16876374,0.64681536,995.7629,37.88832722,127.7397152,143.781494140625,1.62
2025-09-28 19:44:04.331,1.8520447,-7.8580294,0.31585258,0.11873684,0.2691623,2.2311835,-43.3125,-23.56875,5.775,0.730952,-0.18378901,0.65054965,995.76215, , , , 
2025-09-28 19:44:04.351,3.7663028,-9.016156,-0.16510476,0.41500625,0.15859577,2.504851,-44.41875,-21.075,5.7375,0.7230653,-0.20397894,0.6561161,995.76215, , , , 
2025-09-28 19:44:04.371,4.371687,-10.064212,-0.7393822,0.6654608,-0.15111268,2.6954408,-46.068752,-19.237501,3.6375,0.7187323,-0.21596888,0.6585829,995.75726, , , , 
2025-09-28 19:44:04.391,4.833502,-10.990234,-1.6606189,0.8566615,-0.4718167,2.9678864,-46.29375,-18.150002,4.3875003,0.71429396,-0.23212947,0.65954214,995.75726, , , , 
2025-09-28 19:44:04.412,5.73081,-11.46162,-2.7972097,0.9366848,-0.7974076,3.4767368,-46.96875,-14.118751,5.45625,-0.70966595,0.2540994,-0.65708244,995.74506, , , , 
2025-09-28 19:44:04.431,6.606583,-11.315659,-2.9192436,0.8529963,-0.8065706,3.7302458,-47.287502,-11.418751,5.49375,-0.7064539,0.2688897,-0.65393835,995.74506, , , , 
2025-09-28 19:44:04.451,8.298309,-10.703095,-2.6273193,0.6746238,-0.5267945,3.968483,-48.468754,-4.0875,7.05,-0.6983243,0.2961677,-0.6476067,995.7275, , , , 
2025-09-28 19:44:04.471,9.492328,-10.009177,-2.3832514,0.5671116,-0.21342088,3.9306095,-49.781254,-0.99375004,8.55,-0.6884314,0.31917048,-0.6430279,995.7275, , , , 
2025-09-28 19:44:04.491,9.853643,-9.473185,-2.495714,0.4418843,0.06269,3.711309,-48.281254,3.61875,10.14375,-0.6728726,0.3471157,-0.6383943,995.71063, , , , 
2025-09-28 19:44:04.511,9.533006,-9.303294,-2.589034,0.3343721,0.13782637,3.562258,-50.193752,6.3187504,7.4062505,-0.6590909,0.36841452,-0.6349554,995.71063, , , , 
2025-09-28 19:44:04.531,9.540184,-9.23151,-2.2875385,0.24518585,0.09750929,3.417483,-47.98125,9.28125,7.1625004,-0.64863956,0.38388422,-0.6319119,995.6955, , , , 
2025-09-28 19:44:04.551,10.468599,-9.286545,-1.6582261,0.26595524,-0.07903063,3.1615307,-49.800003,13.200001,6.20625,-0.6321141,0.4076723,-0.62555194,995.6955, , , , 
2025-09-28 19:44:04.571,10.219746,-9.382257,-1.942972,0.34353507,-0.18471023,2.9348998,-49.7625,13.44375,7.275,-0.62036574,0.42348677,-0.6197549,995.6774, , , , 
