Time,Accel_X,Accel_Y,Accel_Z,Gyro_X,Gyro_Y,Gyro_Z,Mag_X,Mag_Y,Mag_Z,Orient_X,Orient_Y,Orient_Z,Pressure,Lat,Lng,Alt,Speed
2025-09-27 17:55:55.915,1.0480564,4.948357,7.1066833,0.13041963,-0.25213444,-0.056963142,-15.6,-46.350002,-27.618752,0.19835941,0.16424465,0.6829299,1001.6691,37.88845421,127.73981816,131.57843017578125,0.0
2025-09-27 17:55:55.926,0.5312066,4.6707897,8.822337,-0.037568185,0.020311253,0.019394957,-12.656251,-45.65625,-29.19375,0.20059845,0.16300736,0.6817973,1001.6679, , , , 
2025-09-27 17:55:55.946,0.29910284,4.759324,8.973084,0.03329213,0.14920372,0.11896592,-12.88125,-46.050003,-29.306252,0.19971861,0.16352598,0.6826523,1001.6613, , , , 
2025-09-27 17:55:55.966,0.48095736,5.0943193,8.506484,0.021685699,0.06429352,0.107359484,-14.175,-47.41875,-30.487501,0.19929674,0.16432497,0.68362355,1001.6613, , , , 
2025-09-27 17:55:55.986,0.5192425,5.072784,8.571091,-0.004581486,-0.11530073,0.07009673,-13.275001,-46.706253,-31.3875,0.19976012,0.16431017,0.68413603,1001.62177, , , , 
2025-09-27 17:55:56.006,0.52163535,4.912465,8.733803,-0.00763581,-0.13057235,0.0377209,-16.368752,-48.15,-30.675001,0.2007574,0.16323265,0.6841644,1001.62177, , , , 
2025-09-27 17:55:56.026,0.6843473,5.015356,8.472985,-0.04612029,0.03619374,0.047494736,-15.993751,-49.10625,-29.41875,0.20135675,0.16237284,0.6843332,1001.5881, , , , 
2025-09-27 17:55:56.046,0.5910272,4.9340005,8.575876,-0.07666353,0.21884231,0.057268575,-14.043751,-48.787502,-28.25625,0.20068717,0.16249977,0.68495786,1001.5881, , , , 
2025-09-27 17:55:56.069,0.6269195,4.922036,8.532805,-0.0876591,0.23350306,0.047494736,-15.13125,-47.1375,-30.862501,0.19837023,0.16368587,0.6861677,1001.5649, , , , 
2025-09-27 17:55:56.086,0.4761717,4.7545385,8.877372,-0.022907428,0.0490219,-0.0044287695,-15.618751,-47.100002,-27.4125,0.19704284,0.16406523,0.6868033,1001.5649, , , , 
2025-09-27 17:55:56.106,0.3278167,4.8765726,8.563912,0.07971785,0.008704823,0.0010690134,-16.893751,-47.71875,-29.1,0.19671343,0.16422936,0.6867685,1001.5534, , , , 
2025-09-27 17:55:56.127,0.4426722,5.048856,8.260024,0.06444623,0.04535671,0.02611447,-17.1,-46.5,-27.750002,0.19696695,0.16491672,0.686738,1001.5534, , , , 
2025-09-27 17:55:56.146,0.64606214,5.1086764,8.633304,-0.051007207,-0.037110034,0.04016436,-16.48125,-47.287502,-31.0125,0.19763456,0.16551104,0.68692815,1001.5424, , , , 
2025-09-27 17:55:56.166,0.6556334,5.003392,8.755338,-0.09987639,0.035582874,0.0481056,-15.675,-48.843754,-27.91875,0.19770999,0.16478628,0.68728536,1001.5424, , , , 
2025-09-27 17:55:56.187,0.6652047,4.955536,8.812766,-0.11636974,0.10399973,0.048716467,-14.868751,-49.48125,-31.368752,0.19728456,0.16449107,0.68761337,1001.5424, , , , 
2025-09-27 17:55:56.206,0.38285163,4.8382874,9.06162,-0.083993904,0.15103632,0.054825112,-12.656251,-50.343754,-33.7125,0.19577788,0.16434471,0.68841827,1001.55853, , , , 
2025-09-27 17:55:56.227,0.50488555,4.941179,8.829515,0.123089254,-0.030390523,0.032833982,-14.981251,-49.350002,-31.987501,0.19478971,0.16472243,0.68935096,1001.5778, , , , 
2025-09-27 17:55:56.246,0.37088752,5.0943193,8.16431,0.11270455,-0.015729768,0.02367101,-14.493751,-49.068752,-30.806252,0.19600165,0.1655071,0.6891946,1001.5778, , , , 
2025-09-27 17:55:56.267,0.4426722,5.0009995,8.106883,0.032681264,0.057574004,0.018173227,-14.812501,-49.10625,-29.7,0.19684893,0.16651429,0.6891163,1001.6049, , , , 
2025-09-27 17:55:56.286,0.50488555,5.0656056,8.070991,-0.044287696,0.058795735,0.021227552,-13.931251,-46.893753,-30.075,0.19687735,0.16715927,0.68925685,1001.6049, , , , 
2025-09-27 17:55:56.306,0.4642076,4.8382874,8.504091,-0.13164136,0.062460925,0.025503604,-14.19375,-47.662502,-32.006252,0.19631287,0.16717218,0.68959206,1001.6049, , , , 
2025-09-27 17:55:56.326,0.44745782,4.7425747,8.772088,-0.14263692,0.03619374,0.04382955,-15.150001,-48.750004,-32.006252,0.19497028,0.1664524,0.69016224,1001.64667, , , , 
2025-09-27 17:55:56.346,0.22013968,4.5296135,8.985049,-0.13041963,0.15103632,0.075594515,-14.38125,-48.562504,-31.1625,0.19353442,0.16554013,0.6909028,1001.706, , , , 
2025-09-27 17:55:56.368,0.28953153,4.792824,8.578269,-0.17195843,0.2035707,0.10063997,-15.39375,-46.93125,-30.075,0.19068454,0.16529022,0.6923018,1001.706, , , , 
2025-09-27 17:55:56.386,0.20817557,4.792824,8.724232,-0.1432478,0.20540328,0.115911596,-13.462501,-48.3375,-30.806252,0.188874,0.16540739,0.6932971,1001.706, , , , 
2025-09-27 17:55:56.406,0.11485548,4.807181,8.370093,-0.038179047,-0.045662142,0.12812889,-15.4875,-48.16875,-30.91875,0.18722692,0.1655327,0.6946107,1001.76483, , , , 
2025-09-27 17:55:56.426,0.99302137,5.0392847,9.044869,0.0021380268,-0.018784093,0.033444848,-14.7375,-48.093754,-30.993752,0.18798946,0.16455795,0.69524825,1001.76483, , , , 
2025-09-27 17:55:56.446,0.57906306,4.9028935,8.609376,-0.024129158,0.05818487,-0.023365578,-15.450001,-48.15,-32.625,0.18860663,0.16420506,0.69543433,1001.83, , , , 
2025-09-27 17:55:56.466,0.47138608,4.8287163,8.922835,-0.027794348,0.077121675,-0.019089524,-14.3625,-49.29375,-32.362503,0.18811598,0.16449101,0.6954705,1001.83, , , , 
2025-09-27 17:55:56.486,0.4331009,4.8454657,8.894122,0.00641408,0.01847866,-0.06856957,-14.7375,-49.593754,-31.5375,0.18773659,0.1645779,0.6953819,1001.8757, , , , 
2025-09-27 17:55:56.506,0.06699903,4.8382874,8.544769,-0.0033597562,0.028252495,-0.03375028,-13.837501,-48.112503,-32.325,0.18732998,0.16509837,0.69490886,1001.904, , , , 
2025-09-27 17:55:56.527,0.38524446,4.814359,8.7673025,-0.018631376,-4.581486E-4,-0.023976443,-12.187501,-47.943752,-32.8125,0.1869839,0.16545953,0.69475996,1001.904, , , , 
2025-09-27 17:55:56.546,0.31345975,4.8239303,8.676374,-0.0015271619,-0.059101168,-0.05146536,-13.931251,-48.506252,-31.518751,0.18710491,0.16520606,0.69443375,1001.9206, , , , 
2025-09-27 17:55:56.566,0.22253251,4.7114677,8.906086,0.003970621,-0.034666575,-0.006261364,-13.63125,-49.218754,-31.66875,0.18717143,0.16506352,0.69408524,1001.9206, , , , 
2025-09-27 17:55:56.586,0.4833502,4.8191447,8.781659,0.046731155,-0.0059559317,-0.009926553,-14.512501,-49.0875,-29.737501,0.18725091,0.164911,0.69404095,1001.93036, , , , 
2025-09-27 17:55:56.606,0.37088752,4.9172506,8.506484,0.04978548,-0.013897174,-0.023976443,-12.31875,-48.35625,-29.531252,0.18774314,0.16519386,0.6938602,1001.93036, , , , 
2025-09-27 17:55:56.626,0.31345975,4.895715,8.482556,0.038789913,-0.011453714,-0.037415467,-14.700001,-49.331253,-30.937502,0.1882867,0.1656872,0.6935209,1001.93036, , , , 
2025-09-27 17:55:56.646,0.44745782,4.9052863,8.336594,0.029016078,-0.061544627,-0.057574004,-13.725,-48.750004,-29.362501,0.18884532,0.16608381,0.69308484,1001.924, , , , 
2025-09-27 17:55:56.666,0.21535404,4.776074,8.482556,0.0033597562,-0.023060145,-0.037415467,-13.368751,-49.2,-30.000002,0.18960422,0.16614644,0.69241047,1001.924, , , , 
2025-09-27 17:55:56.686,0.42592242,4.8119664,8.626125,-0.024740024,0.093615025,-0.0074830935,-13.387501,-48.693752,-31.575,0.1891004,0.16648224,0.69240665,1001.9167, , , , 
2025-09-27 17:55:56.706,0.52163535,4.8646083,8.549556,-0.029626941,0.066126116,-0.043524116,-12.843751,-49.537502,-29.8875,0.18849649,0.16681519,0.6925146,1001.9184, , , , 
2025-09-27 17:55:56.726,0.26799613,4.8358946,8.685946,-0.035124727,-0.048716467,-0.07834341,-14.400001,-48.562504,-30.862501,0.18838988,0.16678756,0.6921698,1001.9184, , , , 
2025-09-27 17:55:56.746,0.17228323,4.7545385,8.920443,0.0058032153,0.0013744457,-0.04963276,-13.837501,-48.6375,-30.300001,0.18815571,0.16661496,0.69167423,1001.9108, , , , 
2025-09-27 17:55:56.766,0.30388847,4.8095737,8.834301,0.04734202,0.026419902,-0.03497201,-12.431251,-48.24375,-30.150002,0.18774687,0.16690761,0.69141746,1001.9108, , , , 
2025-09-27 17:55:56.786,0.14596218,4.816752,8.58784,0.033902995,0.044745844,-0.009315688,-12.356251,-49.350002,-30.862501,0.18762301,0.16753742,0.69122005,1001.9113, , , , 
2025-09-27 17:55:56.806,0.5407779,4.9292145,8.865408,0.022907428,-0.0059559317,-0.01725693,-14.64375,-49.706253,-30.000002,0.18750092,0.16812536,0.6911792,1001.9113, , , , 
2025-09-27 17:55:56.826,0.39720857,4.955536,8.650054,0.04612029,-0.08842268,-0.061239194,-14.606251,-49.706253,-31.3875,0.18797778,0.16800846,0.69096106,1001.9113, , , , 
2025-09-27 17:55:56.846,0.19381863,4.800002,8.504091,0.022296565,-0.027336199,-0.04780017,-13.5375,-48.600002,-29.7,0.18907069,0.16793524,0.6901206,1001.8957, , , , 
2025-09-27 17:55:56.866,0.36131623,4.7784667,8.580662,-0.03573559,0.11866048,-0.029474225,-14.00625,-50.250004,-31.10625,0.18863784,0.16838652,0.6899582,1001.8957, , , , 
2025-09-27 17:55:56.886,0.2943172,4.8861437,9.025727,-0.06750056,0.18829907,-0.04535671,-12.806251,-48.018753,-31.368752,0.18688893,0.1690892,0.69024146,1001.8803, , , , 
2025-09-27 17:55:56.906,-0.02632105,4.800002,8.367701,-0.0021380268,-0.069485866,-0.057574004,-10.575001,-49.3875,-33.05625,0.18654028,0.16914548,0.6899089,1001.862,37.88844028,127.73981935,134.34857177734375,0.0
2025-09-27 17:55:56.926,0.20817557,4.7569313,8.568698,-0.030237807,-0.032833982,-0.025809037,-12.468751,-48.487503,-31.518751,0.18636811,0.16921726,0.6895162,1001.862, , , , 
2025-09-27 17:55:56.946,0.24646074,4.76411,8.319844,-0.04612029,-0.11835505,-0.035582874,-11.71875,-48.412502,-31.612501,0.18671502,0.1685761,0.68911976,1001.851, , , , 
2025-09-27 17:55:56.966,0.13160525,4.6468616,8.551949,-0.0736092,-0.053603385,-0.0074830935,-12.093751,-48.80625,-31.706251,0.18690681,0.16770595,0.6888041,1001.851, , , , 
2025-09-27 17:55:56.986,0.43070808,4.694718,8.817552,-0.088269964,0.017867794,0.010231985,-12.69375,-49.631252,-31.743752,0.1864297,0.16717836,0.6889033,1001.851, , , , 
2025-09-27 17:55:57.006,0.48095736,4.6612186,8.99462,-0.06017018,-0.03527744,-0.0368046,-14.00625,-49.518753,-30.69375,0.18593101,0.16589265,0.68910915,1001.84735, , , , 
2025-09-27 17:55:57.026,0.019142581,4.5559344,8.891729,-0.040011644,-0.00962112,0.008399391,-12.4125,-48.862503,-30.581251,0.18546228,0.16511354,0.68903357,1001.84247, , , , 
2025-09-27 17:55:57.046,0.485743,4.642076,9.052048,-0.02046397,0.0368046,0.04016436,-11.606251,-48.525,-30.69375,0.18464126,0.1647935,0.6893316,1001.84247, , , , 
2025-09-27 17:55:57.066,0.37328035,4.735396,8.518449,0.009468404,0.048411034,-0.016646065,-13.425,-48.956253,-32.006252,0.18439658,0.1645386,0.68965095,1001.82855, , , , 
2025-09-27 17:55:57.086,-0.076570325,4.7401814,8.298309,-0.047952887,0.05329795,-0.01970039,-14.00625,-50.268753,-30.806252,0.18409611,0.1650368,0.68956655,1001.82855, , , , 
2025-09-27 17:55:57.106,0.2321038,4.759324,8.650054,-0.062613636,0.013591741,-0.008093959,-13.425,-48.937504,-32.325,0.18298186,0.1655409,0.6895543,1001.8129, , , , 
2025-09-27 17:55:57.126,0.20817557,4.7784667,8.453842,-0.07299834,0.047189303,-0.050854493,-13.06875,-49.518753,-34.18125,0.1825679,0.16545984,0.6895239,1001.8129, , , , 
2025-09-27 17:55:57.146,-0.16271193,4.7114677,8.441878,-0.16157374,0.117438756,-0.050243627,-13.1625,-49.800003,-31.5375,0.18109807,0.16582194,0.6892886,1001.8027, , , , 
2025-09-27 17:55:57.166,-0.11006984,4.5894337,9.150154,-0.15424335,0.0594066,-0.012370012,-12.0375,-48.562504,-31.725,0.17886417,0.16591331,0.68938947,1001.8027, , , , 
2025-09-27 17:55:57.186,0.18185452,4.4985065,9.379865,-0.027183482,-0.06276636,-0.006872229,-12.806251,-48.018753,-31.368752,0.1774463,0.16506892,0.68957925,1001.7973, , , , 
2025-09-27 17:55:57.206,0.39960137,4.54397,8.946764,0.008857539,0.008704823,-0.031917684,-11.34375,-48.73125,-31.781252,0.17729011,0.16420315,0.6895502,1001.7973, , , , 
2025-09-27 17:55:57.226,-0.021535404,4.6085763,8.681161,-0.032681264,0.11682789,-0.044134982,-14.45625,-49.55625,-30.6375,0.1768719,0.16429898,0.6894471,1001.7973, , , , 
2025-09-27 17:55:57.246,0.02632105,4.6205406,8.626125,-0.060781047,0.09789108,-0.015424335,-13.406251,-48.7125,-30.487501,0.17529929,0.16523185,0.68942755,1001.79803, , , , 
2025-09-27 17:55:57.266,0.18664017,4.6779685,8.650054,-0.08277218,0.07467822,-0.026419902,-12.4875,-47.756252,-30.018751,0.17448562,0.16550294,0.689502,1001.79803, , , , 
2025-09-27 17:55:57.286,0.18185452,4.6301117,8.9108715,-0.074830934,0.035582874,-0.056963142,-13.1625,-49.55625,-29.38125,0.17339605,0.165335,0.68946797,1001.80096, , , , 
2025-09-27 17:55:57.306,0.083748795,4.6037908,9.107083,-0.01924224,-0.08536835,-0.066736974,-14.400001,-48.562504,-30.075,0.17296562,0.16493596,0.68913263,1001.7968, , , , 
2025-09-27 17:55:57.326,-0.033499517,4.5415773,8.977871,0.051007207,-0.062155493,-0.05329795,-13.63125,-47.5125,-28.687502,0.17314343,0.1644419,0.6886047,1001.7968, , , , 
2025-09-27 17:55:57.346,0.047856454,4.6755753,8.518449,0.024129158,0.009315688,-0.023976443,-14.512501,-48.45,-30.69375,0.17342286,0.16473857,0.6881553,1001.8022, , , , 
2025-09-27 17:55:57.367,0.1363909,4.7569313,8.671589,-0.0070249448,0.00320704,-0.03252855,-14.2875,-48.675003,-30.243752,0.17356263,0.16521391,0.6879153,1001.8022, , , , 
2025-09-27 17:55:57.386,-0.03589234,4.7545385,8.891729,0.009468404,-0.09758565,-0.03497201,-12.225,-48.7125,-31.237501,0.17381026,0.16529162,0.6875826,1001.8022, , , , 
2025-09-27 17:55:57.406,0.20578274,4.6755753,8.932407,0.03084867,-0.14950916,-0.023365578,-12.337501,-48.600002,-31.06875,0.17481174,0.16470663,0.687004,1001.79706, , , , 
2025-09-27 17:55:57.426,0.31585258,4.613362,8.965906,0.027183482,-0.08414663,-0.038026333,-12.337501,-47.850002,-30.956251,0.17562826,0.16410345,0.6866915,1001.79706, , , , 
2025-09-27 17:55:57.446,0.5455636,4.7042894,8.618947,-0.008246674,0.028252495,-0.050854493,-13.81875,-48.61875,-30.750002,0.17617618,0.16373298,0.68632877,1001.799, , , , 
2025-09-27 17:55:57.466,0.31345975,4.6971107,8.71466,-0.0736092,0.09666935,-0.083230324,-12.281251,-47.5875,-31.593752,0.17594722,0.16379198,0.686089,1001.799, , , , 
2025-09-27 17:55:57.487,0.0023928226,4.570291,9.064013,-0.049174614,0.07589995,-0.06368265,-11.45625,-48.61875,-32.4,0.17514096,0.1639801,0.68590134,1001.7902, , , , 
2025-09-27 17:55:57.506,0.15792629,4.551149,9.3200445,0.109650224,-0.114079,-0.022754714,-14.400001,-49.312504,-30.656252,0.17433295,0.16410603,0.6856085,1001.7902, , , , 
2025-09-27 17:55:57.526,0.4953143,4.65404,8.781659,0.18234314,-0.25763223,-0.04780017,-13.087501,-47.925003,-30.88125,0.17621559,0.16356213,0.6850033,1001.7868, , , , 
2025-09-27 17:55:57.546,0.47138608,4.723432,8.298309,0.08093958,-0.14950916,-0.08506292,-13.500001,-47.625,-28.368752,0.17984615,0.16274877,0.6837461,1001.7756, , , , 
2025-09-27 17:55:57.566,0.15314065,4.601398,8.504091,-0.008246674,0.014202606,-0.07956514,-12.95625,-48.656254,-30.54375,0.18085063,0.16266033,0.68298686,1001.7756, , , , 
2025-09-27 17:55:57.586,0.18185452,4.685147,8.817552,0.013744458,-0.069485866,-0.043524116,-10.668751,-48.525,-33.862503,0.18047605,0.16292673,0.68255323,1001.7651, , , , 
2025-09-27 17:55:57.606,0.31106696,4.7114677,8.700303,0.057726722,-0.11835505,-0.07651082,-13.500001,-49.331253,-32.287502,0.18126619,0.16250953,0.6819895,1001.7651, , , , 
2025-09-27 17:55:57.626,-0.023928227,4.7162533,8.353344,0.023518294,-0.04138609,-0.067958705,-13.950001,-49.256252,-30.712502,0.18221919,0.1624272,0.6811939,1001.7651, , , , 
2025-09-27 17:55:57.646,0.019142581,4.642076,8.472985,-0.11270455,0.15164718,0.004123337,-12.4875,-49.237503,-30.54375,0.1817023,0.16312523,0.68087876,1001.75726, , , , 
2025-09-27 17:55:57.666,0.13878371,4.6755753,8.898908,-0.09926552,0.1339321,-0.0044287695,-13.668751,-49.237503,-29.962502,0.1798552,0.16362326,0.6812997,1001.7475, , , , 
2025-09-27 17:55:57.686,0.18903299,4.692325,8.8701935,-0.044898562,0.020311253,-0.022754714,-12.337501,-48.600002,-31.06875,0.17860998,0.16371499,0.68152636,1001.7475, , , , 
2025-09-27 17:55:57.706,-0.11246266,4.584648,8.846265,-0.023518294,-0.045662142,-0.016035201,-12.712501,-49.631252,-30.35625,0.17839748,0.16343719,0.6812643,1001.74115, , , , 
2025-09-27 17:55:57.726,-0.10049855,4.5008993,9.01137,0.014355322,-0.021838415,0.03894263,-10.2375,-46.256252,-32.193752,0.17802958,0.16334017,0.6812597,1001.74115, , , , 
2025-09-27 17:55:57.746,0.3493521,4.6205406,8.762517,0.04978548,-0.0035124724,0.03649917,-12.3,-48.3375,-31.087502,0.17821996,0.16316454,0.6815521,1001.74603, , , , 
2025-09-27 17:55:57.766,0.4546363,4.682754,8.676374,-0.008246674,0.045967575,0.004123337,-12.918751,-48.412502,-29.475,0.17864716,0.16315748,0.6817536,1001.74603, , , , 
2025-09-27 17:55:57.786,0.30149564,4.644469,8.779266,-0.050396346,0.08567379,-0.022754714,-11.681251,-48.16875,-30.243752,0.17840986,0.16321678,0.6819005,1001.74603, , , , 
2025-09-27 17:55:57.806,-0.11246266,4.5415773,8.886943,-0.024740024,0.07284562,-0.0050396346,-11.325001,-48.73125,-32.25,0.17718203,0.16353358,0.6820436,1001.73895, , , , 
2025-09-27 17:55:57.826,-0.22492532,4.5391846,8.762517,0.022296565,0.009926553,0.040775225,-12.31875,-48.35625,-30.000002,0.17654443,0.16387205,0.68214506,1001.73895, , , , 
2025-09-27 17:55:57.846,0.2727818,4.7042894,8.695518,0.031459536,-0.09086613,0.058490302,-13.6125,-47.49375,-29.75625,0.17676383,0.16398978,0.68239546,1001.7441, , , , 
2025-09-27 17:55:57.866,0.21774685,4.7114677,8.657232,-0.011911863,-0.05421425,0.024281874,-12.95625,-49.406254,-30.806252,0.17780788,0.16340981,0.68248147,1001.7441, , , , 
2025-09-27 17:55:57.886,0.038285162,4.6229334,8.666803,-0.041233372,0.01847866,0.046273008,-14.175,-49.443752,-27.581251,0.17785966,0.16316509,0.68266267,1001.7441, , , , 
2025-09-27 17:55:57.907,0.11964113,4.5559344,8.863015,-0.022296565,0.011148282,0.075594515,-13.275001,-48.825,-30.806252,0.17744501,0.16307425,0.6830802,1001.747,37.88842641,127.7398227,136.21307373046875,0.0
2025-09-27 17:55:57.927,0.22731815,4.6061835,8.860622,0.042455103,-0.013286309,0.076816246,-11.71875,-48.412502,-31.612501,0.17738008,0.1628413,0.6836308,1001.747, , , , 
2025-09-27 17:55:57.946,0.20578274,4.682754,8.271988,0.046731155,-0.027336199,0.05665771,-13.556251,-48.093754,-30.975,0.17805977,0.16285163,0.68401146,1001.747, , , , 
2025-09-27 17:55:57.967,0.023928227,4.6372905,8.063812,-0.029626941,-0.07192933,0.055435978,-15.187501,-49.518753,-29.94375,0.17902136,0.16301931,0.68421584,1001.73676, , , , 
2025-09-27 17:55:57.986,0.09571291,4.476971,8.262417,-0.040011644,-0.11957678,0.0707076,-13.968751,-48.525,-29.812502,0.17942299,0.16264543,0.68435407,1001.73676, , , , 
2025-09-27 17:55:58.006,0.8111669,4.388437,7.9226356,-0.03695732,-0.15439607,0.03405571,-13.275001,-47.456253,-31.181252,0.18084885,0.16086224,0.68469083,1001.7338, , , , 
2025-09-27 17:55:58.026,0.46181476,4.2592244,7.30768,-0.0632245,-0.24358234,-0.0050396346,-14.775001,-49.818752,-32.5875,0.18252055,0.15905364,0.6846064,1001.7226, , , , 
2025-09-27 17:55:58.046,0.5096712,4.082155,6.812366,-0.09315688,-0.3584249,0.030390523,-13.14375,-50.30625,-29.962502,0.18462227,0.15683809,0.684163,1001.7226, , , , 
2025-09-27 17:55:58.066,0.45224348,4.022335,6.1710896,-0.18661919,-0.34193155,0.10430516,-13.51875,-47.100002,-30.88125,0.18692046,0.15406026,0.68394345,1001.7121, , , , 
2025-09-27 17:55:58.088,0.6843473,4.1850467,6.1854467,-0.37965247,-0.37797257,0.12507457,-14.812501,-49.10625,-30.31875,0.18834805,0.15156224,0.6841236,1001.7121, , , , 
2025-09-27 17:55:58.106,0.7082755,4.0295134,8.238488,-0.6013964,-0.30344707,0.12873976,-14.3625,-47.0625,-32.025,0.18812115,0.1443865,0.68509376,1001.7121, , , , 
2025-09-27 17:55:58.126,0.4953143,3.9146578,9.480363,-0.5213731,-0.3187187,0.18127412,-14.00625,-47.5125,-32.8125,0.1862815,0.13819997,0.68633384,1001.7028, , , , 
2025-09-27 17:55:58.146,0.38285163,3.9074793,9.317652,-0.22876886,-0.5997165,0.26435173,-15.225,-47.006252,-32.4,0.18634059,0.13085333,0.6878758,1001.7182, , , , 
2025-09-27 17:55:58.166,0.8422736,4.034299,7.881958,-0.06811142,-0.9295835,0.2686278,-16.2,-45.881252,-30.825,0.19067508,0.12434112,0.68850493,1001.7182, , , , 
2025-09-27 17:55:58.186,0.57188463,3.9194436,6.3768725,-0.029016078,-1.302211,0.32482734,-17.6625,-47.5125,-32.8875,0.19782157,0.116508566,0.68844295,1001.7182, , , , 
2025-09-27 17:55:58.206,1.3854443,3.6586258,4.699504,-0.062002774,-1.9918773,0.40485063,-16.48125,-46.65,-31.518751,0.20857345,0.10539183,0.6877238,1001.7255, , , , 
2025-09-27 17:55:58.226,2.5698915,3.2973096,3.9050865,-0.30634868,-2.1751368,0.35109454,-19.25625,-46.331253,-28.781252,0.2223032,0.08988148,0.68602496,1001.7255, , , , 
2025-09-27 17:55:58.246,2.9431717,2.792424,4.8622155,-0.6557633,-2.1586435,0.29122978,-21.225,-48.2625,-30.618752,0.234174,0.07169542,0.6837579,1001.7021, , , , 
2025-09-27 17:55:58.270,2.7876384,2.1487548,5.7786665,-0.5995638,-2.7414083,0.3572032,-19.837502,-45.65625,-28.593752,0.24832726,0.045765325,0.679984,1001.6877, , , , 
2025-09-27 17:55:58.286,2.5986054,1.727618,5.0943193,-0.5103775,-2.9998043,0.46715885,-21.018751,-47.1375,-28.5375,0.2634077,0.021981977,0.675767,1001.6877, , , , 
2025-09-27 17:55:58.306,2.3928227,1.3328022,4.1204405,-0.6319396,-3.172679,0.7695369,-22.48125,-45.787502,-30.6375,0.2797891,-0.003567526,0.6716342,1001.6799, , , , 
2025-09-27 17:55:58.327,4.752146,1.1485549,3.7447674,-0.8665117,-3.1983352,0.9650136,-26.6625,-45.018753,-24.975,0.29582945,-0.031986903,0.6683143,1001.6799, , , , 
2025-09-27 17:55:58.346,4.962714,0.634098,5.300102,-1.2183698,-2.9619305,1.0651954,-26.79375,-44.381252,-26.85,0.3088834,-0.062442172,0.6652239,1001.6672, , , , 
2025-09-27 17:55:58.367,5.3407803,0.10289137,6.5682983,-1.2709042,-2.6131268,1.2545636,-29.718752,-42.825,-25.706251,0.32022652,-0.10063265,0.6625652,1001.6672, , , , 
2025-09-27 17:55:58.386,5.0847483,-0.124426775,6.6855464,-1.1297944,-2.5648685,1.419497,-32.925003,-41.287502,-25.612501,0.3252107,-0.12231783,0.6620718,1001.6672, , , , 
2025-09-27 17:55:58.406,6.465407,-0.35174492,5.919843,-0.9581414,-3.257589,1.6821688,-32.41875,-39.393753,-23.925001,0.33642727,-0.15971498,0.66146845,1001.6899, , , , 
2025-09-27 17:55:58.427,7.745567,-0.75613195,6.1974106,-0.88850284,-3.366323,1.7163773,-34.7625,-40.125,-24.093752,0.34892097,-0.19274503,0.65955085,1001.6899, , , , 
2025-09-27 17:55:58.446,7.0899334,-1.1892328,5.460421,-0.80664694,-3.3553276,1.8684826,-37.725002,-37.8375,-20.98125,0.36120775,-0.22519387,0.65726507,1001.6899, , , , 
2025-09-27 17:55:58.466,7.503892,-1.8448663,4.1467614,-0.8836159,-3.0547822,2.1476479,-38.15625,-35.53125,-19.837502,0.37226412,-0.25737566,0.65566117,1001.6899, , , , 
2025-09-27 17:55:58.486,8.9013,-2.0003998,4.3836513,-1.1016946,-2.6088507,2.3510659,-38.193752,-34.29375,-20.362501,0.37724456,-0.28098002,0.655728,1001.70917, , , , 
2025-09-27 17:55:58.506,9.3511505,-2.8115666,4.6707897,-1.1267401,-2.5538728,2.3748896,-39.75,-31.612501,-17.118752,0.3804823,-0.31931242,0.6567311,1001.70917, , , , 
2025-09-27 17:55:58.526,9.0951185,-3.5509489,4.0558343,-1.0754274,-2.701702,2.4384196,-41.662502,-29.343752,-15.50625,0.38317728,-0.34987935,0.6564821,1001.7072, , , , 
2025-09-27 17:55:58.546,9.190832,-4.5128636,4.1108694,-1.1059707,-2.734689,2.7084217,-43.0125,-27.13125,-13.012501,0.3859825,-0.38852698,0.65556854,1001.6955, , , , 
2025-09-27 17:55:58.566,9.092726,-5.194818,4.347759,-1.0173953,-2.6968153,2.9729261,-43.612503,-25.931252,-15.01875,0.3862625,-0.41962275,0.6554169,1001.6955, , , , 
2025-09-27 17:55:58.586,11.430513,-5.6757755,4.6301117,-0.91904604,-2.6161811,3.1012077,-44.4375,-21.806252,-11.925,0.3851515,-0.45002434,0.656002,1001.6955, , , , 
2025-09-27 17:55:58.606,11.794223,-5.690132,3.4695928,-0.7528908,-2.3125813,2.8031058,-45.862503,-19.25625,-9.150001,0.3832956,-0.4774827,0.6564614,1001.68915, , , , 
2025-09-27 17:55:58.626,9.109476,-6.582655,2.359323,-0.77854717,-2.2123995,2.8733552,-48.3375,-17.00625,-9.31875,0.381087,-0.5021908,0.65620315,1001.6828, , , , 
2025-09-27 17:55:58.646,9.779466,-7.348358,2.5339992,-0.82558376,-2.070679,3.2020004,-47.831253,-13.500001,-6.1875005,0.37655857,-0.52697206,0.6560721,1001.6828, , , , 
2025-09-27 17:55:58.666,11.420942,-7.4129643,2.9455647,-0.765719,-1.6192498,3.189783,-50.86875,-8.85,-4.5750003,0.36862263,-0.55076,0.6568089,1001.6613, , , , 
2025-09-27 17:55:58.686,12.68196,-7.3268228,3.1441689,-0.64476776,-1.319926,2.9680393,-51.15,-8.118751,-5.3625,0.3586725,-0.5712434,0.6582958,1001.6613, , , , 
2025-09-27 17:55:58.706,11.004591,-7.793423,2.024328,-0.55863583,-0.92530745,2.7426302,-53.718754,-4.5750003,-1.125,0.34507555,-0.59176415,0.6607738,1001.6462, , , , 
2025-09-27 17:55:58.727,11.62194,-7.941778,2.0458634,-0.52748173,-0.93752474,2.7145305,-52.312504,-2.4562502,1.06875,0.33641234,-0.60301,0.66218597,1001.6462, , , , 
2025-09-27 17:55:58.746,12.435499,-7.692925,1.6486548,-0.50304717,-0.72921985,2.4078763,-53.325,-0.075,2.7375002,0.32252163,-0.6199655,0.66392195,1001.6203, , , , 
2025-09-27 17:55:58.768,11.296515,-7.893922,1.727618,-0.4914407,-0.52824533,2.2441645,-52.0875,1.1437501,5.7937503,0.3115635,-0.63159186,0.66477174,1001.6203, , , , 
2025-09-27 17:55:58.786,10.930414,-8.054241,1.3375878,-0.48044515,-0.38957903,2.187354,-50.456253,3.9375002,2.8312502,0.30300966,-0.63944554,0.66546744,1001.6203, , , , 
2025-09-27 17:55:58.806,11.169696,-7.745567,1.8089739,-0.49388418,-0.046273008,2.0077598,-50.343754,6.80625,4.2000003,0.28747216,-0.6512865,0.6667129,1001.60785, , , , 
2025-09-27 17:55:58.826,10.648061,-7.257431,1.2418749,-0.41080657,0.24572036,1.6565126,-48.80625,8.475,3.0187502,0.27451408,-0.65873986,0.6680386,1001.60785, , , , 
2025-09-27 17:55:58.846,9.425328,-7.3196445,1.0839486,-0.40408704,0.19868377,1.4262166,-49.0125,9.056251,4.70625,0.25973177,-0.66596717,0.6694221,1001.5817, , , , 
2025-09-27 17:55:58.866,8.812766,-7.2215385,1.227518,-0.3735438,0.1962403,1.2594504,-47.30625,10.96875,4.1062503,0.2493359,-0.67100656,0.67008877,1001.5817, , , , 
2025-09-27 17:55:58.886,8.781659,-7.1473613,1.253839,-0.31917685,0.13026692,1.1097885,-47.193752,11.493751,4.0687504,0.24009304,-0.675371,0.6705751,1001.5549, , , , 
2025-09-27 17:55:58.906,9.243474,-6.9894347,0.7896315,-0.2623664,0.056963142,0.80741054,-46.575,12.937501,1.9125,0.23290138,-0.67891014,0.67082816,1001.5385,37.88840931,127.73983336,139.363037109375,0.0
2025-09-27 17:55:58.926,9.2793665,-6.836294,0.9595219,-0.24770567,0.06062833,0.59727305,-46.987503,13.875001,2.8312502,0.22782381,-0.68171334,0.67057335,1001.5385, , , , 
2025-09-27 17:55:58.946,8.092526,-7.123433,0.74177504,-0.18784092,-0.039553493,0.4317287,-46.3125,13.687501,4.1625004,0.22441566,-0.683751,0.67014724,1001.5385, , , , 
2025-09-27 17:55:58.966,7.9561353,-7.2119675,1.0887343,-0.13713914,-0.1989892,0.42012227,-47.456253,15.187501,3.5812502,0.22229075,-0.6856447,0.6695799,1001.5129, , , , 
2025-09-27 17:55:58.986,8.583055,-7.24786,1.052842,-0.050396346,-0.037110034,0.3394881,-44.71875,14.231251,2.71875,0.22063267,-0.68732154,0.66934335,1001.49384, , , , 
2025-09-27 17:55:59.006,8.647661,-7.281359,0.82313097,0.01924224,0.23167047,0.1800524,-44.5125,14.625001,3.6000001,0.21873648,-0.68748534,0.66992736,1001.49384, , , , 
2025-09-27 17:55:59.026,8.465807,-7.298109,0.27517462,9.162972E-4,0.47784898,0.07192933,-46.893753,14.38125,3.8625002,0.21650618,-0.68701494,0.6707731,1001.49384, , , , 
2025-09-27 17:55:59.046,7.8723865,-7.066005,-0.12921242,-0.031459536,0.18524474,-0.04963276,-44.025,14.062501,2.6625001,0.21389768,-0.6859917,0.67178434,1001.4755, , , , 
2025-09-27 17:55:59.066,7.5900335,-6.977471,0.4354937,-0.06444623,0.113162704,-0.12110394,-46.612503,14.925,2.2687502,0.2138011,-0.68570036,0.6715504,1001.4589, , , , 
2025-09-27 17:55:59.086,7.8867435,-6.893722,0.9236295,-0.014355322,0.24694209,-0.21273366,-45.9,14.00625,0.54375005,0.21408379,-0.6852445,0.6712438,1001.4589, , , , 
2025-09-27 17:55:59.106,6.8458657,-7.068398,0.1794617,0.083383046,0.46013388,-0.32146758,-44.831253,14.3625,1.95,0.21422434,-0.6831259,0.67183936,1001.46234, , , , 
2025-09-27 17:55:59.126,6.3792653,-7.1856465,-0.148355,0.033902995,0.527329,-0.3006982,-45.73125,13.406251,1.03125,0.21357256,-0.68147147,0.67251945,1001.46234, , , , 
2025-09-27 17:55:59.146,6.3338017,-7.2358956,0.15314065,0.03329213,0.21823144,-0.30314165,-46.10625,12.88125,-0.76875,0.21306752,-0.67943466,0.67299324,1001.465, , , , 
2025-09-27 17:55:59.166,5.6614184,-7.8149586,0.0047856453,0.060781047,0.26465717,-0.3025308,-49.050003,12.187501,0.675,0.21399266,-0.6779979,0.67309827,1001.465, , , , 
2025-09-27 17:55:59.186,4.84068,-8.106883,-0.57906306,-0.015577052,0.33551747,-0.10338886,-46.256252,13.725,0.6,0.21391,-0.6766232,0.673498,1001.47845, , , , 
2025-09-27 17:55:59.206,5.4029937,-7.987242,-0.11006984,-0.100487255,0.3318523,-0.0050396346,-48.80625,12.075001,2.6625001,0.21190964,-0.6762353,0.6737114,1001.47845, , , , 
2025-09-27 17:55:59.228,5.6590257,-7.8053875,0.930808,-0.035124727,0.24633121,-0.0019853106,-48.506252,15.618751,0.26250002,0.20916253,-0.67619574,0.6737677,1001.49384, , , , 
2025-09-27 17:55:59.247,4.914858,-8.118847,0.51445687,0.12553272,0.17974696,0.015729768,-48.300003,13.762501,1.2750001,0.20795661,-0.67536676,0.67455786,1001.49384, , , , 
2025-09-27 17:55:59.266,4.28076,-8.202596,-0.23928227,0.12064579,0.22189663,0.17333288,-49.331253,13.14375,2.6437502,0.2068135,-0.6744797,0.67568994,1001.49384, , , , 
2025-09-27 17:55:59.287,5.271388,-8.152347,0.37806597,0.07971785,0.19074252,0.2600757,-49.068752,12.918751,2.1750002,0.20333354,-0.67378914,0.67758065,1001.5107, , , , 
2025-09-27 17:55:59.308,6.1232333,-7.920243,0.5982057,0.19456044,0.13026692,0.12079851,-48.881252,13.81875,1.48125,0.20094204,-0.6730064,0.67919505,1001.5229, , , , 
2025-09-27 17:55:59.326,5.2929235,-7.982456,0.33260235,0.27397284,-0.084757484,0.014508039,-48.037502,14.175,-0.7875,0.20051174,-0.67143697,0.6809812,1001.5229, , , , 
2025-09-27 17:55:59.348,5.2977095,-8.41795,0.09810573,0.30207264,-0.31199917,0.021838415,-48.2625,14.531251,-0.46875003,0.20203544,-0.66990304,0.6825916,1001.53876, , , , 
2025-09-27 17:55:59.366,5.5274205,-8.480164,-0.2536392,0.23182319,-0.14401138,0.034666575,-49.256252,14.156251,1.35,0.20436414,-0.6686919,0.68390536,1001.53876, , , , 
2025-09-27 17:55:59.388,5.800202,-8.166703,-0.13878371,0.16157374,0.23838998,0.04138609,-47.831253,13.931251,0.90000004,0.2042335,-0.6672157,0.6855523,1001.5412, , , , 
2025-09-27 17:55:59.408,5.352744,-7.975278,-0.29671,0.16096286,0.2921461,0.12324197,-47.0625,14.75625,0.61875004,0.20238563,-0.6657967,0.68713933,1001.5412, , , , 
2025-09-27 17:55:59.428,5.9174504,-7.499106,-0.5455636,0.17684536,0.18280129,0.1886045,-49.893753,14.475,-0.45000002,0.20015715,-0.6645651,0.68888706,1001.5439, , , , 
2025-09-27 17:55:59.448,6.678368,-6.9678993,-0.72741807,0.11270455,-0.05054906,0.17027856,-49.143753,13.81875,-0.65625,0.19885592,-0.6637824,0.69024485,1001.5439, , , , 
2025-09-27 17:55:59.468,5.9342003,-6.3696938,-1.0887343,-0.074830934,-0.16050471,0.27962336,-47.68125,15.20625,-1.03125,0.19882368,-0.6639762,0.69061035,1001.5527, , , , 
2025-09-27 17:55:59.488,8.1020975,-6.530013,0.5096712,-0.3686569,-0.19776747,0.4402808,-47.831253,15.3,0.52500004,0.1969448,-0.66712284,0.68907595,1001.5527, , , , 
2025-09-27 17:55:59.508,9.84168,-6.4343,2.1655045,-0.22266021,-0.5038107,0.3205513,-47.41875,13.725,0.26250002,0.1965905,-0.6703981,0.68702143,1001.5607, , , , 
2025-09-27 17:55:59.528,10.597812,-6.35773,2.2468605,0.06750056,-0.62781626,0.095142186,-45.525,15.7875,0.09375,0.1995319,-0.6719383,0.68585056,1001.5607, , , , 
2025-09-27 17:55:59.548,10.71506,-6.178268,1.5577276,0.2837467,-0.4903717,-0.17424917,-47.925003,15.543751,0.675,0.20475632,-0.67126995,0.68582076,1001.5981, , , , 
2025-09-27 17:55:59.568,11.114661,-5.54417,2.0386848,0.3026835,-0.28451028,-0.40026915,-47.60625,15.825001,1.7062501,0.21066947,-0.6690955,0.6863331,1001.5981, , , , 
2025-09-27 17:55:59.588,12.095718,-5.7020965,2.7302105,0.38148504,-0.2319759,-0.6372847,-46.443752,15.806251,2.1937501,0.21690974,-0.6657596,0.68704873,1001.6286, , , , 
2025-09-27 17:55:59.609,12.607782,-6.1710896,3.249453,0.6197223,-0.40362892,-0.9494366,-47.11875,14.7375,3.8812501,0.2277673,-0.6595024,0.68832654,1001.6286, , , , 
2025-09-27 17:55:59.627,13.002598,-6.2261243,3.2542388,0.8158099,-0.38041604,-1.195615,-47.006252,13.875001,3.6000001,0.2365434,-0.6541421,0.689583,1001.6286, , , , 
2025-09-27 17:55:59.647,12.873385,-6.257231,2.0889342,1.0070106,-0.19410229,-1.5609123,-49.593754,12.731251,5.025,0.2532356,-0.64211065,0.6925968,1001.6589, , , , 
2025-09-27 17:55:59.667,12.988241,-6.4965134,0.8781659,0.98685205,-0.08231403,-1.7881539,-49.93125,11.700001,4.18125,0.26742592,-0.63084495,0.6948504,1001.68256, , , , 
2025-09-27 17:55:59.687,13.880764,-7.0372915,-0.27996024,0.7449496,0.16081016,-2.1406229,-54.468754,9.50625,3.7125,0.28208467,-0.61935145,0.6956136,1001.68256, , , , 
2025-09-27 17:55:59.707,14.201403,-7.5086775,-0.552742,0.36193737,0.56337005,-2.4417791,-52.312504,9.0,-0.20625001,0.2956134,-0.6082032,0.69422305,1001.68475, , , , 
2025-09-27 17:55:59.727,13.55534,-7.7144604,0.57906306,-0.062002774,0.95737785,-2.7337725,-52.256252,5.6625004,-0.7875,0.30702794,-0.59766936,0.6905307,1001.68475, , , , 
2025-09-27 17:55:59.747,12.583855,-7.838887,2.8929226,-0.17012584,1.4020873,-2.9335253,-50.831253,3.9375002,-1.7625,0.31587222,-0.5868976,0.6853027,1001.68695, , , , 
2025-09-27 17:55:59.767,12.205789,-7.743174,4.302295,0.08888082,1.6617049,-3.061196,-52.10625,-0.28125,-2.9437501,0.3224734,-0.5735365,0.6806605,1001.68695, , , , 
2025-09-27 17:55:59.787,10.815558,-7.743174,2.952743,0.5842922,1.579849,-3.1821473,-52.275,-2.6625001,-3.8625002,0.3312148,-0.55124843,0.67699635,1001.7131, , , , 
2025-09-27 17:55:59.807,9.152547,-7.1712894,1.9980069,0.7156281,1.3483313,-3.1845908,-50.531254,-5.175,-7.2937503,0.34031805,-0.5313942,0.67393374,1001.7131, , , , 
2025-09-27 17:55:59.828,7.826923,-6.5778694,1.6223338,0.6832523,0.98425585,-3.020879,-51.956253,-9.31875,-6.6000004,0.350715,-0.51217514,0.6696606,1001.7282, , , , 
2025-09-27 17:55:59.847,8.293523,-6.15434,1.9860427,0.66431546,0.59391326,-2.8266242,-50.5875,-10.5375,-6.99375,0.36205044,-0.49496207,0.6640343,1001.7282, , , , 
2025-09-27 17:55:59.867,8.157132,-5.8767724,2.0195422,0.6520982,0.6317869,-2.794248,-50.175003,-14.343751,-7.74375,0.3741766,-0.47876236,0.6574604,1001.72943, , , , 
2025-09-27 17:55:59.887,6.754938,-5.4891353,2.115255,0.5543598,0.7637337,-2.6201518,-49.65,-17.643751,-8.53125,0.38468277,-0.46229547,0.65090144,1001.72943, , , , 
2025-09-27 17:55:59.907,6.5922265,-5.113462,2.481357,0.5732966,0.7496838,-2.3532038,-49.331253,-19.087502,-10.5,0.39288914,-0.44632468,0.6450721,1001.7341,37.88840931,127.73983336,139.363037109375,0.0
2025-09-27 17:55:59.927,6.9009004,-4.6468616,2.2971098,0.73212147,0.49067715,-2.2139268,-49.256252,-20.71875,-8.400001,0.4008529,-0.43099687,0.639916,1001.7341, , , , 
2025-09-27 17:55:59.946,5.515456,-4.2352962,1.579263,0.74433875,0.083230324,-2.0618215,-47.475002,-22.893751,-9.39375,0.41060534,-0.41660538,0.63422287,1001.73016, , , , 
2025-09-27 17:55:59.967,4.900501,-3.6346977,1.5553347,0.60872674,-0.06582068,-1.7655519,-46.10625,-24.112501,-9.918751,0.42414144,-0.40223512,0.6259071,1001.73016, , , , 
2025-09-27 17:55:59.987,4.503292,-3.3260236,1.713261,0.54641855,0.09911281,-1.5676317,-46.631252,-26.437502,-6.95625,0.4311259,-0.39472145,0.62130123,1001.73016, , , , 
2025-09-27 17:56:00.008,4.031906,-2.8761728,1.6558332,0.503658,0.19074252,-1.1968368,-45.581253,-27.300001,-9.337501,0.4393634,-0.38276306,0.61600536,1001.7287, , , , 
2025-09-27 17:56:00.026,4.57747,-2.3138595,1.3615161,0.4553997,0.0820086,-0.893237,-46.3125,-28.518751,-7.33125,0.4446498,-0.37510112,0.61312854,1001.71893, , , , 
2025-09-27 17:56:00.047,4.45065,-2.105684,0.8422736,0.37904158,0.025809037,-0.70753413,-44.0625,-29.775002,-7.5000005,0.44918218,-0.36893594,0.6109019,1001.71893, , , , 
2025-09-27 17:56:00.067,4.113262,-2.3377876,0.3900301,0.23426664,-0.22464553,-0.49312058,-43.518753,-28.593752,-8.400001,0.45326355,-0.36478359,0.6087399,1001.71234, , , , 
2025-09-27 17:56:00.087,4.2257247,-2.7684958,0.6053841,0.04367683,-0.4744892,-0.24877468,-44.268753,-31.425001,-6.4500003,0.45733964,-0.3641334,0.60593283,1001.71234, , , , 
2025-09-27 17:56:00.107,3.0317063,-3.225525,0.6412765,-0.12858704,-0.4744892,0.14645483,-44.86875,-30.862501,-7.2000003,0.46074587,-0.3674364,0.60281026,1001.7038, , , , 
2025-09-27 17:56:00.127,2.7445676,-3.9720855,0.3804588,-0.29474226,-0.5911644,0.6149881,-43.78125,-30.487501,-7.0312505,0.46112135,-0.3716888,0.60205674,1001.7038, , , , 
2025-09-27 17:56:00.147,3.062813,-5.0368915,0.33499518,-0.46944958,-0.8636101,1.2362376,-44.1375,-30.7875,-6.20625,0.4592256,-0.38448253,0.6025611,1001.7072, , , , 
2025-09-27 17:56:00.166,4.4315076,-5.1828537,0.37567315,-0.60872674,-1.085354,1.7371467,-42.84375,-29.531252,-7.8,0.45604345,-0.3998701,0.604134,1001.7072, , , , 
2025-09-27 17:56:00.186,5.6949177,-5.642276,0.3469593,-0.73884094,-0.9912808,1.9570581,-45.2625,-27.0375,-7.9875,0.45252734,-0.4134671,0.6057694,1001.7072, , , , 
2025-09-27 17:56:00.206,4.699504,-6.640083,-0.21296121,-1.0033454,-0.7225003,2.2032366,-46.350002,-25.050001,-5.9812503,0.44294766,-0.43703383,0.6095369,1001.6955, , , , 
2025-09-27 17:56:00.227,4.0797625,-6.7812595,0.61016977,-1.1890483,-0.6638573,2.4555237,-46.875,-23.98125,-6.0,0.43138894,-0.4573672,0.61313397,1001.6955, , , , 
2025-09-27 17:56:00.246,4.5296135,-7.4249287,1.39023,-1.2257001,-0.77747816,2.7579017,-47.7,-22.2,-5.3812504,0.41746694,-0.47918856,0.6171081,1001.68134, , , , 
2025-09-27 17:56:00.266,4.833502,-7.611569,2.120041,-1.086423,-0.5203041,2.9454372,-47.8875,-19.612501,-5.9812503,0.39794904,-0.50658804,0.6230391,1001.6916, , , , 
2025-09-27 17:56:00.286,4.8191447,-8.243274,1.7826529,-0.95325446,-0.49953467,3.1195338,-49.7625,-20.175001,-6.20625,0.380487,-0.5267875,0.6294207,1001.6916, , , , 
2025-09-27 17:56:00.306,5.6446686,-9.571291,0.8327023,-0.83963364,-0.6986766,3.280802,-48.80625,-13.9875,-5.7375,0.36284962,-0.5466518,0.63618153,1001.7026, , , , 
2025-09-27 17:56:00.327,6.884151,-11.160125,0.24885355,-0.8817833,-1.0914626,3.488496,-48.6375,-12.337501,-5.7000003,0.3459896,-0.56750417,0.6419588,1001.7026, , , , 
2025-09-27 17:56:00.346,8.403593,-12.473784,0.9379865,-0.8542944,-1.3840668,3.7303984,-51.075,-7.74375,-5.4,0.3292139,-0.5897632,0.6462603,1001.68866, , , , 
2025-09-27 17:56:00.366,9.927821,-13.272987,1.2131611,-0.7822124,-1.4292709,3.895943,-51.768753,-5.1000004,-2.0812502,0.31247064,-0.6119353,0.6499099,1001.68866, , , , 
2025-09-27 17:56:00.386,10.736595,-12.9954195,1.7300107,-0.62399834,-1.1586578,3.886169,-52.10625,-0.28125,-2.625,0.29459098,-0.63225794,0.653583,1001.68866, , , , 
2025-09-27 17:56:00.406,10.305887,-12.581462,1.2179468,-0.4865538,-0.9802852,3.904495,-50.906254,0.91875005,1.5,0.27542427,-0.6494759,0.65786374,1001.6777, , , , 
2025-09-27 17:56:00.427,9.851251,-11.803794,0.3493521,-0.44745845,-0.7713695,3.9826856,-48.206253,7.8,1.9125,0.2498344,-0.6681631,0.6632187,1001.6794, , , , 
2025-09-27 17:56:00.446,11.4496565,-11.358729,0.701097,-0.50976664,-0.6858484,3.9551966,-46.48125,10.35,-0.43125,0.2274692,-0.68173575,0.66670513,1001.6794, , , , 
2025-09-27 17:56:00.466,12.933207,-10.114461,1.6606189,-0.33872452,-0.48120874,3.4781113,-45.43125,14.400001,3.5625002,0.20618536,-0.6931282,0.66920775,1001.6794, , , , 
2025-09-27 17:56:00.486,11.897114,-9.489935,0.47856453,-0.22266021,-0.3431533,3.0572255,-45.787502,16.237501,3.3375,0.18748906,-0.7010655,0.6717658,1001.6662, , , , 
2025-09-27 17:56:00.506,11.416157,-8.963513,0.39720857,-0.3197877,-0.21731515,2.8342597,-41.8125,19.48125,6.2812505,0.16988164,-0.7077861,0.6734232,1001.6508, , , , 
2025-09-27 17:56:00.526,12.303894,-8.437093,0.95473623,-0.3026835,-0.09880738,2.5868597,-43.4625,20.56875,4.3875003,0.15288262,-0.71389306,0.67415655,1001.6508, , , , 
2025-09-27 17:56:00.546,12.569497,-7.7790666,1.4356936,-0.14385866,0.080176,2.2899795,-40.03125,23.775002,4.6125,0.13706516,-0.71855664,0.6748566,1001.6484, , , , 
2025-09-27 17:56:00.566,13.076776,-7.2502527,0.0071784677,0.06139191,0.48701194,1.9399538,-38.0625,24.975,5.8875003,0.11823561,-0.72129256,0.6772548,1001.6484, , , , 
2025-09-27 17:56:00.586,12.68196,-6.4366927,-1.0911272,0.051618073,0.74296427,1.6644539,-38.568752,23.79375,5.4,0.107114226,-0.72182274,0.67908335,1001.6484, , , , 
2025-09-27 17:56:00.606,12.399607,-5.0943193,-1.5314065,-0.13286309,0.82420933,1.319926,-38.362503,26.19375,3.6937501,0.08967807,-0.7229017,0.6808332,1001.6491, , , , 
2025-09-27 17:56:00.626,12.600604,-4.685147,-0.57427746,-0.20250167,0.77472925,1.0926844,-35.850002,27.712502,3.6562502,0.07759133,-0.72443414,0.6807021,1001.6491, , , , 
2025-09-27 17:56:00.646,13.526627,-4.802395,0.5312066,0.16829325,0.4271472,0.8214604,-36.393753,28.0125,4.14375,0.06818292,-0.724991,0.6810686,1001.642, , , , 
2025-09-27 17:56:00.666,14.395221,-5.0512486,-0.35653058,0.5836813,-0.13240494,0.49525863,-36.05625,29.550001,2.9437501,0.06381835,-0.72287434,0.6838338,1001.6528, , , , 
2025-09-27 17:56:00.686,14.52204,-5.5633125,-1.8448663,0.6319396,-0.3639227,0.20998476,-35.625,28.10625,2.98125,0.06517512,-0.7190558,0.687942,1001.6528, , , , 
2025-09-27 17:56:00.706,15.211174,-6.4414787,-2.7349963,0.30207264,-0.47754353,-0.170584,-35.362503,29.38125,2.5687501,0.0722602,-0.71544796,0.69119257,1001.6496, , , , 
2025-09-27 17:56:00.726,16.280766,-7.1976104,-1.8400806,-0.057115857,-0.20448698,-0.6317869,-36.24375,28.66875,2.7,0.07967645,-0.7145999,0.6910078,1001.6496, , , , 
2025-09-27 17:56:00.746,15.981663,-8.32463,-0.5168497,-0.27336198,-0.0481056,-1.127809,-36.412502,27.7875,2.775,0.08869855,-0.71502054,0.68860936,1001.6423, , , , 
2025-09-27 17:56:00.766,15.376278,-8.939586,1.2346965,-0.16584979,-0.1886045,-1.5548036,-35.9625,27.825,2.2687502,0.100421436,-0.71518403,0.68544924,1001.6423, , , , 
2025-09-27 17:56:00.786,14.924035,-9.123833,1.3136597,0.07788526,-0.4054615,-1.986685,-37.706253,26.5125,3.6000001,0.116260506,-0.7133307,0.68317616,1001.6423, , , , 
2025-09-27 17:56:00.806,13.741981,-9.626326,0.49292147,0.12064579,-0.47876528,-2.496757,-38.60625,25.687502,3.2812502,0.1362394,-0.7097223,0.6810878,1001.6723, , , , 
2025-09-27 17:56:00.826,12.916456,-10.305887,0.1052842,-0.029016078,-0.33826637,-2.8510587,-41.737503,23.98125,4.0125003,0.15860552,-0.70552534,0.6777195,1001.6723, , , , 
2025-09-27 17:56:00.847,12.0430765,-11.353944,0.44506502,-0.23060146,0.00320704,-3.138165,-40.912502,21.46875,3.0,0.18637523,-0.70011306,0.67097306,1001.7011, , , , 
2025-09-27 17:56:00.866,11.803794,-12.689138,0.89491564,-0.21349724,0.06185006,-3.305542,-42.80625,18.65625,3.80625,0.20805237,-0.69502157,0.6642518,1001.73016, , , , 
2025-09-27 17:56:00.886,11.540584,-13.57209,1.3854443,-0.044287696,-0.11346813,-3.4124434,-45.375,18.28125,3.16875,0.2248037,-0.69020927,0.6590043,1001.73016, , , , 
2025-09-27 17:56:00.906,11.346765,-13.715659,1.0983056,0.25014913,-0.31322092,-3.495521,-45.28125,13.05,4.70625,0.25512758,-0.67965037,0.6507217,1001.75775,37.88838057,127.73984098,142.55828857421875,0.79
2025-09-27 17:56:00.928,10.573883,-13.421342,0.23449662,0.2800815,-0.22892158,-3.635409,-47.8875,10.9125,3.8625002,0.28065997,-0.66908926,0.644188,1001.75775, , , , 
2025-09-27 17:56:00.947,9.674182,-12.832707,0.31345975,0.21105379,-0.08414663,-3.6946628,-47.362503,9.337501,5.90625,0.29932082,-0.6605113,0.6386918,1001.75775, , , , 
2025-09-27 17:56:00.966,8.853444,-12.260823,0.45942193,0.12125666,0.03252855,-3.7685776,-49.125004,1.95,4.2000003,0.32860565,-0.6452193,0.6283991,1001.7702, , , , 
2025-09-27 17:56:00.986,8.303095,-12.433106,0.5479564,0.14263692,-0.22769985,-3.852877,-50.30625,-1.03125,3.7125,0.35177228,-0.6322752,0.6187829,1001.7702, , , , 
2025-09-27 17:56:01.006,7.556534,-12.265609,0.3684947,0.20922118,-0.62964886,-3.8650942,-50.60625,-2.5500002,3.525,0.38317144,-0.615864,0.6043633,1001.76166, , , , 
2025-09-27 17:56:01.026,6.7262244,-11.822937,0.14356937,0.2073886,-0.77564555,-3.8186684,-49.518753,-7.2937503,3.99375,0.40956712,-0.60276985,0.5911238,1001.76166, , , , 
2025-09-27 17:56:01.046,5.8672013,-11.018949,0.18903299,0.16584979,-0.49464774,-3.7093236,-51.037502,-9.69375,4.59375,0.43476868,-0.5892906,0.5774071,1001.7575, , , , 
2025-09-27 17:56:01.066,4.3740797,-10.377672,0.26081768,0.13897173,0.22800528,-3.4747515,-48.43125,-14.156251,4.425,0.45571896,-0.57426447,0.5653814,1001.75775, , , , 
2025-09-27 17:56:01.086,2.7278178,-9.923036,0.02632105,0.15974113,0.64278245,-3.1412194,-46.65,-16.087502,5.8875003,0.47138065,-0.55776656,0.55637074,1001.75775, , , , 
2025-09-27 17:56:01.106,1.5457634,-8.889337,-0.1052842,0.23121232,0.5224421,-2.6128213,-45.9375,-19.875,5.5687504,0.48308355,-0.5415914,0.5499053,1001.7524, , , , 
2025-09-27 17:56:01.127,2.132005,-8.518449,0.19621146,0.27947062,0.4583013,-2.3061674,-46.85625,-20.962502,4.18125,0.49337962,-0.5274151,0.54427063,1001.7524, , , , 
2025-09-27 17:56:01.146,1.6127625,-8.590233,0.086141616,0.41447175,0.42226028,-2.1051927,-45.1875,-23.53125,4.6125,0.50490713,-0.5106148,0.53856915,1001.7475, , , , 
2025-09-27 17:56:01.166,0.37328035,-9.193225,-0.6867401,0.4169152,0.2414443,-1.7857105,-44.643753,-24.468752,4.7625003,0.5135049,-0.4981603,0.534902,1001.7475, , , , 
2025-09-27 17:56:01.186,-0.3684947,-9.020942,-1.2873386,0.3265072,-0.08536835,-1.3330597,-45.0,-26.23125,4.2937503,0.5213783,-0.48902836,0.5312125,1001.7475, , , , 
2025-09-27 17:56:01.207,-0.22013968,-8.815159,-1.4380864,0.13836087,-0.26557347,-0.90545434,-44.081253,-26.00625,3.8625002,0.52637166,-0.48504248,0.5283206,1001.74774, , , , 
2025-09-27 17:56:01.227,-0.81595254,-9.262616,-0.83988076,-0.04734202,-0.2667952,-0.3245219,-41.850002,-29.625002,2.2875001,0.53171635,-0.48331782,0.52397805,1001.72797, , , , 
2025-09-27 17:56:01.246,-0.92602235,-9.267402,-0.5838487,-0.18661919,-0.007177661,0.28145593,-42.037502,-27.54375,4.2000003,0.5319166,-0.48520547,0.5230266,1001.72797, , , , 
2025-09-27 17:56:01.266,-0.7800602,-10.052248,0.05742774,-0.23609924,0.19929464,1.0096067,-42.787502,-27.50625,5.2125,0.5271028,-0.48978454,0.52577394,1001.7238, , , , 
2025-09-27 17:56:01.286,0.03589234,-10.4016,0.3062813,-0.083383046,-0.12690715,1.6949971,-43.18125,-28.1625,3.5812502,0.51853967,-0.49776345,0.5320706,1001.7238, , , , 
2025-09-27 17:56:01.306,1.3734802,-9.930214,0.083748795,0.09682207,-0.48548478,2.3541203,-45.825,-25.2,4.93125,0.50682217,-0.51302755,0.54224014,1001.71844, , , , 
2025-09-27 17:56:01.326,2.2468605,-10.380065,-0.73459655,0.14202607,-0.43050694,2.8666358,-45.9,-24.093752,5.34375,0.4956301,-0.5279699,0.55225015,1001.71844, , , , 
2025-09-27 17:56:01.346,3.9194436,-11.397015,-1.6941184,-0.05650499,-0.19104797,3.3687665,-45.768753,-20.587502,4.3500004,0.48074698,-0.5447093,0.56394446,1001.71625, , , , 
2025-09-27 17:56:01.366,4.8047876,-12.117254,-1.9645073,-0.33261588,0.1375973,3.7041314,-47.25,-17.643751,6.0375004,0.46090472,-0.5629264,0.57651114,1001.71625, , , , 
2025-09-27 17:56:01.386,5.5274205,-12.993027,-1.8831514,-0.57574004,0.19379686,3.9961247,-47.53125,-14.681251,5.4375,0.43615678,-0.5824842,0.58900714,1001.71625, , , , 
2025-09-27 17:56:01.406,6.786045,-13.988441,-1.4691931,-0.77488196,0.06185006,4.310109,-48.768753,-11.45625,5.2312503,0.40819123,-0.60378,0.6001375,1001.6989, , , , 
2025-09-27 17:56:01.427,8.02792,-14.289937,-0.849452,-0.90194184,-0.102472566,4.5795007,-50.756252,-7.55625,5.0625,0.37052956,-0.6316276,0.6116539,1001.6877, , , , 
2025-09-27 17:56:01.447,8.590233,-13.976477,-0.20338993,-0.9043853,-0.16661337,4.7163343,-50.2125,-3.3750002,4.6125,0.33904114,-0.65372556,0.61900884,1001.6877, , , , 
2025-09-27 17:56:01.466,9.678967,-13.320844,0.20578274,-0.9251547,0.030695954,4.78414,-49.0875,0.93750006,7.65,0.30598632,-0.6744025,0.6253652,1001.6894, , , , 
2025-09-27 17:56:01.486,11.023734,-12.638889,1.0049855,-0.8451314,0.28176138,4.6014915,-46.65,5.7937503,7.5750003,0.2714413,-0.6926136,0.63086253,1001.6894, , , , 
2025-09-27 17:56:01.506,11.361122,-12.425928,1.1102697,-0.5745183,0.25243986,4.356535,-44.737503,9.75,2.8312502,0.23755409,-0.7073637,0.63590044,1001.6923, , , , 
2025-09-27 17:56:01.526,11.442478,-11.643475,-0.90448695,-0.3686569,0.13698642,4.200764,-46.125,13.312501,6.3187504,0.20599349,-0.71857834,0.64112115,1001.6923, , , , 
2025-09-27 17:56:01.546,12.179467,-10.24846,-1.9573289,-0.64293516,0.22983788,4.016894,-42.975002,14.400001,5.45625,0.17609607,-0.72837806,0.64479274,1001.6923, , , , 
2025-09-27 17:56:01.566,13.756337,-9.138189,0.37328035,-0.8494075,0.3733911,3.592954,-44.9625,18.4125,6.8250003,0.1397443,-0.74083954,0.64470774,1001.70526, , , , 
2025-09-27 17:56:01.586,14.175081,-8.097312,1.7156538,-0.57940525,0.38438666,3.154353,-42.3375,21.28125,7.4812503,0.11987631,-0.7468424,0.64397633,1001.70526, , , , 
2025-09-27 17:56:01.606,14.124832,-7.173682,0.7322037,-0.011300999,0.38988444,2.6406157,-38.53125,23.41875,6.3375,0.09197527,-0.75187266,0.64539003,1001.6928, , , , 
2025-09-27 17:56:01.626,14.009976,-6.721439,-1.4045869,0.18051054,0.4735729,2.2991424,-38.9625,24.243752,7.7250004,0.073279895,-0.7523726,0.6486631,1001.70575, , , , 
2025-09-27 17:56:01.646,14.045869,-6.2309103,-2.6991038,0.09193515,0.45463613,2.074955,-38.081253,26.456251,7.3500004,0.06051464,-0.75227624,0.65088874,1001.70575, , , , 
2025-09-27 17:56:01.666,14.969499,-5.8767724,-3.0867412,-0.31367907,0.16752967,1.6846124,-33.99375,29.00625,4.7625003,0.04249351,-0.7536493,0.6517899,1001.69916, , , , 
2025-09-27 17:56:01.686,16.127625,-6.606583,-1.4955142,-0.4566214,-0.16722423,1.3132066,-34.3125,29.718752,5.2312503,0.032877635,-0.7567455,0.64946204,1001.69916, , , , 
2025-09-27 17:56:01.706,17.290537,-7.932207,-0.35174492,-0.318566,-0.30222535,0.7866411,-33.581253,30.4125,5.5687504,0.02862679,-0.7596565,0.6468155,1001.68524, , , , 
2025-09-27 17:56:01.726,17.70928,-8.286345,-0.3684947,-0.2715294,-0.029779658,0.28634286,-32.23125,30.656252,6.6562505,0.027887668,-0.7618503,0.6444835,1001.68524, , , , 
2025-09-27 17:56:01.746,18.451056,-8.592627,0.44027936,-0.2904662,0.170584,-0.2328922,-33.61875,31.031252,6.0,0.02940047,-0.7632847,0.64238524,1001.7006, , , , 
2025-09-27 17:56:01.766,18.367306,-8.4705925,1.6821543,-0.016187917,0.03375028,-0.8694133,-31.875002,30.206251,6.01875,0.034851175,-0.7636918,0.64084446,1001.7006, , , , 
2025-09-27 17:56:01.786,17.087147,-8.439486,1.1557333,0.39858928,-0.28695372,-1.6843069,-33.91875,29.60625,7.6687503,0.046844497,-0.7615769,0.6414356,1001.7121, , , , 
2025-09-27 17:56:01.806,15.455241,-9.346365,0.35174492,0.5225948,-0.59360784,-2.3440409,-34.7625,28.406252,7.8187504,0.06585312,-0.7574172,0.6431344,1001.7121, , , , 
2025-09-27 17:56:01.826,13.952549,-10.71506,0.34456646,0.5433642,-0.8000801,-2.8480043,-34.237503,27.862501,4.8562503,0.09073965,-0.75225633,0.64421123,1001.7365, , , , 
2025-09-27 17:56:01.847,12.823136,-12.136396,0.37806597,0.5213731,-0.8990402,-3.1876452,-37.8375,25.237501,5.3812504,0.1194819,-0.74616945,0.6442223,1001.7365, , , , 
2025-09-27 17:56:01.866,12.342179,-13.395021,0.66041905,0.51159924,-0.76220655,-3.4619234,-38.53125,22.66875,6.8437505,0.15010512,-0.73910975,0.64305896,1001.7365, , , , 
2025-09-27 17:56:01.886,11.566905,-13.770695,0.6125626,0.50976664,-0.6070469,-3.6060874,-40.143753,21.150002,6.01875,0.18083507,-0.7306572,0.64111257,1001.73895, , , , 
2025-09-27 17:56:01.906,11.334801,-13.607983,0.23449662,0.4572323,-0.35292712,-3.788736,-43.800003,19.143751,7.1250005,0.21833001,-0.7182173,0.6375407,1001.73895,37.88836505,127.73985061,142.5413818359375,1.27
2025-09-27 17:56:01.926,11.459228,-13.471592,0.1698904,0.3979784,-0.13301581,-4.0355253,-42.28125,15.69375,6.5437503,0.24755177,-0.7068153,0.63335824,1001.7492, , , , 
2025-09-27 17:56:01.947,10.5284195,-13.289737,0.22013968,0.37476555,0.054519683,-4.37089,-44.325,11.606251,9.0,0.28405312,-0.6901071,0.62628275,1001.758, , , , 
2025-09-27 17:56:01.966,9.542577,-13.131811,-0.11964113,0.3668243,0.15042545,-4.5309367,-46.65,7.275,8.887501,0.3059458,-0.6786217,0.62115985,1001.758, , , , 
2025-09-27 17:56:01.986,8.286345,-13.048062,-0.0047856453,0.3582722,0.023365578,-4.638449,-47.04375,4.275,4.3125,0.34228837,-0.6577096,0.6107271,1001.7692, , , , 
2025-09-27 17:56:02.006,7.288538,-12.935599,0.37328035,0.422413,-0.26251915,-4.647612,-48.15,1.0500001,5.68125,0.37214005,-0.63997513,0.6004534,1001.7692, , , , 
2025-09-27 17:56:02.026,6.096912,-12.64846,0.76570326,0.57390743,-0.4696023,-4.5724754,-49.893753,-3.8625002,6.0,0.4027523,-0.6214042,0.5889428,1001.7685, , , , 
2025-09-27 17:56:02.046,4.912465,-12.366107,0.2727818,0.6838631,-0.47815442,-4.3580623,-47.11875,-7.7812505,3.61875,0.43270454,-0.6018446,0.5773699,1001.7685, , , , 
2025-09-27 17:56:02.066,4.1922255,-11.870793,-0.5024927,0.71135205,-0.45494154,-4.067901,-49.031254,-11.981251,6.20625,0.46057278,-0.5820607,0.5661655,1001.779, , , , 
2025-09-27 17:56:02.086,3.6993039,-11.808579,-1.416551,0.6044507,-0.4072941,-3.7795732,-46.050003,-13.687501,8.15625,0.48594493,-0.5629247,0.55502534,1001.779, , , , 
2025-09-27 17:56:02.107,2.9336007,-11.739188,-2.1176481,0.29962918,-0.28328854,-3.4460409,-45.28125,-18.69375,7.2937503,0.50808114,-0.5453394,0.5435649,1001.7785, , , , 
2025-09-27 17:56:02.127,1.9070797,-11.590833,-1.9525433,0.016187917,-0.17577635,-3.107622,-43.912502,-20.6625,6.3187504,0.5264474,-0.52988833,0.53173,1001.7785, , , , 
2025-09-27 17:56:02.146,0.26081768,-11.507084,-1.8257236,-0.26725334,0.030695954,-2.681849,-41.90625,-23.0625,5.7937503,0.54391736,-0.5137443,0.51734805,1001.7646, , , , 
2025-09-27 17:56:02.166,-2.1415763,-11.224731,-0.86859465,-0.47006044,0.10644319,-2.0935862,-41.381252,-25.29375,9.88125,0.5529515,-0.5037782,0.5071826,1001.7646, , , , 
2025-09-27 17:56:02.186,-3.034099,-10.837093,0.23928227,-0.4896081,0.2328922,-1.4393501,-43.3125,-28.575,6.5625005,0.5575883,-0.49743974,0.49950987,1001.7646, , , , 
2025-09-27 17:56:02.206,-3.9816568,-9.489935,1.0217353,-0.22937973,0.5071705,-0.46807513,-42.7125,-28.275002,9.1125,0.5578275,-0.49355355,0.49664924,1001.7631, , , , 
2025-09-27 17:56:02.226,-3.4504502,-10.037891,-0.35174492,3.054324E-4,0.49434233,0.32849252,-42.318752,-29.98125,8.85,0.5546136,-0.49196568,0.49913892,1001.7758, , , , 
2025-09-27 17:56:02.247,-3.129812,-10.102497,-1.4691931,-0.027183482,0.37949973,0.936303,-41.98125,-29.19375,7.0687504,0.55046254,-0.49336714,0.50346404,1001.7758, , , , 
2025-09-27 17:56:02.266,-1.0049855,-9.853643,-1.3950156,-0.26480988,0.23655738,1.911854,-42.112503,-26.325,5.53125,0.53899616,-0.5026211,0.51317626,1001.7758, , , , 
2025-09-27 17:56:02.286,1.7419748,-10.956735,-0.70348984,-0.3839285,0.17791437,2.4701846,-42.506252,-26.23125,4.03125,0.52524054,-0.51547337,0.52267796,1001.7685, , , , 
2025-09-27 17:56:02.306,3.802195,-12.693924,-0.40438703,-0.34300056,0.027030766,2.8593054,-44.193752,-24.937502,6.7500005,0.5040666,-0.5352169,0.5362288,1001.7602, , , , 
2025-09-27 17:56:02.326,4.194618,-13.947763,-1.119841,-0.30390522,-0.12324197,3.2734716,-46.275,-21.431252,7.8562503,0.48568642,-0.5529413,0.547609,1001.7602, , , , 
2025-09-27 17:56:02.346,5.426922,-14.88575,-1.6031911,-0.39736754,-0.114689864,3.7988153,-46.18125,-19.650002,5.26875,0.46445814,-0.57281893,0.5596446,1001.7602, , , , 
2025-09-27 17:56:02.366,7.408179,-14.763716,-1.3447664,-0.5091558,1.527162E-4,4.2716246,-48.300003,-17.00625,5.9625,0.43914762,-0.5943556,0.5721781,1001.7448, , , , 
2025-09-27 17:56:02.386,8.664411,-13.677374,-1.6271194,-0.6191115,0.36544985,4.464658,-48.843754,-12.468751,6.525,0.40994972,-0.6159073,0.5848682,1001.7448, , , , 
2025-09-27 17:56:02.406,9.186047,-11.909079,-0.89491564,-0.9153809,1.0361794,4.4842057,-50.362503,-7.65,6.2625003,0.375705,-0.6358103,0.59750485,1001.7275, , , , 
2025-09-27 17:56:02.426,9.45165,-10.497313,1.1653047,-0.87567466,0.80893767,4.333322,-51.787502,-3.9375002,5.5875,0.32965553,-0.6580208,0.611277,1001.7275, , , , 
2025-09-27 17:56:02.446,10.229317,-9.305687,2.3569303,-0.34300056,-0.116522454,4.0236135,-51.2625,-1.7812501,8.493751,0.298408,-0.6731868,0.62026113,1001.7094, , , , 
2025-09-27 17:56:02.466,10.150353,-8.848659,1.430908,0.20799945,-0.7035635,3.7383397,-50.062504,2.3625002,3.4875002,0.27498963,-0.6849222,0.628769,1001.715, , , , 
2025-09-27 17:56:02.486,9.923036,-8.472985,0.043070808,0.4981602,-0.81901693,3.6320493,-49.893753,6.1125,4.3500004,0.2607979,-0.6915349,0.635387,1001.715, , , , 
2025-09-27 17:56:02.506,10.597812,-8.458628,-2.6991038,0.4205804,-0.3914116,3.6259406,-47.381252,10.70625,5.9812503,0.2374071,-0.6998619,0.64657366,1001.715, , , , 
2025-09-27 17:56:02.526,12.760923,-8.114061,-3.0364919,-0.1065959,0.27687445,3.4939938,-45.375,12.656251,5.8125,0.21503876,-0.7065949,0.6534521,1001.7177, , , , 
2025-09-27 17:56:02.547,12.959527,-7.4512496,-1.2418749,-0.56352276,0.7845031,3.063945,-45.075,16.931252,4.6125,0.18351956,-0.716009,0.6574827,1001.7004, , , , 
2025-09-27 17:56:02.566,11.983255,-7.1784678,0.5694918,-0.61055934,0.7808379,2.8483098,-42.525,18.675001,4.8562503,0.1644965,-0.7215203,0.6582033,1001.7004, , , , 
2025-09-27 17:56:02.586,13.083954,-7.281359,2.1535404,-0.19211698,0.2780962,2.7762277,-42.9375,20.493752,6.6562505,0.1411727,-0.72746617,0.65929425,1001.7004, , , , 
2025-09-27 17:56:02.606,15.113068,-6.893722,1.1389836,0.3234529,-0.16661337,2.5422666,-40.537502,21.46875,6.6562505,0.12306287,-0.7299374,0.66282254,1001.6911, , , , 
2025-09-27 17:56:02.626,16.266409,-6.6975107,-2.3688943,0.43157595,-0.19104797,1.9869905,-40.36875,24.35625,5.7000003,0.10773713,-0.72921336,0.66905636,1001.6911, , , , 
2025-09-27 17:56:02.646,16.465014,-6.6041903,-3.0867412,0.14263692,-0.11835505,1.618028,-36.99375,25.087502,4.6875,0.10069877,-0.7290522,0.67142856,1001.71063, , , , 
2025-09-27 17:56:02.667,17.154146,-7.133004,-1.9525433,-0.17989968,0.029474225,1.0609194,-37.93125,25.593752,6.3,0.091830626,-0.7307354,0.6719578,1001.69183, , , , 
2025-09-27 17:56:02.687,16.960327,-7.393822,-1.1916257,-0.22937973,0.21639885,0.6333141,-36.881252,26.456251,5.9812503,0.08708293,-0.73261744,0.6707961,1001.69183, , , , 
2025-09-27 17:56:02.706,17.27618,-8.200203,-0.6963114,-0.16157374,0.13209951,0.28145593,-36.825,27.468752,5.625,0.084254645,-0.73402804,0.66947716,1001.69183, , , , 
2025-09-27 17:56:02.726,18.19263,-7.5613194,-0.19621146,0.107817635,-0.38591382,-0.23472479,-35.15625,27.6375,5.11875,0.086892724,-0.7342203,0.6686456,1001.6884, , , , 
2025-09-27 17:56:02.746,19.144974,-7.0372915,-0.5814559,0.2538143,-0.8336777,-1.0105231,-34.66875,27.937502,5.83125,0.097495414,-0.73247415,0.6688201,1001.6965, , , , 
2025-09-27 17:56:02.766,18.11606,-8.539984,-0.6963114,0.20433427,-1.017548,-1.8529056,-35.737503,24.956251,7.2000003,0.11624292,-0.729762,0.6681372,1001.6965, , , , 
2025-09-27 17:56:02.787,16.493727,-10.260424,-0.42592242,0.13164136,-1.0053307,-2.4313946,-38.8125,27.13125,6.76875,0.13399234,-0.7273058,0.6666091,1001.6965, , , , 
2025-09-27 17:56:02.806,14.4693985,-12.459428,-0.18903299,0.027183482,-0.868497,-2.9408557,-36.43125,24.393751,6.525,0.16714017,-0.7222152,0.66234773,1001.7138, , , , 
2025-09-27 17:56:02.826,13.564912,-13.418949,-0.28235307,-0.03940078,-0.66263556,-3.1906996,-39.881252,22.5375,6.99375,0.19450158,-0.7171998,0.65765667,1001.7304, , , , 
2025-09-27 17:56:02.846,13.177275,-13.229917,-0.16271193,-0.14630212,-0.41645706,-3.4387105,-40.93125,19.44375,6.0375004,0.22144185,-0.7113263,0.65188885,1001.7304, , , , 
2025-09-27 17:56:02.866,12.634104,-12.629318,0.3469593,-0.18967351,-0.24541493,-3.7899578,-44.5875,17.4375,8.08125,0.2549383,-0.7023788,0.64298135,1001.7304, , , , 
2025-09-27 17:56:02.886,11.085947,-11.79183,0.9619147,-0.094378605,-0.16355905,-4.061793,-44.662502,14.83125,7.4625,0.2824868,-0.6930056,0.63494796,1001.7414, , , , 
2025-09-27 17:56:02.906,10.183853,-11.71526,0.23928227,0.010690134,0.13698642,-4.3030844,-43.8375,12.543751,8.90625,0.3103039,-0.68094176,0.6267917,1001.75555,37.88834882,127.73985159,143.346435546875,1.31
2025-09-27 17:56:02.926,8.260024,-11.71526,-0.47856453,0.0021380268,0.3697259,-4.4472485,-47.98125,5.25,11.606251,0.33690307,-0.66651785,0.61829907,1001.75555, , , , 
2025-09-27 17:56:02.946,7.4823565,-11.748759,-0.72741807,-0.046731155,0.36361727,-4.4997826,-50.04375,2.7,7.0312505,0.36238453,-0.6507153,0.60879403,1001.75555, , , , 
2025-09-27 17:56:02.966,6.6281185,-12.138789,-0.34456646,-0.033902995,0.19440772,-4.4997826,-50.643753,-1.81875,6.43125,0.3874882,-0.6341928,0.59770656,1001.75946, , , , 
2025-09-27 17:56:02.986,5.8432727,-12.205789,0.08135597,0.07238748,-0.058490302,-4.435642,-49.4625,-5.4375,5.8875003,0.41290066,-0.61706436,0.5853369,1001.75946, , , , 
2025-09-27 17:56:03.006,4.3094735,-11.810972,-0.047856454,0.25809038,-0.35537058,-4.146703,-50.193752,-10.481251,5.3250003,0.44505075,-0.5951896,0.56906676,1001.75653, , , , 
2025-09-27 17:56:03.026,3.4360933,-11.236695,-0.13160525,0.33750278,-0.46166107,-3.8406596,-46.66875,-15.4875,6.4687505,0.4637429,-0.58237815,0.5592895,1001.75653, , , , 
2025-09-27 17:56:03.048,2.4741786,-10.468599,-0.6652047,0.3167334,-0.42012227,-3.337307,-46.068752,-15.4125,5.625,0.49214828,-0.56213,0.54387915,1001.75726, , , , 
2025-09-27 17:56:03.066,2.2085752,-10.310673,-1.0624132,0.18906265,-0.29672757,-3.0111053,-45.9,-19.40625,9.8625,0.51133996,-0.5475698,0.5324844,1001.75726, , , , 
2025-09-27 17:56:03.086,1.6677973,-10.267602,-0.9020941,0.024129158,-0.10308343,-2.6378667,-45.16875,-23.0625,8.606251,0.52667654,-0.5346393,0.52208924,1001.75385, , , , 
2025-09-27 17:56:03.106,0.80159557,-10.174282,-0.8063812,-0.09376775,-0.03405571,-2.1772747,-42.73125,-24.16875,7.6312504,0.53838617,-0.52349645,0.5130323,1001.747, , , , 
2025-09-27 17:56:03.126,0.65324056,-11.076376,-1.012164,-0.21166465,-0.03405571,-1.7240131,-42.956253,-25.087502,9.88125,0.5472238,-0.51485497,0.5051,1001.747, , , , 
2025-09-27 17:56:03.146,0.25842485,-11.109876,-0.21774685,-0.3338376,0.03008509,-1.1742349,-41.775,-27.431252,7.5750003,0.5529444,-0.5092334,0.49847674,1001.73627, , , , 
2025-09-27 17:56:03.166,-0.55513483,-10.561919,0.19381863,-0.26908594,0.17608178,-0.6659953,-40.96875,-27.618752,9.65625,0.555593,-0.50555795,0.49343437,1001.73627, , , , 
2025-09-27 17:56:03.187,-1.672583,-10.875379,-0.8877372,-0.23548837,0.30558512,-0.15286891,-41.79375,-29.550001,8.625,0.5549268,-0.5046651,0.49292985,1001.73627, , , , 
2025-09-27 17:56:03.206,-2.9575288,-10.327422,-1.5433706,-0.38148504,0.18585561,0.8251256,-41.23125,-28.987501,7.9125004,0.5492636,-0.5080611,0.49566033,1001.73944, , , , 
2025-09-27 17:56:03.226,-0.971486,-9.793823,-0.31585258,-0.4828886,0.081397735,1.7560835,-42.9375,-28.781252,7.6125,0.53963256,-0.5176821,0.50051224,1001.73944, , , , 
2025-09-27 17:56:03.246,2.428715,-10.116854,0.5479564,-0.34727663,0.30558512,2.4145958,-42.43125,-26.362501,6.3375,0.5255053,-0.5310092,0.50881505,1001.7409, , , , 
2025-09-27 17:56:03.266,3.9433718,-11.054841,-0.033499517,-0.15851942,0.42226028,2.7273586,-43.893753,-24.900002,6.7125,0.50809616,-0.5445751,0.5208255,1001.7409, , , , 
2025-09-27 17:56:03.286,4.0271206,-12.107682,-0.9834501,-0.027794348,0.16752967,3.0590582,-46.0875,-23.493752,5.64375,0.4894425,-0.5584456,0.5344802,1001.7431, , , , 
2025-09-27 17:56:03.306,4.666004,-12.890136,-1.672583,-3.054324E-4,-0.12935062,3.5917323,-47.1375,-20.625,7.1250005,0.46513516,-0.5787018,0.5515369,1001.7321, , , , 
2025-09-27 17:56:03.326,6.084948,-12.586247,-1.7515461,-0.08155045,-0.10002911,4.0278897,-47.475002,-16.556252,6.0,0.4428343,-0.5971926,0.56532395,1001.7321, , , , 
2025-09-27 17:56:03.346,7.587641,-11.748759,-1.430908,-0.16157374,0.028252495,4.2532988,-48.093754,-13.875001,5.7562504,0.41725856,-0.61615646,0.5790634,1001.7321, , , , 
2025-09-27 17:56:03.366,8.449057,-11.042876,-1.2418749,-0.25686863,0.25671592,4.2587967,-49.275,-9.637501,5.34375,0.38927093,-0.63414603,0.59214276,1001.7226, , , , 
2025-09-27 17:56:03.386,8.846265,-10.614561,-0.7322037,-0.318566,0.33735007,4.193434,-51.7125,-5.55,7.36875,0.35968715,-0.65057397,0.6040951,1001.7226, , , , 
2025-09-27 17:56:03.406,9.487542,-10.085748,0.21774685,-0.22021675,0.10216714,4.062098,-50.925003,-4.4812503,8.45625,0.33046678,-0.6655626,0.614479,1001.72406, , , , 
2025-09-27 17:56:03.426,9.552148,-10.080962,0.06699903,0.018631376,-0.11530073,3.9570293,-47.175003,1.5187501,5.71875,0.3035647,-0.6785021,0.62383825,1001.72406, , , , 
2025-09-27 17:56:03.446,9.899107,-10.013963,-1.0025927,0.13164136,-0.1904371,3.8660104,-47.456253,5.9625,6.1125,0.2785535,-0.6892338,0.63281786,1001.71185, , , , 
2025-09-27 17:56:03.466,10.468599,-9.700503,-1.7228323,0.022296565,-0.029779658,3.7737699,-46.875,7.1625004,3.35625,0.24805978,-0.70081294,0.6424457,1001.7065, , , , 
2025-09-27 17:56:03.487,11.408978,-9.080762,-1.7563318,-0.10598504,0.27320927,3.6729772,-45.525,11.887501,5.86875,0.22253269,-0.70921606,0.64845943,1001.7065, , , , 
2025-09-27 17:56:03.506,11.971292,-8.16431,-1.8568304,-0.37476555,0.8535308,3.448179,-45.61875,15.000001,4.93125,0.19511363,-0.7168274,0.6530205,1001.7065, , , , 
2025-09-27 17:56:03.526,11.696117,-7.348358,-0.89730847,-0.69058263,1.3776528,3.1958919,-43.256252,16.59375,5.68125,0.16541176,-0.7242072,0.6554985,1001.68646, , , , 
2025-09-27 17:56:03.546,11.471191,-7.5062847,0.95712906,-0.79320794,1.3471096,2.9808674,-44.9625,18.4125,6.525,0.14241502,-0.72962856,0.6559632,1001.68646, , , , 
2025-09-27 17:56:03.566,13.268202,-8.4012,2.9982069,-0.06811142,0.30497423,2.7499604,-42.16875,20.456251,4.7250004,0.109323904,-0.7364,0.65681696,1001.6796, , , , 
2025-09-27 17:56:03.587,15.436099,-8.551949,0.18185452,0.6673698,-0.31199917,2.563036,-38.34375,23.34375,3.2250001,0.09148657,-0.7367811,0.6615935,1001.6796, , , , 
2025-09-27 17:56:03.606,17.481962,-7.7312098,-3.5126636,0.74556047,-0.37919432,2.3382378,-37.425003,25.9125,5.775,0.0789234,-0.7340218,0.66869444,1001.6999, , , , 
2025-09-27 17:56:03.626,20.434706,-7.3363943,-4.1180477,0.12614357,-0.2215912,1.740201,-37.65,27.525002,3.075,0.06653095,-0.7322851,0.6739342,1001.7011, , , , 
2025-09-27 17:56:03.647,21.272194,-7.015756,-2.160719,-0.26847506,-0.04382955,1.0083851,-33.1875,28.706251,4.8562503,0.061822485,-0.73338634,0.6737437,1001.7011, , , , 
2025-09-27 17:56:03.666,20.42992,-7.353144,-0.050249275,-0.3265072,0.45585784,0.10491603,-34.893753,30.281252,3.8625002,0.05876664,-0.7361432,0.6709265,1001.7011, , , , 
2025-09-27 17:56:03.686,18.967905,-8.939586,0.02871387,-0.04978548,0.5584831,-0.6696605,-32.850002,29.5125,3.54375,0.0594398,-0.7367317,0.6692472,1001.7172, , , , 
2025-09-27 17:56:03.706,17.532211,-8.590233,-0.8925229,0.18173227,0.10033454,-1.2829688,-34.425003,29.831251,5.08125,0.065534,-0.73522115,0.6689044,1001.7172, , , , 
2025-09-27 17:56:03.726,16.091732,-9.131011,-1.9118652,0.025961753,-0.3584249,-2.0392194,-37.6875,27.50625,5.25,0.08340706,-0.7324761,0.66774344,1001.7414, , , , 
2025-09-27 17:56:03.746,14.414364,-10.049855,-1.2251252,-0.11942407,-0.5557342,-2.4930918,-38.325,26.437502,4.74375,0.09897174,-0.7314371,0.665097,1001.7414, , , , 
2025-09-27 17:56:03.766,12.203396,-11.844472,0.61016977,-0.1640172,-0.8287908,-2.935358,-39.28125,24.73125,5.5687504,0.12999864,-0.729542,0.6584637,1001.76385, , , , 
2025-09-27 17:56:03.786,11.88515,-13.406985,1.8879371,0.027794348,-1.0096067,-3.1803148,-38.60625,23.550001,4.6312504,0.15794568,-0.72647256,0.6527218,1001.76385, , , , 
2025-09-27 17:56:03.806,11.313266,-13.993227,2.07697,0.29596397,-1.0743585,-3.4045022,-43.10625,20.962502,5.86875,0.18828207,-0.7208158,0.6476599,1001.79266, , , , 
2025-09-27 17:56:03.826,9.997213,-12.844672,1.5840486,0.50121456,-0.87460566,-3.5840964,-42.787502,17.5125,6.0375004,0.21957251,-0.7124551,0.6432976,1001.8007, , , , 
2025-09-27 17:56:03.846,9.241081,-11.619547,1.1629118,0.584903,-0.67668545,-3.6842782,-44.4375,14.475,6.6937504,0.25021997,-0.7017908,0.6392849,1001.8007, , , , 
2025-09-27 17:56:03.866,8.941978,-10.906486,0.74177504,0.5891791,-0.39752024,-3.8150032,-44.4,11.75625,6.6937504,0.27983767,-0.68931264,0.6350886,1001.80804, , , , 
2025-09-27 17:56:03.888,8.822337,-10.755738,0.15314065,0.521984,-0.20143266,-3.9976518,-47.475002,6.9375005,9.450001,0.30830663,-0.67523146,0.63021934,1001.80804, , , , 
2025-09-27 17:56:03.906,7.874779,-11.057234,-0.23928227,0.37659815,-0.12140937,-4.185798,-50.60625,2.1375,8.3625,0.3431575,-0.6560417,0.62193406,1001.80023,37.8883341,127.73986209,143.80029296875,1.83
2025-09-27 17:56:03.926,7.2693954,-11.102697,0.05742774,0.31184646,-0.22769985,-4.267654,-48.206253,-0.58125,6.24375,0.37079808,-0.64004076,0.6131021,1001.80023, , , , 
2025-09-27 17:56:03.946,6.2285175,-11.162518,0.0526421,0.2922988,-0.26801693,-4.267654,-47.775,-3.6375,5.30625,0.39156598,-0.6275946,0.6054306,1001.80023, , , , 
2025-09-27 17:56:03.966,4.725825,-10.908878,-0.19621146,0.23609924,-0.18066326,-4.0520186,-48.768753,-7.1062503,5.1375003,0.4243698,-0.6063132,0.59171873,1001.7946, , , , 
2025-09-27 17:56:03.987,3.493521,-10.442278,-0.14356937,0.15851942,-0.13301581,-3.744143,-48.375004,-12.918751,7.425,0.45324016,-0.5854693,0.5776718,1001.7836, , , , 
2025-09-27 17:56:04.006,2.7828526,-10.037891,-0.1794617,0.113926284,-0.1556178,-3.4448192,-48.468754,-12.806251,6.20625,0.46864367,-0.5736705,0.5692485,1001.7836, , , , 
2025-09-27 17:56:04.026,2.6416762,-9.982856,-0.0071784677,0.060781047,-0.22708899,-3.0856307,-47.4,-17.550001,7.74375,0.49121997,-0.55589837,0.555504,1001.76996, , , , 
2025-09-27 17:56:04.046,2.254039,-9.925428,0.49292147,0.11270455,-0.3999637,-2.749655,-44.9625,-18.431252,8.625,0.5035317,-0.54654944,0.5473791,1001.76996, , , , 
2025-09-27 17:56:04.066,1.1676974,-9.906285,-0.038285162,0.19089524,-0.35292712,-2.2927282,-44.11875,-21.581251,7.7812505,0.5222826,-0.5327041,0.5350958,1001.76605, , , , 
2025-09-27 17:56:04.086,0.10767702,-10.150353,-1.1533405,0.07238748,-0.06093376,-1.7771584,-44.8875,-23.04375,9.95625,0.5335327,-0.52333647,0.5278348,1001.76605, , , , 
2025-09-27 17:56:04.106,-0.6652047,-10.226924,-1.4237294,-0.1707367,0.21639885,-1.0716095,-42.862503,-24.056252,8.1,0.53980863,-0.5167156,0.5230722,1001.7502, , , , 
2025-09-27 17:56:04.126,-0.3062813,-10.57149,-1.1892328,-0.36743516,0.43020153,-0.4723512,-44.175003,-25.331251,9.8625,0.5407815,-0.5135361,0.5209698,1001.7502, , , , 
2025-09-27 17:56:04.146,-0.4881358,-10.631311,-0.83748794,-0.45601055,0.5554288,0.049327333,-42.037502,-25.837502,6.8812504,0.5372236,-0.51337624,0.52135265,1001.7502, , , , 
2025-09-27 17:56:04.166,-0.99302137,-10.997413,-0.9667004,-0.5317578,0.5083922,0.7157808,-41.625,-24.54375,6.9187503,0.5280536,-0.51729155,0.52486193,1001.7536, , , , 
2025-09-27 17:56:04.186,-0.94277215,-10.41835,-0.11724831,-0.59589857,0.3856084,1.3584106,-43.4625,-23.493752,7.05,0.5201124,-0.52261376,0.52830094,1001.7536, , , , 
2025-09-27 17:56:04.206,1.0815558,-10.420743,1.2394822,-0.40897396,0.16569707,2.101222,-44.34375,-25.06875,5.55,0.50315547,-0.53630924,0.5366953,1001.75214, , , , 
2025-09-27 17:56:04.226,3.1274192,-11.306087,0.66759753,-0.11331542,-0.005345067,2.571588,-44.4375,-22.59375,6.3375,0.48795998,-0.5494692,0.54627067,1001.7531, , , , 
2025-09-27 17:56:04.247,4.338187,-11.777473,-0.2943172,0.050396346,-0.0810923,2.9081745,-47.0625,-19.612501,5.83125,0.4761713,-0.5599502,0.55459857,1001.7531, , , , 
2025-09-27 17:56:04.266,5.76431,-12.014362,-0.9068798,0.041844238,0.12110394,3.2252133,-45.75,-18.35625,4.5375004,0.45429447,-0.5779631,0.569881,1001.7404, , , , 
2025-09-27 17:56:04.286,6.431907,-11.7463665,-1.2610176,-0.003970621,0.33551747,3.4176357,-48.093754,-14.625001,5.025,0.433545,-0.5922127,0.58313835,1001.7404, , , , 
2025-09-27 17:56:04.307,6.4558353,-11.19841,-1.6606189,-0.09376775,0.5059488,3.5587454,-48.093754,-11.75625,4.875,0.41006634,-0.6060814,0.59659016,1001.7404, , , , 
2025-09-27 17:56:04.326,6.8817577,-10.492527,-1.2179468,-0.309403,0.6030763,3.7065747,-49.36875,-8.75625,3.1312501,0.37709785,-0.62353665,0.61229724,1001.72577, , , , 
2025-09-27 17:56:04.346,7.5756764,-10.085748,-0.40677986,-0.32284203,0.38927358,3.6992445,-52.18125,-5.71875,6.80625,0.3565149,-0.6340078,0.62059784,1001.72577, , , , 
2025-09-27 17:56:04.366,8.350951,-9.812965,-0.25842485,-0.19883649,-0.06826414,3.569741,-51.206253,-2.90625,8.85,0.3249405,-0.65066975,0.63211566,1001.7216, , , , 
2025-09-27 17:56:04.386,8.185846,-9.755538,-0.782453,-0.21838416,-0.0810923,3.4994917,-48.99375,1.44375,7.6125,0.30227783,-0.6628907,0.63952565,1001.7216, , , , 
2025-09-27 17:56:04.406,8.212168,-9.456435,-0.70588267,-0.3594939,0.0923933,3.5324783,-48.80625,5.08125,5.9812503,0.27902794,-0.674539,0.64570624,1001.7177, , , , 
2025-09-27 17:56:04.426,9.073584,-9.138189,-0.4354937,-0.46944958,0.33063057,3.5178175,-47.325,7.9875,4.89375,0.25404656,-0.68571746,0.6508377,1001.71063, , , , 
2025-09-27 17:56:04.447,9.973285,-8.997013,-0.11006984,-0.5702423,0.50961393,3.443903,-47.775,11.025001,6.9375005,0.22755341,-0.6961032,0.6549285,1001.71063, , , , 
2025-09-27 17:56:04.466,10.968699,-8.618947,0.6867401,-0.52564913,0.56337005,3.2710283,-44.9625,11.606251,2.90625,0.1939671,-0.7075265,0.6587385,1001.71063, , , , 
2025-09-27 17:56:04.486,11.638689,-8.0614195,1.1150553,-0.32956156,0.32207847,3.0608907,-45.037502,16.425001,4.4812503,0.17528139,-0.7130295,0.66078657,1001.7165, , , , 
2025-09-27 17:56:04.506,12.189038,-7.585248,0.6364908,-0.028405212,-0.0151189035,2.82021,-42.80625,18.65625,3.80625,0.1493331,-0.7194232,0.66461694,1001.7165, , , , 
2025-09-27 17:56:04.526,13.3352,-7.0301127,0.09332009,0.1933387,-0.039553493,2.6705482,-43.068752,21.0,3.7125,0.13192111,-0.72220725,0.6684158,1001.72064, , , , 
2025-09-27 17:56:04.546,15.550955,-6.472585,-0.5455636,0.3527744,0.056352276,2.3034184,-40.74375,22.35,3.6937501,0.116234384,-0.72312635,0.6728055,1001.7231, , , , 
2025-09-27 17:56:04.566,16.639688,-6.3122663,-1.2394822,0.38820457,0.08811724,1.8263329,-38.79375,24.16875,4.6312504,0.10333372,-0.72260433,0.67713296,1001.7231, , , , 
2025-09-27 17:56:04.586,17.548962,-7.0731835,-2.5148566,0.34177884,0.12843432,1.3388629,-37.65,26.156252,3.91875,0.09376803,-0.7213588,0.6808852,1001.7038, , , , 
2025-09-27 17:56:04.606,18.273987,-7.4249287,-2.969493,0.083993904,0.2206749,0.75793046,-37.66875,26.775002,4.05,0.08642389,-0.7204806,0.6833429,1001.7038, , , , 
2025-09-27 17:56:04.626,18.142382,-7.393822,-2.8139594,-0.20005822,0.45952302,0.18371758,-36.61875,28.368752,4.1625004,0.08349272,-0.7209739,0.68296134,1001.6943, , , , 
2025-09-27 17:56:04.647,17.20918,-8.056634,-1.6199409,-0.3912589,0.5865829,-0.35139996,-38.1375,27.337502,4.36875,0.08277297,-0.7225131,0.6805007,1001.6943, , , , 
2025-09-27 17:56:04.666,16.015162,-7.8987074,-0.44745782,-0.3008509,0.43692103,-0.7619011,-38.456253,26.550001,5.0625,0.0851334,-0.72383475,0.67737204,1001.71674, , , , 
2025-09-27 17:56:04.686,15.716059,-7.5230346,-0.3278167,-0.15974113,0.19868377,-1.1803435,-38.34375,25.687502,5.1000004,0.09135567,-0.7238611,0.67478335,1001.71674, , , , 
2025-09-27 17:56:04.706,15.620346,-8.664411,-0.17706887,-0.08888082,-0.2112065,-1.8553491,-36.825,24.993752,2.3625002,0.10301162,-0.7229442,0.67196983,1001.74457, , , , 
2025-09-27 17:56:04.726,14.857036,-10.597812,0.20817557,-0.047952887,-0.64064443,-2.4594944,-38.53125,25.312502,3.45,0.12134657,-0.7212135,0.6682262,1001.74457, , , , 
2025-09-27 17:56:04.746,13.457234,-12.531212,0.9284152,-0.010690134,-0.93813556,-2.8791585,-39.46875,22.85625,2.90625,0.14571473,-0.71859086,0.6633,1001.74457, , , , 
2025-09-27 17:56:04.766,12.306287,-13.663017,1.8783658,0.109039366,-1.1336123,-3.161378,-43.0125,19.987501,6.0750003,0.18092367,-0.7135885,0.6560712,1001.7734, , , , 
2025-09-27 17:56:04.786,10.9352,-13.47877,2.37368,0.27214026,-1.1476622,-3.3220353,-42.300003,16.2,5.2875004,0.21113016,-0.7075209,0.6501876,1001.7734, , , , 
2025-09-27 17:56:04.806,9.686146,-12.320643,2.2612174,0.44929105,-1.0114393,-3.3849545,-46.10625,14.08125,5.49375,0.2414358,-0.699245,0.6447972,1001.79584, , , , 
2025-09-27 17:56:04.826,9.49472,-10.928021,1.4189439,0.5250383,-0.7383828,-3.4442084,-47.90625,11.887501,7.51875,0.2707318,-0.6889546,0.63991773,1001.8007, , , , 
2025-09-27 17:56:04.846,9.317652,-10.315458,0.94755775,0.4816669,-0.39385507,-3.6189156,-43.03125,7.7625003,8.325001,0.29854247,-0.6770444,0.6348336,1001.8007, , , , 
2025-09-27 17:56:04.866,8.535198,-10.212567,0.2943172,0.41813695,-0.1348484,-3.780184,-48.05625,4.6312504,8.71875,0.32497877,-0.66355205,0.62913215,1001.8007, , , , 
2025-09-27 17:56:04.886,7.877172,-10.260424,0.15792629,0.2922988,-0.002290743,-3.8895288,-51.037502,2.8500001,7.425,0.35018212,-0.64897764,0.62236845,1001.7985, , , , 
2025-09-27 17:56:04.906,7.338787,-10.226924,0.54317075,0.2452622,0.04046979,-4.0117016,-50.98125,0.13125001,6.3375,0.3805986,-0.6296953,0.61198264,1001.7983,37.88831945,127.73987433,144.0130615234375,1.71
2025-09-27 17:56:04.926,6.2285175,-10.207782,0.67477596,0.29107708,0.06856957,-4.0343037,-50.643753,-4.6875,6.58125,0.4043878,-0.6129029,0.6027305,1001.7983, , , , 
2025-09-27 17:56:04.948,5.5369916,-10.24846,0.24885355,0.3423897,0.028863361,-3.974439,-49.66875,-7.8187504,6.5062504,0.42182785,-0.59968346,0.5955117,1001.7983, , , , 
2025-09-27 17:56:04.966,4.125226,-10.262816,-0.5982057,0.27214026,0.100945406,-3.7563603,-48.2625,-11.887501,4.5750003,0.4494265,-0.5773257,0.58295476,1001.7856, , , , 
2025-09-27 17:56:04.986,3.17049,-9.987641,-0.7896315,0.15057817,0.117438756,-3.458869,-48.506252,-14.418751,6.3,0.46862328,-0.560318,0.57272893,1001.7856, , , , 
2025-09-27 17:56:05.006,2.7613173,-9.619147,-0.40917268,0.051007207,-0.06459895,-3.0642505,-44.737503,-17.53125,6.6937504,0.4851058,-0.5452227,0.5624015,1001.77264, , , , 
2025-09-27 17:56:05.026,2.440679,-9.18126,-0.15074782,0.1065959,-0.44272426,-2.7417138,-44.1375,-20.212502,7.70625,0.50473297,-0.5295437,0.5485834,1001.7609, , , , 
2025-09-27 17:56:05.049,1.430908,-9.066405,-1.2299109,0.017409647,-0.47387835,-2.4570508,-44.550003,-22.237501,8.175,0.516223,-0.5215282,0.5400533,1001.7609, , , , 
2025-09-27 17:56:05.066,0.7393822,-9.722038,-1.5266209,-0.2855793,-0.2075413,-1.8950553,-42.412502,-24.112501,6.20625,0.53115743,-0.51132655,0.52678007,1001.7458, , , , 
2025-09-27 17:56:05.086,0.53599226,-10.576276,-0.715454,-0.47006044,0.0594066,-1.2945752,-44.006252,-25.425001,7.8375,0.53706956,-0.5064204,0.51877534,1001.7458, , , , 
2025-09-27 17:56:05.106,0.44027936,-10.597812,0.5288138,-0.43585202,0.04780017,-0.5707004,-43.050003,-27.075,8.606251,0.53836405,-0.5045059,0.5139095,1001.73285, , , , 
2025-09-27 17:56:05.126,0.37567315,-10.9017,0.6197411,-0.21899502,-0.082924895,0.07437278,-42.675003,-26.8875,6.0937505,0.5373334,-0.5056515,0.5119204,1001.73285, , , , 
2025-09-27 17:56:05.146,-0.24885355,-10.652846,-0.62931234,-0.1432478,-0.084757484,0.8025236,-43.893753,-27.88125,5.9625,0.5342777,-0.5096528,0.5133085,1001.73285, , , , 
2025-09-27 17:56:05.167,0.3804588,-9.394221,-0.4235296,-0.25442517,-0.06520981,1.6980513,-42.693752,-27.112501,4.40625,0.5252186,-0.52027726,0.5191458,1001.7287, , , , 
2025-09-27 17:56:05.186,2.012364,-9.312865,0.49292147,-0.1621846,0.08811724,2.2301147,-43.0875,-25.425001,4.65,0.5164991,-0.52926934,0.5248466,1001.7287, , , , 
2025-09-27 17:56:05.206,4.1228333,-10.025927,-0.2416751,0.059559315,0.28359398,2.698037,-44.60625,-22.725,5.4375,0.4977224,-0.54492813,0.53911024,1001.72064, , , , 
2025-09-27 17:56:05.226,5.218746,-10.480563,-1.1270195,0.18417573,0.2591594,2.9210026,-43.443752,-21.35625,4.6125,0.48055798,-0.55741036,0.552984,1001.7067, , , , 
2025-09-27 17:56:05.246,6.0083776,-10.832308,-2.210968,0.19639303,0.06918044,3.1097598,-46.350002,-19.78125,5.1375003,0.46300328,-0.5703422,0.56680197,1001.7067, , , , 
2025-09-27 17:56:05.266,6.202196,-10.703095,-2.9838498,-0.024129158,0.13148865,3.2862997,-46.55625,-15.825001,3.8625002,0.44452542,-0.5842527,0.5796218,1001.6828, , , , 
2025-09-27 17:56:05.286,6.1830535,-10.207782,-2.3976083,-0.34727663,0.30130905,3.4585636,-47.7,-12.825001,3.80625,0.42319283,-0.5994375,0.59111726,1001.6828, , , , 
2025-09-27 17:56:05.306,6.513263,-9.798609,-0.70348984,-0.4896081,0.25671592,3.5868452,-48.750004,-8.56875,3.2062502,0.398713,-0.6155027,0.6013761,1001.68134, , , , 
2025-09-27 17:56:05.326,7.0540414,-9.485149,0.4977071,-0.30879214,-0.045051277,3.6271625,-49.068752,-7.1250005,4.8562503,0.36803696,-0.63531613,0.61261785,1001.68134, , , , 
2025-09-27 17:56:05.346,7.099505,-9.367901,0.27756742,-0.11270455,-0.09086613,3.701077,-51.2625,-4.7625003,7.1250005,0.34461904,-0.6494691,0.621435,1001.69257, , , , 
2025-09-27 17:56:05.366,7.726424,-9.583255,-0.3589234,-0.010079269,-0.1226311,3.8507388,-48.187504,-0.975,9.056251,0.32076558,-0.66220397,0.63051593,1001.69257, , , , 
2025-09-27 17:56:05.386,9.109476,-9.60479,-0.6436693,0.014966187,-0.1226311,3.9167123,-47.71875,4.6875,6.20625,0.29626864,-0.6740375,0.63916403,1001.69257, , , , 
2025-09-27 17:56:05.406,10.794023,-9.403793,-0.5766702,-0.040622506,-0.026725333,3.7853763,-47.4375,6.61875,3.7500002,0.27136275,-0.6847255,0.64683396,1001.69135, , , , 
2025-09-27 17:56:05.426,11.976077,-8.719446,-0.0526421,-0.02535089,-0.051159926,3.5056002,-45.54375,9.4125,3.3937502,0.24732386,-0.6940247,0.65307623,1001.6911, , , , 
2025-09-27 17:56:05.446,12.500106,-7.9968133,-0.1052842,0.0650571,0.05818487,3.2068875,-46.706253,10.40625,5.925,0.225434,-0.7012981,0.6584149,1001.6911, , , , 
2025-09-27 17:56:05.466,12.253645,-7.2861447,-1.2299109,0.013744458,0.36544985,2.8122687,-44.8875,14.325001,5.83125,0.20474589,-0.7065018,0.66335046,1001.6911, , , , 
2025-09-27 17:56:05.486,11.497513,-7.0061846,-1.457229,-0.13225223,0.49434233,2.6467245,-43.275,16.368752,3.99375,0.18436217,-0.7110546,0.6670602,1001.6945, , , , 
2025-09-27 17:56:05.506,12.80878,-6.6711893,-0.30867413,-0.0754418,0.15958843,2.4988952,-41.8125,20.00625,3.9375002,0.16025984,-0.7166749,0.66997266,1001.71136, , , , 
2025-09-27 17:56:05.526,14.14876,-6.4008007,-0.23449662,0.21044292,-0.06582068,2.165974,-41.11875,20.79375,7.0687504,0.14538248,-0.7193529,0.67250615,1001.71136, , , , 
2025-09-27 17:56:05.546,14.66561,-6.474978,-1.9860427,0.31367907,0.14981459,1.839772,-39.693752,23.19375,3.99375,0.13349237,-0.719855,0.67594224,1001.71136, , , , 
2025-09-27 17:56:05.566,15.838093,-7.3052874,-3.9816568,0.021074835,0.5554288,1.4549272,-39.862503,24.0375,6.6000004,0.121874005,-0.7201066,0.67868185,1001.71405, , , , 
2025-09-27 17:56:05.586,16.481762,-7.6402826,-4.0414777,-0.3601048,0.69653857,1.0957386,-37.143753,26.456251,3.8625002,0.11082362,-0.7221118,0.67864746,1001.71405, , , , 
2025-09-27 17:56:05.606,17.357536,-7.7072816,-2.5172493,-0.78771013,0.6861539,0.5422952,-36.225002,25.9125,4.1062503,0.10206444,-0.7262139,0.6753872,1001.7143, , , , 
2025-09-27 17:56:05.626,17.855242,-9.305687,-0.2943172,-0.89094627,0.7002038,-0.04535671,-36.46875,27.750002,6.0375004,0.09686173,-0.73134947,0.6698457,1001.7143, , , , 
2025-09-27 17:56:05.646,17.027327,-8.843872,1.8975084,-0.5647445,0.61346096,-0.5517636,-37.0125,25.81875,6.6562505,0.09561167,-0.73528343,0.6643898,1001.7343, , , , 
2025-09-27 17:56:05.666,16.424335,-7.647461,1.8640088,-0.030237807,0.18524474,-1.1485785,-38.831253,26.156252,4.51875,0.101065315,-0.7355171,0.66117704,1001.7614, , , , 
2025-09-27 17:56:05.686,15.68256,-8.437093,1.39023,0.2696968,-0.30711228,-1.8498513,-39.80625,23.550001,5.68125,0.11369486,-0.73255354,0.660435,1001.7614, , , , 
2025-09-27 17:56:05.706,13.433307,-10.253245,0.8111669,0.5207622,-0.90514886,-2.502255,-39.5625,24.075,5.7937503,0.13437457,-0.72750956,0.65994596,1001.7707, , , , 
2025-09-27 17:56:05.726,11.73201,-11.389835,0.25842485,0.5885682,-1.234405,-2.7624834,-42.225002,20.94375,5.175,0.16106553,-0.7210182,0.6590098,1001.7707, , , , 
2025-09-27 17:56:05.746,11.248659,-12.241681,-0.10049855,0.49327332,-1.1488839,-2.8870997,-43.21875,18.337502,6.3375,0.1899178,-0.71390575,0.6570069,1001.7734, , , , 
2025-09-27 17:56:05.766,10.79163,-12.358929,-0.09332009,0.3827068,-0.936303,-2.9683447,-45.393753,16.368752,7.7625003,0.22487116,-0.70455337,0.6527959,1001.7734, , , , 
2025-09-27 17:56:05.787,10.581061,-11.521441,0.2656033,0.28741187,-0.732885,-3.0355399,-45.206253,15.88125,8.08125,0.24464786,-0.698636,0.64953893,1001.7734, , , , 
2025-09-27 17:56:05.806,10.602597,-10.447063,0.0023928226,0.21410811,-0.42867437,-3.2536185,-46.143753,12.562501,6.9750004,0.27647644,-0.68768233,0.64318585,1001.7836, , , , 
2025-09-27 17:56:05.826,10.100104,-10.164711,-0.04546363,0.032681264,-0.019394957,-3.5657704,-44.25,9.75,9.262501,0.30065244,-0.67760515,0.63701457,1001.7795, , , , 
2025-09-27 17:56:05.846,9.372686,-10.420743,0.23449662,0.017409647,0.15958843,-3.7930121,-46.125,7.2937503,12.525001,0.32397148,-0.66613156,0.629707,1001.7795, , , , 
2025-09-27 17:56:05.866,8.5016985,-10.547563,0.13878371,0.08032872,0.18096869,-3.9805477,-49.3875,3.8812501,9.056251,0.34723464,-0.6527879,0.6217677,1001.779, , , , 
2025-09-27 17:56:05.886,7.6977105,-10.683953,-0.021535404,0.12492185,0.1357647,-4.108829,-49.575,0.52500004,5.55,0.3709511,-0.63786525,0.6129404,1001.779, , , , 
2025-09-27 17:56:05.906,6.8171515,-10.84188,0.47138608,0.21655156,-0.25641048,-4.1943502,-49.706253,-3.7125,6.1312504,0.40179586,-0.61771554,0.60003495,1001.78046,37.88830779,127.73988444,144.19140625,1.31
2025-09-27 17:56:05.927,5.8097734,-10.813166,0.9499506,0.4346303,-0.9308052,-4.20107,-48.768753,-8.587501,4.7625003,0.42970315,-0.60117793,0.5873873,1001.78046, , , , 
2025-09-27 17:56:05.946,4.761717,-10.686346,-0.3900301,0.48349947,-0.9778418,-4.036136,-48.825,-10.856251,7.51875,0.45966187,-0.58453435,0.57323897,1001.78046, , , , 
2025-09-27 17:56:05.966,3.5030923,-10.346565,-1.3471591,0.20677772,-0.27962336,-3.6341872,-47.193752,-14.306251,8.625,0.48568165,-0.5679469,0.55971223,1001.778, , , , 
2025-09-27 17:56:05.987,2.914458,-10.021141,-0.7322037,0.030237807,0.055130545,-3.2762206,-44.662502,-15.543751,8.7375,0.5047819,-0.5519433,0.5482838,1001.778, , , , 
2025-09-27 17:56:06.006,2.1511476,-9.413364,0.22492532,0.13286309,-0.22464553,-2.8742714,-46.36875,-20.94375,9.84375,0.52028084,-0.53724384,0.5380704,1001.7614, , , , 
2025-09-27 17:56:06.026,1.3782659,-9.001799,0.0023928226,0.29840744,-0.7640391,-2.5340197,-42.99375,-22.462502,8.64375,0.53618616,-0.5245653,0.5275644,1001.7563, , , , 
2025-09-27 17:56:06.046,0.09571291,-8.874979,-0.6556334,0.30024004,-1.0187697,-2.058767,-42.693752,-24.656252,7.8187504,0.55288476,-0.5147561,0.516273,1001.7563, , , , 
2025-09-27 17:56:06.066,-0.485743,-8.769695,-0.7082755,0.1640172,-0.809854,-1.3080142,-40.0125,-26.400002,10.875,0.5699691,-0.5072805,0.5038044,1001.7431, , , , 
2025-09-27 17:56:06.086,-0.37806597,-9.059227,-0.75613195,0.022296565,-0.38591382,-0.62934345,-40.425003,-27.69375,10.837501,0.57748437,-0.5047233,0.49792328,1001.7431, , , , 
2025-09-27 17:56:06.106,0.023928227,-9.707682,-0.74416786,-0.11026109,-0.111635536,0.020005822,-40.96875,-26.643751,12.993751,0.57936746,-0.50516367,0.49600583,1001.73627, , , , 
2025-09-27 17:56:06.126,-0.4953143,-10.21496,-0.9499506,-0.20677772,0.13148865,0.800691,-39.65625,-27.6,10.44375,0.5763924,-0.5088689,0.4975783,1001.73627, , , , 
2025-09-27 17:56:06.146,-0.37806597,-9.573684,-0.6412765,-0.2770272,0.20479241,1.5380048,-41.081253,-27.900002,12.468751,0.5684778,-0.51654196,0.502559,1001.73627, , , , 
2025-09-27 17:56:06.166,2.132005,-9.099904,0.148355,-0.21838416,0.2451095,2.2350016,-41.193752,-24.91875,11.85,0.55603445,-0.5281027,0.51054883,1001.7331, , , , 
2025-09-27 17:56:06.186,3.9960139,-9.626326,-0.14356937,-0.060781047,0.27687445,2.5941901,-40.800003,-23.118752,9.84375,0.54084116,-0.541443,0.5209696,1001.7331, , , , 
2025-09-27 17:56:06.206,5.211568,-10.413564,-1.308874,0.035124727,0.27137667,2.8098252,-43.36875,-22.650002,11.325001,0.51980615,-0.55860794,0.53608453,1001.7277, , , , 
2025-09-27 17:56:06.226,5.5369916,-11.045269,-1.7946169,-0.024129158,0.23228133,2.9881978,-45.28125,-19.85625,10.89375,0.501729,-0.5728819,0.5481999,1001.716, , , , 
2025-09-27 17:56:06.246,5.623133,-11.507084,-1.9334008,-0.09926552,0.23716825,3.2111635,-45.61875,-17.90625,11.137501,0.4870497,-0.5842348,0.55701417,1001.716, , , , 
2025-09-27 17:56:06.266,6.013163,-11.365908,-1.6247265,-0.26175556,0.5218312,3.5642433,-47.8125,-12.88125,9.84375,0.45903024,-0.60428697,0.571702,1001.70624, , , , 
2025-09-27 17:56:06.286,6.465407,-10.849058,-0.78723866,-0.34849834,0.77167493,3.7859871,-47.756252,-11.887501,9.31875,0.43223253,-0.6205328,0.58393455,1001.70624, , , , 
2025-09-27 17:56:06.306,7.2861447,-10.322637,0.33738798,-0.24831653,0.6653845,3.903273,-50.362503,-8.15625,8.606251,0.4027369,-0.63615406,0.5963273,1001.7116, , , , 
2025-09-27 17:56:06.326,8.221739,-9.956535,0.8997013,0.094378605,0.21884231,3.8464627,-51.468754,-5.4375,12.1125,0.36774284,-0.65346223,0.61109954,1001.7116, , , , 
2025-09-27 17:56:06.346,8.425129,-9.946963,0.14356937,0.38331765,-0.062155493,3.750557,-50.68125,-3.7500002,12.093751,0.3494376,-0.66195,0.61964357,1001.7116, , , , 
2025-09-27 17:56:06.366,8.585447,-10.083355,-1.3232309,0.5006037,-0.21792601,3.7249007,-48.675003,2.4562502,10.14375,0.32144833,-0.67382115,0.63308257,1001.70526, , , , 
2025-09-27 17:56:06.389,9.942178,-9.997213,-2.0434706,0.29657486,0.06551525,3.7291768,-47.4375,4.70625,7.5750003,0.29874057,-0.68260306,0.6424059,1001.6838, , , , 
2025-09-27 17:56:06.406,10.636097,-9.796216,-1.9740787,0.024129158,0.53221595,3.6412122,-46.5,9.4125,7.2000003,0.2733996,-0.69117707,0.65018713,1001.6838, , , , 
2025-09-27 17:56:06.426,11.576476,-9.037691,-1.3016955,-0.3026835,0.88590664,3.42069,-45.0,12.543751,8.868751,0.24546608,-0.69966525,0.65607375,1001.6816, , , , 
2025-09-27 17:56:06.446,12.30868,-8.465807,-0.95712906,-0.54275334,1.2157736,3.1751225,-44.04375,16.5,7.6125,0.21686938,-0.7079935,0.65976465,1001.6816, , , , 
2025-09-27 17:56:06.466,12.452249,-7.176075,1.1700903,-0.5684097,1.4778346,2.77073,-42.825,17.268751,5.2875004,0.18062824,-0.7174504,0.6620615,1001.6989, , , , 
2025-09-27 17:56:06.487,12.476177,-6.4534426,1.2705889,-0.23854269,1.2652537,2.554484,-41.8125,19.48125,6.2812505,0.16036992,-0.7211943,0.66385865,1001.6989, , , , 
2025-09-27 17:56:06.506,13.043276,-6.384051,-0.033499517,0.01924224,1.0355685,2.3388486,-40.162502,19.650002,6.4125004,0.13677052,-0.72369343,0.6673683,1001.6989, , , , 
2025-09-27 17:56:06.526,14.242081,-6.204589,-1.4524434,0.1621846,0.55970484,1.9558363,-40.8375,23.456251,5.025,0.11333665,-0.7247016,0.671908,1001.71674, , , , 
2025-09-27 17:56:06.546,15.306887,-6.2404814,-2.3952155,0.15118903,0.24633121,1.6210824,-38.34375,24.956251,4.8375,0.10313981,-0.72489023,0.6741048,1001.71674, , , , 
2025-09-27 17:56:06.566,16.13241,-7.0301127,-3.1633115,-0.16768238,0.07773254,1.0444261,-38.025,25.743752,4.2937503,0.09235739,-0.72593904,0.6755403,1001.7067, , , , 
2025-09-27 17:56:06.587,16.134804,-8.1020975,-1.7371893,-0.4327977,0.06856957,0.6510291,-36.825,26.718752,5.5125003,0.087470576,-0.7284726,0.67379767,1001.7038, , , , 
2025-09-27 17:56:06.606,17.202002,-9.499506,0.22971097,-0.32039857,-0.21731515,0.19654575,-37.74375,26.493752,5.45625,0.08583826,-0.7320831,0.6701331,1001.7038, , , , 
2025-09-27 17:56:06.626,17.501104,-8.975478,0.7369894,0.0033597562,-0.48731738,-0.22556181,-36.09375,26.79375,6.5062504,0.09014337,-0.7329958,0.6685071,1001.7248, , , , 
2025-09-27 17:56:06.646,18.326628,-8.023134,0.13399807,0.2073886,-0.5856666,-0.74540776,-37.143753,25.706251,3.5812502,0.09668322,-0.73215497,0.6683668,1001.7248, , , , 
2025-09-27 17:56:06.666,17.931812,-8.427522,-0.6580262,0.15790854,-0.38530296,-1.706298,-37.050003,26.962502,4.4437504,0.114096634,-0.7290003,0.66799116,1001.7365, , , , 
2025-09-27 17:56:06.686,15.591632,-10.004392,-0.73459655,0.047952887,-0.13607013,-2.452164,-38.737503,24.4125,4.9125004,0.13257986,-0.72566915,0.666065,1001.7365, , , , 
2025-09-27 17:56:06.706,12.375679,-11.4903345,-0.32303107,0.028405212,-0.069485866,-2.8150177,-40.612503,22.48125,5.68125,0.1531936,-0.72152436,0.662885,1001.7497, , , , 
2025-09-27 17:56:06.726,11.913864,-12.019148,-0.1363909,0.10476331,-0.20326525,-2.9371905,-41.643753,20.362501,7.2937503,0.17467076,-0.716421,0.6592268,1001.7497, , , , 
2025-09-27 17:56:06.746,11.849257,-11.437693,-0.13160525,0.15363249,-0.32177302,-3.2133014,-43.3125,17.831251,6.39375,0.19788994,-0.7102061,0.6551013,1001.75775, , , , 
2025-09-27 17:56:06.766,10.846665,-10.636097,0.09332009,0.1414152,-0.285732,-3.4967427,-43.85625,17.175001,4.6312504,0.2295058,-0.7006745,0.6485502,1001.75775, , , , 
2025-09-27 17:56:06.786,10.030712,-10.3681,0.91166544,0.20616686,-0.3914116,-3.6867216,-47.325,14.56875,5.1375003,0.2492681,-0.6939287,0.64382744,1001.75775, , , , 
2025-09-27 17:56:06.806,9.41815,-10.310673,1.4117653,0.39492407,-0.67363113,-3.8547094,-44.775,9.1125,5.9625,0.28438172,-0.6805002,0.6352328,1001.7712, , , , 
2025-09-27 17:56:06.826,8.7266245,-10.052248,1.3016955,0.53236866,-0.8294017,-3.952448,-44.79375,5.6062503,8.325001,0.3150772,-0.6677488,0.6276281,1001.7795, , , , 
2025-09-27 17:56:06.846,8.133204,-9.896714,1.2969099,0.6227766,-0.8666644,-3.9952083,-51.525,1.40625,10.03125,0.3465838,-0.6534851,0.6192877,1001.7795, , , , 
2025-09-27 17:56:06.866,7.798209,-9.678967,0.83748794,0.66187197,-0.6717985,-3.997041,-49.162502,-0.075,8.175,0.37745833,-0.6376476,0.61064553,1001.7868, , , , 
2025-09-27 17:56:06.887,7.652247,-9.616755,0.29910284,0.6386591,-0.4592176,-4.033693,-48.300003,-3.0937502,8.418751,0.41351286,-0.6158254,0.5995942,1001.7868, , , , 
2025-09-27 17:56:06.906,6.597012,-9.820144,-0.33020952,0.5378664,-0.2997819,-3.978715,-50.23125,-7.7625003,6.4125004,0.44031036,-0.5972395,0.5901737,1001.7817,37.8882952,127.73989351,144.6517333984375,1.5
2025-09-27 17:56:06.926,5.4891353,-9.932607,-0.6891329,0.3753764,-0.1867719,-3.7826273,-47.8125,-10.2375,6.15,0.46448883,-0.57886887,0.58014464,1001.7817, , , , 
2025-09-27 17:56:06.946,4.76411,-10.01157,-0.79920274,0.24770567,-0.1311832,-3.5663812,-48.187504,-12.0375,7.6687503,0.4805892,-0.5658338,0.572327,1001.7817, , , , 
2025-09-27 17:56:06.966,3.8835511,-9.736395,-0.59581286,0.018631376,-0.06887501,-3.0856307,-46.162502,-17.925001,7.65,0.50318545,-0.54645884,0.55923194,1001.77094, , , , 
2025-09-27 17:56:06.986,3.6394832,-9.635897,-0.069391854,-0.030237807,-0.017562363,-2.6653557,-44.53125,-18.50625,7.9687505,0.5209529,-0.5300878,0.5468765,1001.76825, , , , 
2025-09-27 17:56:07.006,2.7613173,-9.375079,-0.32303107,-0.03329213,0.074067354,-2.3849688,-44.71875,-22.3875,8.0625,0.5298131,-0.5211103,0.5403451,1001.76825, , , , 
2025-09-27 17:56:07.026,1.5936198,-9.425328,-1.2562319,-0.13469568,0.25488332,-1.9793546,-43.48125,-24.88125,8.83125,0.5392223,-0.5102195,0.53301406,1001.7575, , , , 
2025-09-27 17:56:07.046,1.1653047,-10.0881405,-1.5266209,-0.38453937,0.28237224,-1.5144866,-43.518753,-26.493752,9.243751,0.54498965,-0.5018228,0.5271147,1001.7575, , , , 
2025-09-27 17:56:07.066,-0.0047856453,-10.60499,-0.09332009,-0.48533207,0.11682789,-0.9812015,-43.78125,-26.2875,10.03125,0.54758286,-0.49723017,0.5218419,1001.7575, , , , 
2025-09-27 17:56:07.086,-1.6917256,-10.315458,0.73459655,-0.22693627,-0.240528,-0.12049308,-43.10625,-27.337502,9.243751,0.54804003,-0.49694535,0.51760423,1001.75385, , , , 
2025-09-27 17:56:07.106,-1.7802601,-10.006784,-0.80877405,-0.06627883,-0.38041604,0.7145591,-42.675003,-27.300001,10.275001,0.5468033,-0.5015061,0.51758087,1001.75385, , , , 
2025-09-27 17:56:07.126,-0.5288138,-8.999406,-1.2179468,-0.25625777,-0.18493931,1.6155846,-41.41875,-27.768751,8.475,0.54170483,-0.5104807,0.5206623,1001.7514, , , , 
2025-09-27 17:56:07.147,2.0315065,-9.262616,-0.6197411,-0.40775225,0.11438443,2.1262677,-41.456253,-26.643751,6.8812504,0.5310548,-0.5229578,0.52671903,1001.7463, , , , 
2025-09-27 17:56:07.166,3.7974095,-10.205389,-0.086141616,-0.36438084,0.41309732,2.4152067,-42.73125,-24.16875,7.33125,0.51589787,-0.53655344,0.5354574,1001.7463, , , , 
2025-09-27 17:56:07.186,4.1850467,-10.794023,-0.36131623,-0.18539746,0.31535894,2.6424484,-45.206253,-22.050001,6.0750003,0.4982664,-0.5497747,0.5464842,1001.7463, , , , 
2025-09-27 17:56:07.206,4.354937,-11.152946,-1.1629118,-0.026572619,-0.031001387,3.0040803,-45.28125,-21.5625,7.4437504,0.48068476,-0.5637108,0.558018,1001.75165, , , , 
2025-09-27 17:56:07.226,5.4819565,-10.918449,-1.7874385,-0.023518294,-0.1036943,3.4243553,-47.53125,-19.050001,5.8500004,0.45789796,-0.5835242,0.5723571,1001.7348, , , , 
2025-09-27 17:56:07.246,7.015756,-10.356136,-1.9908284,-0.15546508,0.18890993,3.5825691,-46.78125,-15.243751,7.4062505,0.44214857,-0.5959493,0.58116424,1001.7348, , , , 
2025-09-27 17:56:07.266,7.216753,-9.812965,-1.7084754,-0.3894263,0.6543889,3.5709627,-49.36875,-12.0375,7.65,0.41154703,-0.6155663,0.5957371,1001.7255, , , , 
2025-09-27 17:56:07.286,7.0085773,-9.762716,-0.8135597,-0.49205157,0.649502,3.6271625,-50.362503,-9.13125,6.3375,0.3840943,-0.63043624,0.6065476,1001.7255, , , , 
2025-09-27 17:56:07.306,7.9537425,-9.729217,0.16271193,-0.35888305,0.23350306,3.6540403,-49.93125,-5.6062503,5.64375,0.3567079,-0.64506006,0.6160538,1001.72626, , , , 
2025-09-27 17:56:07.326,8.71466,-9.609575,0.014356935,-0.100487255,-0.1782198,3.5770714,-50.30625,-1.95,10.875,0.32630238,-0.6616976,0.6263952,1001.72626, , , , 
2025-09-27 17:56:07.346,9.406186,-9.45165,-1.0169497,0.0027488915,-0.21242823,3.4915504,-46.95,1.9125,5.5125003,0.3045292,-0.6730955,0.633926,1001.72626, , , , 
2025-09-27 17:56:07.366,10.042677,-8.925228,-1.8017955,-0.1065959,-0.1989892,3.316843,-49.537502,5.9812503,8.025001,0.2833159,-0.683312,0.64033693,1001.71967, , , , 
2025-09-27 17:56:07.386,9.937392,-8.140383,-2.062613,-0.35338527,-0.060322896,3.1427467,-47.006252,8.25,5.925,0.26293144,-0.6933694,0.6444403,1001.71967, , , , 
2025-09-27 17:56:07.406,10.202995,-7.8197446,-0.5479564,-0.59345514,0.1339321,3.0908232,-45.768753,11.606251,7.4625,0.24144065,-0.7038232,0.6463121,1001.70526, , , , 
2025-09-27 17:56:07.426,11.260623,-7.4392858,1.402194,-0.33017242,0.03252855,2.991863,-46.725002,14.118751,8.19375,0.21954657,-0.7133444,0.64769965,1001.71185, , , , 
2025-09-27 17:56:07.448,12.301501,-7.159325,0.83030945,0.12125666,-0.093309596,2.7719517,-43.66875,16.29375,8.6625,0.19555031,-0.7207189,0.6518189,1001.71185, , , , 
2025-09-27 17:56:07.466,12.959527,-6.5539412,-1.0504491,0.34177884,-0.0481056,2.4390304,-41.756252,17.60625,7.3125005,0.18342571,-0.7227487,0.6554159,1001.71185, , , , 
2025-09-27 17:56:07.488,13.134204,-6.1064835,-2.2707887,0.20922118,0.09728022,2.1238241,-43.125,18.956251,8.45625,0.16899529,-0.724388,0.65982795,1001.7065, , , , 
2025-09-27 17:56:07.506,13.741981,-6.2955165,-2.3018954,-0.0632245,0.31413722,1.7890702,-42.3375,20.53125,7.36875,0.15235916,-0.7270275,0.66281193,1001.69696, , , , 
2025-09-27 17:56:07.526,15.005391,-7.3292155,-1.5625132,-0.1744019,0.31413722,1.4359903,-41.737503,22.10625,6.9,0.14031272,-0.72967356,0.6633584,1001.69696, , , , 
2025-09-27 17:56:07.546,15.361921,-7.9154572,-1.1246266,-0.120034926,0.08506292,1.0975713,-39.5625,23.550001,8.90625,0.13359757,-0.7313493,0.6633148,1001.69696, , , , 
2025-09-27 17:56:07.566,16.19941,-8.228917,-0.86141616,-0.07971785,-0.04138609,0.6528617,-38.5125,24.4125,8.587501,0.12749627,-0.73311824,0.6630965,1001.7026, , , , 
2025-09-27 17:56:07.586,16.838293,-9.686146,-0.45702913,-0.010690134,-0.1226311,0.3046688,-37.8375,23.475,9.50625,0.12623508,-0.73374665,0.66278243,1001.7026, , , , 
2025-09-27 17:56:07.606,16.98904,-8.650054,0.2009971,0.35399613,-0.39935285,-0.091782436,-39.61875,24.0375,9.0375,0.12877165,-0.73282784,0.6633176,1001.70184, , , , 
2025-09-27 17:56:07.626,17.661425,-7.4536424,-1.2418749,0.5415316,-0.6797398,-0.65011287,-38.0625,24.956251,6.6562505,0.13613492,-0.72941756,0.6655664,1001.70184, , , , 
2025-09-27 17:56:07.648,16.64926,-8.166703,-1.6462619,0.38515025,-0.77442384,-1.6213878,-38.381252,24.300001,8.4375,0.15417486,-0.723885,0.6671745,1001.7172, , , , 
2025-09-27 17:56:07.666,14.608182,-9.650253,-1.5601203,0.25625777,-0.7829759,-2.153451,-37.8375,23.868752,5.625,0.17410865,-0.7190665,0.6663975,1001.71405, , , , 
2025-09-27 17:56:07.686,12.256038,-10.959127,-1.0241281,0.14202607,-0.8373429,-2.451553,-40.893753,22.66875,7.8562503,0.19687158,-0.71403867,0.66391534,1001.71405, , , , 
2025-09-27 17:56:07.706,11.736795,-11.566905,-0.2656033,0.113926284,-0.8660535,-2.5883868,-39.975002,19.5,11.043751,0.22061168,-0.7087003,0.6603465,1001.71405, , , , 
2025-09-27 17:56:07.726,11.569298,-11.196017,0.2656033,0.15607595,-0.88315773,-2.8015785,-41.79375,18.337502,9.6,0.24507914,-0.70244473,0.6562635,1001.7238, , , , 
2025-09-27 17:56:07.746,11.344372,-10.542776,0.55513483,0.22754712,-0.9143119,-3.0092726,-44.268753,15.6,10.1625,0.27084994,-0.69471097,0.6518431,1001.73285, , , , 
2025-09-27 17:56:07.766,10.71506,-9.590433,-0.031106694,0.2837467,-0.72494376,-3.3428047,-43.59375,14.6625,11.08125,0.2979904,-0.6850699,0.6471169,1001.73285, , , , 
2025-09-27 17:56:07.786,9.372686,-9.346365,-0.5312066,0.19761476,-0.35231626,-3.595092,-44.0625,12.375001,11.25,0.32491302,-0.67368597,0.64186454,1001.73285, , , , 
2025-09-27 17:56:07.806,8.240881,-9.461221,-0.8877372,0.027183482,-0.0059559317,-3.7826273,-44.34375,7.4625,13.725,0.35630384,-0.6578031,0.6342024,1001.737, , , , 
2025-09-27 17:56:07.826,7.5493555,-9.638289,-0.6125626,-0.06994402,0.14553854,-3.8540986,-47.9625,3.3750002,13.25625,0.37957683,-0.6442585,0.62689084,1001.7304, , , , 
2025-09-27 17:56:07.847,7.2789664,-9.927821,-0.3684947,-0.0876591,0.19379686,-3.9011352,-49.500004,1.3687501,10.9125,0.40170005,-0.62987435,0.61875343,1001.7304, , , , 
2025-09-27 17:56:07.866,6.6711893,-10.0881405,-0.4881358,-0.027794348,0.045967575,-3.9225154,-45.9375,-2.34375,7.2000003,0.42344105,-0.61450964,0.60985345,1001.73236, , , , 
2025-09-27 17:56:07.886,5.7690954,-10.006784,-0.6795616,3.054324E-4,-0.27473643,-3.8760898,-46.95,-4.96875,9.918751,0.4459037,-0.5987445,0.59956634,1001.73236, , , , 
2025-09-27 17:56:07.906,5.0392847,-9.877572,-0.89491564,-0.054061532,-0.44394597,-3.7264278,-46.74375,-9.150001,8.2875,0.4688856,-0.5834398,0.58756614,1001.7399,37.88827978,127.73990064,144.935791015625,1.47
2025-09-27 17:56:07.926,4.2975097,-9.839287,-0.8422736,-0.16340633,-0.38835728,-3.4332128,-44.90625,-12.337501,9.20625,0.49553016,-0.5656024,0.5713536,1001.7399, , , , 
2025-09-27 17:56:07.946,4.1898327,-9.332008,-0.6029913,-0.23854269,-0.30039275,-3.138776,-45.131252,-14.85,9.356251,0.5136497,-0.5525652,0.5586651,1001.73724, , , , 
2025-09-27 17:56:07.966,4.2664027,-9.020942,-0.73459655,-0.29352054,-0.16966769,-2.9335253,-43.74375,-17.212502,11.981251,0.529245,-0.54031336,0.54654497,1001.73724, , , , 
2025-09-27 17:56:07.986,3.6275191,-9.5760765,-1.2442678,-0.41630435,0.021532983,-2.7246096,-42.24375,-20.15625,9.825001,0.5422659,-0.5285287,0.53516835,1001.73724, , , , 
2025-09-27 17:56:08.006,2.2755744,-10.564312,-0.8997013,-0.53053606,0.029474225,-2.298837,-41.381252,-23.04375,10.05,0.55241996,-0.5182233,0.5244661,1001.73676, , , , 
2025-09-27 17:56:08.026,1.3543376,-10.497313,-0.39960137,-0.49938196,-0.0810923,-1.6953025,-42.975002,-25.087502,10.950001,0.55991185,-0.51073915,0.5149147,1001.7375, , , , 
2025-09-27 17:56:08.046,0.8781659,-9.913465,-0.050249275,-0.43707374,-0.037110034,-1.0850486,-41.081253,-26.531252,12.075001,0.5647034,-0.50643677,0.5075297,1001.7375, , , , 
2025-09-27 17:56:08.066,0.2632105,-10.131211,-0.31106696,-0.35338527,0.08078687,-0.3911062,-41.9625,-26.718752,10.181251,0.56632876,-0.5046499,0.5026438,1001.75653, , , , 
2025-09-27 17:56:08.086,-0.54317075,-10.112068,-0.6436693,-0.36132652,0.14859286,0.35048366,-40.912502,-29.587502,9.0,0.5647637,-0.50582623,0.50218487,1001.75653, , , , 
2025-09-27 17:56:08.106,-0.5288138,-9.068798,-0.37328035,-0.41935867,0.260992,1.2056943,-41.34375,-28.650002,10.21875,0.5567196,-0.51298743,0.5056157,1001.76434, , , , 
2025-09-27 17:56:08.127,1.0911272,-8.953942,0.22971097,-0.399811,0.51388997,1.947895,-41.79375,-27.431252,8.64375,0.54467016,-0.52281135,0.5125423,1001.76434, , , , 
2025-09-27 17:56:08.146,2.5938199,-9.573684,-0.05742774,-0.33872452,0.7014255,2.3718352,-41.04375,-24.6,6.7125,0.5284243,-0.5343273,0.5230798,1001.76434, , , , 
2025-09-27 17:56:08.166,3.1872396,-10.636097,-0.5312066,-0.29107708,0.80954856,2.7982187,-42.825,-23.8125,8.868751,0.5088496,-0.54671097,0.5361995,1001.76776, , , , 
2025-09-27 17:56:08.187,3.8069808,-11.375479,-0.8422736,-0.27763805,0.70936674,3.2056656,-43.65,-22.25625,6.5437503,0.48682755,-0.5604472,0.550519,1001.76776, , , , 
2025-09-27 17:56:08.206,4.6707897,-11.12184,-0.65084773,-0.28313583,0.6751583,3.5935647,-45.525,-20.831251,5.11875,0.45610166,-0.5798143,0.5690144,1001.7558, , , , 
2025-09-27 17:56:08.226,5.1756754,-10.284351,-0.6436693,-0.33689192,0.90301085,3.9387033,-49.7625,-14.062501,7.0312505,0.4283693,-0.5958982,0.58429027,1001.74457, , , , 
2025-09-27 17:56:08.247,5.7116675,-9.817751,-0.45224348,-0.45784315,1.2090541,4.1213517,-50.025,-10.575001,3.3000002,0.40481105,-0.6076226,0.5961236,1001.74457, , , , 
2025-09-27 17:56:08.266,6.539584,-9.767502,-0.09571291,-0.53053606,1.1681262,4.206873,-51.881252,-6.6562505,4.2000003,0.36172697,-0.6262552,0.6151548,1001.7426, , , , 
2025-09-27 17:56:08.287,7.018149,-10.167104,0.68195444,-0.4083631,0.67393655,4.2453575,-51.075,-3.8625002,7.3500004,0.32790387,-0.6406413,0.6282686,1001.7426, , , , 
2025-09-27 17:56:08.306,8.688339,-10.449456,0.56470615,-0.09071342,-0.013286309,4.229475,-49.031254,0.22500001,3.825,0.2975006,-0.65415865,0.63982683,1001.73553, , , , 
2025-09-27 17:56:08.326,10.07139,-10.612168,-0.55513483,0.024740024,-0.23564109,4.090198,-49.706253,6.01875,0.93750006,0.2711243,-0.66607744,0.65003145,1001.73553, , , , 
2025-09-27 17:56:08.346,10.703095,-10.325029,-0.72502524,-0.07055488,-0.11713332,3.9240427,-48.9,7.9687505,1.9687501,0.24652079,-0.6766296,0.65844625,1001.7226, , , , 
2025-09-27 17:56:08.366,11.042876,-9.88475,-0.81595254,-0.2715294,0.39293876,3.7578874,-48.9,11.043751,5.0437503,0.21440786,-0.6881697,0.66674095,1001.7226, , , , 
2025-09-27 17:56:08.387,11.653047,-9.269794,-0.24646074,-0.46028662,0.73807734,3.619832,-46.85625,15.150001,1.2,0.19334927,-0.69449127,0.67051125,1001.7226, , , , 
2025-09-27 17:56:08.406,13.019348,-8.370093,1.4476577,-0.45967576,0.9934189,3.2563674,-45.45,17.25,4.4812503,0.15730138,-0.70369947,0.6749401,1001.70917, , , , 
2025-09-27 17:56:08.426,13.371093,-7.448857,1.6366907,-0.17501275,1.1858412,2.7267478,-43.912502,20.41875,2.90625,0.13036905,-0.7080322,0.67847914,1001.7177, , , , 
2025-09-27 17:56:08.447,13.4763775,-7.068398,0.7848458,-0.025961753,1.2664754,2.3302965,-43.18125,22.25625,-0.52500004,0.10610188,-0.70947284,0.6825815,1001.7177, , , , 
2025-09-27 17:56:08.466,13.55534,-7.0133634,-0.55513483,-0.016798781,1.3513856,1.9680536,-41.5125,22.66875,0.056250002,0.08453931,-0.7094235,0.68629605,1001.7177, , , , 
2025-09-27 17:56:08.486,13.421342,-7.1880393,-1.2634103,-0.23732096,1.4778346,1.54167,-40.800003,24.6375,-1.5187501,0.06479356,-0.7094825,0.6883625,1001.72284, , , , 
2025-09-27 17:56:08.506,14.342579,-7.908279,-1.0313065,-0.38148504,1.3953679,1.1641556,-40.706253,25.0125,-1.5562501,0.042524323,-0.71051747,0.68831605,1001.70917, , , , 
2025-09-27 17:56:08.526,14.677574,-8.523234,-0.6987042,-0.45051277,1.2127193,0.76220655,-39.65625,27.35625,-1.8000001,0.028536424,-0.711852,0.68666714,1001.70917, , , , 
2025-09-27 17:56:08.547,15.172889,-9.322437,-0.09571291,-0.45906487,1.0813833,0.366977,-39.80625,27.225,-2.5500002,0.018175403,-0.7134135,0.6840516,1001.7138, , , , 
2025-09-27 17:56:08.566,15.814165,-10.183853,0.059820566,-0.32833982,1.0459533,0.047494736,-39.61875,27.375002,-3.5062501,0.010950501,-0.7145338,0.68119967,1001.7138, , , , 
2025-09-27 17:56:08.586,16.187445,-9.891929,-0.59581286,-0.1395826,0.94332796,-0.30314165,-39.131252,27.675001,-3.2625,0.006853124,-0.71448386,0.67888314,1001.7138, , , , 
2025-09-27 17:56:08.606,16.821543,-8.906086,-1.538585,-0.109650224,0.72769266,-0.9182825,-39.768753,27.243752,-4.7250004,0.006943873,-0.7138082,0.67660934,1001.72894, , , , 
2025-09-27 17:56:08.626,16.19223,-9.111869,-1.7036897,-0.2196059,0.72586006,-1.7032437,-41.100002,27.112501,-5.34375,0.012320206,-0.71355027,0.6726584,1001.72894, , , , 
2025-09-27 17:56:08.646,14.189438,-10.370493,-1.6606189,-0.2196059,0.74418604,-2.356869,-43.2,25.425001,-6.4125004,0.022439424,-0.7134484,0.6664854,1001.7214, , , , 
2025-09-27 17:56:08.666,12.464213,-11.799008,-2.1415763,-0.038789913,0.7362448,-2.8107417,-41.5875,22.59375,-5.1937504,0.039955635,-0.7119177,0.65739954,1001.7255, , , , 
2025-09-27 17:56:08.686,11.29173,-11.729616,-3.4432719,-0.03084867,0.67699087,-3.0502005,-44.175003,21.956251,-6.58125,0.0565293,-0.7092443,0.6496403,1001.7255, , , , 
2025-09-27 17:56:08.707,10.913664,-10.892129,-3.2590244,-0.20494513,0.53160506,-3.2578945,-46.612503,18.6,-6.43125,0.07460819,-0.7067593,0.63995975,1001.7087, , , , 
2025-09-27 17:56:08.726,11.392229,-10.554741,-2.2372892,-0.24648394,0.4063778,-3.599979,-46.518753,15.900001,-9.69375,0.09476099,-0.70452,0.62804085,1001.7087, , , , 
2025-09-27 17:56:08.747,11.0811615,-10.619347,-2.4646072,-0.15668681,0.6348412,-3.9084656,-48.6375,13.556251,-8.418751,0.11705547,-0.7008059,0.6147032,1001.7087, , , , 
2025-09-27 17:56:08.766,9.49472,-11.01177,-3.8476589,-0.26419902,1.2542582,-4.1790786,-47.49375,9.806251,-8.15625,0.1387513,-0.69426405,0.60020643,1001.7038, , , , 
2025-09-27 17:56:08.786,8.49452,-11.313266,-4.007978,-0.46883872,1.5786273,-4.2713194,-50.11875,6.7125,-10.650001,0.15754376,-0.6856308,0.58373344,1001.7038, , , , 
2025-09-27 17:56:08.806,8.745767,-11.619547,-3.1226335,-0.5421425,1.3825397,-4.32813,-54.99375,0.73125005,-10.106251,0.17463684,-0.67607844,0.56517047,1001.6967, , , , 
2025-09-27 17:56:08.826,9.042477,-11.834901,-2.2612174,-0.36743516,0.79366606,-4.53338,-52.125004,-2.79375,-14.681251,0.19894241,-0.66395533,0.5395572,1001.68207, , , , 
2025-09-27 17:56:08.846,7.240681,-11.921042,-2.4382863,-0.17501275,0.07101303,-4.647612,-50.41875,-7.5750003,-16.893751,0.22342426,-0.654423,0.51730245,1001.68207, , , , 
2025-09-27 17:56:08.866,5.517849,-11.363515,-3.1082766,-0.23121232,-0.31261006,-4.4967284,-51.093754,-12.262501,-15.4875,0.2507639,-0.6460783,0.49366885,1001.69476, , , , 
2025-09-27 17:56:08.887,4.551149,-10.597812,-2.9336007,-0.42791077,-0.39080074,-4.2426085,-46.2,-16.59375,-18.675001,0.27700144,-0.63918453,0.46887636,1001.69476, , , , 
2025-09-27 17:56:08.906,3.8093736,-9.889536,-1.9597218,-0.5922334,-0.3376555,-3.8962483,-48.956253,-19.0125,-15.168751,0.29998285,-0.6330794,0.44369847,1001.6994,37.88826349,127.73990724,144.6046142578125,1.69
2025-09-27 17:56:08.926,2.900101,-9.312865,-1.2705889,-0.5592467,-0.3327686,-3.5437794,-46.518753,-22.987501,-16.125,0.3246638,-0.62540454,0.41349363,1001.6994, , , , 
2025-09-27 17:56:08.946,1.9573289,-8.927621,-1.4883357,-0.5109884,-0.3773617,-3.2212427,-44.943752,-25.331251,-15.075001,0.3379889,-0.62089115,0.3966248,1001.6994, , , , 
2025-09-27 17:56:08.967,0.74177504,-8.980264,-1.550549,-0.4883864,-0.56062114,-2.6213734,-43.5,-29.025002,-15.168751,0.3573679,-0.61499053,0.3709716,1001.70306, , , , 
2025-09-27 17:56:08.986,-0.11246266,-8.827123,-1.3351951,-0.4761691,-0.74326974,-1.8632903,-41.86875,-31.218752,-17.0625,0.3692619,-0.61335236,0.35374075,1001.70306, , , , 
2025-09-27 17:56:09.007,-0.35413775,-8.583055,-1.0671989,-0.4413498,-0.7506001,-1.1693479,-43.2,-32.49375,-13.312501,0.37544662,-0.6142118,0.3435285,1001.70966, , , , 
2025-09-27 17:56:09.026,-0.14356937,-7.7910304,-1.0648061,-0.43585202,-0.5319105,-0.20723587,-42.65625,-31.95,-13.087501,0.37984797,-0.6184259,0.3326905,1001.71796, , , , 
2025-09-27 17:56:09.048,0.5096712,-7.975278,-1.3926228,-0.51648617,-0.26251915,0.35598144,-42.24375,-34.3875,-14.38125,0.37753567,-0.62330806,0.3295025,1001.71796, , , , 
2025-09-27 17:56:09.066,0.21296121,-8.530413,-1.7180467,-0.7473931,0.13881902,1.0572542,-41.268753,-33.15,-14.868751,0.3695799,-0.62893397,0.33036786,1001.716, , , , 
2025-09-27 17:56:09.086,0.76570326,-8.3174515,-0.9834501,-0.93676114,0.26526803,1.8471024,-42.91875,-30.35625,-13.6125,0.35081902,-0.63789254,0.33640167,1001.716, , , , 
2025-09-27 17:56:09.106,2.1463618,-8.99462,-0.4833502,-0.9941824,0.23472479,2.391383,-45.9,-30.018751,-15.01875,0.33014324,-0.6473811,0.34460658,1001.7116, , , , 
2025-09-27 17:56:09.126,2.8378878,-10.023534,-0.32063824,-0.99906933,0.33429575,2.8990116,-45.35625,-26.718752,-16.181252,0.3056393,-0.6579939,0.35556045,1001.7116, , , , 
2025-09-27 17:56:09.147,3.5844483,-10.865808,-0.3469593,-1.0235039,0.40210176,3.2972953,-45.45,-25.218752,-19.5,0.27715564,-0.6688503,0.36929035,1001.7116, , , , 
2025-09-27 17:56:09.166,4.7018967,-11.8588295,-0.10289137,-1.0375538,0.3526217,3.7811003,-47.71875,-23.23125,-16.9125,0.24529831,-0.6799247,0.38484576,1001.72015, , , , 
2025-09-27 17:56:09.186,5.2737813,-12.102897,0.047856454,-1.0210605,0.30680683,4.1769404,-47.98125,-18.768751,-17.2875,0.21081503,-0.69113046,0.4018135,1001.71747, , , , 
2025-09-27 17:56:09.206,6.1471615,-11.708081,0.5694918,-0.98868465,0.3733911,4.533075,-48.99375,-13.762501,-19.63125,0.17357829,-0.7017242,0.42015368,1001.71747, , , , 
2025-09-27 17:56:09.226,7.5661054,-11.047662,1.3806586,-0.8439097,0.39293876,4.7456555,-52.95,-10.181251,-20.19375,0.12411141,-0.712433,0.44449925,1001.7214, , , , 
2025-09-27 17:56:09.246,9.145369,-10.250853,1.8041883,-0.5763509,0.11255184,4.660135,-53.718754,-8.025001,-18.225,0.08552944,-0.7187059,0.46439517,1001.7214, , , , 
2025-09-27 17:56:09.266,9.765109,-9.801002,1.430908,-0.33811367,-0.10430516,4.454273,-51.300003,-3.2062502,-15.975,0.059529707,-0.7224024,0.4790871,1001.7214, , , , 
2025-09-27 17:56:09.286,10.083355,-9.554541,-0.124426775,-0.27458373,-0.11102467,4.062709,-47.86875,4.89375,-18.65625,0.02125384,-0.7265134,0.50188285,1001.73676, , , , 
2025-09-27 17:56:09.306,9.865608,-9.8321085,-0.44745782,-0.42791077,0.080176,3.8519607,-49.65,5.45625,-19.425001,-5.043305E-4,-0.7280892,0.5134717,1001.73676, , , , 
2025-09-27 17:56:09.326,9.693324,-10.566705,0.06699903,-0.6960804,0.45524698,3.646099,-47.11875,11.4375,-20.025002,-0.03757935,-0.7293212,0.52882797,1001.73285, , , , 
2025-09-27 17:56:09.346,9.602397,-11.248659,1.0169497,-0.80664694,0.73990995,3.5440848,-47.737503,15.093751,-18.018751,-0.07637734,-0.72851574,0.54012835,1001.73114, , , , 
2025-09-27 17:56:09.366,10.057034,-11.408978,1.5744773,-0.7644973,0.9146173,3.5001025,-44.025,18.112501,-19.650002,-0.100143395,-0.72680116,0.54587305,1001.73114, , , , 
2025-09-27 17:56:09.386,11.327622,-10.889736,1.9501505,-0.64537865,0.9976949,3.3742642,-45.787502,18.16875,-18.69375,-0.13163301,-0.7228992,0.55295414,1001.7353, , , , 
2025-09-27 17:56:09.406,11.997613,-10.047462,2.1631117,-0.44257152,0.98975366,3.1140358,-41.30625,23.493752,-20.868752,-0.1682789,-0.7158189,0.5611105,1001.7353, , , , 
2025-09-27 17:56:09.427,12.466606,-9.267402,1.5074782,-0.12186752,1.0050253,2.748128,-38.643753,26.625002,-19.63125,-0.19385025,-0.70855796,0.5675796,1001.7436, , , , 
2025-09-27 17:56:09.447,12.567104,-9.016156,0.15314065,0.008857539,0.9427171,2.4237587,-36.881252,27.825,-23.268751,-0.21593337,-0.7002444,0.5739423,1001.7436, , , , 
2025-09-27 17:56:09.466,12.768102,-8.91805,-0.12203395,0.03940078,0.7832814,2.2142322,-34.256252,28.687502,-20.6625,-0.23506655,-0.6922737,0.5794416,1001.7465, , , , 
2025-09-27 17:56:09.486,14.560326,-8.99462,-0.7393822,0.15057817,0.636063,1.9277365,-30.4125,30.73125,-23.8125,-0.25137454,-0.68480897,0.5846237,1001.7465, , , , 
2025-09-27 17:56:09.506,15.567704,-9.0233345,-1.9980069,0.057726722,0.636063,1.4934117,-30.768751,31.29375,-22.25625,-0.2641767,-0.67826563,0.58881736,1001.7465, , , , 
2025-09-27 17:56:09.526,15.940985,-8.238488,-1.7060826,-0.22693627,0.8920153,1.0279328,-30.525002,33.1875,-22.237501,-0.2774977,-0.6727406,0.589622,1001.72504, , , , 
2025-09-27 17:56:09.547,16.807186,-7.9011,-0.44027936,-0.28741187,1.2035563,0.5508473,-29.268751,33.693752,-22.25625,-0.28743833,-0.6696459,0.5862272,1001.7238, , , , 
2025-09-27 17:56:09.566,17.168503,-7.3698936,-0.13160525,0.004581486,1.2664754,-0.1632536,-28.48125,33.15,-22.7625,-0.2945831,-0.6665928,0.5809594,1001.7238, , , , 
2025-09-27 17:56:09.586,17.197216,-7.786245,-1.6917256,0.16829325,1.0337359,-0.84009176,-27.806252,33.375,-25.931252,-0.29590222,-0.66417587,0.5750257,1001.7238, , , , 
2025-09-27 17:56:09.606,16.141981,-9.260223,-3.225525,0.038179047,0.6091849,-1.7240131,-27.35625,32.79375,-24.243752,-0.29014918,-0.6649082,0.5672697,1001.7275, , , , 
2025-09-27 17:56:09.626,14.517255,-10.736595,-3.2805598,-0.19761476,0.41248643,-2.3422084,-28.181252,32.850002,-27.093752,-0.27878013,-0.6697017,0.5563098,1001.70526, , , , 
2025-09-27 17:56:09.646,12.916456,-12.268002,-2.6871397,-0.38881543,0.39843655,-2.827235,-31.0125,30.562502,-25.275002,-0.26004362,-0.6792164,0.5381269,1001.70526, , , , 
2025-09-27 17:56:09.666,11.442478,-12.641282,-1.9310079,-0.4156935,0.5865829,-3.0990698,-33.037502,29.343752,-23.75625,-0.24350068,-0.6872313,0.52072257,1001.7016, , , , 
2025-09-27 17:56:09.686,10.928021,-12.2991085,-1.8664017,-0.27030766,0.8810197,-3.296379,-34.068752,29.025002,-27.656252,-0.22650157,-0.6935669,0.5019572,1001.7016, , , , 
2025-09-27 17:56:09.706,10.626525,-11.815758,-2.6679974,-0.17501275,1.074053,-3.5150688,-35.79375,24.975,-26.325,-0.20876825,-0.6975888,0.48218483,1001.7016, , , , 
2025-09-27 17:56:09.726,10.411171,-11.420942,-2.6775684,-0.13530655,0.9024,-3.8046186,-38.925003,23.175001,-26.962502,-0.18942234,-0.70070136,0.4609431,1001.70624, , , , 
2025-09-27 17:56:09.747,10.346565,-11.454442,-2.5268207,-0.08032872,0.54443324,-4.025141,-38.11875,21.150002,-29.250002,-0.16679844,-0.704388,0.43874803,1001.70624, , , , 
2025-09-27 17:56:09.766,10.068997,-11.667403,-2.213361,0.021685699,0.20540328,-4.3244643,-40.987503,15.8625,-26.94375,-0.1403733,-0.7089512,0.4158764,1001.6982, , , , 
2025-09-27 17:56:09.786,9.346365,-11.933006,-2.3282163,0.09071342,0.123547405,-4.5425434,-45.225002,13.687501,-27.150002,-0.11079183,-0.7134121,0.39215457,1001.70575, , , , 
2025-09-27 17:56:09.806,8.508878,-12.076576,-2.6871397,0.03940078,0.2677115,-4.6805987,-46.7625,11.0625,-29.00625,-0.0719538,-0.7172971,0.3607481,1001.70575, , , , 
2025-09-27 17:56:09.826,7.7503524,-12.076576,-2.7086751,-0.076052666,0.46807513,-4.7227483,-47.49375,5.8875003,-30.337502,-0.04158912,-0.7180628,0.33378288,1001.7109, , , , 
2025-09-27 17:56:09.846,7.068398,-11.813365,-2.2420747,-0.13041963,0.3856084,-4.7441287,-46.96875,2.4750001,-32.5125,-0.019391103,-0.71755296,0.31265408,1001.7109, , , , 
2025-09-27 17:56:09.866,5.656633,-11.550155,-1.8257236,-0.11148282,0.09850194,-4.6757116,-48.862503,-2.4562502,-31.406252,0.017846404,-0.71622115,0.27689466,1001.7109, , , , 
2025-09-27 17:56:09.886,4.065406,-11.428121,-1.4524434,-0.052839804,-0.25396705,-4.39899,-44.643753,-5.6062503,-32.90625,0.054833006,-0.7153899,0.24213524,1001.7104, , , , 
2025-09-27 17:56:09.906,3.0987053,-11.069198,-1.4189439,-0.008246674,-0.48914996,-4.081951,-44.7,-10.106251,-31.725,0.07621445,-0.7153243,0.22257125,1001.71967,37.88824907,127.73991386,144.470458984375,1.66
2025-09-27 17:56:09.926,2.3234308,-10.99502,-1.9597218,-0.028405212,-0.6583595,-3.6244135,-45.28125,-12.056251,-28.931252,0.102823146,-0.7158657,0.19856012,1001.71967, , , , 
2025-09-27 17:56:09.946,1.3615161,-10.593026,-2.5962126,-0.19700389,-0.7072287,-3.0538657,-45.225002,-16.143751,-29.306252,0.12579298,-0.7171603,0.17694715,1001.71967, , , , 
2025-09-27 17:56:09.966,0.7968099,-9.45165,-2.359323,-0.48411033,-0.5978839,-2.3037238,-45.05625,-20.362501,-29.1,0.14659637,-0.7194931,0.15318847,1001.7275, , , , 
2025-09-27 17:56:09.988,1.0073783,-9.097511,-1.8927227,-0.77304935,-0.3346012,-1.6171118,-43.893753,-21.862501,-28.81875,0.15616779,-0.72134125,0.1368833,1001.7216, , , , 
2025-09-27 17:56:10.006,0.8135597,-9.265009,-1.3016955,-0.91477,-0.07498365,-1.1840087,-43.800003,-22.21875,-29.41875,0.15934731,-0.7221459,0.1262881,1001.7216, , , , 
2025-09-27 17:56:10.026,0.23928227,-9.571291,-0.6580262,-0.9605849,0.2554942,-0.4894554,-44.193752,-23.268751,-28.087502,0.1578007,-0.72182685,0.11294576,1001.7216, , , , 
2025-09-27 17:56:10.046,-0.8422736,-9.107083,-0.7298109,-0.9459241,0.29825473,0.21181737,-42.487503,-23.7,-29.94375,0.15117219,-0.7211195,0.10725816,1001.72064, , , , 
2025-09-27 17:56:10.066,-1.6103697,-8.130812,-0.23928227,-0.98746294,0.1424842,1.1830924,-42.05625,-20.90625,-31.06875,0.1392342,-0.72172326,0.106224656,1001.7343, , , , 
2025-09-27 17:56:10.086,0.06699903,-8.221739,0.60059845,-0.9025527,0.061239194,2.0938919,-44.60625,-20.4375,-30.675001,0.11597598,-0.7249603,0.112385824,1001.7343, , , , 
2025-09-27 17:56:10.106,1.8879371,-8.903693,0.3900301,-0.82069683,0.20051636,2.6247332,-42.881252,-17.868752,-32.550003,0.09846641,-0.72706306,0.12025637,1001.7343, , , , 
