Time,Accel_X,Accel_Y,Accel_Z,Gyro_X,Gyro_Y,Gyro_Z,Mag_X,Mag_Y,Mag_Z,Orient_X,Orient_Y,Orient_Z,Pressure,Lat,Lng,Alt,Speed
2025-09-28 19:18:23.548,-0.18185452,4.5248275,8.544769,-0.117056966,0.033979353,-9.162972E-4,-13.406251,-43.162502,-26.250002,0.17790593,0.16385253,0.68323785,995.21967,37.88837759,127.73984631,146.615478515625,0.0
2025-09-28 19:18:23.571,0.18185452,4.4075794,9.300901,-0.06146827,0.05108357,0.02046397,-12.375001,-42.45,-25.781252,0.17647628,0.16320966,0.6837756,995.21967, , , , 
2025-09-28 19:18:23.589,0.078963146,4.45065,9.219545,0.09613484,-0.008781182,-0.04734202,-14.212501,-43.612503,-26.906252,0.1762123,0.16332014,0.683787,995.2204, , , , 
2025-09-28 19:18:23.608,0.06699903,4.4841495,8.685946,0.13889538,0.021151192,-0.09010255,-11.00625,-41.550003,-26.906252,0.17669837,0.16389789,0.68331844,995.2204, , , , 
2025-09-28 19:18:23.628,-0.059820566,4.5942197,8.781659,0.08697187,0.18730642,-0.08093958,-11.306251,-43.706253,-25.81875,0.17663796,0.16594936,0.6825138,995.216, , , , 
2025-09-28 19:18:23.648,-0.09332009,4.7377887,8.630911,0.042378742,0.12194388,-0.09193515,-13.44375,-44.90625,-27.225,0.17584197,0.16772027,0.68211305,995.216, , , , 
2025-09-28 19:18:23.668,-0.2536392,4.6731825,8.781659,-0.06635518,0.11950042,-0.092546016,-12.618751,-43.59375,-25.687502,0.17478079,0.16881615,0.6814505,995.2004, , , , 
2025-09-28 19:18:23.688,-0.22731815,4.627719,8.970692,-0.09995275,0.1787543,-0.06017018,-11.64375,-42.99375,-24.281252,0.17355315,0.16928083,0.68126917,995.2004, , , , 
2025-09-28 19:18:23.708,-0.0047856453,4.773681,9.016156,-0.08834632,0.124998204,-0.026572619,-11.26875,-42.9375,-28.181252,0.17155224,0.16991292,0.6814075,995.1877, , , , 
2025-09-28 19:18:23.728,0.009571291,4.871787,8.997013,0.010002911,-0.07536544,-0.03573559,-12.168751,-43.65,-26.6625,0.17049487,0.17003308,0.68142545,995.1877, , , , 
2025-09-28 19:18:23.749,-0.20578274,4.610969,8.846265,0.08025236,-0.29710937,0.07055488,-10.2375,-44.325,-27.281252,0.1712057,0.16965362,0.6811166,995.1767, , , , 
2025-09-28 19:18:23.768,0.31345975,4.900501,8.609376,0.16577344,-0.37652177,-0.045509428,-11.212501,-42.45,-25.743752,0.176015,0.1673968,0.6803619,995.1767, , , , 
2025-09-28 19:18:23.788,0.11724831,4.8693943,8.523234,0.1645517,-0.41317368,-0.060781047,-14.2875,-44.625,-25.462502,0.17789206,0.16667421,0.67970306,995.17206, , , , 
2025-09-28 19:18:23.808,0.09092726,4.8047876,8.276773,0.09369139,-0.3661371,-0.052839804,-12.993751,-43.36875,-26.437502,0.18232356,0.16475838,0.67807406,995.17206, , , , 
2025-09-28 19:18:23.829,0.20338993,4.8382874,8.635697,-0.007101303,-0.28489205,-0.06017018,-11.681251,-44.100002,-26.85,0.185302,0.16266946,0.67674756,995.17206, , , , 
2025-09-28 19:18:23.849,0.20817557,4.694718,8.762517,-0.032757625,-0.20975569,-0.0650571,-12.7875,-43.725002,-25.518751,0.18644173,0.16134448,0.6761011,995.17206, , , , 
2025-09-28 19:18:23.868,0.069391854,4.5415773,8.695518,-0.0730747,0.21846052,-0.04856375,-11.175,-43.800003,-26.75625,0.18655708,0.16039674,0.6754662,995.1784, , , , 
2025-09-28 19:18:23.888,-0.011964113,4.634897,8.635697,-0.06207913,0.33024877,0.032070402,-13.687501,-44.456253,-24.768751,0.18423484,0.16186906,0.67590487,995.1784, , , , 
2025-09-28 19:18:23.908,0.76570326,4.5152564,8.846265,-0.082848534,0.2966512,0.046731155,-12.356251,-44.550003,-25.968752,0.1808635,0.16403878,0.6771752,995.19403, , , , 
2025-09-28 19:18:23.928,-0.3804588,4.304688,8.685946,-0.04741838,0.18364123,0.038179047,-11.793751,-43.65,-23.15625,0.17881604,0.1650405,0.67800575,995.19403, , , , 
2025-09-28 19:18:23.948,-0.10289137,4.4554358,8.690732,-0.03642281,0.17692171,0.08277218,-12.50625,-42.3375,-25.312502,0.17767853,0.16568786,0.6785474,995.20404, , , , 
2025-09-28 19:18:23.969,0.23688944,4.718646,8.738588,-0.01809687,0.2154062,0.07849612,-12.225,-42.318752,-24.562502,0.17653139,0.1663845,0.6793032,995.20404, , , , 
2025-09-28 19:18:23.988,0.12203395,4.7952166,8.719446,0.008170316,0.15676318,0.03329213,-13.031251,-42.65625,-24.150002,0.17502624,0.16816773,0.6804378,995.2194, , , , 
2025-09-28 19:18:24.008,0.076570325,4.706682,8.752945,-0.028481571,0.12316561,3.054324E-4,-11.26875,-42.693752,-25.725,0.1744692,0.1688653,0.6807028,995.2194, , , , 
2025-09-28 19:18:24.028,0.031106694,4.6612186,8.980264,-0.06818778,0.11155918,-0.030237807,-12.618751,-43.59375,-25.3875,0.17336112,0.16923515,0.6808983,995.23724, , , , 
2025-09-28 19:18:24.048,-0.13878371,4.642076,8.760123,-0.06513346,0.10545053,-0.02535089,-11.64375,-43.0125,-23.98125,0.17206965,0.16942112,0.6809426,995.23724, , , , 
2025-09-28 19:18:24.069,0.12203395,4.718646,8.927621,-0.015653409,0.08651373,-0.01924224,-10.481251,-41.756252,-25.875002,0.1709138,0.16989109,0.6810178,995.24896, , , , 
2025-09-28 19:18:24.088,0.15792629,4.8287163,9.444471,0.12851068,-0.036270097,-0.024740024,-11.00625,-43.66875,-26.325,0.17082444,0.17011687,0.68101627,995.24896, , , , 
2025-09-28 19:18:24.108,-0.46181476,4.761717,8.937193,0.22380558,-0.07903063,0.124310985,-10.21875,-44.30625,-29.306252,0.172741,0.17113738,0.68067753,995.26434, , , , 
2025-09-28 19:18:24.128,0.29910284,4.8622155,8.580662,0.1333976,-0.17799072,0.17989968,-13.650001,-44.4375,-26.156252,0.17502418,0.17204463,0.681406,995.26434, , , , 
2025-09-28 19:18:24.148,-0.076570325,4.883751,8.623733,0.11934771,-0.44616038,0.19639303,-16.10625,-43.96875,-23.1375,0.17824572,0.17090976,0.6819488,995.28534, , , , 
2025-09-28 19:18:24.168,-0.09571291,4.802395,8.700303,0.10957387,-0.6898954,0.29290965,-12.187501,-43.66875,-26.04375,0.18286484,0.16802472,0.682155,995.28534, , , , 
2025-09-28 19:18:24.188,0.29192436,4.6707897,8.166703,0.055206906,-0.55611604,0.29901832,-12.937501,-42.99375,-25.687502,0.18801822,0.16409793,0.6827815,995.32074, , , , 
2025-09-28 19:18:24.208,0.33260235,4.634897,8.4705925,-0.030314164,-0.20914483,0.22143848,-13.06875,-43.631252,-25.650002,0.19220906,0.1604475,0.6838085,995.32074, , , , 
2025-09-28 19:18:24.230,0.5168497,4.613362,8.178668,0.02527453,0.015042545,0.1499673,-13.950001,-42.112503,-24.393751,0.19326928,0.1591258,0.6849432,995.35956, , , , 
2025-09-28 19:18:24.248,0.19381863,4.5248275,7.877172,-0.022983788,0.16287182,0.109039366,-15.31875,-43.7625,-23.550001,0.19310117,0.15965638,0.68592864,995.35956, , , , 
2025-09-28 19:18:24.268,0.4331009,4.5248275,8.568698,-0.060857404,0.15493058,0.07849612,-15.7875,-45.300003,-23.1,0.19249082,0.1601538,0.68639374,995.3652, , , , 
2025-09-28 19:18:24.288,0.4642076,4.4721856,8.664411,-0.03459022,0.2862665,0.028405212,-14.1,-41.268753,-23.04375,0.18960583,0.160969,0.687792,995.3652, , , , 
2025-09-28 19:18:24.309,0.4881358,4.766503,8.647661,-0.087124586,0.26244277,0.024129158,-14.962501,-43.575,-25.143751,0.18782298,0.16193886,0.6884395,995.3527, , , , 
2025-09-28 19:18:24.328,0.4354937,4.8119664,9.219545,-0.06024654,0.09506583,-0.029626941,-16.40625,-43.36875,-23.925001,0.18607077,0.16259278,0.68900967,995.3527, , , , 
2025-09-28 19:18:24.349,0.43788654,4.8765726,8.415557,0.015500694,0.11950042,-0.040011644,-11.793751,-41.643753,-25.125002,0.1855665,0.16246305,0.6887566,995.32684, , , , 
2025-09-28 19:18:24.368,0.65324056,5.096712,7.891529,-0.08956805,0.3296379,-0.110871956,-15.075001,-42.600002,-24.2625,0.18441084,0.16432609,0.68875504,995.32684, , , , 
2025-09-28 19:18:24.389,0.50009996,4.881358,9.509077,-0.041920595,-0.017333288,-0.23060146,-13.856251,-42.581253,-26.38125,0.1829562,0.16557258,0.68817145,995.3149, , , , 
2025-09-28 19:18:24.408,0.60059845,4.692325,9.705289,0.10468695,-0.27939427,-0.30024004,-14.700001,-42.825,-23.19375,0.18346395,0.16461289,0.686391,995.3149, , , , 
2025-09-28 19:18:24.428,0.2105684,4.955536,9.042477,0.16821688,-0.2286925,-0.32162032,-14.00625,-44.49375,-23.643751,0.18552426,0.16362213,0.6837314,995.2775, , , , 
2025-09-28 19:18:24.448,0.148355,4.907679,8.30788,0.13461933,-0.25679228,-0.26908594,-13.70625,-43.95,-25.556252,0.18721002,0.16394411,0.6817382,995.2775, , , , 
2025-09-28 19:18:24.468,0.059820566,4.800002,8.578269,0.013668099,-0.022831071,-0.20922118,-11.868751,-44.25,-25.575,0.18896575,0.16492836,0.6783183,995.2575, , , , 
2025-09-28 19:18:24.488,0.18424734,4.658826,8.834301,-0.035201084,0.30520332,-0.15790854,-10.743751,-41.53125,-25.5375,0.18810734,0.16573909,0.6774845,995.2575, , , , 
2025-09-28 19:18:24.508,0.043070808,4.486542,9.032906,-0.20746495,1.1133775,-0.06017018,-13.743751,-43.21875,-24.056252,0.18026601,0.17098029,0.67839897,995.2546, , , , 
2025-09-28 19:18:24.528,0.2847459,4.87418,9.509077,0.042989608,0.054748755,-0.055283263,-13.668751,-43.4625,-22.81875,0.17531928,0.17412902,0.67943907,995.2546, , , , 
2025-09-28 19:18:24.548,-0.40438703,4.409972,9.736395,0.18409938,-0.18654284,-0.11148282,-13.05,-42.65625,-22.7625,0.17570184,0.17388332,0.6789429,995.2524,37.88837759,127.73984631,146.615478515625,0.0
2025-09-28 19:18:24.568,-0.20338993,4.644469,8.58784,0.2543488,-0.3050506,-0.016187917,-11.175,-42.206253,-24.69375,0.17751324,0.17353609,0.67769736,995.2524, , , , 
2025-09-28 19:18:24.588,-0.09810573,4.8885365,8.365308,0.13950625,-0.06498074,0.046731155,-11.118751,-42.581253,-24.206251,0.18075266,0.17398325,0.67682093,995.25433, , , , 
2025-09-28 19:18:24.608,0.21535404,4.9603214,7.166504,-0.081015944,0.34552038,0.07299834,-13.500001,-43.55625,-24.825,0.1820018,0.17527284,0.67727816,995.25433, , , , 
2025-09-28 19:18:24.628,-0.16749759,4.8287163,8.228917,-0.29542947,0.5978075,0.09987639,-14.38125,-43.537502,-24.431252,0.17804481,0.17801574,0.6788752,995.2685, , , , 
2025-09-28 19:18:24.648,-0.10767702,4.8382874,8.446664,-0.2862665,0.55260354,0.12125666,-10.575001,-44.381252,-25.406252,0.1766775,0.17857404,0.6794005,995.2685, , , , 
2025-09-28 19:18:24.668,0.35174492,5.1014977,8.015956,-0.32719445,0.48724103,0.16584979,-12.937501,-42.99375,-25.3875,0.17111057,0.18027632,0.6824392,995.2929, , , , 
2025-09-28 19:18:24.688,0.38285163,5.1828537,7.5589266,-0.44325876,0.50434524,0.1725693,-9.01875,-43.331253,-27.468752,0.16613917,0.18111742,0.6858607,995.2929, , , , 
2025-09-28 19:18:24.708,-0.38763726,4.773681,7.623533,-0.5171734,0.45853037,0.110871956,-11.00625,-42.91875,-25.743752,0.16139592,0.18171075,0.6882663,995.3239, , , , 
2025-09-28 19:18:24.728,-0.34456646,4.0103707,9.147761,-0.30703592,0.11033745,-0.0058032153,-11.606251,-43.725002,-26.250002,0.15524207,0.18091059,0.69039595,995.3239, , , , 
2025-09-28 19:18:24.748,-0.9738788,4.321438,8.762517,-0.18303037,-0.12789981,0.023518294,-11.325001,-44.68125,-28.087502,0.1531332,0.17954698,0.69084466,995.36835, , , , 
2025-09-28 19:18:24.768,-0.3589234,4.125226,9.164511,-0.0816268,-0.35941756,0.05222894,-10.81875,-42.131252,-28.275002,0.15315226,0.17566678,0.690961,995.36835, , , , 
2025-09-28 19:18:24.788,-0.51445687,4.278367,9.099904,-0.06391173,-0.24640758,0.022296565,-11.212501,-44.15625,-28.893751,0.15476967,0.17300129,0.69086605,995.4079, , , , 
2025-09-28 19:18:24.808,-0.6939186,4.35733,8.913264,-0.109726585,-0.2115883,0.024740024,-10.63125,-42.61875,-27.337502,0.15555745,0.17104131,0.69081837,995.4079, , , , 
2025-09-28 19:18:24.828,-0.5383851,4.302295,9.257831,-0.117056966,-0.26106834,0.022907428,-13.312501,-43.40625,-25.312502,0.15623994,0.16871744,0.69080454,995.44135, , , , 
2025-09-28 19:18:24.848,-0.5407779,4.2711883,9.533006,-0.092011504,-0.25618142,0.037568185,-10.78125,-43.275,-26.5125,0.15692565,0.1668429,0.69076556,995.44135, , , , 
2025-09-28 19:18:24.868,-0.4235296,4.223332,9.707682,-0.022372922,-0.24152066,0.074830934,-13.650001,-42.9375,-26.23125,0.15830766,0.16410348,0.6908437,995.45746, , , , 
2025-09-28 19:18:24.888,-0.3469593,4.2281175,9.585648,0.03932442,-0.22747077,0.11148282,-10.275001,-44.568752,-28.2,0.1598654,0.16237439,0.6910599,995.45746, , , , 
2025-09-28 19:18:24.908,0.069391854,4.338187,9.064013,0.042989608,-0.11873684,0.15057817,-10.51875,-43.59375,-28.85625,0.16192298,0.16095759,0.6917259,995.47015, , , , 
2025-09-28 19:18:24.928,0.16271193,4.4985065,8.805588,-0.005268709,-0.10346522,0.14630212,-11.043751,-44.025,-28.7625,0.16274075,0.16038667,0.6923304,995.47015, , , , 
2025-09-28 19:18:24.948,0.07178468,4.4410787,8.973084,-0.00160352,-0.21952952,0.13836087,-10.668751,-44.98125,-27.50625,0.16389835,0.15915866,0.6930479,995.47577, , , , 
2025-09-28 19:18:24.968,0.32063824,4.3525443,9.092726,0.028328855,-0.3050506,0.1432478,-9.056251,-42.9375,-29.343752,0.16539785,0.15774794,0.6934334,995.47577, , , , 
2025-09-28 19:18:24.988,0.6652047,4.321438,9.068798,0.057650365,-0.25923574,0.10293072,-10.575001,-43.631252,-25.9125,0.16784813,0.15578844,0.69378674,995.4836, , , , 
2025-09-28 19:18:25.008,0.5072784,4.4147577,8.736196,0.022831071,-0.09796744,0.028405212,-13.687501,-43.93125,-27.112501,0.17006364,0.15433145,0.6938949,995.4836, , , , 
2025-09-28 19:18:25.029,0.27038896,4.3932223,8.896515,-0.04741838,9.926553E-4,0.011911863,-13.425,-44.662502,-25.3875,0.17035572,0.1536981,0.6940298,995.48065, , , , 
2025-09-28 19:18:25.048,0.19142582,4.345366,8.963513,-0.0193186,-0.034437504,0.011300999,-13.2375,-43.03125,-25.031252,0.17020342,0.1533388,0.6941389,995.48065, , , , 
2025-09-28 19:18:25.068,0.20578274,4.347759,8.958728,-0.0022143847,-0.05093085,0.021685699,-12.656251,-43.8375,-26.1375,0.17029227,0.15315454,0.6941652,995.47675, , , , 
2025-09-28 19:18:25.088,0.5240282,4.4004006,8.95155,-0.005268709,-0.07353285,0.014355322,-11.85,-44.475002,-29.8875,0.17088374,0.15258498,0.6942262,995.47675, , , , 
2025-09-28 19:18:25.108,0.61734825,4.3262234,9.253045,-0.011377357,-0.055817768,-0.0070249448,-11.418751,-44.325,-27.6375,0.17146845,0.15164903,0.694262,995.4755, , , , 
2025-09-28 19:18:25.129,0.44745782,4.2927237,9.080762,0.019165883,-0.016111558,0.01802051,-11.418751,-45.300003,-30.206251,0.17173892,0.1507693,0.69431245,995.4755, , , , 
2025-09-28 19:18:25.148,0.6029913,4.3932223,8.997013,0.022831071,0.00160352,0.029016078,-12.4125,-44.175003,-27.843752,0.17195942,0.15044568,0.69451576,995.4621, , , , 
2025-09-28 19:18:25.168,0.634098,4.493721,8.736196,-3.8179048E-4,0.020540329,-0.0021380268,-12.187501,-44.4,-26.456251,0.17250018,0.1502166,0.6947535,995.4621, , , , 
2025-09-28 19:18:25.188,0.43788654,4.508078,8.700303,-0.025427246,-0.008170316,-0.01802051,-12.806251,-45.45,-28.35,0.17270954,0.15017794,0.69473535,995.45306, , , , 
2025-09-28 19:18:25.208,0.30388847,4.465007,8.774481,-0.019929463,-0.06314815,-0.023518294,-11.56875,-43.706253,-27.956251,0.17287219,0.1500265,0.6945971,995.45306, , , , 
2025-09-28 19:18:25.228,0.23449662,4.4410787,8.755338,-0.007101303,-0.06864593,-0.023518294,-11.962501,-43.275,-26.250002,0.17325601,0.14967811,0.6942999,995.4465, , , , 
2025-09-28 19:18:25.248,0.21296121,4.3501515,8.829515,-0.013209951,-0.014889829,-0.012522728,-13.1625,-42.768753,-26.75625,0.17343807,0.14948875,0.6940003,995.4465, , , , 
2025-09-28 19:18:25.268,0.25124636,4.359723,8.769695,-0.011377357,-0.023441937,-0.025961753,-10.950001,-44.15625,-26.75625,0.17311864,0.14953719,0.69386727,995.4357, , , , 
2025-09-28 19:18:25.288,0.16749759,4.302295,8.659625,-0.03459022,-0.07108939,-0.03084867,-13.06875,-45.24375,-27.562502,0.17308614,0.14937364,0.6935956,995.4357, , , , 
2025-09-28 19:18:25.308,0.38763726,4.1922255,9.013762,-0.06391173,-0.07658717,-0.040011644,-11.400001,-46.443752,-27.35625,0.17306465,0.14864208,0.6932956,995.4174, , , , 
2025-09-28 19:18:25.328,0.22013968,4.132405,9.142975,-0.035201084,-0.009392046,-0.043065965,-13.762501,-43.575,-27.281252,0.1726922,0.14767648,0.6930719,995.4174, , , , 
2025-09-28 19:18:25.348,0.3062813,4.168297,8.975478,-0.027870705,0.015653409,-0.025961753,-13.087501,-43.875,-27.16875,0.17195387,0.14734507,0.6929428,995.4101, , , , 
2025-09-28 19:18:25.369,0.3182454,4.206582,8.894122,-0.033368487,-0.0075594517,-0.028405212,-13.593751,-42.693752,-25.95,0.17153591,0.14716943,0.69287854,995.4101, , , , 
2025-09-28 19:18:25.388,0.25603202,4.237689,8.915657,-0.04741838,-0.074143715,-0.021685699,-11.75625,-43.85625,-27.468752,0.1711639,0.1466074,0.69266874,995.40375, , , , 
2025-09-28 19:18:25.408,0.29910284,4.2999024,8.977871,-0.018707734,-0.069867656,-0.013744458,-13.406251,-45.393753,-26.587502,0.1712577,0.14562389,0.6924187,995.40375, , , , 
2025-09-28 19:18:25.428,0.3493521,4.338187,8.745767,-0.03886627,-0.005726857,-0.0070249448,-10.743751,-44.737503,-28.44375,0.17132801,0.14521931,0.69229233,995.3918, , , , 
2025-09-28 19:18:25.448,0.31585258,4.386044,8.906086,-0.08773545,0.043753188,-0.014355322,-10.425,-43.0875,-28.10625,0.1709353,0.14501417,0.69230425,995.3918, , , , 
2025-09-28 19:18:25.468,0.25842485,4.4410787,9.126225,-0.06024654,0.060857404,-0.009468404,-13.125001,-45.487503,-26.925001,0.16999553,0.14496334,0.6923966,995.38275, , , , 
2025-09-28 19:18:25.488,0.19621146,4.469793,9.037691,-0.01687514,0.0058795735,-0.009468404,-12.750001,-45.206253,-27.900002,0.16933282,0.14515723,0.69242823,995.38275, , , , 
2025-09-28 19:18:25.508,0.2440679,4.4578285,8.85823,0.006948587,-0.0570395,-0.0058032153,-12.468751,-45.16875,-27.31875,0.16946936,0.14530559,0.6922552,995.37616, , , , 
2025-09-28 19:18:25.528,0.40438703,4.409972,8.73141,-0.0297033,3.8179048E-4,-0.029626941,-12.075001,-42.6375,-28.743752,0.16999966,0.14525048,0.6919799,995.37616, , , , 
2025-09-28 19:18:25.548,0.36370903,4.362116,8.7673025,-0.04619665,0.020540329,-0.03451386,-14.137501,-45.35625,-26.04375,0.1699963,0.14525226,0.69193417,995.37616,37.88837759,127.73984631,146.615478515625,0.0
2025-09-28 19:18:25.568,0.3062813,4.1587257,9.212367,-0.06818778,-0.030161448,-0.024129158,-12.0375,-45.15,-26.2875,0.16887318,0.14498174,0.69175047,995.3671, , , , 
2025-09-28 19:18:25.588,0.37088752,4.1611185,9.363115,-0.008323032,-0.08391755,-0.010079269,-11.137501,-44.53125,-29.493752,0.16850108,0.14413047,0.6916653,995.3669, , , , 
2025-09-28 19:18:25.608,0.44027936,4.273581,8.946764,0.011835505,-0.10407609,-0.027183482,-11.34375,-44.68125,-27.150002,0.16916062,0.14304057,0.69140726,995.3669, , , , 
2025-09-28 19:18:25.628,0.36370903,4.2711883,8.762517,-0.00160352,-0.050319985,-0.022907428,-14.6625,-43.55625,-24.862501,0.16966256,0.14266792,0.6911582,995.361, , , , 
2025-09-28 19:18:25.648,0.44506502,4.314259,8.647661,-0.022983788,0.00160352,-0.02046397,-11.4375,-42.84375,-25.85625,0.16987656,0.14257391,0.69095314,995.361, , , , 
2025-09-28 19:18:25.668,0.37806597,4.347759,8.295917,-0.029092435,-0.046043932,-0.022296565,-12.618751,-44.568752,-27.956251,0.16991888,0.14261019,0.6908154,995.34076, , , , 
2025-09-28 19:18:25.688,0.4354937,4.237689,7.685746,-0.005268709,-0.28122687,-0.010690134,-13.14375,-43.5,-27.656252,0.17074792,0.1422919,0.69046104,995.34076, , , , 
2025-09-28 19:18:25.708,0.9236295,4.1108694,6.513263,-0.00160352,-0.75159276,-0.022907428,-11.325001,-46.162502,-28.462502,0.17456171,0.13985962,0.6895129,995.3132, , , , 
2025-09-28 19:18:25.728,1.3232309,4.098905,5.4699926,-0.04925097,-1.351462,-0.06444623,-12.0,-43.518753,-26.85,0.18065655,0.13534307,0.6879928,995.3132, , , , 
2025-09-28 19:18:25.748,1.4715859,3.5150564,4.5559344,-0.08834632,-2.413145,-0.04367683,-13.012501,-42.862503,-27.69375,0.1988212,0.11750663,0.682407,995.24115, , , , 
2025-09-28 19:18:25.768,2.036292,3.0029924,3.0388846,-0.1268308,-2.9458191,0.046731155,-14.38125,-43.0125,-26.925001,0.22038467,0.094447136,0.67564183,995.24115, , , , 
2025-09-28 19:18:25.788,2.1511476,2.696711,2.0291135,-0.28015786,-3.0295074,0.160352,-18.5625,-43.95,-25.050001,0.23443122,0.07834862,0.67125547,995.1484, , , , 
2025-09-28 19:18:25.808,1.9118652,2.1511476,1.3447664,-0.5434406,-3.2921793,0.31612253,-17.325,-42.956253,-25.706251,0.24815798,0.060818214,0.6669431,995.1484, , , , 
2025-09-28 19:18:25.828,2.8785655,0.5072784,2.4717858,-0.74808025,-3.7735407,0.61605716,-22.10625,-44.0625,-24.50625,0.2754968,0.018106626,0.65851796,995.071, , , , 
2025-09-28 19:18:25.848,-0.1698904,2.0554347,2.3665016,-0.8427643,-4.771083,1.086423,-24.187502,-42.675003,-22.66875,0.29080147,-0.0073104585,0.6540346,995.071, , , , 
2025-09-28 19:18:25.869,4.2951164,-1.5361922,1.0552348,-1.6546036,-7.4924855,1.7919718,-25.7625,-41.71875,-22.875,0.32952148,-0.07675071,0.64219445,995.02997, , , , 
2025-09-28 19:18:25.888,6.647261,-2.981457,1.4500505,-1.3662754,-5.876748,1.7229441,-30.243752,-40.4625,-19.5375,0.3603179,-0.13941412,0.6292351,995.02997, , , , 
2025-09-28 19:18:25.909,5.3312087,-1.9788643,3.9457645,-0.9386701,-4.3483644,1.9611814,-32.175003,-39.05625,-18.1875,0.37594858,-0.17595863,0.62265086,995.007, , , , 
2025-09-28 19:18:25.928,6.661618,-2.2612174,3.1633115,-0.6717222,-4.6965575,2.635576,-35.15625,-35.41875,-15.150001,0.3934468,-0.21897985,0.6186713,995.007, , , , 
2025-09-28 19:18:25.948,7.025327,-3.8787656,2.3784657,-0.73525214,-2.8816783,2.8414376,-40.443752,-34.5,-11.1,0.41055,-0.2765998,0.6188567,995.0319, , , , 
2025-09-28 19:18:25.968,8.070991,-5.0751767,2.5986054,-0.73464125,-2.2983024,3.449859,-43.875,-32.381252,-8.38125,0.4123755,-0.30921677,0.62486565,995.0319, , , , 
2025-09-28 19:18:25.988,11.042876,-5.070391,3.3714871,-0.97959805,-2.309298,3.4144287,-45.506252,-30.937502,-7.36875,0.4108675,-0.33363497,0.63115007,995.0473, , , , 
2025-09-28 19:18:26.008,10.19821,-5.3216376,3.5605202,-1.1830161,-2.7307947,3.2354453,-47.4375,-28.893751,-6.9750004,0.4086843,-0.3679774,0.6357378,995.0473, , , , 
2025-09-28 19:18:26.028,8.2145605,-6.2117677,1.9740787,-1.1573597,-2.6416085,3.462687,-46.912502,-23.38125,-6.2625003,0.40543595,-0.41058323,0.638735,995.0639, , , , 
2025-09-28 19:18:26.049,10.284351,-6.977471,1.7563318,-1.3565016,-2.7417903,3.6111271,-48.506252,-22.2,-2.4562502,0.40230095,-0.43682468,0.64011365,995.0639, , , , 
2025-09-28 19:18:26.068,11.712867,-7.783852,2.7756743,-1.5287654,-2.5365396,3.5384343,-51.881252,-16.10625,1.575,0.39226684,-0.49014264,0.6394905,995.07196, , , , 
2025-09-28 19:18:26.088,12.30868,-8.221739,3.2733815,-1.4524074,-2.227442,3.498728,-50.081253,-12.20625,3.0187502,0.38545382,-0.5150079,0.63853264,995.07196, , , , 
2025-09-28 19:18:26.108,12.516855,-8.408379,2.8091738,-1.3497821,-1.8224387,3.2391105,-51.075,-9.4875,7.5937505,0.3717062,-0.5517561,0.63722265,995.0888, , , , 
2025-09-28 19:18:26.128,11.820544,-8.874979,2.400001,-1.2966368,-1.6575053,3.0454664,-50.062504,-6.1312504,5.7562504,0.35989663,-0.57735085,0.63569844,995.0888, , , , 
2025-09-28 19:18:26.148,12.265609,-9.186047,2.5387847,-1.1585814,-1.6739986,2.9965973,-48.112503,-2.0812502,7.33125,0.34824172,-0.6009871,0.63357323,995.10834, , , , 
2025-09-28 19:18:26.168,11.210374,-9.635897,2.5818555,-0.99853486,-1.4522547,2.9849908,-47.41875,-1.0125,5.7937503,0.33648607,-0.6224076,0.63164055,995.10834, , , , 
2025-09-28 19:18:26.189,12.062219,-9.793823,1.9334008,-0.7529672,-1.2885429,3.0326383,-47.756252,2.4375,6.4125004,0.3235178,-0.64147097,0.6310439,995.1364, , , , 
2025-09-28 19:18:26.208,9.987641,-11.114661,1.5577276,-0.817108,-0.8200096,3.2983644,-50.193752,1.4250001,8.418751,0.31320426,-0.65412563,0.6312613,995.1364, , , , 
2025-09-28 19:18:26.228,14.0291195,-9.700503,2.4478576,-0.862312,-0.46326458,2.9862125,-48.075,7.8375,11.231251,0.28731424,-0.6742277,0.6334681,995.1601, , , , 
2025-09-28 19:18:26.249,13.239488,-9.260223,2.4789643,-0.6943242,-0.5774963,2.4608688,-46.48125,10.5,9.825001,0.27009872,-0.6871662,0.63376284,995.1601, , , , 
2025-09-28 19:18:26.268,12.68196,-9.116654,2.2755744,-0.60819227,-0.59032446,2.3264785,-46.068752,11.15625,10.368751,0.26666278,-0.68988276,0.63371366,995.1601, , , , 
2025-09-28 19:18:26.288,11.897114,-8.7984085,2.2277179,-0.24411684,-0.76930785,1.7895284,-46.3125,14.3625,11.45625,0.24485067,-0.7067055,0.6340669,995.1894, , , , 
2025-09-28 19:18:26.308,11.25823,-8.023134,1.9812572,-0.053527027,-0.34414595,1.4107922,-45.5625,15.4125,14.400001,0.23840383,-0.7119926,0.63473105,995.2138, , , , 
2025-09-28 19:18:26.328,10.0163555,-7.7671022,1.0624132,-0.031535894,-0.023441937,1.4156791,-47.775,16.050001,13.968751,0.2307091,-0.7149145,0.63680625,995.2138, , , , 
2025-09-28 19:18:26.348,9.77468,-7.3866434,0.63888365,-0.052305296,0.52083856,1.3631448,-44.925003,16.237501,11.962501,0.21777254,-0.7179883,0.64001864,995.2448, , , , 
2025-09-28 19:18:26.368,9.939785,-6.9942207,0.74416786,0.05093085,0.5587122,1.3179407,-43.893753,17.71875,11.775001,0.20547235,-0.71934825,0.64335275,995.2448, , , , 
2025-09-28 19:18:26.388,9.71486,-6.8243303,0.9595219,0.33376125,0.28015786,1.3234385,-43.18125,17.53125,11.400001,0.19718458,-0.7196848,0.64635503,995.2707, , , , 
2025-09-28 19:18:26.408,10.238888,-6.4606214,0.8279166,0.8566615,0.31497714,1.2305871,-42.28125,19.7625,10.25625,0.18570329,-0.7173057,0.65422535,995.2707, , , , 
2025-09-28 19:18:26.428,10.614561,-5.895915,0.485743,1.2537236,0.3766745,0.89155716,-45.15,20.94375,12.337501,0.17838302,-0.7114941,0.66369057,995.28705, , , , 
2025-09-28 19:18:26.449,9.91825,-5.9916277,-1.6534405,1.1046726,-0.033215772,0.5335904,-43.143753,21.28125,10.40625,0.1744634,-0.7036359,0.67384624,995.28705, , , , 
2025-09-28 19:18:26.468,9.30808,-5.4556355,-2.5292134,0.3777435,-0.46326458,0.30879214,-41.362503,22.5,5.9812503,0.17531218,-0.69917774,0.67929536,995.28705, , , , 
2025-09-28 19:18:26.488,9.265009,-5.032106,-1.4691931,0.13767365,-0.105908684,0.22754712,-42.506252,20.737501,9.3,0.17713349,-0.69827497,0.68046755,995.28705, , , , 
2025-09-28 19:18:26.508,9.375079,-4.9603214,-1.174876,-0.046807513,0.01687514,0.08093958,-41.11875,22.3875,7.6687503,0.17751028,-0.6981446,0.6806093,995.3139, , , , 
2025-09-28 19:18:26.528,8.863015,-4.9938207,-1.5122639,-0.1268308,-0.017333288,-0.033902995,-42.7125,23.325,9.168751,0.17821777,-0.698571,0.67975354,995.3139, , , , 
2025-09-28 19:18:26.548,8.4705925,-4.855037,-1.8664017,-0.24961463,-0.20303617,-0.040622506,-41.15625,22.368752,9.825001,0.17944126,-0.69942486,0.6783946,995.3376,37.88837759,127.73984631,146.615478515625,0.0
2025-09-28 19:18:26.568,9.667004,-5.123033,-1.6103697,-0.464639,-0.5994874,0.05589413,-41.381252,22.706251,10.293751,0.18345849,-0.70286834,0.6740274,995.3376, , , , 
2025-09-28 19:18:26.588,11.399407,-5.245067,-0.9595219,-0.5984184,-0.6294198,-0.08093958,-42.600002,22.462502,9.50625,0.1878092,-0.7069045,0.6690294,995.3361, , , , 
2025-09-28 19:18:26.608,12.423535,-5.7858453,0.5096712,-0.5690969,-0.1871537,-0.4951059,-41.081253,21.2625,9.1125,0.19332083,-0.7106147,0.66335326,995.3361, , , , 
2025-09-28 19:18:26.628,12.401999,-6.3290157,1.5457634,-0.36140287,0.29787293,-0.8176425,-41.5125,22.181252,11.887501,0.19818355,-0.7121396,0.6589826,995.3283, , , , 
2025-09-28 19:18:26.648,12.624533,-7.001399,1.7563318,-0.12316561,0.4163807,-1.0552689,-42.862503,24.393751,14.212501,0.20286582,-0.7108021,0.65672106,995.3283, , , , 
2025-09-28 19:18:26.668,13.840086,-7.9011,2.3401806,0.25923574,-0.014278964,-1.4822634,-40.818752,21.2625,11.56875,0.2127899,-0.7058738,0.65561837,995.31903, , , , 
2025-09-28 19:18:26.688,13.895121,-8.580662,1.9740787,0.5237402,-0.36858055,-1.8249586,-43.18125,21.2625,12.88125,0.22292474,-0.7010724,0.6554917,995.31903, , , , 
2025-09-28 19:18:26.709,13.861622,-10.023534,0.6795616,0.69966924,-0.6257546,-2.223853,-43.4625,18.375,12.0,0.24583018,-0.69068426,0.65523845,995.3095, , , , 
2025-09-28 19:18:26.728,13.10549,-9.999606,-0.06460621,0.5487856,-0.50174904,-2.4138322,-42.956253,18.056252,12.900001,0.26672086,-0.6813331,0.6540571,995.3095, , , , 
2025-09-28 19:18:26.748,12.701102,-9.370294,0.07178468,0.35941756,-0.29588762,-2.550055,-40.875,14.64375,13.481251,0.28199843,-0.6744215,0.65212786,995.28876, , , , 
2025-09-28 19:18:26.768,12.105289,-8.683554,1.0025927,0.22685991,-0.030161448,-2.739423,-44.2125,13.312501,13.762501,0.3012275,-0.6651325,0.64828116,995.28876, , , , 
2025-09-28 19:18:26.790,11.057234,-8.420342,1.6749759,0.4486038,0.22456917,-3.01981,-48.093754,10.1625,15.1125,0.3287442,-0.6480762,0.6424704,995.2824, , , , 
2025-09-28 19:18:26.808,10.3441725,-8.523234,0.66999036,0.6000983,0.3351357,-3.1163266,-46.800003,7.93125,15.4125,0.34731987,-0.6337391,0.63944364,995.2824, , , , 
2025-09-28 19:18:26.828,10.310673,-8.477771,0.14356937,0.60620695,0.38644832,-3.1438155,-48.73125,5.49375,14.3625,0.35643402,-0.62602264,0.63796824,995.2763, , , , 
2025-09-28 19:18:26.848,10.861022,-8.571091,-0.5168497,0.50174904,0.3363574,-3.2543821,-46.537502,3.24375,13.650001,0.37890273,-0.60632634,0.6330753,995.2763, , , , 
2025-09-28 19:18:26.868,10.602597,-8.867801,-0.41874397,0.43699738,0.12072215,-3.408931,-50.718754,-2.68125,16.59375,0.39294478,-0.594424,0.6286941,995.27094, , , , 
2025-09-28 19:18:26.889,9.410972,-9.030513,-0.43070808,0.29405504,-0.1437823,-3.5017824,-47.5125,-5.925,13.031251,0.42365918,-0.571108,0.61575186,995.27094, , , , 
2025-09-28 19:18:26.908,8.618947,-8.788837,-0.526421,0.08880447,0.102396205,-3.440085,-49.312504,-8.3625,12.900001,0.44310364,-0.556019,0.6053311,995.26996, , , , 
2025-09-28 19:18:26.928,7.6594253,-8.405986,-0.18903299,-0.08223767,0.32719445,-3.2696538,-47.86875,-13.556251,12.1125,0.4594791,-0.54106265,0.59467363,995.26996, , , , 
2025-09-28 19:18:26.948,6.795616,-7.881958,0.72263247,-0.082848534,0.3937787,-3.0821183,-46.96875,-12.843751,11.681251,0.47281265,-0.5264803,0.5844342,995.27875, , , , 
2025-09-28 19:18:26.968,6.35773,-7.3196445,1.174876,0.07170025,0.3351357,-2.8994696,-47.98125,-17.04375,12.187501,0.48182932,-0.5155496,0.57735014,995.27875, , , , 
2025-09-28 19:18:26.989,4.106084,-6.391229,0.64606214,0.37713265,0.073685564,-2.5036292,-48.018753,-20.90625,11.94375,0.49997106,-0.49354318,0.5647055,995.2885, , , , 
2025-09-28 19:18:27.009,2.5531418,-5.6614184,-0.26081768,0.474871,-0.26106834,-1.9862268,-45.45,-22.125,10.200001,0.51222306,-0.48062155,0.557244,995.2885, , , , 
2025-09-28 19:18:27.028,2.1415763,-5.419743,-0.7968099,0.45226902,-0.34109163,-1.6850705,-44.325,-22.893751,11.6625,0.51816034,-0.4754523,0.55376554,995.28827, , , , 
2025-09-28 19:18:27.048,2.0003998,-4.7449675,-1.4093726,0.20670137,-0.14866921,-0.7956514,-44.756252,-24.937502,12.900001,0.53170997,-0.46525005,0.5457911,995.28827, , , , 
2025-09-28 19:18:27.068,1.8783658,-4.6372905,-1.4524434,0.09735657,0.03459022,-0.48777553,-43.65,-27.54375,11.700001,0.5351621,-0.46252704,0.5437212,995.2956, , , , 
2025-09-28 19:18:27.088,0.7585248,-5.020142,-1.9477576,-0.18180864,0.24167338,0.2855793,-43.518753,-26.906252,11.6625,0.534657,-0.4613713,0.5441314,995.2956, , , , 
2025-09-28 19:18:27.108,0.72741807,-5.3503513,-1.5888343,-0.35651594,0.1353829,0.9269873,-43.612503,-25.931252,11.75625,0.52957684,-0.4657082,0.5467741,995.2939, , , , 
2025-09-28 19:18:27.128,1.079163,-5.278567,-1.3160524,-0.5049561,0.1390481,1.5317434,-44.662502,-25.29375,12.0,0.52123713,-0.47440886,0.55107766,995.2939, , , , 
2025-09-28 19:18:27.148,1.6654046,-5.2905307,-0.9523434,-0.64973104,0.34124434,1.9410229,-44.568752,-24.2625,10.21875,0.5124522,-0.48295695,0.55563426,995.2968, , , , 
2025-09-28 19:18:27.169,1.8233309,-5.4460645,-0.20578274,-0.74502593,0.6069705,2.2672246,-46.65,-23.5125,12.4125,0.49684957,-0.49562728,0.56372994,995.2968, , , , 
2025-09-28 19:18:27.188,2.5028925,-6.647261,0.8255238,-0.50373435,0.34490952,2.6740606,-47.04375,-17.56875,11.025001,0.46861985,-0.51586413,0.57913756,995.30316, , , , 
2025-09-28 19:18:27.208,2.900101,-7.8580294,0.2943172,-0.21235187,-0.2531271,2.9080217,-48.99375,-17.1375,10.59375,0.45166364,-0.5305358,0.5895783,995.30316, , , , 
2025-09-28 19:18:27.229,3.3260236,-9.812965,-0.7752745,-0.004657844,-0.8603267,3.2617126,-49.4625,-14.325001,11.1,0.4373625,-0.5470428,0.5991924,995.2939, , , , 
2025-09-28 19:18:27.248,3.4791641,-10.932807,-1.1222339,0.05093085,-1.1217768,3.526217,-49.55625,-11.7375,13.275001,0.42728305,-0.56080854,0.60596305,995.2939, , , , 
2025-09-28 19:18:27.268,3.9074793,-12.227324,-1.8496519,0.047876526,-1.4241549,3.946492,-45.91875,-8.26875,13.012501,0.41690513,-0.57582545,0.6124327,995.2841, , , , 
2025-09-28 19:18:27.288,6.1447687,-13.787444,-1.672583,-0.35834855,-1.4791327,4.678919,-49.0875,-2.7562501,14.868751,0.39196694,-0.6102442,0.623143,995.2841, , , , 
2025-09-28 19:18:27.308,6.9009004,-13.823337,-0.97866446,-0.45730865,-1.3245839,4.7839875,-48.16875,-1.1625,13.9125,0.38129357,-0.6225976,0.62597084,995.2729, , , , 
2025-09-28 19:18:27.328,8.664411,-13.557734,1.3040884,-0.5312233,-0.4247801,4.907993,-45.75,4.3125,13.968751,0.35529402,-0.6460164,0.6318404,995.2729, , , , 
2025-09-28 19:18:27.348,9.348758,-13.057633,1.5266209,-0.2532798,0.7706823,4.6721992,-43.162502,12.675,13.368751,0.29693633,-0.6763471,0.6466507,995.2753, , , , 
2025-09-28 19:18:27.368,8.872586,-12.799209,0.95473623,-0.046807513,0.63568115,4.5359764,-43.6875,14.887501,10.06875,0.26110223,-0.6880753,0.6561165,995.2753, , , , 
2025-09-28 19:18:27.388,9.360723,-12.449856,-0.11246266,0.131565,0.005268709,4.407695,-43.40625,18.6375,11.981251,0.2365375,-0.69529384,0.6624033,995.27386, , , , 
2025-09-28 19:18:27.408,10.540383,-11.906686,-1.2514462,0.15599959,-0.4785362,4.1560187,-44.456253,18.525002,11.793751,0.20913617,-0.7035824,0.66867113,995.27386, , , , 
2025-09-28 19:18:27.428,11.298908,-11.284552,-1.2993027,-0.07857248,-0.19876012,3.5604253,-41.4375,22.6875,13.2375,0.18057048,-0.7125035,0.6727807,995.27045, , , , 
2025-09-28 19:18:27.448,11.207981,-11.10509,-1.2921243,-0.16592614,0.0064904382,3.4168723,-40.0875,26.437502,12.262501,0.16943192,-0.71573436,0.6735729,995.27045, , , , 
2025-09-28 19:18:27.468,10.667203,-10.516456,-0.3397808,-0.5397754,1.0547343,2.9068,-34.96875,28.462502,11.625,0.13310455,-0.7253312,0.6735834,995.2751, , , , 
2025-09-28 19:18:27.488,10.454242,-10.10489,0.5168497,-0.5898663,1.3717732,2.600757,-37.125,30.337502,14.212501,0.10014317,-0.7328018,0.67182064,995.2751, , , , 
2025-09-28 19:18:27.511,10.447063,-9.413364,0.6795616,-0.4896845,1.427362,2.3545783,-34.78125,32.4375,12.918751,0.07447751,-0.7375134,0.67022955,995.2802, , , , 
2025-09-28 19:18:27.528,10.705488,-8.52802,0.8566305,-0.33941174,1.2801435,2.0589197,-31.63125,34.03125,10.8,0.050960273,-0.7407736,0.6689648,995.2802, , , , 
2025-09-28 19:18:27.548,11.006984,-8.281559,0.85184485,-0.13843723,1.0614539,1.8078543,-33.43125,33.225002,11.493751,0.03581985,-0.7420586,0.66859937,995.29535,37.88837759,127.73984631,146.615478515625,0.0
2025-09-28 19:18:27.568,11.344372,-7.946564,0.27756742,0.102854356,0.76762795,1.5311326,-29.531252,36.375,8.887501,0.023284364,-0.7421907,0.6690832,995.29535, , , , 
2025-09-28 19:18:27.588,11.638689,-7.716853,-1.6773686,0.22808164,0.464639,1.1255183,-31.875002,35.006252,10.6125,0.0077613364,-0.74055505,0.67137265,995.29803, , , , 
2025-09-28 19:18:27.608,12.335001,-8.035098,-2.0721843,0.124234624,0.30398157,0.8457423,-29.812502,35.71875,9.431251,-7.15565E-4,-0.73928064,0.67288756,995.29803, , , , 
2025-09-28 19:18:27.629,13.301702,-8.166703,-1.5840486,-0.013820816,0.030314164,0.3252855,-28.1625,35.381252,11.2875,-0.0058687837,-0.7389197,0.6732817,995.28973, , , , 
2025-09-28 19:18:27.649,13.433307,-8.422736,-0.9236295,-0.026038112,-0.15050182,-0.062002774,-26.456251,36.43125,9.65625,-0.0047459113,-0.73919535,0.6729487,995.28973, , , , 
2025-09-28 19:18:27.669,13.691731,-9.432507,-0.12203395,0.09796744,-0.3569741,-0.5647445,-29.00625,36.9,11.118751,0.0025478664,-0.7391569,0.67285573,995.28656, , , , 
2025-09-28 19:18:27.688,14.230116,-8.815159,-0.20817557,0.28733552,-0.52496195,-0.90560704,-27.750002,36.45,8.08125,0.010025802,-0.73827296,0.67362136,995.28656, , , , 
2025-09-28 19:18:27.708,14.790037,-8.224132,-1.308874,0.29833108,-0.4229475,-1.4034618,-26.718752,36.300003,6.9,0.023372676,-0.73613006,0.6753147,995.2973, , , , 
2025-09-28 19:18:27.728,14.395221,-8.99462,-1.7970098,0.0881936,-0.12912154,-2.0021093,-28.63125,34.96875,8.71875,0.035400216,-0.73476297,0.675765,995.2973, , , , 
2025-09-28 19:18:27.748,12.12204,-11.277373,-0.36370903,-0.08223767,0.049861837,-2.8493788,-30.993752,33.2625,6.9187503,0.063537575,-0.7331348,0.673122,995.2973, , , , 
2025-09-28 19:18:27.768,10.602597,-12.30868,0.6053841,0.05215258,-0.074143715,-3.187187,-31.575,34.800003,7.65,0.085857876,-0.7309699,0.67036474,995.2973, , , , 
2025-09-28 19:18:27.788,9.798609,-12.459428,1.1318051,0.27084216,-0.22502731,-3.399157,-37.143753,29.343752,11.793751,0.11072519,-0.7267665,0.66793424,995.31415, , , , 
2025-09-28 19:18:27.808,9.937392,-12.981063,0.863809,0.41195193,-0.3991238,-3.553706,-37.2,29.718752,11.00625,0.13089913,-0.7221141,0.66642624,995.31415, , , , 
2025-09-28 19:18:27.828,9.801002,-13.552947,0.35413775,0.49686214,-0.6898954,-3.6801548,-40.65,27.018751,9.50625,0.16026029,-0.71440077,0.6641027,995.3359, , , , 
2025-09-28 19:18:27.848,9.657433,-13.866407,-0.10767702,0.42783442,-1.052749,-3.7449064,-42.3375,24.375002,7.8375,0.20043842,-0.70375687,0.6592179,995.3359, , , , 
2025-09-28 19:18:27.868,10.399207,-13.127025,1.105484,0.2946659,-1.2390629,-3.7913322,-43.912502,18.956251,10.63125,0.24180287,-0.693079,0.6512834,995.3427, , , , 
2025-09-28 19:18:27.888,10.932807,-13.366307,1.442872,0.24762931,-1.0997857,-3.9947503,-44.98125,17.362501,11.606251,0.2754811,-0.68360394,0.64310247,995.3427, , , , 
2025-09-28 19:18:27.909,10.246066,-13.897514,1.079163,0.116904244,-0.34964374,-4.2916307,-45.35625,14.175,13.9875,0.31539005,-0.66892755,0.63164115,995.36346, , , , 
2025-09-28 19:18:27.928,9.0544405,-13.895121,0.8350951,0.060704686,0.059635673,-4.339889,-46.706253,8.212501,13.2375,0.3366263,-0.65850955,0.6246133,995.36346, , , , 
2025-09-28 19:18:27.948,8.178668,-13.689339,0.526421,0.028939718,0.17631085,-4.29835,-44.9625,5.26875,13.837501,0.3623634,-0.64338684,0.615048,995.36957, , , , 
2025-09-28 19:18:27.968,7.3627152,-13.232309,0.33499518,-0.004657844,0.13355032,-4.2299333,-45.768753,2.8125,14.512501,0.38057598,-0.6316445,0.6073647,995.36957, , , , 
2025-09-28 19:18:27.988,6.5682983,-12.423535,0.39720857,-0.07429643,0.037644543,-4.130362,-48.15,-1.7812501,13.650001,0.40404922,-0.616054,0.59598243,995.3759, , , , 
2025-09-28 19:18:28.008,5.532206,-11.227124,1.3926228,-0.12927426,0.03642281,-4.037511,-49.0125,-7.3500004,16.21875,0.4372492,-0.59301984,0.5765293,995.3759, , , , 
2025-09-28 19:18:28.028,3.6658044,-10.423136,1.8424734,0.04848739,0.11827869,-3.9574876,-50.006252,-11.56875,15.7875,0.45800665,-0.57646453,0.5633681,995.3825, , , , 
2025-09-28 19:18:28.048,2.754139,-9.865608,1.564906,0.13889538,0.16531529,-3.900677,-47.8125,-13.931251,13.837501,0.46800956,-0.56753,0.55722153,995.3825, , , , 
2025-09-28 19:18:28.068,-1.3112668,-9.262616,-1.3471591,0.115071654,0.622853,-3.2928667,-46.912502,-17.456251,14.1,0.49427804,-0.53933704,0.54141474,995.3798, , , , 
2025-09-28 19:18:28.088,-2.120041,-9.702896,-1.8735801,-0.052305296,0.40416342,-2.5647159,-46.987503,-20.587502,15.675,0.50628185,-0.5230021,0.5328916,995.3798, , , , 
2025-09-28 19:18:28.108,-1.4715859,-9.7196455,-1.0624132,-0.07979421,-0.09430225,-1.9471315,-45.6375,-20.550001,13.668751,0.515468,-0.51222974,0.5247377,995.36786, , , , 
2025-09-28 19:18:28.128,-0.6149554,-9.2793665,-0.46181476,0.008781182,-0.49502954,-1.5195261,-44.643753,-23.56875,14.043751,0.52210885,-0.5076075,0.5186312,995.36786, , , , 
2025-09-28 19:18:28.148,-1.0432707,-8.7673025,-1.3591232,-0.056581352,-0.29344416,-0.82314026,-43.350002,-24.431252,14.118751,0.53371215,-0.5033172,0.50826585,995.36346, , , , 
2025-09-28 19:18:28.168,-2.1750758,-9.877572,-1.1365907,-0.10361794,-0.13950625,-0.1933387,-43.66875,-25.218752,15.431251,0.5366353,-0.5025901,0.50491333,995.36346, , , , 
2025-09-28 19:18:28.188,-2.28036,-11.69851,-1.2179468,0.035048366,-0.4492147,0.5232057,-43.74375,-27.825,14.512501,0.5362157,-0.50558156,0.50479,995.362, , , , 
2025-09-28 19:18:28.208,-1.8831514,-12.736995,-2.498107,0.11568252,-0.7546471,1.3429862,-41.831253,-26.493752,11.75625,0.5347336,-0.5115723,0.50644004,995.362, , , , 
2025-09-28 19:18:28.228,-0.81834537,-11.794223,-2.806781,-0.06024654,-0.6410262,2.1841471,-41.662502,-24.862501,13.200001,0.5292278,-0.5247392,0.5110716,995.3471, , , , 
2025-09-28 19:18:28.248,2.2875385,-10.100104,-0.7393822,-0.25755587,0.06330086,3.028362,-42.768753,-24.2625,16.050001,0.5121633,-0.5460094,0.52227545,995.3471, , , , 
2025-09-28 19:18:28.268,4.7880383,-9.856036,0.4977071,0.008170316,0.50923216,3.263545,-45.581253,-20.7,17.081251,0.48652026,-0.5659582,0.5397261,995.341, , , , 
2025-09-28 19:18:28.288,5.0536413,-10.176675,0.32063824,0.19142975,0.4805215,3.2763731,-44.98125,-17.362501,12.95625,0.47570947,-0.5727817,0.54778844,995.341, , , , 
2025-09-28 19:18:28.308,4.8909297,-11.763116,-1.7371893,0.6501892,-0.17066035,3.5188866,-46.36875,-12.543751,14.062501,0.4461578,-0.5917043,0.57216305,995.34076, , , , 
2025-09-28 19:18:28.328,5.383851,-12.77528,-3.1226335,0.55550516,-0.025885396,3.8402014,-47.5125,-10.06875,16.21875,0.42731395,-0.60502505,0.5876044,995.34076, , , , 
2025-09-28 19:18:28.348,6.0729837,-13.115061,-3.5820556,0.25740314,0.5012909,4.072941,-46.912502,-8.625,14.981251,0.409948,-0.6154057,0.59934765,995.3293, , , , 
2025-09-28 19:18:28.369,7.475178,-12.825529,-1.8544376,-0.22762349,0.8415426,4.265363,-47.643753,-0.61875004,15.375001,0.3641125,-0.6370412,0.6216751,995.3293, , , , 
2025-09-28 19:18:28.388,8.085348,-12.567104,-0.7680961,-0.22456917,0.29420775,4.230544,-48.73125,3.15,11.868751,0.33253342,-0.65172607,0.63337445,995.31537, , , , 
2025-09-28 19:18:28.408,8.590233,-12.375679,-0.91166544,-0.19341506,-0.102854356,4.1401362,-46.800003,10.05,14.981251,0.30425507,-0.66584927,0.6423614,995.31537, , , , 
2025-09-28 19:18:28.428,8.578269,-12.294323,-0.9020941,-0.234343,-0.18532111,4.097986,-48.956253,10.200001,14.437501,0.29096293,-0.6726162,0.6459745,995.31195, , , , 
2025-09-28 19:18:28.448,8.8701935,-12.669996,-0.11964113,-0.302149,-0.0032833982,4.069276,-45.5625,14.437501,11.3625,0.2576688,-0.68856996,0.6532213,995.31195, , , , 
2025-09-28 19:18:28.468,9.475577,-12.547962,-0.06460621,-0.3278053,0.15493058,4.0130763,-44.2125,16.06875,11.137501,0.22960755,-0.6997567,0.65809095,995.3088, , , , 
2025-09-28 19:18:28.488,9.934999,-12.138789,-0.24885355,-0.4841867,0.30275986,3.7864454,-42.2625,18.393751,10.012501,0.19428477,-0.71207786,0.66224545,995.3088, , , , 
2025-09-28 19:18:28.508,10.0163555,-11.813365,0.4953143,-0.70043284,0.5929206,3.6062403,-41.98125,23.625,13.087501,0.15880553,-0.72363424,0.6633611,995.31024, , , , 
2025-09-28 19:18:28.528,10.322637,-11.526227,1.0600204,-0.75052375,0.8555925,3.4565783,-39.2625,26.1375,12.825001,0.12957458,-0.7320256,0.66279894,995.31024, , , , 
2025-09-28 19:18:28.548,10.219746,-10.856236,1.564906,-0.7438042,1.0834451,3.2830927,-37.95,25.29375,11.025001,0.09982127,-0.7391929,0.661566,995.31635,37.88835757,127.73986264,147.1646728515625,1.7
2025-09-28 19:18:28.568,10.461421,-9.930214,2.6368906,-0.5611557,0.8360448,3.1242678,-35.04375,28.06875,11.34375,0.0707937,-0.7448288,0.66017365,995.31635, , , , 
2025-09-28 19:18:28.588,12.038291,-8.8701935,3.7256248,0.14928009,-0.29405504,2.7950118,-34.575,30.487501,11.925,0.047470167,-0.7475362,0.66045904,995.33124, , , , 
2025-09-28 19:18:28.608,13.66541,-8.968299,1.9310079,0.9641737,-1.1944697,2.3680174,-31.650002,34.0125,11.56875,0.034187533,-0.74526304,0.6650862,995.33124, , , , 
2025-09-28 19:18:28.628,14.4693985,-8.970692,-1.5816557,1.3893356,-1.2714387,1.9654574,-30.4125,35.025,10.6125,0.028750274,-0.7383614,0.6736954,995.34784, , , , 
2025-09-28 19:18:28.649,15.328422,-8.274381,-5.1469617,1.1370485,-0.809014,1.5183045,-26.2875,35.193752,10.931251,-0.02492977,0.72829574,-0.68473417,995.34784, , , , 
2025-09-28 19:18:28.668,15.720845,-8.360522,-6.1902323,0.5237402,-0.35453063,1.0473276,-26.868752,38.11875,10.9875,-0.022343867,0.72347665,-0.68968505,995.31805, , , , 
2025-09-28 19:18:28.688,16.130018,-8.953942,-5.426922,-0.10911572,0.23495387,0.6013964,-25.35,36.16875,10.78125,-0.01983788,0.72295046,-0.6902023,995.31805, , , , 
2025-09-28 19:18:28.708,16.527225,-9.394221,-2.7397819,-0.48663014,0.73403037,0.14080434,-26.00625,36.35625,9.0,-0.016589122,0.7258693,-0.6873417,995.3061, , , , 
2025-09-28 19:18:28.728,16.740187,-9.0544405,-0.83030945,-0.35529423,0.6442333,-0.4242456,-24.35625,37.518753,11.0625,-0.015280061,0.7293074,-0.6839276,995.3061, , , , 
2025-09-28 19:18:28.748,16.206587,-7.9704924,-0.85902333,-0.01687514,0.12011129,-1.2825106,-28.575,36.206253,11.587501,0.020313388,-0.7305676,0.68253815,995.3293, , , , 
2025-09-28 19:18:28.768,14.723038,-8.159525,-1.6438692,0.086361006,-0.32582,-2.071137,-25.725,37.7625,8.56875,0.034008674,-0.7299699,0.6825062,995.3293, , , , 
2025-09-28 19:18:28.788,13.050455,-9.767502,-1.9118652,0.06253728,-0.70150185,-2.789514,-29.23125,35.025,10.650001,0.055321284,-0.72856396,0.6821761,995.3354, , , , 
2025-09-28 19:18:28.808,11.609976,-12.016755,-1.6749759,0.014278964,-0.985554,-3.1676393,-29.550001,34.237503,10.556251,0.089871116,-0.725972,0.6801907,995.3354, , , , 
2025-09-28 19:18:28.828,11.638689,-13.399807,-1.7443677,-0.12194388,-0.9525673,-3.42237,-33.0,32.5125,12.1125,0.120806344,-0.7232812,0.67695254,995.3493, , , , 
2025-09-28 19:18:28.848,11.980863,-14.289937,-1.402194,-0.39500043,-0.5603921,-3.7345219,-35.925003,30.337502,12.075001,0.15197387,-0.72050107,0.6715853,995.3493, , , , 
2025-09-28 19:18:28.868,11.136196,-14.110476,-0.8135597,-0.56848603,0.05902481,-4.009411,-40.10625,27.16875,13.6125,0.18153806,-0.7173124,0.6642635,995.362, , , , 
2025-09-28 19:18:28.888,10.442278,-13.849657,-0.3589234,-0.6582832,0.6314051,-4.170679,-41.193752,25.312502,13.368751,0.20785995,-0.7128686,0.65591204,995.362, , , , 
2025-09-28 19:18:28.908,10.485349,-13.988441,0.45942193,-0.6314051,0.73647386,-4.343554,-42.675003,22.2,10.6125,0.23153947,-0.70666105,0.64690167,995.3791, , , , 
2025-09-28 19:18:28.928,10.829915,-14.287544,1.9764715,-0.3766745,0.1476002,-4.578737,-42.787502,20.306252,12.431251,0.25677562,-0.6983159,0.6369413,995.3791, , , , 
2025-09-28 19:18:28.948,10.8969145,-14.746966,2.3425734,-0.026648976,-0.6410262,-4.970912,-43.95,14.062501,15.225,0.29643083,-0.6841162,0.62286425,995.4023, , , , 
2025-09-28 19:18:28.968,9.293723,-15.4217415,2.2564318,0.116293386,-0.9024764,-5.1969323,-45.487503,10.8,15.431251,0.3337344,-0.6698831,0.60946876,995.4023, , , , 
2025-09-28 19:18:28.988,7.537391,-15.493526,1.6845472,0.13645191,-0.71494085,-5.108968,-46.518753,3.4875002,15.337501,0.37092656,-0.6536359,0.5949917,995.4362, , , , 
2025-09-28 19:18:29.008,6.3696938,-14.565111,1.5122639,0.131565,-0.17432554,-4.8236938,-46.818752,-0.675,18.375,0.40388328,-0.6358864,0.58088726,995.4362, , , , 
2025-09-28 19:18:29.028,6.1232333,-13.718052,1.0695918,0.19326234,0.14393501,-4.537809,-46.5,-4.875,18.431252,0.43171173,-0.6165814,0.56836224,995.4423, , , , 
2025-09-28 19:18:29.048,5.8863435,-12.727424,0.19860429,0.22624904,0.21784966,-4.3728757,-47.568752,-8.71875,18.300001,0.4561686,-0.5962586,0.5568436,995.4423, , , , 
2025-09-28 19:18:29.068,4.84068,-11.813365,-0.2727818,0.20303617,0.07429643,-4.228101,-47.41875,-13.181251,17.15625,0.48481083,-0.5705886,0.54165816,995.4367, , , , 
2025-09-28 19:18:29.088,2.507678,-11.356337,-0.39720857,0.12545635,0.0730747,-3.9403832,-47.5875,-16.931252,17.081251,0.506137,-0.55080193,0.5285318,995.4367, , , , 
2025-09-28 19:18:29.108,0.5192425,-10.7126665,-0.53359944,0.0570395,0.0956767,-3.4382524,-46.143753,-21.375,16.706251,0.5244073,-0.53253603,0.5159298,995.4245, , , , 
2025-09-28 19:18:29.128,-0.44985065,-9.97807,-0.3278167,0.038713556,-0.017944153,-2.8316636,-42.862503,-23.400002,15.243751,0.5392782,-0.51701826,0.5045865,995.4245, , , , 
2025-09-28 19:18:29.148,-0.87338024,-9.202796,-0.52163535,0.023441937,-0.13095413,-2.1505494,-44.0625,-24.900002,16.3875,0.5514983,-0.5048817,0.49464437,995.41815, , , , 
2025-09-28 19:18:29.168,-1.4404793,-9.020942,-0.8877372,-0.09812015,0.14210242,-1.57878,-42.75,-28.48125,16.44375,0.56042486,-0.495741,0.48682427,995.41815, , , , 
2025-09-28 19:18:29.188,-2.1391835,-9.092726,-0.5814559,-0.18913901,0.38705918,-1.0210605,-40.18125,-27.581251,14.2875,0.5644364,-0.48901212,0.4824624,995.40936, , , , 
2025-09-28 19:18:29.208,-2.725425,-9.322437,-0.7178468,-0.21784966,0.40294167,-0.27275112,-40.59375,-28.875002,14.700001,0.5642325,-0.48529512,0.48160285,995.40936, , , , 
2025-09-28 19:18:29.228,-2.5555346,-10.195817,0.05742774,-0.21784966,0.18180864,0.38148504,-40.912502,-30.4125,15.13125,0.5610136,-0.4857,0.4832469,995.393, , , , 
2025-09-28 19:18:29.248,-2.5914268,-10.186246,1.268196,0.05948296,-0.112017326,1.2696824,-39.9,-29.79375,14.062501,0.55429715,-0.49246815,0.48863527,995.393, , , , 
2025-09-28 19:18:29.268,-0.83988076,-10.054641,1.2299109,0.36674795,-0.21097742,2.102291,-41.4375,-28.612501,16.331251,0.5468432,-0.5021981,0.4973527,995.3857, , , , 
2025-09-28 19:18:29.288,1.8017955,-10.447063,0.5383851,0.6190351,-0.108963005,2.7204864,-43.10625,-26.025002,15.431251,0.5367488,-0.51412326,0.5103662,995.3857, , , , 
2025-09-28 19:18:29.308,3.4097722,-11.408978,0.031106694,0.78091425,-0.19020802,3.0753987,-42.6375,-23.737501,14.625001,0.52442694,-0.52693945,0.52618915,995.3708, , , , 
2025-09-28 19:18:29.328,4.5248275,-12.600604,-0.80159557,0.9348522,-0.4785362,3.3777769,-44.287502,-21.5625,16.837502,0.51135266,-0.54081327,0.54275334,995.3708, , , , 
2025-09-28 19:18:29.348,5.534599,-13.596018,-1.9118652,0.9519564,-0.70211273,3.7345219,-44.625,-17.493752,17.1,0.4979739,-0.55612457,0.55890614,995.3393, , , , 
2025-09-28 19:18:29.368,6.513263,-14.191831,-3.089134,0.68745196,-0.26106834,4.19939,-44.081253,-15.337501,18.9375,0.48211092,-0.5729835,0.57470125,995.3393, , , , 
2025-09-28 19:18:29.389,7.7383885,-13.971691,-3.1728828,0.20853396,0.47563457,4.560411,-47.737503,-9.4875,19.143751,0.45237872,-0.5954089,0.59536576,995.3044, , , , 
2025-09-28 19:18:29.408,8.717052,-13.083954,-1.9405792,-0.1598175,0.8048907,4.696634,-47.15625,-5.30625,16.81875,0.42047864,-0.61401886,0.6113771,995.3044, , , , 
2025-09-28 19:18:29.428,9.109476,-12.320643,-1.026521,-0.2966512,0.78106695,4.635547,-47.4375,0.52500004,16.368752,0.38614154,-0.632199,0.62512463,995.2773, , , , 
2025-09-28 19:18:29.448,8.903693,-12.157932,-1.012164,-0.40905032,0.7144827,4.5310893,-46.8375,4.18125,17.025002,0.36040017,-0.64502114,0.63380206,995.2773, , , , 
2025-09-28 19:18:29.468,8.659625,-12.937992,-0.47138608,-0.60391617,0.7144827,4.551859,-46.6875,10.556251,14.325001,0.31721854,-0.6655453,0.64501643,995.2736, , , , 
2025-09-28 19:18:29.488,9.274581,-13.450056,0.47856453,-0.6442333,0.66805696,4.592176,-46.74375,13.05,13.275001,0.28164604,-0.68134505,0.65161866,995.2736, , , , 
2025-09-28 19:18:29.508,10.423136,-13.813766,0.72263247,-0.55626875,0.7389173,4.5671306,-47.41875,16.331251,14.231251,0.24571766,-0.69549304,0.65704095,995.27826, , , , 
2025-09-28 19:18:29.528,10.332209,-12.969099,-0.062213387,-0.52267116,0.7462477,4.536587,-44.15625,18.675001,12.975,0.20948805,-0.70741755,0.66172004,995.27826, , , , 
2025-09-28 19:18:29.548,10.803595,-11.547762,-0.1363909,-0.5941424,0.29237515,4.443125,-42.75,20.550001,13.81875,0.17446122,-0.71817607,0.6645014,995.2912,37.88834236,127.73987081,147.56597900390625,1.73
2025-09-28 19:18:29.568,13.306487,-10.217353,1.7108682,-0.28870997,-0.49258608,4.0503387,-41.23125,26.79375,15.150001,0.13822377,-0.7300235,0.6647555,995.2912, , , , 
2025-09-28 19:18:29.588,14.153546,-9.635897,1.0935199,0.24152066,-0.46692976,3.6813767,-37.6875,29.1375,16.03125,0.11531018,-0.73493326,0.66628563,995.29877, , , , 
2025-09-28 19:18:29.608,14.273187,-9.037691,-1.0743774,0.5164098,-0.26045746,3.4278677,-33.65625,30.187502,14.625001,0.09971737,-0.7355489,0.6692578,995.29877, , , , 
2025-09-28 19:18:29.628,15.969698,-8.097312,-4.240082,0.17432554,0.36690065,2.8640394,-33.018753,34.0875,15.731251,0.07400653,-0.73524535,0.6736776,995.2929, , , , 
2025-09-28 19:18:29.648,16.878971,-7.850851,-3.8476589,-0.17386739,0.6643918,2.3735151,-32.30625,34.66875,15.3,0.059103753,-0.7364087,0.6739496,995.2929, , , , 
2025-09-28 19:18:29.668,16.783258,-7.7479596,-1.3280165,-0.27221662,0.6961568,1.4462224,-29.5125,35.456253,14.962501,-0.03495722,0.7407815,-0.6708117,995.2756, , , , 
2025-09-28 19:18:29.688,16.409977,-7.9968133,-0.81834537,-0.033368487,0.43592837,0.9685261,-29.062502,36.35625,16.725,-0.027220722,0.7419902,-0.6698299,995.2756, , , , 
2025-09-28 19:18:29.708,16.541582,-7.733603,-1.1174482,0.21525347,0.1720348,0.5574141,-29.98125,36.65625,13.556251,-0.02186241,0.7417312,-0.6703146,995.29144, , , , 
2025-09-28 19:18:29.729,17.58964,-7.987242,-1.875973,0.393626,-0.04421134,-0.15241076,-27.993752,36.99375,12.8625,-0.02253588,0.7393746,-0.67290807,995.29144, , , , 
2025-09-28 19:18:29.748,17.37907,-8.154739,-2.495714,0.48525572,-0.18226677,-0.7137955,-29.85,35.925003,14.83125,0.02706567,-0.73729295,0.6750307,995.3061, , , , 
2025-09-28 19:18:29.768,16.689938,-7.5661054,-3.3284163,0.50846857,-0.37224573,-1.2373066,-27.7875,37.3875,13.593751,0.03791387,-0.7339279,0.678128,995.3061, , , , 
2025-09-28 19:18:29.788,15.747166,-9.542577,-4.575077,0.099800035,-0.5683333,-2.1542146,-30.16875,35.775,14.400001,0.059448108,-0.7303661,0.6801673,995.30707, , , , 
2025-09-28 19:18:29.808,14.866607,-10.985449,-4.113262,-0.17814344,-0.65446526,-2.5390594,-30.825,35.34375,12.95625,0.076139815,-0.7295318,0.6790292,995.30707, , , , 
2025-09-28 19:18:29.828,14.593825,-12.983456,-2.6009982,-0.63201594,-0.73815376,-3.1077745,-34.0125,34.0125,12.58125,0.11525884,-0.7299624,0.6715542,995.3068, , , , 
2025-09-28 19:18:29.848,14.938392,-13.990834,-1.0169497,-0.771904,-0.7350994,-3.471239,-31.968752,33.24375,12.1125,0.13702668,-0.7305534,0.66551965,995.3068, , , , 
2025-09-28 19:18:29.868,14.14876,-15.993627,0.7369894,-0.68393946,-0.59215707,-4.107149,-34.0125,29.6625,12.993751,0.17683709,-0.7292488,0.6540892,995.3278, , , , 
2025-09-28 19:18:29.889,12.473784,-16.797615,1.524228,-0.52694726,-0.38568476,-4.3954773,-39.412502,25.725,16.10625,0.20989598,-0.72490126,0.64486337,995.3278, , , , 
2025-09-28 19:18:29.908,11.289337,-16.543976,2.120041,-0.29604036,-0.4088976,-4.4669485,-42.1875,25.800001,17.15625,0.23449914,-0.7195959,0.63827205,995.3569, , , , 
2025-09-28 19:18:29.928,11.085947,-15.895521,1.6534405,0.025885396,-0.6098721,-4.6721992,-43.068752,21.375,15.656251,0.27655378,-0.7068738,0.6279459,995.3569, , , , 
2025-09-28 19:18:29.948,10.686346,-15.476777,0.7848458,-0.017486004,-0.4644863,-4.9690795,-45.45,14.887501,18.73125,0.30302957,-0.6971394,0.62130135,995.3857, , , , 
2025-09-28 19:18:29.969,8.34138,-15.416956,0.27756742,-0.1353829,0.16042836,-5.198154,-44.5875,10.368751,17.831251,0.35423267,-0.6737532,0.6054294,995.3857, , , , 
2025-09-28 19:18:29.988,7.0348988,-15.323636,0.29671,-0.1494328,0.3852266,-5.16028,-43.987503,6.7125,16.575,0.3770492,-0.6602662,0.59696716,995.39984, , , , 
2025-09-28 19:18:30.008,5.9557357,-15.029319,0.45942193,-0.08895718,0.29970554,-5.045438,-43.66875,4.51875,14.812501,0.40542552,-0.64104176,0.58523303,995.39984, , , , 
2025-09-28 19:18:30.028,4.615755,-14.218152,0.35653058,-0.03642281,-0.11751511,-4.7723813,-47.100002,-4.3125,17.38125,0.4398986,-0.61656576,0.5689943,995.4052, , , , 
2025-09-28 19:18:30.049,4.019942,-13.349558,0.49292147,-0.03642281,-0.31115925,-4.5805697,-47.30625,-7.4437504,18.206251,0.46023217,-0.6024446,0.55800414,995.4052, , , , 
2025-09-28 19:18:30.068,3.2470603,-12.4833555,0.72023964,-0.011988222,-0.32215482,-4.270861,-47.756252,-11.7375,19.10625,0.49240464,-0.57943755,0.53864825,995.4111, , , , 
2025-09-28 19:18:30.089,2.2707887,-11.480763,0.35653058,0.033215772,-0.0881936,-3.950768,-46.96875,-15.13125,18.6,0.5153231,-0.5609491,0.52389413,995.4111, , , , 
2025-09-28 19:18:30.108,1.1820544,-10.645668,-0.5599205,-0.029092435,0.21296273,-3.5188866,-43.912502,-18.16875,18.300001,0.538731,-0.5378884,0.5080179,995.4052, , , , 
2025-09-28 19:18:30.128,0.11964113,-10.217353,-0.9236295,-0.14210242,0.28076872,-3.0747879,-43.575,-23.962502,15.20625,0.5531346,-0.5208866,0.4969408,995.4052, , , , 
2025-09-28 19:18:30.148,-0.849452,-9.784252,-0.8063812,-0.17081307,0.15676318,-2.694219,-42.600002,-24.6375,18.993752,0.56194925,-0.50983673,0.48920915,995.3903, , , , 
2025-09-28 19:18:30.168,-2.2636101,-8.800801,-0.8877372,-0.19646938,-0.26045746,-1.8176281,-42.675003,-27.150002,20.23125,0.5744273,-0.49639922,0.4768637,995.3903, , , , 
2025-09-28 19:18:30.188,-2.210968,-8.769695,-0.8805587,-0.2410625,-0.26595524,-1.2012656,-39.61875,-29.550001,18.0375,0.581637,-0.4907975,0.46845275,995.384, , , , 
2025-09-28 19:18:30.208,-2.0147567,-8.681161,-0.44985065,-0.22090398,-0.40278897,-0.4865538,-40.125,-29.23125,17.456251,0.5854236,-0.48915476,0.46274483,995.384, , , , 
2025-09-28 19:18:30.228,-2.0434706,-9.844072,-1.2346965,-0.14821106,-0.45349073,0.109039366,-39.412502,-30.768751,17.15625,0.5873141,-0.49141148,0.4589973,995.37714, , , , 
2025-09-28 19:18:30.248,-3.6610186,-10.360922,-1.9860427,-0.24900375,-0.23480114,0.833525,-37.36875,-28.06875,16.0125,0.58583856,-0.49721074,0.45860282,995.37714, , , , 
2025-09-28 19:18:30.268,-2.861816,-9.353543,-0.85902333,-0.55260354,0.28260133,2.2446227,-37.96875,-28.0125,17.00625,0.573956,-0.51169634,0.46521148,995.36664, , , , 
2025-09-28 19:18:30.288,-0.16031912,-8.956335,1.1700903,-0.48663014,0.58375764,2.9355106,-40.818752,-26.062502,18.112501,0.560624,-0.5235515,0.47365454,995.36664, , , , 
2025-09-28 19:18:30.308,2.9096723,-9.497113,1.8664017,-0.08223767,0.57154036,3.2568257,-40.5,-24.656252,16.612501,0.53935325,-0.53992647,0.48917404,995.3664, , , , 
2025-09-28 19:18:30.328,4.9531426,-11.976077,-0.4833502,0.6416371,-0.08575014,3.2812603,-43.706253,-21.393751,19.3875,0.5148542,-0.5586115,0.5113326,995.3664, , , , 
2025-09-28 19:18:30.348,4.6325045,-13.452449,-2.28036,0.8395573,-0.623922,3.471239,-45.225002,-20.41875,17.325,0.49940765,-0.5735498,0.52789426,995.36224, , , , 
2025-09-28 19:18:30.368,4.599005,-14.955141,-3.7878382,0.8059597,-0.86277014,3.8175995,-44.5875,-15.750001,17.775002,0.48835665,-0.5863424,0.53921044,995.36224, , , , 
2025-09-28 19:18:30.388,6.4055862,-15.864414,-4.024728,0.43394306,-0.50846857,4.502379,-47.68125,-11.868751,22.2,0.46476564,-0.61083364,0.5574271,995.3388, , , , 
2025-09-28 19:18:30.408,8.382058,-15.330814,-2.821138,0.22685991,-0.154167,4.7442813,-46.18125,-8.962501,20.175001,0.43889484,-0.6313454,0.5720983,995.3388, , , , 
2025-09-28 19:18:30.428,9.920643,-14.3689,-1.7706888,0.14805835,0.10178535,4.7485576,-47.15625,-4.3500004,20.94375,0.4166112,-0.6459931,0.5828566,995.3256, , , , 
2025-09-28 19:18:30.448,10.241281,-13.727624,-1.2705889,0.092469655,0.28321218,4.62333,-47.34375,0.39375,18.075,0.37737387,-0.6675021,0.5995042,995.3256, , , , 
2025-09-28 19:18:30.468,10.193424,-13.07199,-0.5383851,0.11018474,0.20746495,4.5524697,-46.29375,5.5875,19.050001,0.34541225,-0.68239504,0.61122113,995.3161, , , , 
2025-09-28 19:18:30.488,9.580862,-12.899707,-0.19860429,0.15966478,-0.0045051277,4.501768,-45.65625,13.012501,17.643751,0.30694512,-0.69857365,0.6236098,995.3161, , , , 
2025-09-28 19:18:30.508,9.547362,-12.746566,1.0001999,0.33070692,-0.22624904,4.574461,-43.93125,15.0375,17.962502,0.27682623,-0.7098284,0.6320309,995.3117, , , , 
2025-09-28 19:18:30.528,10.858629,-11.983255,0.96430755,0.7063888,-0.44127345,4.5732393,-42.24375,17.8125,19.931252,0.24767569,-0.71841604,0.640537,995.3117, , , , 
2025-09-28 19:18:30.548,12.157932,-11.157732,-0.6580262,0.9012546,-0.14866921,4.3692102,-41.90625,20.94375,20.962502,0.21997517,-0.723353,0.6497165,995.3,37.8883263,127.73987859,147.66522216796875,1.84
2025-09-28 19:18:30.568,12.538391,-10.573883,-1.8927227,0.75037104,0.67233306,4.0796604,-37.95,24.993752,17.0625,0.18348475,-0.7262693,0.6608322,995.3, , , , 
2025-09-28 19:18:30.588,12.674782,-10.07139,-2.132005,0.52435106,1.0877211,3.8658578,-37.6875,27.862501,18.581251,0.15957466,-0.7275801,0.6664251,995.28314, , , , 
2025-09-28 19:18:30.608,13.268202,-9.702896,-1.5218352,0.35453063,1.1836269,3.5561492,-36.9,29.56875,18.243752,0.12754829,-0.72938955,0.67188025,995.28314, , , , 
2025-09-28 19:18:30.628,14.447864,-8.69791,-1.0145568,0.52312934,0.9533309,2.9501715,-32.11875,32.7,14.775001,0.091757156,-0.7301964,0.67704314,995.27875, , , , 
2025-09-28 19:18:30.648,14.720645,-8.30788,-2.210968,0.6471349,0.83360136,2.6606216,-33.581253,34.912502,14.962501,-0.07371606,0.7290216,-0.6804902,995.27875, , , , 
2025-09-28 19:18:30.668,16.924435,-7.125826,-4.17069,0.4834231,0.9398918,2.0460916,-27.525002,34.18125,12.20625,-0.043164864,0.7254734,-0.6866952,995.2724, , , , 
2025-09-28 19:18:30.688,17.8361,-7.245467,-4.7042894,0.22563818,0.9686025,1.4223987,-28.35,35.9625,13.125001,-0.030871196,0.7245172,-0.68832225,995.2724, , , , 
2025-09-28 19:18:30.708,17.898314,-7.688139,-4.558327,-0.053527027,0.86292285,0.7809906,-27.750002,38.15625,11.700001,-0.01930885,0.72480905,-0.6884863,995.2585, , , , 
2025-09-28 19:18:30.728,17.003397,-8.288737,-3.0029924,-0.33819002,0.76213014,-0.0876591,-29.156252,39.131252,11.793751,-0.01313731,0.7274021,-0.68603617,995.2585, , , , 
2025-09-28 19:18:30.748,16.500904,-9.875179,-1.7635103,-0.3174206,0.73158693,-0.6178897,-27.000002,37.48125,11.8125,-0.013006188,0.72939444,-0.6839697,995.26263, , , , 
2025-09-28 19:18:30.771,15.443277,-10.942378,-1.3304094,-0.087124586,0.5807033,-1.0015128,-28.218752,37.987503,11.4375,0.016596135,-0.7309479,0.68211555,995.26263, , , , 
2025-09-28 19:18:30.788,14.768501,-9.968499,-2.4095724,0.09552398,0.29420775,-1.4926481,-29.456251,35.268753,9.262501,0.026484257,-0.73034734,0.6819074,995.2873, , , , 
2025-09-28 19:18:30.808,14.115261,-10.164711,-2.0219352,0.082084954,-0.27145302,-2.3851216,-33.600002,36.05625,12.731251,0.0455437,-0.7290816,0.6811532,995.2873, , , , 
2025-09-28 19:18:30.828,11.361122,-11.837294,-2.4861426,0.04176788,-0.659963,-2.9654431,-31.968752,33.75,9.76875,0.069267966,-0.7274072,0.67957133,995.2968, , , , 
2025-09-28 19:18:30.848,9.939785,-12.825529,-2.6751757,-0.12011129,-0.73387766,-3.187187,-33.75,34.55625,11.606251,0.08997572,-0.7261746,0.67714673,995.2968, , , , 
2025-09-28 19:18:30.868,9.643075,-13.727624,-1.1509477,-0.44448048,-0.5438987,-3.3551748,-37.21875,30.468752,12.20625,0.12489018,-0.7249636,0.6699037,995.309, , , , 
2025-09-28 19:18:30.888,10.880164,-14.517255,0.3062813,-0.5623774,-0.41683885,-3.5042257,-37.443752,28.575,11.71875,0.15206563,-0.7238912,0.6620907,995.309, , , , 
2025-09-28 19:18:30.908,11.650654,-14.797215,2.1822543,-0.53488845,-0.45226902,-3.7931647,-41.2125,26.79375,14.83125,0.17957398,-0.72165996,0.65323466,995.3337, , , , 
2025-09-28 19:18:30.929,11.822937,-14.423935,3.6227336,-0.3125337,-0.6868411,-4.1572404,-41.8875,24.018751,11.981251,0.20956449,-0.71723557,0.6438361,995.3337, , , , 
2025-09-28 19:18:30.948,11.5932255,-14.031512,3.7591243,-0.12560907,-0.79801846,-4.51704,-43.59375,23.7,13.725,0.23461013,-0.7117556,0.6367035,995.37445, , , , 
2025-09-28 19:18:30.968,9.200403,-14.864214,3.4839497,0.15966478,-0.36858055,-4.8841696,-46.575,17.775002,16.3875,0.28827518,-0.6945614,0.6220191,995.37445, , , , 
2025-09-28 19:18:30.988,8.207381,-14.701502,2.3042881,0.30260715,0.07979421,-4.8273587,-44.7,13.25625,15.20625,0.31316468,-0.6828482,0.61554986,995.4089, , , , 
2025-09-28 19:18:31.008,8.075776,-14.177474,1.1246266,0.34597853,0.37178758,-4.735729,-48.131252,9.39375,17.175001,0.35004017,-0.66036654,0.6056898,995.4089, , , , 
2025-09-28 19:18:31.028,8.228917,-13.287344,0.85902333,0.35819584,0.38461575,-4.77177,-47.90625,3.3187501,17.025002,0.3773678,-0.6407653,0.59708107,995.4213, , , , 
2025-09-28 19:18:31.048,8.135597,-12.813565,0.49052864,0.35514152,0.3088685,-4.8420196,-46.59375,-0.50625,14.94375,0.39768198,-0.6251534,0.589715,995.4213, , , , 
2025-09-28 19:18:31.068,6.9320073,-12.4426775,0.25603202,0.33376125,0.21601705,-4.9000516,-48.975002,-5.625,17.19375,0.43179294,-0.5978438,0.5749338,995.4145, , , , 
2025-09-28 19:18:31.089,5.706882,-12.071791,-0.29910284,0.2757291,0.3766745,-4.7925396,-48.43125,-10.275001,15.543751,0.45779637,-0.5749976,0.56169605,995.4145, , , , 
2025-09-28 19:18:31.109,3.739982,-11.559726,-0.6891329,0.15599959,0.71509355,-4.4492335,-46.537502,-16.40625,12.450001,0.48509106,-0.5457195,0.54547966,995.40985, , , , 
2025-09-28 19:18:31.129,2.065006,-11.100305,-0.93559366,0.13278674,0.609414,-4.014298,-46.78125,-21.69375,16.181252,0.5028337,-0.52294534,0.53328717,995.40985, , , , 
2025-09-28 19:18:31.148,1.3495519,-10.798809,-0.9762716,0.14072797,0.29542947,-3.6502225,-43.36875,-22.3125,14.625001,0.5149396,-0.5076152,0.5240845,995.3918, , , , 
2025-09-28 19:18:31.168,-0.10289137,-10.037891,-0.38763726,0.22136213,-0.33009607,-2.9232934,-44.2125,-25.7625,14.2875,0.53450984,-0.48694187,0.50796056,995.3918, , , , 
2025-09-28 19:18:31.188,-1.3926228,-9.47797,-0.39481574,0.32459828,-0.46509716,-2.3637412,-41.756252,-28.85625,13.89375,0.5492818,-0.4744789,0.4958099,995.37103, , , , 
2025-09-28 19:18:31.208,-2.7278178,-9.250652,-1.2969099,0.31787875,-0.33681557,-1.6746858,-40.48125,-29.118752,14.08125,0.5585916,-0.46715817,0.4886799,995.37103, , , , 
2025-09-28 19:18:31.229,-3.1106694,-10.006784,-1.9764715,0.092469655,-0.068035066,-0.5006037,-39.54375,-30.993752,13.33125,0.5676257,-0.46009278,0.48229095,995.3547, , , , 
2025-09-28 19:18:31.248,-2.4215364,-10.4016,-1.4715859,-0.012599086,-0.010613776,0.30573782,-39.768753,-31.3875,13.218751,0.56821513,-0.46041706,0.48233387,995.3547, , , , 
2025-09-28 19:18:31.268,-1.9597218,-9.360723,-1.3686945,-0.081015944,-0.024663666,1.280678,-40.59375,-30.375002,14.325001,0.56285,-0.46775723,0.4877672,995.33295, , , , 
2025-09-28 19:18:31.288,-1.5696917,-8.781659,-1.1389836,-0.19830199,0.031535894,1.9526292,-41.850002,-29.250002,15.01875,0.556684,-0.4754244,0.49328297,995.33295, , , , 
2025-09-28 19:18:31.308,-0.06460621,-8.719446,-0.22492532,-0.23189954,0.32536185,2.7137668,-41.625,-27.375002,16.125,0.5404201,-0.49261832,0.50665677,995.32733, , , , 
2025-09-28 19:18:31.329,2.1535404,-9.712467,0.46181476,-0.01809687,0.41149378,3.2342236,-43.893753,-24.975,13.743751,0.52225816,-0.5079103,0.5219103,995.32733, , , , 
2025-09-28 19:18:31.348,3.0556345,-10.782059,0.033499517,0.2531271,0.12011129,3.4547458,-44.662502,-24.31875,15.337501,0.50789195,-0.51972014,0.53478783,995.3183, , , , 
2025-09-28 19:18:31.368,3.6323047,-12.44507,-1.7922242,0.56894416,-0.40645415,3.8909032,-46.518753,-17.550001,14.981251,0.48576498,-0.54072434,0.5564267,995.3183, , , , 
2025-09-28 19:18:31.388,4.8885365,-13.488341,-3.2087753,0.4486038,-0.407065,4.2916307,-48.6375,-14.156251,16.556252,0.46753553,-0.5593844,0.57343316,995.3061, , , , 
2025-09-28 19:18:31.408,6.087341,-13.746766,-3.2183464,0.0655916,-0.17066035,4.6159997,-48.018753,-11.981251,14.83125,0.43897125,-0.5847945,0.5936101,995.3061, , , , 
2025-09-28 19:18:31.428,6.9535427,-13.639089,-2.0171494,-0.2013563,-0.053985175,4.799259,-47.625,-6.95625,16.050001,0.41125998,-0.6061175,0.60787565,995.2863, , , , 
2025-09-28 19:18:31.448,7.9154572,-13.715659,-1.0767702,-0.32169667,0.084070265,4.8597345,-50.11875,-0.50625,16.25625,0.3884756,-0.6218975,0.6174705,995.2863, , , , 
2025-09-28 19:18:31.468,8.6548395,-14.155939,-0.37088752,-0.41271552,0.44509134,4.8969975,-49.800003,2.0062501,18.393751,0.34732047,-0.6462292,0.6319787,995.28485, , , , 
2025-09-28 19:18:31.488,9.12144,-14.49572,-0.19860429,-0.49701485,0.6259073,4.8969975,-46.631252,10.931251,15.69375,0.31137007,-0.6635441,0.64249057,995.28485, , , , 
2025-09-28 19:18:31.508,9.556933,-15.048462,0.011964113,-0.54038626,0.56848603,4.9000516,-45.300003,11.475,12.431251,0.2835228,-0.6755457,0.64922005,995.2895, , , , 
2025-09-28 19:18:31.528,11.08834,-14.907285,0.5072784,-0.5238929,0.21235187,4.8701196,-46.068752,15.50625,11.043751,0.22899754,-0.69738966,0.6590187,995.2895, , , , 
2025-09-28 19:18:31.548,12.684353,-13.646268,0.9403793,-0.41332638,-0.09552398,4.5714064,-44.68125,21.225,13.968751,0.20412701,-0.70671386,0.6621921,995.28973,37.88830844,127.7398858,148.22442626953125,1.97
2025-09-28 19:18:31.568,12.969099,-12.272787,1.1700903,-0.23495387,-0.199371,4.054004,-40.85625,21.88125,12.150001,0.168355,-0.71868527,0.6658392,995.28973, , , , 
2025-09-28 19:18:31.588,12.251252,-11.246266,1.0863415,-0.0730747,0.013820816,3.6685483,-41.550003,25.650002,12.468751,0.14933254,-0.7236393,0.66774666,995.29047, , , , 
2025-09-28 19:18:31.608,11.861222,-10.353744,1.227518,0.06131555,0.11400264,3.4571893,-38.15625,26.737501,14.83125,0.1249555,-0.7280148,0.67053944,995.29047, , , , 
2025-09-28 19:18:31.628,12.480963,-9.272188,1.2323036,0.5756637,-0.21036656,3.1285439,-36.600002,29.268751,13.44375,0.097477645,-0.7296513,0.6753899,995.3051, , , , 
2025-09-28 19:18:31.648,13.72523,-8.647661,0.45224348,0.9879974,-0.50358164,2.8426592,-34.987503,32.287502,14.493751,0.080255695,-0.72703594,0.6814847,995.3051, , , , 
2025-09-28 19:18:31.668,14.8785715,-7.6713896,-1.7036897,1.2298999,-0.6300307,2.4364343,-35.25,32.60625,17.268751,0.07061661,-0.72290397,0.6872779,995.31366, , , , 
2025-09-28 19:18:31.688,15.354743,-8.030313,-4.642076,1.0686315,-0.47975793,1.9239186,-30.375002,35.79375,9.31875,-0.05915522,0.71465766,-0.69684803,995.31366, , , , 
2025-09-28 19:18:31.708,16.354942,-8.678768,-5.5250273,0.63552845,-0.35514152,1.610545,-30.35625,36.018753,10.70625,-0.05210683,0.70995355,-0.7018433,995.30096, , , , 
2025-09-28 19:18:31.728,18.8363,-8.372486,-4.1180477,0.02527453,-0.07536544,0.93798286,-27.4125,36.1875,12.39375,-0.046450008,0.70862246,-0.703153,995.30096, , , , 
2025-09-28 19:18:31.748,19.915462,-8.147561,-3.048456,-0.2013563,0.5397754,0.18967351,-27.35625,38.68125,12.243751,-0.04487467,0.7095706,-0.70228684,995.2885, , , , 
2025-09-28 19:18:31.768,17.838493,-9.84168,-2.7038896,-0.34735298,1.3534473,-0.88850284,-27.6375,38.04375,12.150001,-0.043784343,0.7124104,-0.7000561,995.2885, , , , 
2025-09-28 19:18:31.788,15.3906355,-9.111869,-2.361716,-0.30398157,1.3754385,-1.2812889,-26.531252,37.425003,9.450001,-0.044554893,0.71465635,-0.69805264,995.28876, , , , 
2025-09-28 19:18:31.808,14.744574,-8.135597,-2.4598217,-0.302149,0.9679916,-1.6783509,-29.081251,38.025,10.762501,0.047340393,-0.71577233,0.6965891,995.28876, , , , 
2025-09-28 19:18:31.828,13.945371,-9.456435,-1.4931214,-0.36567894,-8.3993905E-4,-2.5091271,-30.993752,36.581253,11.512501,0.06180255,-0.7173163,0.69289076,995.2956, , , , 
2025-09-28 19:18:31.848,12.782458,-11.935399,-0.7752745,-0.3210858,-0.8084032,-3.0668466,-30.675001,35.756252,8.587501,0.084065616,-0.7178561,0.6886622,995.2956, , , , 
2025-09-28 19:18:31.868,12.069397,-13.799408,0.12203395,-0.29237515,-1.6385684,-3.390605,-33.881252,33.16875,11.85,0.123029605,-0.71703756,0.68175143,995.2968, , , , 
2025-09-28 19:18:31.888,12.346965,-14.857036,0.8255238,-0.30764678,-2.0765584,-3.6282313,-36.375,29.437502,11.1,0.16024888,-0.7152031,0.67447436,995.2968, , , , 
2025-09-28 19:18:31.908,12.531212,-15.527026,1.1389836,-0.38583747,-2.0411284,-3.9159486,-37.256252,28.312502,15.4125,0.20021795,-0.71211416,0.6654096,995.3149, , , , 
2025-09-28 19:18:31.928,12.165111,-15.105889,1.6127625,-0.4408153,-1.6367358,-4.1114254,-40.612503,23.362501,16.368752,0.23994572,-0.7075157,0.65486604,995.3149, , , , 
2025-09-28 19:18:31.948,12.155539,-14.423935,1.4763715,-0.4512,-1.1236094,-4.2818565,-40.21875,22.40625,15.450001,0.27701497,-0.7007536,0.64398783,995.33905, , , , 
2025-09-28 19:18:31.968,11.365908,-13.904693,0.8662018,-0.60086185,0.21113014,-4.7516117,-41.943752,16.875,17.175001,0.31756812,-0.6885737,0.6306362,995.33905, , , , 
2025-09-28 19:18:31.990,10.021141,-13.981263,0.715454,-0.5984184,0.96738076,-4.971523,-46.0125,12.187501,20.8125,0.33820432,-0.6788392,0.6230982,995.35345, , , , 
2025-09-28 19:18:32.008,8.707481,-13.993227,0.6723832,-0.50068,1.3736058,-5.060098,-44.268753,12.13125,20.15625,0.36201924,-0.6627573,0.613855,995.35345, , , , 
2025-09-28 19:18:32.028,7.7001033,-13.622339,0.7178468,-0.23006694,1.2245548,-5.0613203,-47.8875,4.0687504,16.837502,0.38930416,-0.6385825,0.6025565,995.36176, , , , 
2025-09-28 19:18:32.048,7.30768,-13.438092,0.5910272,-0.04253146,0.81466454,-5.056433,-46.537502,-1.63125,16.087502,0.40646377,-0.6226472,0.5949945,995.36176, , , , 
2025-09-28 19:18:32.068,5.994021,-13.162917,0.29671,0.15477787,0.1598175,-4.9770207,-49.593754,-6.3187504,19.143751,0.43790963,-0.5951544,0.57976896,995.3649, , , , 
2025-09-28 19:18:32.089,4.319045,-12.796816,-0.3278167,0.17676899,-0.22563818,-4.6978555,-49.312504,-12.262501,18.69375,0.4646554,-0.57360584,0.56516147,995.3649, , , , 
2025-09-28 19:18:32.108,3.2925239,-12.031113,-0.20817557,0.09613484,-0.4076759,-4.2647524,-46.40625,-14.56875,18.206251,0.49029672,-0.5539546,0.549105,995.3715, , , , 
2025-09-28 19:18:32.128,2.2612174,-11.016556,-0.22013968,-0.0028252497,-0.2286925,-3.810269,-46.518753,-19.556252,17.56875,0.51812875,-0.53189325,0.5291249,995.3715, , , , 
2025-09-28 19:18:32.148,0.79920274,-10.2723875,-0.4354937,-0.08834632,0.058413945,-3.444361,-45.675003,-22.462502,19.35,0.5316596,-0.51925147,0.5183346,995.3652, , , , 
2025-09-28 19:18:32.168,-1.5840486,-9.219545,-0.13399807,-0.17997603,0.34979644,-2.7742424,-44.9625,-24.88125,18.16875,0.54841304,-0.4996194,0.50327677,995.3652, , , , 
2025-09-28 19:18:32.189,-2.8833513,-9.250652,-0.14356937,-0.1060614,0.34429866,-2.1645994,-43.65,-26.98125,19.237501,0.55721176,-0.4862045,0.4944913,995.3532, , , , 
2025-09-28 19:18:32.208,-3.1465619,-9.769895,-0.31345975,-0.0193186,-0.0020616686,-1.4981458,-41.456253,-28.612501,17.1,0.5621485,-0.47873917,0.48962107,995.3532, , , , 
2025-09-28 19:18:32.228,-2.7397819,-9.815358,-0.22971097,0.17127122,-0.62025684,-0.62827444,-39.99375,-30.187502,15.4875,0.56939095,-0.47340328,0.48309582,995.3571, , , , 
2025-09-28 19:18:32.248,-2.8594232,-9.506684,-0.75613195,0.2512945,-0.7387646,-0.09071342,-42.881252,-31.875002,18.50625,0.57459617,-0.4743786,0.47950062,995.3571, , , , 
2025-09-28 19:18:32.268,-3.0293136,-10.3848505,-1.4380864,0.18776456,-0.58849186,0.5054906,-38.34375,-29.268751,15.1125,0.5770112,-0.47877985,0.47876468,995.3427, , , , 
2025-09-28 19:18:32.290,-2.766103,-12.222538,-1.8113668,-0.01687514,-0.43944085,1.6093233,-39.506252,-28.29375,18.112501,0.5742944,-0.48752892,0.48196346,995.3427, , , , 
2025-09-28 19:18:32.308,-1.3686945,-11.430513,-0.6987042,-0.118889555,-0.41134107,2.736369,-40.85625,-27.806252,16.837502,0.56282806,-0.50653297,0.49108833,995.3366, , , , 
2025-09-28 19:18:32.329,1.0217353,-11.239088,0.31106696,-0.07429643,-0.16332997,3.5243843,-42.581253,-23.8875,18.6375,0.5471858,-0.526454,0.5028813,995.3366, , , , 
2025-09-28 19:18:32.348,3.3667014,-11.667403,0.70588267,0.08269582,0.20257804,3.9458811,-43.95,-22.556252,20.868752,0.53189003,-0.54200655,0.51465386,995.3295, , , , 
2025-09-28 19:18:32.368,5.84088,-12.794423,0.17467605,0.35636324,0.5593231,4.1743445,-45.075,-19.5375,19.125,0.50139016,-0.5658028,0.5388892,995.3295, , , , 
2025-09-28 19:18:32.388,5.953343,-13.603197,-0.9164511,0.50846857,0.44570222,4.286133,-46.3875,-14.56875,17.4375,0.47510234,-0.5825099,0.55979294,995.3239, , , , 
2025-09-28 19:18:32.408,6.135197,-14.6225395,-2.0745773,0.4803688,0.19402592,4.514596,-48.6375,-10.21875,20.04375,0.44847432,-0.5990939,0.5795529,995.3239, , , , 
2025-09-28 19:18:32.428,7.6019974,-15.125031,-2.8402805,0.16516256,0.043753188,4.8707304,-44.5875,-6.525,15.243751,0.41298512,-0.621947,0.6008764,995.31366, , , , 
2025-09-28 19:18:32.448,8.784052,-14.991034,-2.455036,-0.17142393,0.1995237,4.9861836,-47.381252,-0.6,17.19375,0.38945863,-0.63657767,0.6114793,995.31366, , , , 
2025-09-28 19:18:32.468,9.47797,-14.787644,-0.9499506,-0.58620113,0.57154036,4.970301,-48.131252,2.1750002,17.4375,0.34588158,-0.6609165,0.6255828,995.29, , , , 
2025-09-28 19:18:32.488,9.159725,-14.75893,0.3900301,-0.68943727,0.6625592,4.97641,-46.29375,8.231251,14.887501,0.3079674,-0.67926395,0.63425475,995.29, , , , 
2025-09-28 19:18:32.508,9.188439,-15.2063875,1.9142581,-0.4481457,0.48846275,5.0906415,-45.15,13.087501,14.325001,0.26908854,-0.69573474,0.6416467,995.2812, , , , 
2025-09-28 19:18:32.528,10.51167,-15.371492,1.0648061,0.014278964,0.17814344,5.187769,-43.143753,14.925,12.637501,0.23106398,-0.70876414,0.6494686,995.2812, , , , 
2025-09-28 19:18:32.548,11.629118,-15.18246,-0.4977071,0.24885105,-0.0075594517,5.1731086,-41.15625,19.725,13.5375,0.19501467,-0.7179984,0.65763223,995.29584,37.88829094,127.73989241,148.094970703125,1.87
2025-09-28 19:18:32.568,13.622339,-13.366307,-2.024328,0.09674571,-0.056428634,4.9202104,-39.35625,22.893751,13.781251,0.15251578,-0.72652245,0.6654421,995.29584, , , , 
2025-09-28 19:18:32.588,14.952748,-11.743974,-1.6199409,-0.13293944,0.027259842,4.5323114,-36.693752,25.050001,11.38125,0.12851323,-0.7312032,0.66759384,995.2863, , , , 
2025-09-28 19:18:32.608,15.653846,-10.497313,-0.46181476,-0.18180864,0.15554145,3.7864454,-34.725002,29.081251,13.556251,0.09269436,-0.737817,0.6681079,995.2863, , , , 
2025-09-28 19:18:32.628,14.694324,-9.640682,0.15792629,0.063759014,0.26855144,3.2036803,-31.781252,31.3875,13.593751,0.06841754,-0.7407841,0.66821104,995.279, , , , 
2025-09-28 19:18:32.648,14.574683,-8.843872,-0.1268196,0.26290092,0.3907244,2.9489498,-29.362501,32.381252,12.356251,-0.046433657,0.74116814,-0.6696654,995.279, , , , 
2025-09-28 19:18:32.668,15.495919,-7.2263246,-0.552742,0.51885325,0.4163807,2.4920228,-25.968752,35.456253,13.05,-0.026290411,0.7395152,-0.6723276,995.28754, , , , 
2025-09-28 19:18:32.688,16.567904,-6.204589,-0.88295156,0.7228821,0.28870997,1.9636248,-25.81875,35.362503,11.34375,-0.009603423,0.7361556,-0.6760955,995.28754, , , , 
2025-09-28 19:18:32.708,17.309679,-6.0107703,-2.2707887,0.8401681,0.084070265,1.1389574,-23.79375,37.443752,11.625,0.0035790093,0.73001605,-0.6824098,995.28265, , , , 
2025-09-28 19:18:32.728,17.106289,-7.0061846,-3.6490545,0.70089096,-0.10346522,0.39064804,-22.63125,38.5875,8.6625,0.0064758924,0.7251246,-0.68747395,995.28265, , , , 
2025-09-28 19:18:32.749,16.8024,-8.037491,-4.2664027,0.37835437,-0.083306685,-0.18723005,-21.375,36.956253,10.1625,0.0048224437,0.72258514,-0.69021744,995.2753, , , , 
2025-09-28 19:18:32.768,16.867006,-10.21496,-3.0843484,-0.06696605,0.035201084,-0.96913695,-22.25625,41.34375,10.481251,-0.0031064,0.721745,-0.69148564,995.2753, , , , 
2025-09-28 19:18:32.788,16.931614,-11.542976,-2.062613,-0.13416117,-0.0014508038,-1.5005894,-22.59375,38.831253,9.1125,-0.013981522,0.7227188,-0.6907346,995.2692, , , , 
2025-09-28 19:18:32.808,16.97947,-12.100504,-1.9381863,-0.16653702,-0.08575014,-2.107178,-24.73125,37.8375,11.400001,-0.025278233,0.72328943,-0.6900311,995.2692, , , , 
2025-09-28 19:18:32.829,15.6873455,-12.650853,-1.3112668,-0.38644832,0.016264275,-3.0900595,-29.7,35.831253,13.275001,0.050705712,-0.7242348,0.68751675,995.28534, , , , 
2025-09-28 19:18:32.848,13.785051,-13.899907,-0.15314065,-0.43715012,0.234343,-3.7778933,-31.781252,33.393753,11.306251,0.075547524,-0.7247832,0.6836122,995.28534, , , , 
2025-09-28 19:18:32.868,12.040684,-14.931213,0.6843473,-0.24411684,0.26671883,-4.3075128,-35.4,32.8875,12.187501,0.10999813,-0.72266704,0.6778367,995.30707, , , , 
2025-09-28 19:18:32.888,11.425728,-15.393028,0.4426722,0.017333288,0.11094832,-4.722901,-39.393753,30.6,12.88125,0.14079764,-0.7173637,0.6732645,995.30707, , , , 
2025-09-28 19:18:32.908,10.77488,-15.917056,-0.30867413,0.10651954,-0.056428634,-4.9910707,-38.41875,26.60625,11.775001,0.16619082,-0.71132,0.6694291,995.3383, , , , 
2025-09-28 19:18:32.928,8.894122,-16.287943,-0.70588267,0.074143715,-0.43211046,-5.0912523,-43.40625,24.487501,11.962501,0.21150061,-0.69906,0.6604279,995.3383, , , , 
2025-09-28 19:18:32.948,8.118847,-16.187445,-0.4354937,0.028328855,-0.60376346,-4.9342604,-46.2,22.95,11.71875,0.2391176,-0.69115305,0.6533126,995.36005, , , , 
2025-09-28 19:18:32.968,8.020741,-15.07239,0.7537391,0.0020616686,-0.80168366,-4.501768,-45.54375,16.893751,14.00625,0.28310332,-0.6778199,0.63954043,995.36005, , , , 
2025-09-28 19:18:32.988,9.410972,-13.9166565,1.4404793,0.08452842,-0.9879974,-4.3411107,-46.912502,13.14375,15.6,0.31632975,-0.66673774,0.62780136,995.37665, , , , 
2025-09-28 19:18:33.008,10.502099,-13.593625,1.4213367,0.1211803,-0.8743766,-4.4999356,-49.85625,5.86875,15.8625,0.3579626,-0.6509939,0.6118897,995.37665, , , , 
2025-09-28 19:18:33.028,10.107283,-13.746766,1.0289137,0.06498074,-0.34903285,-4.687471,-46.93125,2.41875,17.90625,0.38959685,-0.6356032,0.598601,995.3913, , , , 
2025-09-28 19:18:33.048,8.927621,-13.646268,1.2394822,0.06620247,-0.016111558,-4.7876525,-48.9,-0.90000004,17.85,0.41130462,-0.6222321,0.58868355,995.3913, , , , 
2025-09-28 19:18:33.068,6.7094746,-13.026526,0.8446664,0.21708608,0.07063124,-4.739394,-47.625,-5.49375,17.5125,0.44511107,-0.59697694,0.5723579,995.39594, , , , 
2025-09-28 19:18:33.088,5.7020965,-12.311072,0.3182454,0.22991423,-0.03199404,-4.5207047,-46.7625,-10.40625,20.325,0.4707222,-0.5756594,0.5590519,995.39594, , , , 
2025-09-28 19:18:33.108,4.8646083,-11.468799,-0.28953153,0.18959716,-0.11323906,-4.3508844,-46.4625,-12.825001,15.95625,0.48894796,-0.5599944,0.54857856,995.3918, , , , 
2025-09-28 19:18:33.128,3.7686956,-10.772488,-0.35653058,0.055817768,-0.3380373,-4.055226,-44.9625,-17.550001,19.3125,0.5174076,-0.5354804,0.5295674,995.3918, , , , 
2025-09-28 19:18:33.148,2.495714,-10.466207,-0.24885355,-0.035201084,-0.38018698,-3.7412415,-45.6375,-22.21875,19.95,0.53835756,-0.5177122,0.5131977,995.38617, , , , 
2025-09-28 19:18:33.168,1.134198,-10.224531,-0.21296121,-0.07063124,-0.32582,-3.404044,-44.775,-23.23125,17.4375,0.55662894,-0.5014493,0.49726763,995.38617, , , , 
2025-09-28 19:18:33.188,-1.5170496,-9.552148,-1.1318051,-0.16531529,-0.35758498,-2.7302601,-42.1875,-28.44375,18.54375,0.5753801,-0.48395538,0.4792121,995.383, , , , 
2025-09-28 19:18:33.208,-3.1752756,-9.035298,-1.2370893,-0.31375542,-0.3184896,-2.0967934,-41.0625,-28.706251,19.06875,0.58413285,-0.4762986,0.46935275,995.383, , , , 
2025-09-28 19:18:33.228,-3.6753755,-9.073584,-0.50488555,-0.43592837,0.0064904382,-1.0082324,-38.081253,-31.500002,16.743752,0.59221846,-0.46886402,0.45731446,995.372, , , , 
2025-09-28 19:18:33.248,-3.400201,-8.6548395,-0.019142581,-0.3681224,0.14821106,-0.2593121,-39.6375,-31.050001,19.2,0.59269524,-0.46733734,0.45346665,995.372, , , , 
2025-09-28 19:18:33.268,-2.0745773,-8.597412,-0.24646074,-0.26305366,0.38705918,0.59834206,-37.59375,-32.79375,15.075001,0.58907086,-0.4693028,0.45478058,995.37054, , , , 
2025-09-28 19:18:33.288,-1.2705889,-10.076176,-1.2777673,-0.24167338,0.6075814,1.2800671,-40.0125,-31.575,17.118752,0.5814563,-0.47404853,0.4610698,995.37054, , , , 
2025-09-28 19:18:33.308,-1.7778672,-10.250853,-1.7300107,-0.3595703,0.7456368,2.003331,-38.643753,-31.425001,16.5,0.5692753,-0.4821892,0.4716536,995.36346, , , , 
2025-09-28 19:18:33.328,0.083748795,-9.810573,-0.6556334,-0.50801045,0.40355253,3.0442445,-42.43125,-29.831251,16.800001,0.54718393,-0.4998758,0.4887626,995.36346, , , , 
2025-09-28 19:18:33.349,2.1822543,-9.906285,0.4331009,-0.38828093,0.115835235,3.5634797,-43.275,-26.156252,14.512501,0.53179824,-0.51426125,0.49981058,995.3476, , , , 
2025-09-28 19:18:33.368,4.627719,-10.466207,0.69152576,-0.13171771,-0.07231112,3.8432558,-41.831253,-25.743752,11.868751,0.5103301,-0.53512484,0.5156271,995.3476, , , , 
2025-09-28 19:18:33.388,6.9655066,-11.815758,-0.4019942,0.26106834,-0.31421357,3.9483244,-45.525,-21.9375,16.368752,0.48415896,-0.5604492,0.5363188,995.34, , , , 
2025-09-28 19:18:33.408,7.183254,-12.524034,-1.2442678,0.35391977,-0.3514763,4.054004,-46.537502,-17.550001,16.06875,0.4689456,-0.5747277,0.5486706,995.34, , , , 
2025-09-28 19:18:33.428,7.652247,-13.576876,-2.57707,0.20364705,-0.11934771,4.41869,-47.325,-13.650001,14.55,0.43525842,-0.6027308,0.57323253,995.33514, , , , 
2025-09-28 19:18:33.448,8.015956,-13.629518,-2.3904297,-0.048029244,0.084070265,4.6074476,-46.068752,-7.18125,16.81875,0.4150175,-0.61698467,0.58499235,995.33514, , , , 
2025-09-28 19:18:33.468,8.195417,-13.320844,-1.2658032,-0.24228424,0.19341506,4.7809334,-49.818752,-6.3187504,15.618751,0.38458347,-0.63617444,0.5993254,995.3088, , , , 
2025-09-28 19:18:33.488,9.552148,-12.610175,0.49052864,-0.23922992,0.25938845,4.813309,-48.581253,-0.22500001,15.450001,0.34308913,-0.6589922,0.6153104,995.3088, , , , 
2025-09-28 19:18:33.508,9.765109,-12.294323,0.83748794,-0.06818778,0.211741,4.6880817,-46.818752,4.8187504,14.212501,0.31814086,-0.67068,0.6242732,995.29706, , , , 
2025-09-28 19:18:33.528,9.784252,-12.502499,0.11964113,0.29038984,-0.09185879,4.5347548,-45.862503,11.53125,12.01875,0.2789628,-0.6862633,0.6384443,995.29706, , , , 
2025-09-28 19:18:33.548,9.372686,-12.971492,-1.3447664,0.4785362,-0.38873908,4.536587,-47.0625,12.056251,10.575001,0.2505515,-0.6956924,0.6491241,995.3022,37.88827614,127.73989834,147.59796142578125,1.62
2025-09-28 19:18:33.568,9.592826,-13.045669,-3.0819557,0.44982556,-0.59887654,4.633104,-46.237503,16.85625,10.837501,0.23041871,-0.7018843,0.6562272,995.3022, , , , 
2025-09-28 19:18:33.588,11.602797,-12.174682,-3.2350962,-0.1390481,-0.43638653,4.560411,-44.8875,20.325,15.6,0.18961374,-0.7151234,0.66476023,995.2917, , , , 
2025-09-28 19:18:33.608,12.993027,-11.411371,-0.8446664,-0.37728536,-0.2683987,4.248259,-40.40625,26.38125,13.856251,0.16202478,-0.72468907,0.665618,995.2917, , , , 
2025-09-28 19:18:33.628,13.497912,-10.671989,0.6867401,-0.15309799,0.057192214,3.7888887,-37.48125,26.6625,17.85,0.1356808,-0.73215646,0.66565406,995.2753, , , , 
2025-09-28 19:18:33.648,13.684553,-10.281959,0.20578274,0.10224349,0.3345248,3.444972,-33.9375,30.150002,14.343751,0.11659484,-0.735484,0.6665786,995.2753, , , , 
2025-09-28 19:18:33.668,13.954942,-9.523434,-0.73459655,0.25923574,0.50739956,3.0179775,-34.0125,32.86875,16.518751,0.08622147,-0.7376278,0.6695493,995.28705, , , , 
2025-09-28 19:18:33.688,14.718252,-8.7577305,-0.997807,0.37896523,0.45914125,2.6209154,-32.04375,32.9625,13.9875,0.06447683,-0.7375439,0.672214,995.28705, , , , 
2025-09-28 19:18:33.708,15.77588,-8.123632,-1.7587247,0.57138765,0.30703592,2.0186026,-29.41875,35.850002,14.325001,-0.04285479,0.7352546,-0.676321,995.28436, , , , 
2025-09-28 19:18:33.729,15.842878,-8.039884,-3.0532417,0.5842158,0.16714787,1.3973532,-29.643751,37.050003,15.50625,-0.031384286,0.73213893,-0.68015766,995.28436, , , , 
2025-09-28 19:18:33.748,15.426528,-8.114061,-3.6059837,0.4247801,0.102396205,0.93676114,-28.893751,38.4,13.031251,-0.026120625,0.73002803,-0.68254733,995.28143, , , , 
2025-09-28 19:18:33.768,15.696917,-8.343773,-3.35713,0.20914483,0.1372155,0.49449503,-26.718752,38.25,12.975,-0.022423195,0.72838885,-0.684378,995.28143, , , , 
2025-09-28 19:18:33.788,16.223337,-9.911072,-2.400001,0.06253728,-0.08147409,-0.24831653,-28.143751,37.8375,14.231251,-0.023705935,0.7279112,-0.6849457,995.2756, , , , 
2025-09-28 19:18:33.808,15.888342,-10.183853,-2.158326,0.105908684,-0.41806057,-0.70402163,-26.85,36.975002,13.9875,-0.028926583,0.7275751,-0.6851945,995.2756, , , , 
2025-09-28 19:18:33.828,16.158731,-9.556933,-2.5674987,-0.046807513,-0.73815376,-1.4969242,-28.2,37.48125,13.181251,-0.045215163,0.72655916,-0.6855298,995.2851, , , , 
2025-09-28 19:18:33.848,15.771094,-10.186246,-2.0195422,-0.26794055,-0.7296016,-2.216523,-29.493752,36.956253,14.26875,-0.06509578,0.7265404,-0.6840318,995.2851, , , , 
2025-09-28 19:18:33.868,14.411971,-11.356337,-1.3423735,-0.41088292,-0.60254174,-2.9098544,-28.650002,36.5625,11.887501,0.08332357,-0.72678345,0.68172926,995.2868, , , , 
2025-09-28 19:18:33.888,11.499906,-13.225131,-0.25124636,-0.52450377,-0.37224573,-3.616014,-32.193752,34.55625,15.150001,0.12491598,-0.7262311,0.6748344,995.2868, , , , 
2025-09-28 19:18:33.908,10.497313,-14.230116,0.8207382,-0.44448048,-0.3850739,-3.8866272,-34.143753,30.50625,13.575001,0.15433678,-0.7241534,0.66913104,995.30756, , , , 
2025-09-28 19:18:33.928,10.188639,-14.641682,1.1270195,-0.22273657,-0.5432879,-4.0973754,-37.0125,29.475,14.55,0.18528436,-0.71965563,0.66338444,995.30756, , , , 
2025-09-28 19:18:33.948,10.030712,-14.627325,0.8662018,-0.09750929,-0.61964595,-4.2232137,-39.675003,27.31875,15.88125,0.21785328,-0.71262544,0.65753543,995.3315, , , , 
2025-09-28 19:18:33.968,9.915857,-14.103296,0.45702913,-0.037033677,-0.58482665,-4.3075128,-42.225002,22.6875,16.725,0.2509621,-0.7035895,0.65109575,995.3315, , , , 
2025-09-28 19:18:33.988,10.399207,-13.636696,0.3278167,-0.07918335,-0.36858055,-4.4095273,-43.237503,21.225,15.525001,0.2833634,-0.6930327,0.6437274,995.3559, , , , 
2025-09-28 19:18:34.008,10.865808,-13.454842,0.10767702,-0.13965896,-0.018555017,-4.606226,-44.23125,17.25,18.7875,0.3142415,-0.68079436,0.6354033,995.3559, , , , 
2025-09-28 19:18:34.028,10.107283,-13.8448715,-0.3469593,-0.2935969,0.5788707,-4.970301,-46.912502,12.731251,19.78125,0.35009107,-0.66229874,0.62361586,995.36273, , , , 
2025-09-28 19:18:34.048,9.052048,-14.333008,0.016749758,-0.3180315,0.88919,-5.1016374,-45.7125,7.7625003,19.0125,0.3697147,-0.64944315,0.61580074,995.36273, , , , 
2025-09-28 19:18:34.068,7.8029947,-14.550755,0.19381863,-0.21968225,0.89652044,-5.094307,-47.2125,6.1125,18.337502,0.39411888,-0.6302103,0.6050066,995.3598, , , , 
2025-09-28 19:18:34.088,6.5084777,-13.986049,0.31345975,-0.011377357,0.47441286,-4.94098,-47.5875,-3.1125002,17.5125,0.42425087,-0.60429686,0.59033644,995.3598, , , , 
2025-09-28 19:18:34.108,5.4867425,-13.153346,0.32063824,0.09613484,0.1042288,-4.749779,-48.300003,-7.3125005,18.300001,0.44908154,-0.5833222,0.57702994,995.3569, , , , 
2025-09-28 19:18:34.128,4.065406,-12.150753,0.32063824,0.16149737,-0.131565,-4.4987135,-47.2125,-9.28125,15.975,0.47386843,-0.5575034,0.55870914,995.3569, , , , 
2025-09-28 19:18:34.148,3.225525,-11.356337,0.28235307,0.17371467,-0.22624904,-4.2421503,-48.393753,-17.8875,17.831251,0.49765816,-0.54248875,0.5472532,995.3547, , , , 
2025-09-28 19:18:34.168,2.4789643,-10.880164,0.19860429,0.1786016,-0.20242532,-4.003302,-46.612503,-17.081251,17.587502,0.5143075,-0.5279326,0.5357943,995.3547, , , , 
2025-09-28 19:18:34.188,0.6269195,-9.84168,-0.040677983,0.19142975,-0.118125975,-3.4242024,-43.631252,-24.225,15.993751,0.54305166,-0.50022995,0.5146235,995.35736, , , , 
2025-09-28 19:18:34.208,-0.16271193,-9.439685,-0.059820566,0.20303617,-0.11873684,-3.0332491,-42.73125,-24.018751,17.4375,0.55501163,-0.48774698,0.5053325,995.35736, , , , 
2025-09-28 19:18:34.228,-1.3806586,-9.12144,-0.4139583,0.26656613,-0.34720027,-2.0961826,-42.46875,-27.73125,18.393751,0.57166684,-0.47058687,0.49229926,995.3598, , , , 
2025-09-28 19:18:34.248,-1.5529419,-9.090333,-0.6963114,0.2738965,-0.48647743,-1.4511093,-39.375,-28.406252,17.475,0.5823662,-0.46191484,0.4840602,995.3598, , , , 
2025-09-28 19:18:34.268,-1.5840486,-8.539984,-1.2634103,0.19876012,-0.45471248,-0.59345514,-39.15,-28.63125,18.5625,0.5901083,-0.45769215,0.47836453,995.3608, , , , 
2025-09-28 19:18:34.288,-1.3950156,-9.530613,-1.9214365,0.060093824,-0.3814087,-0.037568185,-39.7125,-30.581251,20.41875,0.5943944,-0.45741734,0.47539067,995.3608, , , , 
2025-09-28 19:18:34.308,-1.9549361,-10.607383,-2.0841484,-0.13232858,-0.24029893,0.62888527,-40.3125,-30.13125,18.300001,0.5944162,-0.46147397,0.47526282,995.3488, , , , 
2025-09-28 19:18:34.328,-1.7611175,-9.645468,-1.3974084,-0.34735298,0.13171771,1.7919718,-40.40625,-29.6625,20.90625,0.5860851,-0.47374138,0.48091224,995.3488, , , , 
2025-09-28 19:18:34.348,-1.7108682,-9.722038,-1.8185452,-0.48174325,0.33880088,2.5250096,-40.59375,-29.400002,17.6625,0.5726896,-0.4876836,0.49056184,995.3398, , , , 
2025-09-28 19:18:34.368,-0.9092726,-10.923235,-1.6797615,-0.6717222,0.3919461,3.1835217,-41.193752,-27.862501,19.03125,0.5589692,-0.5011433,0.4996298,995.3398, , , , 
2025-09-28 19:18:34.388,3.3714871,-12.875778,0.47377887,-0.55260354,0.27343833,4.231155,-43.162502,-24.675001,17.212502,0.5288917,-0.52939594,0.5180973,995.3359, , , , 
2025-09-28 19:18:34.408,5.9724855,-13.674981,0.83748794,-0.21846052,0.06391173,4.554302,-43.5,-22.725,17.4375,0.5085171,-0.5477477,0.53112507,995.3359, , , , 
2025-09-28 19:18:34.428,8.6548395,-14.411971,-0.09092726,0.3569741,-0.33192864,4.705186,-45.975002,-16.893751,17.362501,0.4753661,-0.5769697,0.5541914,995.33466, , , , 
2025-09-28 19:18:34.448,9.171689,-13.811373,-1.5002998,0.5451205,-0.5164098,4.667312,-46.66875,-10.125,17.831251,0.4508404,-0.59787375,0.5721027,995.33466, , , , 
2025-09-28 19:18:34.468,8.410771,-13.229917,-2.1702902,0.49869475,-0.6110939,4.691136,-46.18125,-7.0687504,16.987501,0.42703977,-0.61716866,0.58808637,995.3276, , , , 
2025-09-28 19:18:34.496,8.257631,-13.009777,-2.0434706,0.3068832,-0.66301733,4.912269,-48.9,-1.40625,19.575,0.38937914,-0.6455613,0.60773116,995.3276, , , , 
2025-09-28 19:18:34.508,8.786445,-13.3687,-1.3232309,0.22747077,-0.53901184,5.0417724,-46.050003,4.7250004,20.15625,0.36859342,-0.6593502,0.6160788,995.30634, , , , 
2025-09-28 19:18:34.528,9.724431,-13.887942,-0.50009996,0.33070692,-0.4663189,5.125461,-46.93125,8.25,19.125,0.3387969,-0.6763201,0.62643826,995.30634, , , , 
2025-09-28 19:18:34.548,10.729417,-14.266008,-0.6628119,0.5145772,-0.45959938,5.1217957,-45.5625,11.26875,16.95,0.3080757,-0.69049555,0.6364809,995.3039,37.88826332,127.7399038,147.45452880859375,1.54
2025-09-28 19:18:34.568,12.208181,-13.96212,-1.7898313,0.56588984,-0.19876012,4.9342604,-44.831253,17.2875,20.550001,0.2694655,-0.7039511,0.6481313,995.3039, , , , 
2025-09-28 19:18:34.588,12.763316,-13.229917,-2.589034,0.42844528,0.15004367,4.707629,-43.537502,20.04375,19.1625,0.24584249,-0.7103377,0.6540613,995.2924, , , , 
2025-09-28 19:18:34.608,13.306487,-11.29173,-2.2827528,0.055206906,0.73647386,4.276359,-39.7125,22.81875,17.38125,0.20521925,-0.71988875,0.66096574,995.2924, , , , 
2025-09-28 19:18:34.628,13.103097,-9.817751,-1.0025927,-0.1787543,1.2160027,3.7076437,-37.10625,26.437502,18.900002,0.17221028,-0.7269241,0.66383916,995.2824, , , , 
2025-09-28 19:18:34.648,12.703495,-9.415757,0.6197411,-0.09078978,1.1298708,3.300808,-36.43125,28.875002,17.00625,0.14086646,-0.73260295,0.6655151,995.2824, , , , 
2025-09-28 19:18:34.668,12.780066,-9.059227,1.2993027,0.5768854,0.6161335,2.826166,-35.1375,31.63125,16.3875,0.11446925,-0.7347513,0.6685065,995.27924, , , , 
2025-09-28 19:18:34.688,12.459428,-8.666803,-1.7850457,1.0405318,0.5031235,2.4339907,-35.7,32.456253,16.10625,-0.09362337,0.7319074,-0.6749414,995.27924, , , , 
2025-09-28 19:18:34.708,11.849257,-8.063812,-4.005585,0.9415717,0.67905253,2.237903,-32.456253,33.28125,15.712501,-0.07977828,0.7283282,-0.6805173,995.29486, , , , 
2025-09-28 19:18:34.728,12.134004,-7.479964,-4.833502,0.18837543,1.12926,1.8616104,-30.431252,35.98125,15.0375,-0.05171176,0.72487503,-0.6867199,995.29486, , , , 
2025-09-28 19:18:34.748,12.77528,-8.362915,-3.6921253,-0.19402592,1.0632865,1.4969242,-30.862501,37.331253,12.525001,-0.03844899,0.72587264,-0.68651235,995.2878, , , , 
2025-09-28 19:18:34.768,12.44507,-9.595219,-1.9549361,-0.3522399,0.4231002,0.9776891,-28.1625,35.60625,14.19375,-0.022562984,0.72929853,-0.6835816,995.2878, , , , 
2025-09-28 19:18:34.789,12.51207,-9.726824,-0.96430755,-0.33391395,-0.09674571,0.69913477,-27.993752,37.631252,11.90625,-0.017017316,0.73195505,-0.6808497,995.2785, , , , 
2025-09-28 19:18:34.808,13.313665,-11.002198,-0.21774685,-0.21479532,-0.50541425,0.41325003,-26.587502,37.40625,11.625,-0.01673665,0.7334419,-0.6791797,995.2785, , , , 
2025-09-28 19:18:34.828,14.502898,-10.475778,0.7369894,0.22930336,-0.94523686,-0.011911863,-24.675001,38.2125,12.450001,-0.022736754,0.7336905,-0.67855453,995.2939, , , , 
2025-09-28 19:18:34.848,15.311672,-8.848659,-0.30149564,0.50663596,-0.9849431,-0.67714363,-27.075,36.693752,15.262501,-0.032902613,0.7307992,-0.6811298,995.2939, , , , 
2025-09-28 19:18:34.868,14.890535,-8.46102,-1.713261,0.47731447,-0.77969253,-1.3203843,-25.518751,37.74375,14.26875,-0.043817647,0.72774667,-0.68382937,995.32, , , , 
2025-09-28 19:18:34.888,11.990435,-9.659825,-2.9455647,0.13461933,-0.13523018,-2.3704607,-26.56875,38.381252,13.875001,-0.07085158,0.7227282,-0.6873694,995.32, , , , 
2025-09-28 19:18:34.908,10.281959,-10.660025,-2.8833513,-0.087124586,0.010155627,-2.7052147,-28.500002,37.443752,12.900001,0.08569674,-0.72124386,0.68735915,995.3173, , , , 
2025-09-28 19:18:34.928,9.221938,-11.822937,-0.8422736,-0.27649269,-0.2494619,-3.0521858,-30.88125,34.331253,13.33125,0.112677924,-0.7196884,0.6845888,995.3173, , , , 
2025-09-28 19:18:34.948,9.769895,-12.531212,0.2440679,-0.17386739,-0.67034775,-3.209789,-32.287502,32.568752,14.6625,0.13778521,-0.7174665,0.6813078,995.3188, , , , 
2025-09-28 19:18:34.968,10.636097,-12.9547415,0.9164511,0.038713556,-1.2781582,-3.444361,-37.40625,32.53125,14.118751,0.1674828,-0.7132222,0.677795,995.3188, , , , 
2025-09-28 19:18:34.988,11.095519,-13.150953,0.70348984,0.10835214,-1.5793145,-3.7082546,-36.9375,29.962502,15.900001,0.20158407,-0.7068184,0.67373157,995.33514, , , , 
2025-09-28 19:18:35.008,11.150554,-13.191631,0.6364908,0.0674242,-1.4809653,-3.981311,-39.16875,27.618752,16.125,0.23830478,-0.6987906,0.66826797,995.33514, , , , 
2025-09-28 19:18:35.028,10.506885,-13.57209,0.36610186,-0.12744166,-0.7546471,-4.2916307,-43.350002,23.0625,18.056252,0.28282344,-0.68667495,0.65971315,995.3564, , , , 
2025-09-28 19:18:35.048,10.588241,-13.696517,0.3804588,-0.23495387,-0.1645517,-4.476112,-41.11875,21.69375,16.96875,0.30676696,-0.6783553,0.6540816,995.3564, , , , 
2025-09-28 19:18:35.068,10.518848,-13.974084,0.33499518,-0.27221662,0.3296379,-4.7894855,-44.287502,18.6,20.268751,0.34273186,-0.66186744,0.6443548,995.363, , , , 
2025-09-28 19:18:35.088,10.30828,-14.289937,-0.086141616,-0.25999933,0.45242172,-5.002677,-45.3375,12.637501,20.1,0.37010163,-0.64593685,0.635701,995.363, , , , 
2025-09-28 19:18:35.108,9.7196455,-14.426328,-0.61016977,-0.30520332,0.4615847,-5.1902127,-45.412502,11.400001,18.618752,0.3905089,-0.63255745,0.62816924,995.3647, , , , 
2025-09-28 19:18:35.128,7.8891363,-14.335401,-0.61016977,-0.43531752,0.39316785,-5.2812314,-47.175003,3.6000001,21.581251,0.42418662,-0.6086142,0.61261266,995.3647, , , , 
2025-09-28 19:18:35.148,6.7525454,-13.964513,-0.33260235,-0.48113236,0.3748419,-5.1505065,-44.381252,-0.91875005,17.98125,0.44983774,-0.58874565,0.59778225,995.3632, , , , 
2025-09-28 19:18:35.168,5.7284174,-13.201202,0.4953143,-0.40355253,0.27466008,-4.890278,-47.04375,-6.0750003,19.63125,0.47889638,-0.56345296,0.57798666,995.3632, , , , 
2025-09-28 19:18:35.188,4.570291,-12.392428,0.701097,-0.2154062,0.048029244,-4.675864,-48.843754,-12.843751,18.675001,0.5009586,-0.54282933,0.561687,995.363, , , , 
2025-09-28 19:18:35.208,3.438486,-11.748759,0.61734825,-0.073685564,-0.11873684,-4.4199123,-45.581253,-13.368751,18.056252,0.51730764,-0.52743673,0.54938,995.363, , , , 
2025-09-28 19:18:35.228,1.9477576,-11.272588,0.25603202,0.069867656,-0.2946659,-3.8292058,-43.40625,-19.987501,18.975,0.5430036,-0.50307846,0.5294181,995.36957, , , , 
2025-09-28 19:18:35.248,0.38763726,-10.987842,-0.11485548,0.16516256,-0.4314996,-3.3594508,-41.831253,-23.0625,18.35625,0.56144536,-0.48563454,0.51451826,995.36957, , , , 
2025-09-28 19:18:35.268,-1.0911272,-10.286744,-0.7800602,0.154167,-0.57444197,-2.7559164,-41.550003,-24.018751,16.3875,0.5739637,-0.47458363,0.5041689,995.37054, , , , 
2025-09-28 19:18:35.288,-2.4741786,-9.595219,-0.92602235,0.030772313,-0.43088874,-1.7663155,-40.3875,-29.643751,19.81875,0.5904671,-0.46150127,0.4894677,995.37054, , , , 
2025-09-28 19:18:35.308,-3.0556345,-9.241081,-0.63170516,-0.040088,-0.29894194,-1.0002911,-39.28125,-29.268751,19.06875,0.59813696,-0.45584154,0.4818787,995.36615, , , , 
2025-09-28 19:18:35.328,-2.7062824,-8.949157,-0.2632105,-0.009544762,-0.18471023,0.062002774,-39.65625,-30.31875,20.71875,0.60131633,-0.4552611,0.4783236,995.36615, , , , 
2025-09-28 19:18:35.348,-2.5794628,-9.353543,-0.930808,0.010613776,-0.07903063,0.7516691,-37.5,-30.487501,21.112501,0.60028154,-0.45795035,0.47949892,995.35614, , , , 
2025-09-28 19:18:35.368,-2.5698915,-8.860622,-0.9595219,-0.073685564,-0.046654798,1.5146393,-37.237503,-29.306252,18.862501,0.5952272,-0.4654921,0.4844518,995.35614, , , , 
2025-09-28 19:18:35.388,-0.5407779,-8.712267,-0.18664017,-0.100563616,-0.22075126,2.6166394,-41.53125,-28.650002,21.431252,0.5830496,-0.48234022,0.4947364,995.3459, , , , 
2025-09-28 19:18:35.408,1.3686945,-8.989835,0.15314065,-0.01687514,-0.2372446,3.0723443,-41.30625,-27.000002,18.993752,0.5732354,-0.49567175,0.5026791,995.3459, , , , 
2025-09-28 19:18:35.428,4.520042,-10.590633,-0.13160525,0.19876012,0.112780906,3.4724607,-42.09375,-21.993752,20.79375,0.54862535,-0.52393967,0.5232429,995.3393, , , , 
2025-09-28 19:18:35.448,5.1086764,-11.559726,-0.36370903,0.36674795,0.2154062,3.617236,-44.568752,-20.38125,21.900002,0.5341873,-0.53711176,0.53559846,995.3393, , , , 
2025-09-28 19:18:35.468,5.4795637,-12.569497,-0.997807,0.5579486,-0.06131555,3.914727,-44.5125,-16.63125,20.2875,0.50901246,-0.55843407,0.5570868,995.3337, , , , 
2025-09-28 19:18:35.488,6.1902323,-13.488341,-1.9214365,0.5640573,-0.112017326,4.2739153,-45.28125,-11.625,21.9375,0.4878798,-0.57637405,0.5737934,995.3337, , , , 
2025-09-28 19:18:35.508,6.975078,-13.328022,-2.0434706,0.4088976,-0.013057235,4.583624,-46.518753,-7.0125003,20.1,0.46985644,-0.59045666,0.5860874,995.3217, , , , 
2025-09-28 19:18:35.528,8.106883,-13.112668,-1.1796615,0.18104506,0.14454588,4.8762283,-48.43125,-2.7375002,20.212502,0.43507823,-0.61477154,0.6051724,995.3217, , , , 
2025-09-28 19:18:35.548,9.21476,-12.856636,-0.32303107,0.13584106,0.25083634,4.8969975,-48.956253,0.056250002,23.8125,0.40391925,-0.6336802,0.6189662,995.29926,37.88825116,127.73991029,147.62225341796875,1.59
2025-09-28 19:18:35.568,9.54497,-12.765709,-0.05742774,0.16516256,0.2758818,4.8126984,-46.612503,4.18125,20.550001,0.37979496,-0.64648646,0.6285213,995.29926, , , , 
2025-09-28 19:18:35.589,9.568898,-13.064812,0.38763726,0.29710937,0.15370885,4.794372,-47.25,11.71875,17.868752,0.3398645,-0.665149,0.6426365,995.2966, , , , 
2025-09-28 19:18:35.608,9.95175,-13.438092,0.124426775,0.44616038,0.10300707,4.8566804,-46.03125,13.33125,17.8125,0.30801782,-0.6775356,0.6530157,995.2966, , , , 
2025-09-28 19:18:35.628,10.875379,-13.409378,-0.39720857,0.55367255,0.08773545,4.880504,-45.600002,15.375001,16.575,0.2839685,-0.68530977,0.6604021,995.3039, , , , 
2025-09-28 19:18:35.648,13.150953,-12.468999,-1.1389836,0.54145527,0.2551124,4.5591893,-43.350002,20.94375,19.10625,0.24416967,-0.69552344,0.67123806,995.3039, , , , 
2025-09-28 19:18:35.668,14.459827,-11.169696,-1.6199409,0.44799295,0.5758164,4.1920595,-42.7125,22.63125,18.9375,0.21334086,-0.70140654,0.67815006,995.29266, , , , 
2025-09-28 19:18:35.688,14.732609,-9.487542,-2.2851455,0.019776747,1.3369539,3.327075,-36.35625,27.7875,15.975,0.17553113,-0.7072108,0.6842401,995.29266, , , , 
2025-09-28 19:18:35.708,14.201403,-9.006584,-1.7850457,-0.21846052,1.4853941,2.9080217,-36.91875,27.956251,16.78125,0.15356857,-0.7108744,0.68599045,995.2802, , , , 
2025-09-28 19:18:35.728,13.4763775,-7.786245,0.47377887,-0.18730642,1.0529019,2.2855506,-35.0625,29.79375,15.262501,0.11564951,-0.71788305,0.68635416,995.2802, , , , 
2025-09-28 19:18:35.748,13.390236,-7.3842506,0.66041905,0.16516256,0.8091667,1.9281946,-34.275,33.600002,14.962501,0.10122011,-0.71946454,0.6870459,995.27386, , , , 
2025-09-28 19:18:35.768,13.265809,-7.353144,-1.1006985,0.42844528,0.94600046,1.6423099,-35.53125,31.837502,16.125,0.08507091,-0.71881455,0.68995595,995.27386, , , , 
2025-09-28 19:18:35.788,13.600804,-8.042277,-3.6227336,0.24396412,1.2544872,1.3277146,-30.45,34.256252,12.975,0.065478876,-0.71699244,0.69397986,995.29803, , , , 
2025-09-28 19:18:35.808,14.234902,-8.10449,-3.7758741,-0.028481571,1.1909572,1.0699297,-32.550003,35.53125,13.125001,0.054401867,-0.71705735,0.6948508,995.29803, , , , 
2025-09-28 19:18:35.828,16.027126,-8.484949,-2.9910283,-0.31375542,0.7547998,0.5390882,-29.56875,36.35625,11.0625,0.040762186,-0.71915776,0.69354624,995.2951, , , , 
2025-09-28 19:18:35.848,16.847864,-9.437292,-1.8855443,-0.3821723,0.36567894,-0.060781047,-30.243752,35.175003,10.743751,0.036718696,-0.7218397,0.6908742,995.2951, , , , 
2025-09-28 19:18:35.868,16.59901,-9.609575,-0.782453,-0.24411684,0.008933897,-0.71257377,-29.75625,35.456253,11.4375,0.039344016,-0.72407377,0.6881924,995.2873, , , , 
2025-09-28 19:18:35.888,16.218552,-8.750552,-0.40438703,-0.1787543,-0.14317143,-1.4059052,-31.10625,35.9625,10.481251,0.05101255,-0.725233,0.6857387,995.2873, , , , 
2025-09-28 19:18:35.908,15.079568,-9.013762,-0.050249275,-0.10361794,-0.053985175,-2.0106614,-31.1625,36.3375,9.525001,0.06214946,-0.7251537,0.6843402,995.2934, , , , 
2025-09-28 19:18:35.928,11.794223,-10.657632,-1.7347964,0.06864593,0.4408153,-2.8689265,-33.99375,34.03125,11.8125,0.08454946,-0.7226802,0.68258834,995.2934, , , , 
2025-09-28 19:18:35.948,9.506684,-11.480763,-2.8594232,-0.03825541,0.6130792,-3.1224353,-34.36875,33.506252,9.712501,0.103332736,-0.71935153,0.6806062,995.3066, , , , 
2025-09-28 19:18:35.968,8.707481,-12.574283,-2.713461,-0.2966512,0.40538514,-3.1761913,-38.175003,32.11875,10.35,0.122162655,-0.71648556,0.67650115,995.3066, , , , 
2025-09-28 19:18:35.988,9.633504,-13.091133,-1.1557333,-0.41027206,-0.0063377223,-3.264767,-39.975002,27.69375,12.0375,0.14259073,-0.71447563,0.67001384,995.30536, , , , 
2025-09-28 19:18:36.008,10.24846,-13.074383,-0.1268196,-0.35285076,-0.24457498,-3.42237,-42.16875,25.48125,11.775001,0.15997246,-0.71279657,0.6641496,995.30536, , , , 
2025-09-28 19:18:36.028,10.719846,-12.8518505,0.5312066,-0.16042836,-0.37713265,-3.8566947,-43.7625,22.48125,9.168751,0.19995098,-0.7064155,0.65148485,995.3127, , , , 
2025-09-28 19:18:36.048,10.451849,-13.158132,0.5072784,-0.055970486,-0.25557056,-4.121199,-45.412502,20.19375,9.9375,0.2216958,-0.7011492,0.644787,995.3127, , , , 
2025-09-28 19:18:36.068,10.21496,-13.359129,0.19381863,0.053985175,-0.074143715,-4.360658,-45.975002,17.493752,11.700001,0.25829425,-0.68915105,0.6332108,995.3349, , , , 
2025-09-28 19:18:36.089,10.3848505,-13.385449,-0.019142581,0.08147409,-0.016722424,-4.5726285,-46.912502,14.306251,11.212501,0.2875939,-0.67703867,0.6231148,995.3349, , , , 
2025-09-28 19:18:36.108,10.27478,-13.509876,-0.16271193,0.0692568,-0.0112246405,-4.8469067,-45.15,11.3625,11.19375,0.31015232,-0.66661817,0.61445975,995.34686, , , , 
2025-09-28 19:18:36.128,8.573483,-13.9023,-0.16749759,0.09796744,0.102396205,-5.053379,-48.54375,1.29375,13.968751,0.34846258,-0.6465522,0.59776366,995.34686, , , , 
2025-09-28 19:18:36.148,7.094719,-13.672588,-0.35174492,0.15355614,0.19402592,-4.927541,-49.893753,-3.1875002,13.293751,0.3778822,-0.62833244,0.58350044,995.3564, , , , 
2025-09-28 19:18:36.168,5.7954164,-12.68196,-1.0719845,0.15172353,0.2691623,-4.614778,-47.8875,-7.9500003,11.64375,0.4112533,-0.60422534,0.5657856,995.3564, , , , 
2025-09-28 19:18:36.188,5.6757755,-11.935399,-1.4476577,0.047265664,0.36201373,-4.3533278,-50.568752,-13.837501,13.500001,0.43458396,-0.5851254,0.5515387,995.362, , , , 
2025-09-28 19:18:36.208,5.2402816,-11.408978,-1.308874,-0.020540329,0.41576985,-4.203055,-48.412502,-15.4875,13.218751,0.45016107,-0.57097,0.54071057,995.362, , , , 
2025-09-28 19:18:36.228,3.0436704,-10.21496,-1.1940185,-0.057192214,0.3265836,-3.824319,-48.54375,-20.475,13.668751,0.47338325,-0.54780835,0.52257144,995.3549, , , , 
2025-09-28 19:18:36.248,1.847259,-9.650253,-1.0360922,-0.082848534,0.18730642,-3.4828455,-45.99375,-23.0625,12.937501,0.4899144,-0.5308651,0.5081069,995.3549, , , , 
2025-09-28 19:18:36.268,0.3684947,-8.999406,-0.8997013,-0.058413945,-0.10529782,-2.9764385,-44.11875,-26.343752,10.14375,0.50476825,-0.5161965,0.49403778,995.35516, , , , 
2025-09-28 19:18:36.288,-0.75613195,-8.370093,-0.97866446,-0.06818778,-0.41561714,-2.4266603,-43.725002,-29.94375,14.175,0.51840603,-0.5047148,0.48043445,995.35516, , , , 
2025-09-28 19:18:36.308,-0.94277215,-7.793423,-1.3280165,-0.09628756,-0.5738311,-1.8921536,-43.125,-29.98125,12.4125,0.53024274,-0.49715564,0.46782985,995.35126, , , , 
2025-09-28 19:18:36.328,-0.33020952,-7.0636125,-2.6871397,-0.39133525,-0.6660717,-1.2812889,-41.11875,-32.287502,13.556251,0.54135746,-0.49319696,0.4537496,995.35126, , , , 
2025-09-28 19:18:36.348,-1.4261223,-7.4656067,-2.5148566,-0.65522885,-0.5842158,-0.7492257,-41.475002,-32.568752,13.6125,0.54529077,-0.49368963,0.44584307,995.3437, , , , 
2025-09-28 19:18:36.368,-2.1631117,-8.458628,-2.1535404,-0.8207732,-0.4736493,0.0021380268,-37.95,-33.318752,13.293751,0.5459274,-0.49808988,0.43781742,995.3437, , , , 
2025-09-28 19:18:36.388,-2.5627131,-9.06162,-1.6151553,-0.93439406,-0.16516256,1.5464042,-39.018753,-32.0625,12.712501,0.5378193,-0.51038504,0.43517125,995.3349, , , , 
2025-09-28 19:18:36.408,-1.1653047,-9.111869,-1.0695918,-0.96738076,-0.0570395,2.4156647,-41.193752,-33.525,12.093751,0.52754366,-0.5216892,0.43843487,995.3349, , , , 
2025-09-28 19:18:36.428,4.278367,-9.444471,-0.19860429,-0.9704351,0.28993168,3.4382524,-41.79375,-31.575,9.58125,0.49585965,-0.5509154,0.45426476,995.3393, , , , 
2025-09-28 19:18:36.448,7.0396843,-9.769895,0.086141616,-0.9087377,0.6967676,3.5286603,-44.4,-27.112501,9.75,0.4759231,-0.5656298,0.46542713,995.3393, , , , 
2025-09-28 19:18:36.468,7.216753,-10.540383,0.40677986,-0.73158693,0.81955147,3.3783877,-47.381252,-25.1625,9.1875,0.44053817,-0.5861074,0.48586252,995.3437, , , , 
2025-09-28 19:18:36.489,6.0107703,-11.523834,0.29910284,-0.4566978,0.17386739,3.4553566,-48.187504,-20.41875,10.387501,0.41411573,-0.60115665,0.5015386,995.3437, , , , 
2025-09-28 19:18:36.508,5.6614184,-12.423535,-0.038285162,-0.26855144,-0.3429242,3.7076437,-47.86875,-17.493752,8.493751,0.3963555,-0.6137731,0.51256084,995.3459, , , , 
2025-09-28 19:18:36.528,6.5850477,-12.3708935,-0.016749758,-0.0834594,-0.3917934,4.265363,-48.581253,-13.087501,8.15625,0.36660406,-0.6364949,0.53160965,995.3459, , , , 
2025-09-28 19:18:36.548,7.4416785,-11.913864,0.09332009,-0.033368487,-0.034437504,4.4779444,-50.68125,-9.46875,10.8,0.3393029,-0.6532909,0.5485986,995.3532,37.88823796,127.73991614,148.25311279296875,1.67
2025-09-28 19:18:36.568,7.850851,-11.222338,-0.22492532,-0.03581195,0.34735298,4.5445285,-52.237503,-5.64375,9.65625,0.3005362,-0.6705186,0.57089853,995.3532, , , , 
2025-09-28 19:18:36.589,7.2646093,-11.430513,-0.3469593,-0.10361794,0.279547,4.6654797,-51.35625,0.056250002,9.09375,0.27597982,-0.6795775,0.5836325,995.3571, , , , 
2025-09-28 19:18:36.608,6.7932234,-12.050255,0.038285162,-0.124998204,0.009544762,4.9367037,-49.968754,4.05,8.55,0.24229574,-0.69162655,0.59927547,995.3571, , , , 
2025-09-28 19:18:36.628,9.736395,-12.500106,0.5383851,-0.109726585,-0.36002842,5.3533134,-49.537502,9.46875,5.26875,0.19889256,-0.7068858,0.61731,995.35394, , , , 
2025-09-28 19:18:36.648,13.289737,-11.810972,0.9212367,0.013057235,-0.19326234,5.022225,-49.725002,15.168751,6.0375004,0.16451313,-0.71688324,0.6301094,995.35394, , , , 
2025-09-28 19:18:36.668,13.237095,-10.904093,-0.23928227,-0.032757625,0.5923098,4.288576,-49.7625,15.900001,8.325001,0.13207494,-0.7228573,0.6410924,995.35223, , , , 
2025-09-28 19:18:36.688,11.394622,-10.707881,-0.7896315,-0.3595703,1.3516147,3.9397724,-45.09375,21.375,5.2125,0.09851426,-0.726258,0.64938873,995.35223, , , , 
2025-09-28 19:18:36.708,11.334801,-10.547563,-0.21296121,-0.61369,1.6882012,3.7937758,-47.025,23.53125,6.8250003,0.07126449,-0.7284811,0.65339106,995.3505, , , , 
2025-09-28 19:18:36.728,12.701102,-9.415757,1.753939,-0.71570444,1.7279074,3.2855363,-43.65,24.768751,3.7875001,0.016364707,-0.73221725,0.65659654,995.3505, , , , 
2025-09-28 19:18:36.748,13.074383,-8.58784,2.6392834,-0.47685632,1.4756203,2.798677,-39.1875,30.712502,1.7437501,-0.007632368,-0.7328907,0.6572369,995.3398, , , , 
2025-09-28 19:18:36.768,12.6676035,-8.635697,2.2205393,-0.014431681,1.1139883,2.1768167,-39.693752,31.3875,4.8375,-0.039052766,-0.7311055,0.6596446,995.3398, , , , 
2025-09-28 19:18:36.788,11.832508,-9.02812,0.66041905,0.29405504,0.9056834,1.8066326,-37.443752,32.25,2.7,-0.05756425,-0.72734404,0.66331667,995.3503, , , , 
2025-09-28 19:18:36.808,11.406586,-8.965906,-0.25603202,0.43699738,0.78717566,1.6447535,-36.112503,34.275,0.90000004,-0.0691395,-0.72379714,0.66663694,995.3503, , , , 
2025-09-28 19:18:36.829,13.021741,-8.382058,-1.7898313,0.4822014,0.8207732,1.3637556,-36.65625,34.59375,1.40625,-0.08592052,-0.71723837,0.67250913,995.35345, , , , 
2025-09-28 19:18:36.848,13.794622,-8.480164,-2.751746,0.36308277,1.1176535,1.01373,-31.81875,34.987503,-2.53125,-0.09771508,-0.712364,0.6758739,995.35345, , , , 
2025-09-28 19:18:36.868,14.000405,-8.640483,-3.2566316,0.14622575,1.5153265,0.7021891,-31.81875,34.256252,-3.4125001,-0.10654833,-0.7093693,0.6767264,995.3405, , , , 
2025-09-28 19:18:36.890,15.419349,-10.133604,-2.6823542,-0.040698867,1.6814817,0.1517999,-32.30625,36.825,-3.80625,-0.121470235,-0.7059491,0.6745905,995.3405, , , , 
2025-09-28 19:18:36.908,15.428921,-10.387243,-2.309074,0.112017326,1.4035382,-0.29352054,-32.1375,36.956253,-3.3750002,-0.12934661,-0.7039614,0.67152876,995.31976, , , , 
2025-09-28 19:18:36.928,15.44567,-8.839087,-3.888337,0.15172353,0.8562033,-1.1414008,-33.35625,37.4625,-3.9,-0.1301226,-0.7017142,0.66836447,995.31976, , , , 
2025-09-28 19:18:36.948,14.414364,-9.0544405,-3.885944,-0.11766783,0.73158693,-1.8335106,-31.29375,35.71875,-8.325001,-0.12342334,-0.7024708,0.6633927,995.3144, , , , 
2025-09-28 19:18:36.968,13.19881,-10.057034,-3.1345978,-0.26794055,0.70531976,-2.3643522,-33.61875,35.2125,-6.525,-0.11515078,-0.7046887,0.6572909,995.3144, , , , 
2025-09-28 19:18:36.988,10.451849,-12.179467,-2.1798615,-0.22456917,0.545884,-2.9648323,-38.79375,32.30625,-3.80625,-0.09649868,-0.7090858,0.6445539,995.2963, , , , 
2025-09-28 19:18:37.008,9.731609,-12.894921,-1.995614,-0.124998204,0.31864235,-3.0992224,-37.65,31.931252,-6.20625,-0.08290188,-0.71133214,0.636578,995.2963, , , , 
2025-09-28 19:18:37.028,10.2317095,-13.371093,-2.9192436,-0.04741838,0.031535894,-3.2782059,-42.375,28.2,-5.0437503,-0.050944865,-0.7149361,0.6208024,995.2963, , , , 
2025-09-28 19:18:37.048,10.41835,-13.383057,-3.4600215,-0.17997603,0.049861837,-3.4510806,-43.55625,25.237501,-6.15,-0.033469707,-0.71664727,0.61193216,995.2963, , , , 
2025-09-28 19:18:37.068,10.521241,-12.918849,-3.333202,-0.38767007,0.30947936,-3.6948156,-44.7,24.50625,-7.36875,-0.0042854715,-0.7194365,0.59392256,995.3012, , , , 
2025-09-28 19:18:37.089,10.6408825,-12.789637,-3.196811,-0.4823541,0.68577206,-4.0124655,-47.925003,21.5625,-7.4812503,0.018417193,-0.7203972,0.5765975,995.3012, , , , 
2025-09-28 19:18:37.108,10.025927,-12.9236355,-3.345166,-0.54221886,0.9899827,-4.3240066,-46.800003,18.45,-8.043751,0.035266142,-0.7196814,0.5619726,995.3007, , , , 
2025-09-28 19:18:37.128,8.243274,-13.493127,-3.7208393,-0.5794816,1.1390338,-4.62333,-48.80625,13.743751,-5.86875,0.063593075,-0.7157814,0.534646,995.3007, , , , 
2025-09-28 19:18:37.148,6.9152575,-13.545769,-3.6514473,-0.66500264,0.81955147,-4.5988955,-50.643753,8.1,-7.5000005,0.08663937,-0.71139896,0.51079726,995.2929, , , , 
2025-09-28 19:18:37.168,6.680761,-13.4022,-2.8785655,-0.6924916,0.13599378,-4.4687815,-51.91875,3.35625,-6.3375,0.11675804,-0.70743513,0.47916663,995.2929, , , , 
2025-09-28 19:18:37.188,6.8913293,-12.756138,-2.8354948,-0.6924916,-0.3087158,-4.3820386,-51.24375,-0.675,-7.4062505,0.1427544,-0.70613474,0.45304638,995.29047, , , , 
2025-09-28 19:18:37.208,6.2285175,-12.346965,-3.306881,-0.83543396,-0.2286925,-4.3307257,-51.45,-3.16875,-8.475,0.1622284,-0.7053613,0.4327353,995.29047, , , , 
2025-09-28 19:18:37.228,4.56072,-11.609976,-3.4695928,-1.2948042,0.3314705,-4.057669,-51.018753,-8.118751,-5.925,0.18994144,-0.70258355,0.3972112,995.2941, , , , 
2025-09-28 19:18:37.248,3.5940197,-10.971092,-2.4454648,-1.4847832,0.67233306,-3.8053823,-50.9625,-11.475,-6.05625,0.20614327,-0.69846237,0.36809698,995.2941, , , , 
2025-09-28 19:18:37.268,2.2779672,-10.052248,-1.2777673,-1.4652356,1.0119739,-3.417483,-48.581253,-15.918751,-10.21875,0.2178556,-0.692046,0.34029537,995.2944, , , , 
2025-09-28 19:18:37.288,0.9284152,-9.133404,-0.51206404,-1.2080615,0.7596867,-3.024086,-49.65,-17.53125,-9.39375,0.22704633,-0.6843199,0.31510845,995.2944, , , , 
2025-09-28 19:18:37.308,0.12921242,-8.666803,-0.51445687,-0.956996,0.21662793,-2.6160283,-46.40625,-19.6875,-9.618751,0.23615362,-0.6782692,0.2930389,995.3029, , , , 
2025-09-28 19:18:37.328,-0.16271193,-8.10449,-0.6580262,-0.74013907,-0.25740314,-2.157269,-45.225002,-21.28125,-12.88125,0.2431017,-0.6761225,0.27851626,995.3029, , , , 
2025-09-28 19:18:37.348,-0.22731815,-7.932207,-1.5960127,-0.61979866,-0.39545858,-1.4944807,-44.86875,-23.34375,-15.13125,0.25465536,-0.67624915,0.25532568,995.30927, , , , 
2025-09-28 19:18:37.368,-0.67477596,-8.346166,-2.481357,-0.79023,-0.17737986,-0.8139773,-45.956253,-24.337502,-14.493751,0.25756136,-0.67766184,0.24415202,995.30927, , , , 
2025-09-28 19:18:37.388,-0.6843473,-8.863015,-2.507678,-1.0877211,-0.008781182,-0.083993904,-44.49375,-26.550001,-14.512501,0.2544279,-0.68002635,0.23595874,995.31976, , , , 
2025-09-28 19:18:37.409,-0.9236295,-9.406186,-2.2755744,-1.2715914,0.11339177,0.4065305,-45.2625,-25.143751,-13.125001,0.24791451,-0.68262774,0.23162623,995.31976, , , , 
2025-09-28 19:18:37.428,-1.2323036,-9.037691,-0.86859465,-1.5586978,0.22456917,1.4114031,-43.050003,-25.3875,-16.743752,0.22864418,-0.688335,0.2284359,995.3217, , , , 
2025-09-28 19:18:37.449,0.3924229,-8.374879,1.2466606,-1.4579052,0.06269,2.111454,-45.46875,-24.150002,-15.4875,0.20603901,-0.6946476,0.23031437,995.3217, , , , 
2025-09-28 19:18:37.468,2.6225336,-8.52802,1.9501505,-1.0235803,-0.045433067,2.627024,-46.21875,-21.35625,-15.562501,0.17429297,-0.7037056,0.23957218,995.3171, , , , 
2025-09-28 19:18:37.488,4.1228333,-9.449257,0.6580262,-0.71875876,0.04253146,2.9269586,-46.425003,-18.13125,-16.95,0.1485689,-0.71017826,0.25239146,995.3171, , , , 
2025-09-28 19:18:37.508,4.8526444,-10.284351,-0.4211368,-0.70043284,0.15004367,3.1474807,-47.2125,-17.71875,-17.04375,0.12847702,-0.7142308,0.26401165,995.33856, , , , 
2025-09-28 19:18:37.528,5.584848,-11.057234,-0.9667004,-0.8775836,0.3229184,3.485289,-48.281254,-12.750001,-15.525001,0.098886184,-0.7187921,0.28060594,995.33856, , , , 
2025-09-28 19:18:37.548,6.869794,-11.452049,-0.6149554,-1.1585814,0.7297543,3.8310385,-48.525,-7.65,-18.2625,0.055932894,-0.7224198,0.30172476,995.3381,37.88822553,127.73991886,147.69085693359375,1.54
2025-09-28 19:18:37.568,7.381858,-11.332408,0.4977071,-1.358945,1.1042144,3.9904742,-48.61875,-2.8312502,-15.6,0.017154621,-0.72219926,0.31784993,995.3381, , , , 
2025-09-28 19:18:37.590,7.3842506,-10.987842,1.6917256,-1.2526546,0.83237964,4.049117,-47.04375,1.8375001,-18.806252,-0.023233362,-0.7197972,0.33332938,995.3339, , , , 
2025-09-28 19:18:37.608,7.618747,-10.650454,1.9070797,-0.9783763,0.2948186,4.068054,-46.7625,6.0,-21.075,-0.06120396,-0.7177021,0.34977406,995.3339, , , , 
2025-09-28 19:18:37.628,8.015956,-10.612168,1.0648061,-0.6289616,-0.25862488,4.0656104,-46.0875,10.275001,-18.300001,-0.102732226,-0.716615,0.37279695,995.3371, , , , 
2025-09-28 19:18:37.648,8.88455,-10.810773,0.47138608,-0.6118574,-0.20303617,4.0613346,-43.21875,14.94375,-20.1,-0.12591101,-0.71579105,0.38717082,995.3371, , , , 
2025-09-28 19:18:37.668,9.5665045,-10.813166,0.16749759,-0.8226058,0.4004982,3.9128942,-43.6875,17.5125,-21.6,-0.16504857,-0.7117866,0.40871105,995.34247, , , , 
2025-09-28 19:18:37.688,9.509077,-11.176874,0.782453,-1.0504583,0.8384883,3.8023279,-42.16875,20.6625,-22.556252,-0.19831556,-0.70554805,0.4217824,995.34247, , , , 
2025-09-28 19:18:37.708,9.611969,-11.289337,1.6342978,-1.0767255,1.0009784,3.7632325,-40.95,22.9125,-23.737501,-0.22420312,-0.6994269,0.42952168,995.33563, , , , 
2025-09-28 19:18:37.728,10.41835,-10.834701,2.5842485,-0.78351045,0.6759982,3.6190684,-38.756252,26.1,-20.2875,-0.27381608,-0.6846678,0.4440555,995.33563, , , , 
2025-09-28 19:18:37.748,11.172089,-10.399207,2.5052853,-0.47563457,0.23006694,3.448637,-34.6875,29.400002,-22.44375,-0.2947853,-0.6773861,0.45252022,995.3525, , , , 
2025-09-28 19:18:37.768,11.897114,-9.473185,2.359323,-0.03214676,-0.06498074,3.2384996,-32.41875,30.487501,-21.975,-0.32271713,-0.66595936,0.46901795,995.3525, , , , 
2025-09-28 19:18:37.788,12.873385,-8.451449,1.1270195,0.31238097,0.1146135,3.0668466,-31.95,31.406252,-21.768751,-0.34073484,-0.6553897,0.4837324,995.35004, , , , 
2025-09-28 19:18:37.808,13.763515,-7.6139617,-0.12921242,0.40278897,0.46402815,2.8139486,-26.362501,36.46875,-23.1,-0.3531613,-0.64621925,0.4940742,995.35004, , , , 
2025-09-28 19:18:37.828,14.651253,-7.1018977,-1.1916257,0.348422,0.79511684,2.280053,-26.812502,35.79375,-22.237501,-0.3727312,-0.630133,0.50719726,995.3239, , , , 
