Time,Accel_X,Accel_Y,Accel_Z,Gyro_X,Gyro_Y,Gyro_Z,Mag_X,Mag_Y,Mag_Z,Orient_X,Orient_Y,Orient_Z,Pressure,Lat,Lng,Alt,Speed
2025-09-20 21:04:41.420,0.0,6.1471615,7.0205417,0.21097742,0.1800524,0.10835214,23.325,-29.79375,-26.475,0.22875918,0.21890971,0.6783829,998.60077,37.88835867,127.73984026,144.806884765625,0.0
2025-09-20 21:04:41.438,0.016749758,6.029913,7.726424,-0.3681224,0.32299474,-0.055970486,24.900002,-29.362501,-28.687502,0.22308889,0.22005606,0.680817,998.5607, , , , 
2025-09-20 21:04:41.458,-0.45942193,5.4963136,8.681161,-0.35468337,0.4555524,-0.013209951,26.5125,-28.687502,-29.19375,0.21932182,0.22019283,0.6818109,998.5607, , , , 
2025-09-20 21:04:41.478,-0.14596218,5.436493,9.533006,-0.14210242,0.28206682,0.035048366,24.937502,-28.368752,-27.50625,0.21335067,0.22104052,0.68379277,998.53094, , , , 
2025-09-20 21:04:41.498,0.069391854,5.7762737,8.571091,0.08697187,-0.067958705,-0.020540329,25.3875,-29.081251,-27.35625,0.2121957,0.22142404,0.68427396,998.53094, , , , 
2025-09-20 21:04:41.518,0.07178468,6.195018,7.5182486,0.060704686,-0.28237224,-0.10300707,27.675001,-28.706251,-28.85625,0.21393919,0.22102728,0.6833252,998.51996, , , , 
2025-09-20 21:04:41.538,0.148355,5.111069,7.243074,-0.15309799,-0.12782346,-0.26305366,26.906252,-28.800001,-27.225,0.21521816,0.21958773,0.6818131,998.51996, , , , 
2025-09-20 21:04:41.558,0.078963146,5.319245,7.8317084,-0.3681224,0.53007793,-0.3644572,26.025002,-28.25625,-29.325,0.21206124,0.21941108,0.68053037,998.5256, , , , 
2025-09-20 21:04:41.579,-0.021535404,5.5274205,8.221739,-0.3852266,0.80863225,-0.2777144,24.975,-28.35,-28.893751,0.20470117,0.2216608,0.6804468,998.5256, , , , 
2025-09-20 21:04:41.598,-0.53599226,5.5106707,8.221739,-0.36201373,0.8318451,-0.24350597,26.775002,-28.687502,-27.056252,0.19621576,0.22493829,0.681197,998.5378, , , , 
2025-09-20 21:04:41.618,-1.3615161,5.828916,8.530413,-0.27710354,0.6913462,-0.20013458,28.10625,-26.437502,-27.16875,0.18628195,0.22925475,0.6820519,998.5378, , , , 
2025-09-20 21:04:41.638,-0.9619147,5.6709895,8.891729,-0.09995275,0.35353798,-0.07063124,28.143751,-27.056252,-27.300001,0.18075931,0.23188613,0.6824417,998.5197, , , , 
2025-09-20 21:04:41.658,-0.41635114,5.54417,8.606983,0.066813335,-0.25488332,0.058872093,27.843752,-27.6,-25.237501,0.17988476,0.23234819,0.6825199,998.5197, , , , 
2025-09-20 21:04:41.678,-0.57188463,5.419743,7.9537425,0.016722424,-0.4393645,0.06864593,30.6,-27.300001,-28.1625,0.18297601,0.23018855,0.6821795,998.48553, , , , 
2025-09-20 21:04:41.698,-0.47138608,5.4723854,7.834101,-0.09078978,-0.2451095,0.09063706,26.906252,-28.050001,-26.79375,0.18547207,0.2274074,0.68204004,998.48553, , , , 
2025-09-20 21:04:41.718,-0.67477596,5.5130634,8.23131,-0.07735075,-0.087506376,0.13217586,27.2625,-27.018751,-27.35625,0.18636873,0.22537582,0.68255824,998.47723, , , , 
2025-09-20 21:04:41.738,-0.7752745,5.723632,9.064013,0.06131555,-0.110108376,0.15599959,27.91875,-26.812502,-29.1375,0.18689337,0.22435197,0.68342984,998.47723, , , , 
2025-09-20 21:04:41.759,-0.6987042,5.5250273,7.8628154,0.102854356,-0.5059488,0.22991423,27.45,-26.868752,-28.0125,0.19019876,0.22275619,0.68386334,998.48016, , , , 
2025-09-20 21:04:41.778,-0.033499517,5.505885,7.664211,0.0240528,-0.4320341,0.32704175,26.962502,-28.5375,-27.243752,0.1945677,0.21963416,0.68453187,998.48016, , , , 
2025-09-20 21:04:41.798,0.059820566,5.6279187,8.003992,-0.018707734,-0.27137667,0.35819584,27.13125,-28.406252,-26.812502,0.19765642,0.21666917,0.68608826,998.5009, , , , 
2025-09-20 21:04:41.818,0.27996024,5.5393844,8.207381,0.020387612,-0.21945317,0.3191005,26.081251,-27.768751,-26.56875,0.19995774,0.21447434,0.68789047,998.5009, , , , 
2025-09-20 21:04:41.838,0.46660042,5.4580283,7.7096744,0.005726857,-0.25121814,0.19387321,25.63125,-28.66875,-28.181252,0.2023509,0.21252687,0.6891235,998.5114, , , , 
2025-09-20 21:04:41.858,0.13878371,5.4484572,7.513463,-0.14271328,-0.29397866,0.18287764,24.937502,-28.368752,-27.0375,0.20433596,0.21021628,0.6898961,998.5114, , , , 
2025-09-20 21:04:41.878,0.12921242,5.493921,8.305488,-0.20746495,-0.24266604,0.14072797,25.518751,-27.806252,-28.687502,0.205486,0.20694847,0.690798,998.48627, , , , 
2025-09-20 21:04:41.898,0.27996024,5.4293146,8.465807,-0.12377647,-0.28725916,0.10529782,25.2,-27.206251,-29.306252,0.20615199,0.20388365,0.69150347,998.48627, , , , 
2025-09-20 21:04:41.918,0.27038896,5.5130634,8.015956,-0.040698867,-0.38011062,0.022220206,25.237501,-27.712502,-28.500002,0.20847397,0.20019037,0.69155586,998.43744, , , , 
2025-09-20 21:04:41.938,0.18424734,5.4149575,7.769495,-0.057192214,-0.2206749,0.003894263,24.300001,-28.800001,-29.56875,0.21050085,0.19817194,0.6909224,998.43744, , , , 
2025-09-20 21:04:41.958,1.012164,5.0512486,8.279166,-0.16042836,0.15317434,-0.084070265,23.60625,-28.500002,-27.975,0.21034591,0.19716486,0.69096375,998.37836, , , , 
2025-09-20 21:04:41.978,-0.14596218,5.103891,9.3104725,-0.12866339,0.28817546,-0.16103923,25.25625,-27.712502,-29.118752,0.20744213,0.19660147,0.6913029,998.37836, , , , 
2025-09-20 21:04:41.998,-0.4354937,5.666204,8.733803,-0.0040469794,0.33704466,-0.16470441,25.706251,-27.656252,-29.175001,0.20340914,0.19808517,0.6911021,998.33563, , , , 
2025-09-20 21:04:42.018,-0.16749759,5.300102,9.133404,0.09552398,0.007177661,-0.13965896,25.931252,-27.900002,-28.10625,0.200841,0.2005113,0.690428,998.33563, , , , 
2025-09-20 21:04:42.038,0.0741775,5.288138,8.707481,0.19814926,-0.18890993,-0.15554145,26.1375,-26.98125,-30.018751,0.20105323,0.20092124,0.6891699,998.3051, , , , 
2025-09-20 21:04:42.058,0.19142582,5.4699926,8.116454,0.14500403,-0.14553854,-0.15676318,26.5125,-28.706251,-28.575,0.20359668,0.20105927,0.68708175,998.3051, , , , 
2025-09-20 21:04:42.078,-0.17467605,5.5513487,8.451449,0.05215258,0.03405571,-0.12866339,26.1,-28.500002,-28.556252,0.20430607,0.20185146,0.68566656,998.2868, , , , 
2025-09-20 21:04:42.098,-0.27756742,5.5920267,8.018349,0.046043932,0.020616686,-0.04619665,25.125002,-27.6,-28.95,0.20397517,0.20306885,0.6849177,998.2868, , , , 
2025-09-20 21:04:42.119,0.3062813,5.9342003,7.391429,-0.10117448,0.03649917,-0.03642281,27.018751,-27.768751,-30.375002,0.20473509,0.20404708,0.6844068,998.2856, , , , 
2025-09-20 21:04:42.138,0.31585258,5.5704913,7.9369926,-0.13843723,0.15378521,-0.03092503,26.94375,-28.031252,-28.968752,0.20437019,0.20439772,0.68443936,998.2856, , , , 
2025-09-20 21:04:42.158,0.069391854,5.1469617,8.58784,-0.10178535,0.1262963,-0.027259842,27.13125,-27.88125,-30.243752,0.2028339,0.204372,0.68481827,998.29144, , , , 
2025-09-20 21:04:42.179,-0.124426775,5.352744,8.803194,-0.007101303,0.10919208,-0.004657844,26.362501,-26.587502,-29.925001,0.2006796,0.20421949,0.6852493,998.29144, , , , 
2025-09-20 21:04:42.199,-0.07178468,5.5106707,8.372486,0.010002911,0.09269873,0.003894263,26.362501,-26.60625,-29.1375,0.19961928,0.20479073,0.6855086,998.3024, , , , 
2025-09-20 21:04:42.218,-0.050249275,5.625526,8.161918,-0.040088,0.099418245,0.01244637,27.375002,-28.10625,-29.475,0.19897874,0.20548476,0.6856939,998.3024, , , , 
2025-09-20 21:04:42.240,0.10289137,5.4963136,7.999206,-0.07918335,0.105526894,0.03565923,25.85625,-27.525002,-28.275002,0.19818285,0.20587246,0.6861783,998.3178, , , , 
2025-09-20 21:04:42.258,0.13399807,5.503492,8.099705,-0.08895718,0.14889829,0.04054615,26.5125,-27.956251,-28.312502,0.19750157,0.20608401,0.6866719,998.3178, , , , 
2025-09-20 21:04:42.278,0.014356935,5.319245,8.784052,0.05337431,-0.054519683,0.017944153,27.056252,-26.775002,-29.212502,0.19686194,0.2061689,0.6872412,998.3383, , , , 
2025-09-20 21:04:42.298,0.11964113,5.2666025,8.451449,0.116904244,-0.19257513,-0.009544762,26.98125,-27.0375,-28.10625,0.19764413,0.20561562,0.6870974,998.3383, , , , 
2025-09-20 21:04:42.318,0.11485548,5.410172,7.941778,0.061926417,-0.091782436,-0.024205517,26.23125,-27.112501,-28.0125,0.19980915,0.2049403,0.68641603,998.361, , , , 
2025-09-20 21:04:42.338,0.09810573,5.424529,8.453842,-0.0058795735,0.029779658,-0.026648976,27.187502,-27.393751,-27.806252,0.20018621,0.20498611,0.6861955,998.361, , , , 
2025-09-20 21:04:42.358,0.05742774,5.288138,8.817552,0.04421134,-0.008704823,-0.0077121677,25.25625,-26.962502,-29.00625,0.19986561,0.20495923,0.686179,998.3957, , , , 
2025-09-20 21:04:42.378,0.078963146,5.465207,8.444271,0.09308052,-0.044134982,-0.012599086,26.1375,-28.125002,-26.41875,0.20012452,0.2047163,0.6860423,998.3957, , , , 
2025-09-20 21:04:42.398,-0.03589234,5.4819565,8.274381,0.08025236,0.03894263,0.017944153,25.087502,-27.618752,-26.475,0.2007869,0.20519578,0.685843,998.4345, , , , 
2025-09-20 21:04:42.418,-0.059820566,5.572884,8.353344,0.03199404,0.09392046,0.056428634,26.906252,-27.4125,-28.06875,0.20065853,0.20642024,0.6861573,998.4345,37.88835867,127.73984026,144.806884765625,0.0
2025-09-20 21:04:42.438,-0.12203395,5.4580283,8.41795,0.04176788,0.0059559317,0.07353285,25.331251,-27.31875,-29.156252,0.20045078,0.20702145,0.68660134,998.47626, , , , 
2025-09-20 21:04:42.458,-0.086141616,5.4699926,8.23131,0.066813335,-0.09544762,0.08147409,26.343752,-28.837502,-29.00625,0.20083554,0.20698965,0.68685526,998.47626, , , , 
2025-09-20 21:04:42.479,-0.0071784677,5.4053864,8.054241,0.0796415,-0.11071924,0.04176788,26.081251,-28.500002,-27.468752,0.20240073,0.2066223,0.68693286,998.50433, , , , 
2025-09-20 21:04:42.498,0.0023928226,5.4125648,7.9130645,0.053985175,0.052381653,0.0112246405,25.968752,-27.6375,-27.50625,0.20334776,0.20680182,0.6868398,998.50433, , , , 
2025-09-20 21:04:42.518,0.069391854,5.4987063,8.035098,0.016722424,0.11346813,0.027717989,24.91875,-27.750002,-27.69375,0.20309515,0.20774528,0.6870181,998.54266, , , , 
2025-09-20 21:04:42.538,0.076570325,5.4341,8.051848,-0.028481571,0.1036943,0.029550584,26.587502,-28.087502,-26.456251,0.20259061,0.2084264,0.68740326,998.54266, , , , 
2025-09-20 21:04:42.558,0.023928227,5.400601,7.975278,-0.12988512,0.22647811,0.037491824,26.7,-27.056252,-28.837502,0.20135272,0.20883973,0.6880333,998.5612, , , , 
2025-09-20 21:04:42.578,-0.09810573,5.45085,8.066205,-0.19708025,0.2698495,0.105908684,26.156252,-28.125002,-27.0375,0.19810967,0.20964168,0.6894915,998.5612, , , , 
2025-09-20 21:04:42.598,0.069391854,5.393422,7.941778,-0.2691623,0.30344707,0.13828452,25.875002,-28.1625,-27.468752,0.19614013,0.20953225,0.6908501,998.5788, , , , 
2025-09-20 21:04:42.618,-0.16271193,5.3407803,8.295917,-0.26610798,0.32971427,0.1107956,25.66875,-27.675001,-27.768751,0.19274734,0.20956999,0.69282615,998.5788, , , , 
2025-09-20 21:04:42.638,-0.26799613,5.2235317,8.374879,-0.21723878,0.2930624,0.099800035,25.406252,-26.831251,-27.487501,0.1882232,0.20958894,0.69511086,998.58636, , , , 
2025-09-20 21:04:42.658,-0.34456646,5.218746,8.252846,-0.16898046,0.22525638,0.08758274,25.893751,-27.16875,-25.518751,0.18503775,0.2098208,0.69660133,998.58636, , , , 
2025-09-20 21:04:42.679,-0.5096712,5.194818,8.135597,-0.11094832,0.101250835,0.06436988,26.60625,-28.087502,-27.075,0.18235375,0.21033412,0.6977695,998.601, , , , 
2025-09-20 21:04:42.698,-0.41874397,5.2283173,8.161918,-0.108504854,0.014508039,0.07170025,25.837502,-27.54375,-27.187502,0.18142109,0.21028134,0.6984238,998.601, , , , 
2025-09-20 21:04:42.718,0.5240282,5.1876397,9.341579,-0.07002038,-0.100945406,0.010613776,26.85,-27.675001,-28.050001,0.18110885,0.20893745,0.69874054,998.6147, , , , 
2025-09-20 21:04:42.738,0.20578274,5.3359947,8.99462,0.09613484,-0.1913534,-0.04864011,26.343752,-27.243752,-27.093752,0.18237624,0.20672086,0.69868624,998.6147, , , , 
2025-09-20 21:04:42.758,0.38763726,5.3814583,8.688339,0.08880447,-0.093615025,-0.056581352,26.1375,-27.50625,-26.60625,0.18383037,0.20588209,0.6982187,998.6242, , , , 
2025-09-20 21:04:42.778,0.44745782,5.505885,8.458628,0.030772313,0.11530073,-0.11827869,27.337502,-27.487501,-28.725,0.18515453,0.20581958,0.69767505,998.6242, , , , 
2025-09-20 21:04:42.799,0.17228323,5.5202417,8.4682,0.0026725335,0.10491603,-0.15737404,26.212502,-27.13125,-26.94375,0.18497553,0.20655257,0.6971394,998.63153, , , , 
2025-09-20 21:04:42.818,0.009571291,5.426922,8.5423765,0.0112246405,0.017562363,-0.17997603,26.025002,-28.7625,-26.98125,0.18470708,0.20713854,0.69625324,998.63153, , , , 
2025-09-20 21:04:42.838,-0.24646074,5.369494,8.4347,0.04848739,-0.030695954,-0.15370885,26.737501,-26.812502,-28.087502,0.1846873,0.20764111,0.69480234,998.6254, , , , 
2025-09-20 21:04:42.858,-0.37806597,5.304888,8.446664,0.083306685,-0.08994984,-0.11217005,25.743752,-28.781252,-27.4125,0.18510577,0.20808576,0.6936625,998.6254, , , , 
2025-09-20 21:04:42.878,-0.16031912,5.2498527,8.504091,0.13400847,-0.14553854,-0.084070265,27.018751,-27.525002,-27.91875,0.18580303,0.20825306,0.692865,998.62225, , , , 
2025-09-20 21:04:42.898,-0.16510476,5.3312087,8.396415,0.16821688,-0.17119485,-0.0816268,28.125002,-28.556252,-26.906252,0.18747519,0.20828375,0.6917971,998.62225, , , , 
2025-09-20 21:04:42.919,-0.14356937,5.386244,8.092526,0.15783219,-0.22556181,-0.09628756,26.8875,-29.550001,-26.718752,0.19015105,0.20831221,0.6902813,998.6208, , , , 
2025-09-20 21:04:42.938,-0.22971097,5.3790655,7.8460655,0.09063706,-0.2432769,-0.09445497,26.85,-29.04375,-27.206251,0.19251391,0.20813414,0.68887913,998.6208, , , , 
2025-09-20 21:04:42.958,0.0047856453,5.3814583,8.001599,0.027107125,-0.22372922,-0.11155918,27.937502,-28.931252,-29.175001,0.1944797,0.20748109,0.687601,998.62274, , , , 
2025-09-20 21:04:42.978,-0.059820566,5.393422,8.169097,0.023441937,-0.20906848,-0.1164461,26.550001,-29.081251,-26.550001,0.19592127,0.20654084,0.6863951,998.62274, , , , 
2025-09-20 21:04:42.998,-0.047856454,5.515456,7.704889,-0.01687514,-0.17363831,-0.14515674,28.143751,-27.0375,-28.06875,0.19757736,0.20567143,0.68480515,998.61884, , , , 
2025-09-20 21:04:43.018,-0.20338993,5.4484572,7.7240314,-0.082848534,-0.18280129,-0.15309799,27.956251,-27.937502,-26.925001,0.19832887,0.20524728,0.6837745,998.61884, , , , 
2025-09-20 21:04:43.038,-0.016749758,5.276174,8.303095,-0.06696605,-0.20418155,-0.15187626,25.987501,-28.25625,-27.618752,0.19894098,0.20402865,0.68246657,998.61127, , , , 
2025-09-20 21:04:43.058,-0.078963146,5.3240304,8.216953,-0.011988222,-0.25488332,-0.12438734,26.812502,-27.16875,-29.00625,0.19984837,0.20210414,0.68089694,998.61127, , , , 
2025-09-20 21:04:43.079,0.02871387,5.4125648,7.9130645,-0.04497492,-0.18646647,-0.12927426,27.993752,-27.91875,-29.081251,0.20117286,0.20072633,0.679635,998.6069, , , , 
2025-09-20 21:04:43.098,-0.34217364,5.367101,8.159525,-0.09995275,-0.090560704,-0.1042288,27.056252,-27.525002,-29.325,0.2016352,0.19988175,0.6785562,998.6069, , , , 
2025-09-20 21:04:43.118,-0.22731815,5.393422,8.482556,-0.092011504,-0.052687086,-0.06146827,26.025002,-28.031252,-26.1,0.20076317,0.19940816,0.67799425,998.60175, , , , 
2025-09-20 21:04:43.140,-0.009571291,5.4580283,8.4347,-0.028481571,-0.20479241,-0.10361794,27.243752,-26.625002,-29.85,0.200824,0.19819722,0.677209,998.60175, , , , 
2025-09-20 21:04:43.160,-0.28953153,5.359923,8.405986,-0.04864011,-0.2414443,-0.10178535,26.718752,-26.812502,-27.7875,0.20181665,0.19685528,0.6760098,998.5942, , , , 
2025-09-20 21:04:43.180,0.14117654,5.383851,8.705089,-0.04619665,-0.24388777,-0.08956805,27.843752,-27.075,-27.73125,0.20238426,0.19536826,0.6750381,998.5942, , , , 
2025-09-20 21:04:43.198,0.2105684,5.383851,8.673982,-0.010766491,-0.27259842,-0.13232858,27.35625,-26.737501,-29.550001,0.20356317,0.19338112,0.67398417,998.6003, , , , 
2025-09-20 21:04:43.218,-0.069391854,5.316852,8.250452,-0.033979353,-0.26465717,-0.14454588,27.525002,-27.337502,-29.531252,0.20503059,0.19173434,0.6725269,998.6003, , , , 
2025-09-20 21:04:43.239,-0.25842485,5.111069,8.432307,-0.07857248,-0.23533566,-0.067576915,26.156252,-26.75625,-28.181252,0.20586257,0.1902974,0.6711706,998.5993, , , , 
2025-09-20 21:04:43.258,0.31106696,5.2402816,8.599805,-0.046807513,-0.15225805,-0.06146827,26.456251,-26.212502,-30.2625,0.20592172,0.1889936,0.67046946,998.5993, , , , 
2025-09-20 21:04:43.278,0.3062813,5.2570314,8.504091,0.01244637,-0.32574365,-0.090178914,26.212502,-26.718752,-30.825,0.2071512,0.18701844,0.6695697,998.59344, , , , 
2025-09-20 21:04:43.298,0.4977071,5.4388857,8.271988,-0.033979353,-0.08261946,-0.08651373,28.25625,-26.531252,-28.10625,0.20858327,0.18528055,0.6684173,998.59344, , , , 
2025-09-20 21:04:43.318,0.09571291,5.3096733,7.941778,-0.04619665,-0.44302967,-0.14088069,27.375002,-25.237501,-30.093752,0.20978665,0.18410812,0.6675809,998.59515, , , , 
2025-09-20 21:04:43.338,-0.13878371,5.0847483,8.508878,-0.0712421,-0.46746427,-0.067576915,25.3875,-26.325,-29.362501,0.21210137,0.181271,0.66576135,998.59515, , , , 
2025-09-20 21:04:43.358,0.3493521,5.0823555,9.109476,0.014278964,-0.3990474,-0.008323032,26.812502,-26.550001,-29.962502,0.21399648,0.1774629,0.66446173,998.5949, , , , 
2025-09-20 21:04:43.378,0.11246266,5.0679984,8.863015,0.12362376,-0.37888888,0.006948587,25.518751,-25.800001,-30.487501,0.21616729,0.17482565,0.6636378,998.5949, , , , 
2025-09-20 21:04:43.398,0.040677983,5.194818,8.216953,0.10957387,-0.22617269,0.08758274,25.781252,-27.281252,-29.19375,0.21875776,0.17345576,0.66294515,998.60345, , , , 
2025-09-20 21:04:43.419,0.62931234,5.3407803,8.286345,-0.039477136,0.12202024,0.12789981,25.575,-26.175001,-29.7,0.21924622,0.17346072,0.6635782,998.60345,37.88835867,127.73984026,144.806884765625,0.0
2025-09-20 21:04:43.440,0.6723832,5.4029937,8.599805,-0.10361794,0.24113888,0.07475458,25.612501,-27.525002,-31.181252,0.21794254,0.1739604,0.66487235,998.5937, , , , 
2025-09-20 21:04:43.460,0.47856453,5.271388,8.664411,-0.090178914,0.19165882,0.020387612,25.143751,-26.85,-29.625002,0.21595435,0.17448938,0.66592234,998.5937, , , , 
2025-09-20 21:04:43.478,0.38524446,5.2019963,8.513663,-0.073685564,0.12996148,0.0075594517,25.44375,-26.812502,-30.281252,0.2146138,0.17480591,0.6664192,998.58466, , , , 
2025-09-20 21:04:43.499,0.4354937,5.13739,8.580662,-0.065744326,0.09636392,0.011835505,26.456251,-26.212502,-30.2625,0.21291085,0.17511038,0.6669648,998.58466, , , , 
2025-09-20 21:04:43.518,0.40438703,5.0440702,8.965906,-0.0022143847,0.14767656,0.0026725335,25.29375,-25.44375,-31.25625,0.21166478,0.17521049,0.66738665,998.57245, , , , 
2025-09-20 21:04:43.538,0.17467605,5.070391,8.688339,0.047265664,0.22098033,0.058261227,25.85625,-26.268751,-30.187502,0.21006729,0.17623502,0.667951,998.57245, , , , 
2025-09-20 21:04:43.558,0.5312066,5.259424,8.602198,0.08025236,0.18249585,0.06864593,26.550001,-28.44375,-28.593752,0.20857432,0.1781633,0.66900027,998.5634, , , , 
2025-09-20 21:04:43.579,0.4354937,5.278567,8.126026,0.05337431,0.14584397,0.03810269,26.94375,-27.393751,-30.243752,0.2083667,0.17942919,0.6696079,998.5634, , , , 
2025-09-20 21:04:43.598,0.32303107,5.2689953,8.023134,-0.037033677,0.16416991,0.033215772,24.056252,-28.687502,-30.7875,0.20801166,0.1805212,0.67007846,998.5527, , , , 
2025-09-20 21:04:43.618,0.16510476,5.1613183,8.193025,-0.08773545,0.27229297,0.069867656,25.987501,-26.8875,-28.0125,0.20692438,0.1813666,0.6706358,998.5527, , , , 
2025-09-20 21:04:43.638,0.4331009,5.1732826,8.396415,-0.041920595,0.18127412,0.063759014,24.91875,-27.975,-29.85,0.2043833,0.1827081,0.6720786,998.5461, , , , 
2025-09-20 21:04:43.659,0.26799613,5.168497,8.1738825,0.005726857,0.054825112,0.025885396,25.7625,-27.281252,-28.575,0.20366928,0.18313561,0.67277986,998.5461, , , , 
2025-09-20 21:04:43.678,-0.03589234,5.1254263,8.039884,-0.0058795735,-0.035582874,0.03138318,26.118752,-27.750002,-29.062502,0.20373437,0.18340832,0.67293745,998.5478, , , , 
2025-09-20 21:04:43.698,0.050249275,5.0656056,8.293523,-0.022983788,-0.10522146,0.07658717,26.868752,-27.675001,-28.837502,0.20390856,0.18324262,0.6730539,998.5478, , , , 
2025-09-20 21:04:43.719,0.50009996,5.0440702,8.559127,0.04176788,-0.1339321,0.05215258,25.743752,-26.8875,-30.91875,0.20491625,0.18167093,0.6734427,998.5468, , , , 
2025-09-20 21:04:43.738,0.38763726,5.1421757,8.130812,0.055817768,-0.18341215,0.044822205,26.38125,-25.837502,-30.431252,0.20644227,0.18057464,0.67341065,998.5468, , , , 
2025-09-20 21:04:43.758,0.47856453,5.211568,8.114061,0.0032833982,-0.16508621,0.037491824,25.237501,-27.712502,-28.81875,0.20777851,0.1797808,0.6732977,998.54047, , , , 
2025-09-20 21:04:43.778,0.3589234,5.113462,8.6548395,-0.065744326,-0.056963142,0.0796415,24.825,-26.868752,-29.118752,0.20890158,0.17814107,0.67352396,998.53705, , , , 
2025-09-20 21:04:43.799,0.7728817,5.123033,8.894122,-0.0077121677,-0.025809037,0.08697187,26.437502,-26.962502,-29.2875,0.2087501,0.17728715,0.67402714,998.53705, , , , 
2025-09-20 21:04:43.818,0.96909314,5.211568,8.238488,0.05093085,-0.08872811,0.015500694,26.343752,-26.60625,-28.837502,0.20949095,0.17625685,0.6745148,998.53705, , , , 
2025-09-20 21:04:43.838,0.80877405,5.3982077,7.4919276,-0.035201084,-0.06307179,-0.043142326,26.437502,-26.962502,-30.056252,0.21115296,0.17555885,0.6743279,998.53046, , , , 
2025-09-20 21:04:43.859,0.39481574,5.209175,8.178668,-0.17508912,0.018173227,-0.029092435,26.19375,-26.737501,-30.0375,0.21135691,0.17498258,0.6739935,998.53046, , , , 
2025-09-20 21:04:43.878,0.44027936,5.1421757,8.592627,-0.14088069,-0.01847866,0.0075594517,26.906252,-27.4125,-28.3875,0.21045075,0.17433688,0.6741411,998.5234, , , , 
2025-09-20 21:04:43.899,0.66041905,5.130212,8.60459,0.009392046,-0.20173809,-0.012599086,25.706251,-27.656252,-29.175001,0.21067473,0.17228791,0.6741939,998.5234, , , , 
2025-09-20 21:04:43.918,0.58624154,5.2139606,7.999206,0.005726857,-0.21823144,-0.011988222,25.29375,-26.94375,-31.181252,0.21226633,0.17084453,0.6736829,998.52045, , , , 
2025-09-20 21:04:43.938,0.8925229,5.221139,7.6737823,-0.17142393,-0.019089524,-0.039477136,25.143751,-27.581251,-30.0375,0.2136524,0.16949704,0.6732275,998.52045, , , , 
2025-09-20 21:04:43.959,0.79441714,5.1732826,7.9034934,-0.39500043,0.37125307,-0.039477136,25.66875,-25.893751,-32.8125,0.212102,0.16882919,0.6735723,998.52045, , , , 
2025-09-20 21:04:43.979,0.7082755,5.139783,8.429914,-0.47807804,0.51541716,-0.057192214,26.04375,-26.868752,-31.25625,0.2069944,0.16902111,0.67487156,998.52045, , , , 
2025-09-20 21:04:43.998,0.33738798,5.0416775,9.171689,-0.3974439,0.39813113,-0.081015944,25.5375,-25.781252,-31.575,0.20099282,0.16908957,0.6761292,998.52826, , , , 
2025-09-20 21:04:44.018,0.062213387,4.883751,9.020942,-0.22579089,0.25152358,-0.0064904382,25.612501,-27.525002,-30.862501,0.19598901,0.16916272,0.67694193,998.52826, , , , 
2025-09-20 21:04:44.038,0.14117654,4.9316072,8.662018,-0.18669555,0.17577635,0.030772313,26.343752,-26.831251,-31.29375,0.19270986,0.16937897,0.6777474,998.54486, , , , 
2025-09-20 21:04:44.058,0.18424734,4.8095737,8.58784,-0.11950042,0.09025527,0.044822205,26.5125,-25.2,-30.16875,0.19056909,0.16931462,0.6785161,998.54486, , , , 
2025-09-20 21:04:44.079,0.5766702,4.9268217,7.850851,-0.033979353,-0.21639885,0.014278964,26.587502,-26.306252,-31.2,0.18995562,0.16866392,0.67909735,998.5522, , , , 
2025-09-20 21:04:44.099,0.66999036,4.9292145,7.0540414,-0.020540329,-0.5707004,-0.067576915,28.2,-25.63125,-32.175003,0.19309983,0.16643673,0.6783498,998.5522, , , , 
2025-09-20 21:04:44.118,0.38763726,4.570291,6.4941206,-0.07735075,-0.91706073,-0.04864011,25.518751,-25.050001,-30.843752,0.19873333,0.16207746,0.6763854,998.5524, , , , 
2025-09-20 21:04:44.138,1.0935199,4.0845485,6.613762,-0.06330086,-1.2420408,0.016722424,25.331251,-25.425001,-33.43125,0.20784563,0.1530007,0.67365044,998.5524, , , , 
2025-09-20 21:04:44.158,1.0719845,3.790231,5.922236,-0.026038112,-1.417359,0.049098257,26.681252,-26.025002,-33.375,0.21477382,0.14586289,0.6718561,998.5363, , , , 
2025-09-20 21:04:44.178,1.134198,3.1752756,4.6971107,-0.08223767,-1.6439898,0.18409938,24.018751,-25.331251,-31.44375,0.22430326,0.13554941,0.66936404,998.5363, , , , 
2025-09-20 21:04:44.198,1.7754744,2.926422,3.7184465,-0.24717116,-1.8657337,0.2720639,23.41875,-24.862501,-34.03125,0.23509075,0.12253755,0.6671378,998.5163, , , , 
2025-09-20 21:04:44.220,3.5533416,2.4909284,2.969493,-0.81955147,-1.6727005,0.2702313,21.16875,-25.837502,-34.350002,0.24910952,0.09775347,0.6643892,998.487, , , , 
2025-09-20 21:04:44.240,3.4049866,2.091327,3.8835511,-1.3345104,-1.1479677,0.23480114,20.212502,-24.300001,-36.975002,0.25115138,0.08466182,0.6637819,998.487, , , , 
2025-09-20 21:04:44.258,2.9838498,1.8329022,5.130212,-1.4896702,-1.3324488,0.24396412,17.8875,-24.16875,-36.73125,0.24949998,0.06677984,0.66367894,998.487, , , , 
2025-09-20 21:04:44.279,1.9740787,1.1174482,4.922036,-1.3375648,-2.4943137,0.4492147,17.456251,-22.087502,-38.34375,0.25116292,0.044524528,0.66232973,998.465, , , , 
2025-09-20 21:04:44.298,4.4410787,0.5455636,6.3696938,-1.1616358,-3.3305874,0.7124974,15.375001,-21.54375,-38.775,0.26026925,0.015503993,0.6596116,998.465, , , , 
2025-09-20 21:04:44.318,5.864808,0.45224348,5.4029937,-1.3076324,-2.601215,0.67156947,13.106251,-20.53125,-40.143753,0.27286172,-0.016234655,0.6562707,998.4643, , , , 
2025-09-20 21:04:44.340,4.570291,0.27996024,5.7690954,-1.8751258,-1.3251184,0.8102358,10.012501,-20.587502,-40.125,0.27634433,-0.043069385,0.6549834,998.4643, , , , 
2025-09-20 21:04:44.360,4.5272202,0.27756742,8.298309,-1.856189,-1.9756894,0.9482912,8.700001,-17.737501,-41.081253,0.26941237,-0.08067546,0.6567127,998.4621, , , , 
2025-09-20 21:04:44.378,3.2997024,0.13160525,7.5900335,-1.3497821,-3.4765842,1.1132247,5.25,-16.81875,-42.9375,0.27253103,-0.10384808,0.6556199,998.4621, , , , 
2025-09-20 21:04:44.398,3.0364919,-0.40677986,5.692525,-1.0162499,-4.5779734,1.49135,3.7687502,-15.6,-44.23125,0.28703684,-0.14111243,0.65211856,998.47723, , , , 
2025-09-20 21:04:44.418,5.919843,-1.1270195,5.0919266,-0.81955147,-5.27497,1.9232314,-3.43125,-14.343751,-45.412502,0.30876637,-0.18434255,0.64790595,998.47723,37.88835867,127.73984026,144.806884765625,0.0
2025-09-20 21:04:44.438,7.580462,-1.5050855,6.178268,-0.5477166,-5.713571,1.8920773,-8.1,-12.6,-42.54375,0.3343631,-0.23051092,0.64176816,998.49725, , , , 
2025-09-20 21:04:44.458,5.127819,-2.7206392,1.6654046,-0.3730093,-5.6213303,2.5139377,-15.937501,-10.8,-42.131252,0.3688698,-0.2875716,0.6323112,998.49725, , , , 
2025-09-20 21:04:44.478,7.1569324,-3.5294135,-0.21535404,-0.91667897,-4.7135854,3.005684,-18.487501,-10.200001,-40.2,0.38457897,-0.3215118,0.6285956,998.50604, , , , 
2025-09-20 21:04:44.499,12.815958,-4.338187,1.4261223,-1.7456225,-3.5731008,3.01729,-25.35,-6.9375005,-37.5,0.3956455,-0.37659788,0.62458146,998.50604, , , , 
2025-09-20 21:04:44.518,14.500505,-4.5559344,4.347759,-1.9814162,-2.4717116,2.5994587,-28.66875,-3.6937501,-35.943752,0.39368862,-0.41634881,0.62058717,998.48285, , , , 
2025-09-20 21:04:44.539,11.050055,-5.3814583,5.682954,-1.9960771,-0.9146173,2.4650683,-30.69375,0.6,-38.456253,0.38175347,-0.44631448,0.6191797,998.48285, , , , 
2025-09-20 21:04:44.560,11.346765,-5.4987063,5.0512486,-1.7786092,-1.1540763,2.5676937,-30.618752,1.8375001,-36.05625,0.3659132,-0.47171232,0.6202748,998.47015, , , , 
2025-09-20 21:04:44.580,12.598211,-5.558527,4.9938207,-1.4780637,-1.9029965,2.3960407,-29.475,6.6937504,-37.3875,0.35222152,-0.5043866,0.61937374,998.47015, , , , 
2025-09-20 21:04:44.598,11.679367,-5.9294147,3.8261235,-1.3931534,-1.4338523,2.3257914,-30.937502,6.9,-35.7,0.3461484,-0.52287024,0.61803377,998.4775, , , , 
2025-09-20 21:04:44.618,11.837294,-6.498906,2.8378878,-1.5556436,-0.80710506,2.394819,-31.237501,9.84375,-33.825,0.33444878,-0.54467374,0.61750156,998.4775, , , , 
2025-09-20 21:04:44.638,12.507284,-6.8578296,3.237489,-1.72974,-0.45280352,2.3758821,-33.05625,14.625001,-33.75,0.31430393,-0.569928,0.6170985,998.48553, , , , 
2025-09-20 21:04:44.658,11.741581,-7.3627152,4.173083,-1.8219806,-0.10155627,2.3960407,-32.100002,15.093751,-33.112503,0.29492646,-0.588487,0.6165875,998.48553, , , , 
2025-09-20 21:04:44.680,11.8899355,-7.2765737,5.8624153,-1.6686535,-0.33551747,2.4271948,-30.525002,19.237501,-33.206253,0.2690871,-0.61017036,0.6161494,998.47845, , , , 
2025-09-20 21:04:44.698,14.333008,-6.3792653,7.520642,-1.1665226,-0.90423256,2.1541383,-31.612501,19.85625,-30.337502,0.25695035,-0.6221997,0.61596173,998.47845, , , , 
2025-09-20 21:04:44.718,13.4022,-5.7379885,5.663811,-0.39255697,-1.2108867,1.7515785,-31.10625,22.9125,-32.5875,0.247184,-0.6376974,0.6167585,998.4914, , , , 
2025-09-20 21:04:44.738,12.2991085,-5.4867425,4.156333,-0.26855144,-0.8651372,1.6373466,-29.625002,24.54375,-31.893751,0.24346228,-0.6444142,0.618336,998.4914, , , , 
2025-09-20 21:04:44.758,11.648261,-5.642276,4.1874394,-0.2447277,-0.64705855,1.5799254,-28.95,24.35625,-30.581251,0.2374411,-0.651833,0.62087667,998.5026, , , , 
2025-09-20 21:04:44.778,11.720045,-5.7667027,3.6323047,-0.05291616,-0.35201082,1.3545163,-30.056252,25.48125,-29.587502,0.22914447,-0.6587764,0.62489974,998.5026, , , , 
2025-09-20 21:04:44.798,11.353944,-5.4173503,2.3641088,-0.0064904382,-0.26465717,1.0649664,-29.925001,26.118752,-29.94375,0.2247916,-0.66129416,0.62752855,998.5002, , , , 
2025-09-20 21:04:44.818,9.894321,-5.221139,1.3686945,-0.11094832,-0.12171481,0.82734,-28.706251,28.48125,-30.675001,0.21925358,-0.66437477,0.6306071,998.5002, , , , 
2025-09-20 21:04:44.838,9.004191,-5.2235317,1.5840486,-0.19219333,-0.050854493,0.7754165,-28.968752,27.31875,-28.725,0.21463606,-0.66684294,0.6320356,998.4814, , , , 
2025-09-20 21:04:44.858,9.686146,-5.400601,2.0578275,-0.22579089,0.018784093,0.68500847,-29.85,28.10625,-28.06875,0.20844442,-0.6699637,0.63328695,998.4814, , , , 
2025-09-20 21:04:44.878,10.595419,-5.5704913,2.993421,-0.13843723,0.14034618,0.49258608,-29.718752,28.875002,-28.25625,0.20398761,-0.67153,0.6341576,998.4814, , , , 
2025-09-20 21:04:44.898,10.150353,-5.2833524,2.4358935,0.03932442,0.31444263,0.22747077,-28.9125,29.062502,-28.5375,0.20070763,-0.6708751,0.63565737,998.4814, , , , 
2025-09-20 21:04:44.918,9.793823,-5.3336015,1.2442678,0.036880963,0.4140136,0.07108939,-29.41875,29.400002,-29.41875,0.19896565,-0.6696035,0.63682073,998.4672, , , , 
2025-09-20 21:04:44.938,9.930214,-5.285745,1.564906,-0.15493058,0.7451023,-0.06391173,-26.41875,28.968752,-29.718752,0.1951117,-0.6674062,0.6376722,998.4672, , , , 
2025-09-20 21:04:44.958,10.648061,-5.2331033,1.9070797,-0.13477205,0.9436334,-0.2758818,-27.6,28.218752,-29.081251,0.19097933,-0.664965,0.6376759,998.4567, , , , 
2025-09-20 21:04:44.978,9.990034,-5.204389,1.4763715,-0.17753258,1.130558,-0.5086213,-26.775002,29.306252,-30.468752,0.18731833,-0.6613781,0.63721293,998.4567, , , , 
2025-09-20 21:04:44.999,8.520842,-5.302495,1.6271194,-0.31986406,1.4225514,-0.67050046,-25.612501,28.556252,-31.0125,0.18167813,-0.65596235,0.63539106,998.45013, , , , 
2025-09-20 21:04:45.018,7.8221374,-5.5274205,1.8281165,-0.3278053,1.229518,-0.66988957,-24.525002,28.687502,-32.831253,0.17674647,-0.6516847,0.63320667,998.45013, , , , 
2025-09-20 21:04:45.038,7.2646093,-5.493921,2.3545375,-0.25266895,0.97295487,-0.6314051,-25.44375,27.093752,-32.49375,0.17391808,-0.64890397,0.6313956,998.4379, , , , 
2025-09-20 21:04:45.058,7.1617184,-5.56092,2.4239295,-0.106672265,0.674242,-0.54893833,-25.368752,28.725,-34.125,0.17173941,-0.64557254,0.629383,998.4379, , , , 
2025-09-20 21:04:45.078,6.0514483,-5.656633,2.3449662,0.060704686,0.583834,-0.45242172,-23.7,27.656252,-32.850002,0.17085576,-0.6413551,0.628008,998.4377, , , , 
2025-09-20 21:04:45.099,5.3144593,-5.7379885,2.6153553,0.29833108,0.26190826,-0.12744166,-24.018751,28.875002,-34.893753,0.17031421,-0.6377651,0.62858593,998.4377, , , , 
2025-09-20 21:04:45.118,6.491728,-5.5274205,2.3665016,0.59887654,-0.2866483,0.10835214,-25.9125,27.562502,-34.0125,0.17152679,-0.6347074,0.6313265,998.44476, , , , 
2025-09-20 21:04:45.140,7.9154572,-5.4317074,0.6723832,0.7858012,-0.68126696,0.17310381,-23.15625,28.087502,-34.631252,0.17800105,-0.6318593,0.63649756,998.43475, , , , 
2025-09-20 21:04:45.158,8.066205,-5.2139606,0.29192436,0.7106648,-0.7313579,0.21036656,-23.85,26.775002,-34.65,0.18281431,-0.6306286,0.6394726,998.43475, , , , 
2025-09-20 21:04:45.178,8.997013,-4.3812585,0.9834501,0.54023355,-0.69653857,0.19753839,-25.143751,25.518751,-33.65625,0.18891238,-0.6299856,0.64261734,998.43475, , , , 
2025-09-20 21:04:45.198,9.556933,-3.6921253,1.550549,0.41500625,-0.45463613,0.06864593,-24.281252,27.712502,-33.112503,0.19424897,-0.6293759,0.6448523,998.42645, , , , 
2025-09-20 21:04:45.218,9.784252,-3.5126636,3.0963125,0.37407833,-0.61529356,-0.04253146,-25.031252,26.775002,-34.36875,0.20034882,-0.6282184,0.64644456,998.42645, , , , 
2025-09-20 21:04:45.240,11.191232,-3.711268,5.2163534,0.6923389,-1.0074687,-0.18486296,-26.325,26.268751,-33.28125,0.2105888,-0.62711,0.64772624,998.4362, , , , 
2025-09-20 21:04:45.258,11.186446,-3.5940197,4.699504,0.9049198,-0.69165164,-0.34307694,-27.675001,25.368752,-33.24375,0.21867469,-0.62480336,0.6493114,998.4362, , , , 
2025-09-20 21:04:45.278,11.641082,-3.414558,3.7854455,0.88231784,-0.3507891,-0.39316785,-27.393751,24.018751,-31.800001,0.22822566,-0.61945176,0.6523635,998.4672, , , , 
2025-09-20 21:04:45.299,13.160524,-3.5988052,5.0751767,0.8731548,-0.3819432,-0.6246856,-28.725,23.15625,-32.53125,0.23906536,-0.6117913,0.65561235,998.4672, , , , 
2025-09-20 21:04:45.318,13.60559,-3.8668015,5.508278,1.0313689,-0.47662723,-0.87697273,-27.73125,23.625,-33.600002,0.24733034,-0.6065406,0.65705305,998.48285, , , , 
2025-09-20 21:04:45.338,13.399807,-4.091727,4.421936,1.1003965,-0.297033,-1.0932189,-30.000002,21.150002,-32.756252,0.2601694,-0.5979883,0.65882987,998.48285, , , , 
2025-09-20 21:04:45.361,13.47877,-3.5676985,3.682554,0.9531781,-0.055130545,-1.300302,-30.056252,20.15625,-32.53125,0.2757286,-0.5858074,0.660348,998.4926, , , , 
2025-09-20 21:04:45.381,13.627125,-3.1944182,4.240082,0.8529963,0.10002911,-1.5776347,-30.562502,18.243752,-34.068752,0.28763264,-0.5756131,0.66016257,998.49603, , , , 
2025-09-20 21:04:45.400,13.026526,-3.385844,4.182654,0.7858012,0.4989238,-1.8598542,-31.050001,17.325,-33.975002,0.2991814,-0.564027,0.65892994,998.49603, , , , 
2025-09-20 21:04:45.420,11.866008,-3.7950168,4.4195433,0.79679674,0.6895136,-2.045557,-32.381252,15.075001,-33.84375,0.3117526,-0.546988,0.65681016,998.49603,37.88835867,127.73984026,144.806884765625,0.0
2025-09-20 21:04:45.438,11.655439,-3.897908,4.8765726,0.904309,0.5893318,-2.1127522,-30.675001,15.618751,-33.45,0.31940082,-0.53589666,0.65533155,998.49286, , , , 
2025-09-20 21:04:45.458,12.205789,-4.1443686,4.759324,1.1688133,0.2784016,-2.2819617,-31.687502,12.01875,-32.98125,0.33179986,-0.52033395,0.6529947,998.49286, , , , 
2025-09-20 21:04:45.478,11.863615,-4.3334017,3.5724843,1.2237912,0.2997819,-2.4493387,-29.812502,10.368751,-34.3125,0.34683174,-0.5036389,0.6498719,998.48895, , , , 
2025-09-20 21:04:45.498,11.394622,-4.5248275,3.1609187,1.0771837,0.39507678,-2.537914,-31.593752,5.83125,-34.65,0.36184302,-0.48626313,0.6457286,998.48895, , , , 
2025-09-20 21:04:45.518,11.196017,-4.7162533,4.2664027,0.9727258,0.5319105,-2.5617378,-32.100002,4.78125,-35.456253,0.3754057,-0.46899503,0.64054054,998.4819, , , , 
2025-09-20 21:04:45.538,10.872986,-4.6037908,4.85743,1.1382701,0.59482956,-2.6356525,-31.706251,0.95625,-34.66875,0.3905846,-0.44587123,0.6340941,998.4819, , , , 
2025-09-20 21:04:45.558,10.083355,-4.601398,3.9816568,1.3441316,0.56062114,-2.696739,-32.11875,0.43125,-34.275,0.40398493,-0.42566994,0.6287902,998.4831, , , , 
2025-09-20 21:04:45.578,8.7577305,-4.1611185,2.251646,1.2305107,0.8972076,-2.5617378,-30.975,-4.0687504,-33.84375,0.4194643,-0.3987904,0.6226896,998.4831, , , , 
2025-09-20 21:04:45.600,7.5589266,-3.9720855,1.5314065,1.05336,1.0664172,-2.3955827,-29.718752,-6.76875,-37.050003,0.4263961,-0.38260552,0.61951333,998.47577, , , , 
2025-09-20 21:04:45.620,6.046663,-3.4672,1.4739788,0.8737657,0.8953751,-2.0791547,-28.500002,-8.64375,-36.0,0.4349371,-0.35792378,0.6145503,998.47577, , , , 
2025-09-20 21:04:45.638,6.0155563,-3.1369905,2.0937197,0.8413899,0.62720543,-1.8018221,-26.812502,-9.84375,-36.881252,0.43956384,-0.34547037,0.6114855,998.45844, , , , 
2025-09-20 21:04:45.658,5.656633,-3.0245278,1.7347964,0.9049198,0.3969094,-1.5770237,-25.331251,-10.5375,-38.081253,0.4480812,-0.32714593,0.6066022,998.45844, , , , 
2025-09-20 21:04:45.678,4.304688,-3.318845,0.59342,0.8206205,0.22892158,-1.1726313,-26.60625,-14.025001,-38.8125,0.4550358,-0.31489173,0.6033161,998.4504, , , , 
2025-09-20 21:04:45.698,4.058227,-3.507878,-0.32542387,0.5927679,0.014508039,-0.7474694,-25.29375,-14.6625,-37.068752,0.46097878,-0.30642617,0.6009088,998.4504, , , , 
2025-09-20 21:04:45.718,4.173083,-3.6251264,-0.70588267,0.27633995,-0.229227,-0.33574656,-24.54375,-15.95625,-36.61875,0.46561337,-0.30255568,0.5988889,998.43036, , , , 
2025-09-20 21:04:45.738,3.8237305,-4.2185464,-1.1772687,-0.030314164,-0.4735729,0.08758274,-24.806252,-15.731251,-35.5125,0.46884584,-0.3032503,0.59709954,998.43036, , , , 
2025-09-20 21:04:45.758,3.7423747,-4.6205406,-1.3926228,-0.34490952,-0.8358157,0.610483,-25.781252,-17.7,-36.225002,0.4705327,-0.3094633,0.59575003,998.4157, , , , 
2025-09-20 21:04:45.778,4.063013,-4.3788652,-0.32303107,-0.5501601,-1.3672681,1.0460296,-25.650002,-14.19375,-36.75,0.4713648,-0.32201308,0.5943741,998.4157, , , , 
2025-09-20 21:04:45.798,3.7591243,-4.692325,0.82313097,-0.53366673,-1.932318,1.4088832,-28.931252,-14.94375,-33.112503,0.47370163,-0.34472305,0.59147877,998.4067, , , , 
2025-09-20 21:04:45.818,3.4672,-5.302495,0.7106683,-0.473802,-2.2475243,1.7558545,-29.94375,-12.7875,-34.068752,0.47680053,-0.36624506,0.58889747,998.4067, , , , 
2025-09-20 21:04:45.838,4.0869412,-5.989235,0.94755775,-0.44448048,-2.1931572,1.9549963,-29.906252,-11.0625,-33.24375,0.47979477,-0.3898605,0.58679163,998.40936, , , , 
2025-09-20 21:04:45.858,3.6466618,-6.91765,0.65324056,-0.4615847,-1.9427028,2.20484,-33.206253,-11.175,-30.2625,0.48059177,-0.41327342,0.5864109,998.40936, , , , 
2025-09-20 21:04:45.878,3.696911,-8.1020975,0.19381863,-0.5672643,-1.7814344,2.6483278,-34.537502,-9.1875,-31.1625,0.47812164,-0.4370593,0.5876104,998.41376, , , , 
2025-09-20 21:04:45.898,5.3503513,-9.138189,0.25842485,-0.6888264,-1.6055053,2.9788058,-37.631252,-5.53125,-29.962502,0.47221452,-0.46242636,0.5904101,998.41376, , , , 
2025-09-20 21:04:45.918,5.532206,-9.932607,0.2009971,-0.7914517,-1.2261584,3.2732425,-36.05625,-3.5062501,-29.00625,0.46243918,-0.48812366,0.5945325,998.4006, , , , 
2025-09-20 21:04:45.938,5.355137,-10.564312,-0.3397808,-1.0028108,-0.8003856,3.7387216,-39.881252,0.93750006,-27.000002,0.44749546,-0.5137678,0.6005682,998.4006, , , , 
2025-09-20 21:04:45.959,6.2237315,-11.229517,-0.27038896,-1.3015238,-0.5554288,4.3709664,-40.65,6.4687505,-28.1625,0.42009217,-0.54752076,0.61009604,998.39716, , , , 
2025-09-20 21:04:45.978,7.8197446,-11.607583,0.0071784677,-1.4371357,-0.5542071,4.653797,-38.4,8.925,-27.768751,0.39294714,-0.57616866,0.61752087,998.39716, , , , 
2025-09-20 21:04:45.998,9.152547,-11.9019,0.41156548,-1.5397611,-0.5102248,4.797961,-39.24375,12.937501,-25.29375,0.36314344,-0.60484284,0.6236157,998.40594, , , , 
2025-09-20 21:04:46.018,9.932607,-11.935399,2.2037897,-1.3619994,-0.49434233,4.9769444,-36.54375,20.550001,-24.768751,0.32338977,-0.6386101,0.6297247,998.40594, , , , 
2025-09-20 21:04:46.039,11.49512,-11.68176,2.6105695,-0.9405027,-0.51694435,5.099728,-36.43125,21.806252,-25.63125,0.29900083,-0.6564208,0.63396424,998.4211, , , , 
2025-09-20 21:04:46.060,14.237295,-10.650454,0.9020941,-0.46402815,-0.31352636,4.7203813,-33.65625,27.45,-26.550001,0.2597232,-0.67976457,0.6427452,998.4211, , , , 
2025-09-20 21:04:46.079,13.871193,-10.269995,-0.50009996,-0.4805215,-0.014202606,4.283002,-29.906252,29.550001,-24.431252,0.2304444,-0.6932938,0.6491796,998.4233, , , , 
2025-09-20 21:04:46.098,13.244273,-9.987641,-0.6723832,-0.71753705,0.2667952,3.940307,-28.406252,32.68125,-23.85,0.20160401,-0.70493656,0.65333915,998.4233, , , , 
2025-09-20 21:04:46.118,13.627125,-9.346365,0.23928227,-0.81832975,0.3046688,3.673359,-28.575,33.28125,-23.081251,0.17317322,-0.7158142,0.65507805,998.4079, , , , 
2025-09-20 21:04:46.138,13.8041935,-8.886943,1.0408778,-0.8067233,0.37064222,3.262858,-23.925001,35.15625,-25.237501,0.14684796,-0.7253114,0.65521544,998.4079, , , , 
2025-09-20 21:04:46.160,13.672588,-8.547162,1.2562319,-0.609414,0.50014555,2.8835108,-21.50625,38.49375,-23.8125,0.1172394,-0.7340994,0.65506375,998.41547, , , , 
2025-09-20 21:04:46.178,13.383057,-7.5996046,0.016749758,-0.4890736,0.67546374,2.5731916,-20.8125,40.55625,-23.7,0.10074769,-0.73769057,0.6553485,998.41547, , , , 
2025-09-20 21:04:46.200,13.634303,-6.384051,-0.4546363,-0.6424007,0.90759236,2.0680063,-17.38125,40.893753,-22.6875,0.07479605,-0.742837,0.65463454,998.4069, , , , 
2025-09-20 21:04:46.218,13.847264,-6.0251274,0.35413775,-0.6643918,0.8972076,1.7851759,-15.843751,42.675003,-23.41875,0.0606285,-0.74592245,0.65305996,998.4069, , , , 
2025-09-20 21:04:46.238,13.856836,-5.623133,1.2227324,-0.5617665,0.8648318,1.3539054,-14.2875,41.71875,-23.212502,0.044420455,-0.74940777,0.65061074,998.4091, , , , 
2025-09-20 21:04:46.258,13.325629,-5.410172,1.8735801,-0.25938845,0.73899364,0.9208023,-11.981251,42.318752,-22.25625,0.029253399,-0.7517195,0.64855754,998.4091, , , , 
2025-09-20 21:04:46.278,13.856836,-6.096912,0.9068798,0.098578304,0.5710059,0.60559607,-10.81875,44.4375,-22.5,0.021303417,-0.7511973,0.6490633,998.4301, , , , 
2025-09-20 21:04:46.298,14.311472,-6.9152575,-1.0552348,0.14011711,0.26740605,0.22930336,-9.900001,42.525,-21.4125,0.017369589,-0.7494924,0.65062016,998.4301, , , , 
2025-09-20 21:04:46.318,15.084354,-8.283952,-1.7563318,-0.14515674,-0.0025961753,-0.082848534,-9.4125,42.7125,-22.3875,0.017549926,-0.7488375,0.6508467,998.42426, , , , 
2025-09-20 21:04:46.338,16.187445,-9.353543,-0.38285163,-0.49884745,-0.15714496,-0.44692394,-9.243751,44.100002,-24.0375,0.021215545,-0.7504999,0.6481923,998.42426, , , , 
2025-09-20 21:04:46.358,16.213766,-9.370294,2.132005,-0.6088031,-0.12904519,-0.9227876,-9.8625,43.518753,-20.85,0.028188597,-0.7536151,0.6432407,998.4255, , , , 
2025-09-20 21:04:46.378,14.6536455,-7.5924263,5.326423,-0.36018115,0.27351472,-1.5092177,-10.462501,44.71875,-23.175001,0.040455285,-0.75636625,0.63675815,998.4255, , , , 
2025-09-20 21:04:46.398,12.942778,-6.2931237,6.7022963,0.131565,0.60216,-1.9307145,-12.187501,42.9,-20.41875,0.051643394,-0.75493014,0.63388187,998.4609, , , , 
2025-09-20 21:04:46.418,11.3683,-7.0133634,6.0753765,0.89942205,0.43111783,-2.3173919,-13.89375,43.21875,-19.63125,0.0657059,-0.74849844,0.6351044,998.4609,37.88835867,127.73984026,144.806884765625,0.0
2025-09-20 21:04:46.438,10.765309,-8.841479,4.074977,1.5664864,-0.34712392,-2.524475,-13.725,41.53125,-23.41875,0.08563198,-0.7377841,0.6403295,998.49677, , , , 
2025-09-20 21:04:46.458,11.62194,-10.49492,1.7898313,1.9708788,-1.611614,-2.6887977,-18.487501,40.537502,-22.556252,0.12122486,-0.721791,0.6491942,998.49677, , , , 
2025-09-20 21:04:46.478,12.686746,-11.583654,0.5814559,1.8853577,-2.1369576,-2.931311,-21.675001,39.3375,-21.69375,0.15739723,-0.70901555,0.6545516,998.49335, , , , 
2025-09-20 21:04:46.498,13.406985,-12.751352,0.57188463,1.4937935,-2.1381795,-3.219639,-21.65625,36.24375,-24.750002,0.1866564,-0.70002574,0.6559421,998.49335, , , , 
2025-09-20 21:04:46.518,14.849857,-13.390236,2.0075781,1.0906227,-1.67942,-3.6203666,-27.806252,34.125,-24.45,0.2345832,-0.68548685,0.6534924,998.4819, , , , 
2025-09-20 21:04:46.538,14.952748,-13.696517,2.2444677,0.92691094,-1.1950042,-3.9630616,-28.2,33.600002,-24.993752,0.27117118,-0.6724582,0.6488133,998.4819, , , , 
2025-09-20 21:04:46.558,13.873586,-13.69891,2.361716,0.80229455,-0.5780308,-4.3546257,-32.9625,28.987501,-23.625,0.3054529,-0.65706277,0.64271617,998.48505, , , , 
2025-09-20 21:04:46.578,12.210574,-13.584054,1.8999012,0.72043866,-0.027641632,-4.6056914,-35.68125,27.093752,-23.53125,0.33694878,-0.6388569,0.63410217,998.48505, , , , 
2025-09-20 21:04:46.599,10.746166,-13.215559,1.6893328,0.64957833,0.34742934,-4.792616,-36.9375,22.35,-23.4375,0.3725312,-0.6128783,0.6263264,998.49286, , , , 
2025-09-20 21:04:46.620,10.021141,-12.80878,2.2707887,0.68439764,0.48426306,-4.8799696,-37.612503,18.1875,-24.825,0.39897147,-0.5899069,0.61762834,998.5014, , , , 
2025-09-20 21:04:46.638,8.815159,-12.722638,2.5627131,0.8548289,0.40607235,-4.913567,-39.9,15.6,-24.45,0.41837654,-0.5712189,0.6106541,998.5014, , , , 
2025-09-20 21:04:46.658,6.946364,-12.165111,2.1774685,1.161483,-0.12293654,-4.765738,-40.03125,9.84375,-24.112501,0.4517909,-0.53828084,0.59805137,998.5014, , , , 
2025-09-20 21:04:46.678,5.946164,-11.789437,0.5455636,1.3355795,-0.8101594,-4.4560294,-41.1375,4.3875003,-23.681252,0.48098883,-0.5126219,0.58604336,998.5109, , , , 
2025-09-20 21:04:46.699,4.7042894,-10.849058,-0.44506502,1.2842668,-1.3574942,-4.0284243,-39.65625,-2.79375,-24.35625,0.51898605,-0.48409662,0.56783855,998.5109, , , , 
2025-09-20 21:04:46.719,4.342973,-10.246066,-1.375873,1.0918444,-1.5523602,-3.6985571,-41.98125,-4.6875,-21.225,0.54126513,-0.4696906,0.5553476,998.4982, , , , 
2025-09-20 21:04:46.740,4.4195433,-9.260223,-1.7898313,0.5432879,-1.2145519,-3.3124907,-42.581253,-10.9875,-18.31875,0.57364315,-0.44970497,0.5333678,998.4982, , , , 
2025-09-20 21:04:46.758,3.2303107,-9.037691,-1.146162,0.15905392,-0.6372847,-3.0284386,-42.225002,-12.075001,-17.53125,0.5929709,-0.43525591,0.5169633,998.48944, , , , 
2025-09-20 21:04:46.778,1.8927227,-8.906086,-0.37567315,0.0075594517,-0.2536616,-2.641761,-42.2625,-14.45625,-17.081251,0.60350555,-0.424856,0.5066065,998.48944, , , , 
2025-09-20 21:04:46.798,1.1581261,-9.075976,0.19860429,0.04054615,-0.093615025,-2.0363941,-39.9375,-16.81875,-18.431252,0.6136269,-0.41248298,0.49584952,998.4914, , , , 
2025-09-20 21:04:46.819,0.18664017,-9.341579,-0.8662018,0.08880447,0.05054906,-1.223944,-39.787502,-18.056252,-16.2,0.62178725,-0.40068167,0.4877551,998.4914, , , , 
2025-09-20 21:04:46.838,-0.13160525,-9.111869,-1.3974084,-0.13660464,0.1036943,-0.47746718,-38.8125,-19.931252,-18.35625,0.6250778,-0.3950435,0.48435414,998.4982, , , , 
2025-09-20 21:04:46.858,0.20578274,-9.250652,-1.2658032,-0.33819002,0.24969098,8.3993905E-4,-40.96875,-18.900002,-17.8875,0.62427896,-0.39502877,0.4840858,998.4982, , , , 
2025-09-20 21:04:46.878,-0.6053841,-9.609575,-1.2490535,-0.4896845,0.4384482,0.5958222,-39.5625,-19.25625,-18.487501,0.61792016,-0.39923888,0.48731762,998.4975, , , , 
2025-09-20 21:04:46.898,-1.8855443,-8.88455,-1.1557333,-0.68821555,0.42134398,1.4473678,-39.487503,-17.5125,-19.050001,0.6110685,-0.40508237,0.4915974,998.4975, , , , 
2025-09-20 21:04:46.918,-0.4642076,-8.484949,-0.19142582,-0.8097776,0.30955574,2.278144,-39.73125,-17.493752,-22.275002,0.5983954,-0.4183026,0.49960503,998.49066, , , , 
2025-09-20 21:04:46.938,1.4069797,-8.559127,1.0049855,-0.7425825,0.27779076,2.8755696,-40.912502,-15.900001,-19.612501,0.5822379,-0.43628094,0.5101288,998.49066, , , , 
2025-09-20 21:04:46.958,2.969493,-9.188439,1.2849457,-0.51106477,0.23747368,3.2518623,-41.34375,-10.200001,-21.75,0.5590562,-0.46129715,0.5266821,998.4958, , , , 
2025-09-20 21:04:46.978,3.2135608,-10.671989,0.6891329,-0.2325104,-7.6358096E-4,3.6843545,-41.943752,-9.525001,-20.94375,0.5397558,-0.48204306,0.5416196,998.4958, , , , 
2025-09-20 21:04:46.998,4.2592244,-11.980863,-0.014356935,-0.100563616,-0.33001968,4.2768936,-43.256252,-5.925,-21.46875,0.5196795,-0.50503415,0.5572465,998.4882, , , , 
2025-09-20 21:04:47.018,6.745367,-13.483556,-0.5240282,-0.15676318,-0.27870706,4.9769444,-42.675003,-0.15,-21.393751,0.49074614,-0.537339,0.5774746,998.4882, , , , 
2025-09-20 21:04:47.038,8.664411,-13.765908,-0.02871387,-0.19646938,-0.108886644,5.2750463,-41.756252,4.3125,-22.518751,0.46230295,-0.5638652,0.5943621,998.4775, , , , 
2025-09-20 21:04:47.058,11.478371,-12.801601,0.0,-0.25022548,0.17577635,5.197467,-44.04375,7.55625,-22.3125,0.4387556,-0.58252674,0.60682285,998.4775, , , , 
2025-09-20 21:04:47.078,11.779866,-11.913864,0.1363909,-0.34857473,0.3657553,4.856604,-42.300003,9.731251,-21.54375,0.40637845,-0.6047412,0.6216432,998.4626, , , , 
2025-09-20 21:04:47.098,10.375279,-12.471392,0.50009996,-0.3815614,0.37614,4.7912416,-40.331253,17.15625,-23.25,0.3657706,-0.6288168,0.63695645,998.4626, , , , 
2025-09-20 21:04:47.118,12.090933,-13.162917,0.78723866,-0.3595703,0.21853687,5.0807915,-38.625,21.300001,-22.893751,0.33214036,-0.64692056,0.64759964,998.4653, , , , 
2025-09-20 21:04:47.139,14.311472,-12.717853,1.2346965,-0.27282748,0.14156792,5.0991173,-36.825,23.60625,-23.831251,0.3064224,-0.6597785,0.6547151,998.4653, , , , 
2025-09-20 21:04:47.158,17.541782,-9.966106,0.61734825,-0.059635673,0.27351472,4.4632072,-35.79375,27.206251,-24.768751,0.26620856,-0.67669874,0.6652023,998.45795, , , , 
2025-09-20 21:04:47.178,16.838293,-8.506484,-0.5407779,-0.19158247,0.8294017,3.5554621,-33.018753,29.23125,-25.181252,0.23751484,-0.6856886,0.6719375,998.45795, , , , 
2025-09-20 21:04:47.198,14.464613,-7.879565,-0.8757731,-0.4823541,1.2979349,3.063716,-29.831251,32.79375,-24.7875,0.20996358,-0.6929199,0.67641366,998.45184, , , , 
2025-09-20 21:04:47.220,13.806586,-7.01097,-0.48095736,-0.68516123,1.6100868,2.7540076,-26.56875,34.3875,-25.06875,0.17447095,-0.7016575,0.6791742,998.45184, , , , 
2025-09-20 21:04:47.238,13.787444,-6.4438715,-0.40917268,-0.762741,1.649793,2.49439,-23.85,36.15,-25.9125,0.15337697,-0.70655644,0.6796953,998.4555, , , , 
2025-09-20 21:04:47.258,12.9547415,-5.24746,0.37328035,-0.8568142,1.2948806,2.1370342,-19.331251,36.6375,-27.806252,0.12748602,-0.71277595,0.6788632,998.4555, , , , 
2025-09-20 21:04:47.278,13.598412,-4.941179,2.902494,-0.428598,-0.13820815,1.7118722,-18.243752,38.49375,-27.243752,0.10506396,-0.71977437,0.67632467,998.4653, , , , 
2025-09-20 21:04:47.297,14.239688,-5.477171,2.3114667,0.45165816,-1.313512,1.347186,-17.8125,38.4,-27.45,0.10088971,-0.72142065,0.6772815,998.4653, , , , 
2025-09-20 21:04:47.317,13.634303,-5.608776,-2.0889342,0.82123137,-1.3257293,1.1364375,-16.40625,39.54375,-27.50625,0.1043146,-0.7188321,0.6818065,998.4797, , , , 
2025-09-20 21:04:47.337,14.720645,-6.0514483,-4.7018967,0.3105484,-0.6354521,1.016708,-16.893751,38.625,-27.093752,0.10672571,-0.7163129,0.6856846,998.4797, , , , 
2025-09-20 21:04:47.358,16.21616,-6.5922265,-4.091727,-0.36262462,-0.03619374,0.6813433,-15.825001,38.23125,-26.250002,0.105554126,-0.7173688,0.6854568,998.4609, , , , 
2025-09-20 21:04:47.377,17.257036,-7.9968133,-2.3928227,-0.7199805,0.101250835,0.13217586,-15.31875,39.9,-27.018751,0.10383851,-0.72247326,0.68028533,998.4609, , , , 
2025-09-20 21:04:47.397,17.702103,-9.702896,-1.308874,-0.7438042,-0.003817905,-0.28748822,-16.85625,38.86875,-26.343752,0.10601499,-0.72707766,0.6745852,998.4494, , , , 
2025-09-20 21:04:47.418,18.161524,-8.915657,-0.24646074,-0.6460659,-0.0074830935,-0.6466767,-14.212501,40.275,-27.150002,0.11126043,-0.7307779,0.66904867,998.4494,37.88834844,127.73981444,145.0284423828125,2.17
2025-09-20 21:04:47.438,18.754944,-7.02772,0.8327023,-0.61002487,0.14278965,-1.322904,-16.050001,40.18125,-24.187502,0.1194073,-0.73312527,0.6638469,998.46625, , , , 
2025-09-20 21:04:47.457,17.941383,-6.7669024,2.6703901,-0.39988735,0.1385136,-2.2905138,-15.993751,38.831253,-25.968752,0.1327023,-0.7334199,0.6586896,998.46625, , , , 
2025-09-20 21:04:47.478,15.998412,-8.068598,4.058227,0.22563818,-0.38316494,-3.18482,-17.0625,40.0875,-25.143751,0.15367524,-0.7297499,0.65481925,998.4897, , , , 
2025-09-20 21:04:47.497,14.790037,-10.0163555,2.6512475,0.84872025,-0.6714931,-3.7730827,-21.975,37.575,-24.487501,0.1827476,-0.72082347,0.65335494,998.4897, , , , 
2025-09-20 21:04:47.518,13.081561,-11.691332,0.31345975,0.97883445,-0.5554288,-4.069352,-24.900002,35.30625,-25.9125,0.21609235,-0.7074975,0.6531136,998.51996, , , , 
2025-09-20 21:04:47.538,11.729616,-13.246666,-1.0863415,0.6831759,-0.523053,-4.096841,-27.900002,33.61875,-25.031252,0.25719,-0.6894948,0.6503654,998.51996, , , , 
2025-09-20 21:04:47.558,12.792029,-13.289737,-0.2105684,0.416228,-0.7331905,-4.037587,-30.375002,30.862501,-23.85,0.28102526,-0.67952734,0.64640254,998.5075, , , , 
2025-09-20 21:04:47.578,14.639289,-13.127025,0.8327023,0.23846634,-0.70875585,-4.254444,-32.100002,27.337502,-24.54375,0.32089457,-0.66344625,0.6362403,998.5075, , , , 
2025-09-20 21:04:47.597,15.024533,-13.282558,1.5481563,0.131565,-0.2829831,-4.687547,-35.4,24.13125,-24.018751,0.3526151,-0.64880526,0.6258342,998.508, , , , 
2025-09-20 21:04:47.617,12.96192,-13.452449,1.713261,0.112017326,0.23503022,-4.9123454,-35.756252,20.868752,-24.4125,0.38267136,-0.6310419,0.61468303,998.508, , , , 
2025-09-20 21:04:47.637,11.3371935,-13.249059,1.9357935,0.0900262,0.7127265,-4.8537025,-39.24375,18.88125,-23.625,0.40912995,-0.6105082,0.6038252,998.52216, , , , 
2025-09-20 21:04:47.657,11.08834,-12.918849,2.725425,0.19081889,0.95768327,-4.7736793,-38.86875,12.712501,-24.225,0.4314337,-0.58797383,0.59374833,998.52216, , , , 
2025-09-20 21:04:47.678,10.267602,-12.614961,3.522235,0.6227003,0.8184061,-4.8769155,-38.662502,8.512501,-25.706251,0.45775786,-0.55619496,0.58186364,998.5451, , , , 
2025-09-20 21:04:47.697,8.262417,-12.232109,2.8307092,1.0991749,0.47204575,-4.905626,-41.49375,5.4750004,-24.468752,0.48105803,-0.52728266,0.57237077,998.5451, , , , 
2025-09-20 21:04:47.718,6.5682983,-12.157932,0.87338024,1.3716205,-0.22311836,-4.841485,-38.325,-1.5187501,-27.337502,0.50770116,-0.4974056,0.56121594,998.5561, , , , 
2025-09-20 21:04:47.737,3.8093736,-11.442478,-0.5479564,1.350851,-0.8950696,-4.468858,-39.80625,-3.6750002,-25.987501,0.5369412,-0.46964005,0.5466848,998.5561, , , , 
2025-09-20 21:04:47.757,2.5196424,-10.406385,-1.0145568,1.1553744,-0.98975366,-4.007044,-38.79375,-9.431251,-24.206251,0.5653728,-0.44561833,0.52998406,998.561, , , , 
2025-09-20 21:04:47.777,2.0578275,-9.815358,-2.172683,0.7198278,-0.57986337,-3.4566548,-39.037502,-12.075001,-24.0375,0.58916867,-0.42470777,0.51394117,998.561, , , , 
2025-09-20 21:04:47.797,0.89013004,-9.640682,-2.4358935,0.23419029,-0.11804962,-2.962465,-37.5,-15.900001,-22.893751,0.60643333,-0.40627468,0.49991977,998.5485, , , , 
2025-09-20 21:04:47.818,-0.31106696,-9.525827,-1.7156538,-0.10911572,0.13240494,-2.3155594,-38.175003,-18.581251,-23.1375,0.61922723,-0.3876392,0.48593897,998.5485, , , , 
2025-09-20 21:04:47.838,-1.6821543,-9.769895,-1.5026926,-0.21784966,0.1452331,-1.689423,-36.393753,-21.2625,-21.7875,0.6246964,-0.37681457,0.47770005,998.5385, , , , 
2025-09-20 21:04:47.857,-2.926422,-9.820144,-1.0097711,-0.22334744,-0.24877468,-0.9588286,-36.35625,-20.2875,-20.925001,0.6280748,-0.37102556,0.47121194,998.5385, , , , 
2025-09-20 21:04:47.877,-3.211168,-10.269995,-0.9164511,-0.10911572,-0.5419898,-0.16103923,-35.831253,-22.81875,-22.368752,0.63068676,-0.37144256,0.4661816,998.5422, , , , 
2025-09-20 21:04:47.898,-4.0271206,-9.934999,-2.0434706,-0.18669555,-0.4411971,0.91652626,-34.96875,-22.875,-21.525002,0.631243,-0.37737846,0.46463457,998.5422, , , , 
2025-09-20 21:04:47.917,-2.751746,-9.382257,-1.5218352,-0.47868893,-0.16814053,2.0056982,-35.98125,-22.725,-20.6625,0.6264855,-0.3895365,0.46819723,998.54315, , , , 
2025-09-20 21:04:47.937,-0.124426775,-9.343972,0.011964113,-0.5984184,0.17272201,2.8749588,-36.487503,-21.65625,-20.98125,0.6148736,-0.4074807,0.47738743,998.54315, , , , 
2025-09-20 21:04:47.957,2.737389,-10.059426,0.85902333,-0.44386962,0.45249808,3.4284022,-36.91875,-18.09375,-21.75,0.5976354,-0.42824507,0.49197116,998.54877, , , , 
2025-09-20 21:04:47.978,4.240082,-11.284552,0.3804588,-0.1042288,0.502589,3.821799,-39.7125,-15.993751,-22.81875,0.5721936,-0.4545211,0.515453,998.54877, , , , 
2025-09-20 21:04:47.997,4.8263235,-12.35175,-1.3567305,0.008170316,0.47021317,4.22497,-40.631252,-12.618751,-22.9125,0.550269,-0.47583523,0.5363188,998.5461, , , , 
2025-09-20 21:04:48.018,5.393422,-13.277773,-2.7421749,-0.18669555,0.5551234,4.67701,-40.5,-7.6125,-23.831251,0.53186864,-0.49304163,0.552335,998.5461, , , , 
2025-09-20 21:04:48.037,7.513463,-13.481163,-2.6249263,-0.73464125,0.83856463,5.2390056,-42.0,-3.4125001,-23.1375,0.49401423,-0.5252698,0.57862204,998.5234, , , , 
2025-09-20 21:04:48.058,9.583255,-13.095919,-1.119841,-1.0510693,1.0425935,5.322083,-38.756252,0.90000004,-24.806252,0.45693696,-0.55277854,0.5979671,998.5234, , , , 
2025-09-20 21:04:48.078,10.265209,-12.803994,0.53359944,-1.1207078,0.87216216,5.1437106,-39.80625,6.4125004,-26.550001,0.41731992,-0.5789927,0.6145487,998.50995, , , , 
2025-09-20 21:04:48.098,10.0163555,-13.847264,0.9451649,-0.91484636,0.40790495,5.111335,-37.74375,9.262501,-28.95,0.36996406,-0.60910076,0.6310812,998.50995, , , , 
2025-09-20 21:04:48.118,9.844072,-14.416757,0.0526421,-0.80427986,0.26740605,5.285431,-36.7125,12.95625,-28.031252,0.3428053,-0.6259417,0.63962394,998.5136, , , , 
2025-09-20 21:04:48.137,10.526027,-14.81875,-0.9403793,-1.1029928,0.44638944,5.5138946,-36.45,18.581251,-28.218752,0.29476395,-0.6530138,0.6517387,998.5136, , , , 
2025-09-20 21:04:48.158,13.627125,-14.538791,0.4642076,-1.3393974,0.25641048,5.422265,-31.987501,23.90625,-28.987501,0.25390044,-0.6746263,0.65744174,998.51117, , , , 
2025-09-20 21:04:48.178,16.041483,-13.703695,2.6823542,-1.0235803,-0.006872229,4.9140253,-28.593752,28.368752,-29.456251,0.21642752,-0.69372636,0.6599536,998.51117, , , , 
2025-09-20 21:04:48.198,16.543976,-11.873186,1.3160524,-0.645455,0.108581215,4.508411,-28.031252,30.6375,-27.31875,0.1835051,-0.70759296,0.6625341,998.52606, , , , 
2025-09-20 21:04:48.218,17.14936,-10.358529,-0.18185452,-0.7095958,0.45494154,4.1363945,-23.90625,35.90625,-26.19375,0.15258977,-0.71775275,0.66483766,998.52606, , , , 
2025-09-20 21:04:48.238,18.142382,-8.7673025,0.59342,-0.9551634,0.85689056,3.4943757,-20.5125,37.3875,-26.94375,0.122386925,-0.72685117,0.66459435,998.529, , , , 
2025-09-20 21:04:48.258,18.206987,-7.4440713,1.6079768,-0.8794162,0.9436334,2.7772202,-18.825,40.256252,-23.118752,0.09491562,-0.7346437,0.66243535,998.529, , , , 
2025-09-20 21:04:48.278,16.855043,-6.762117,1.8687944,-0.694935,0.81413,2.2292747,-14.962501,39.675003,-24.88125,0.07252903,-0.7402166,0.6600941,998.53754, , , , 
2025-09-20 21:04:48.298,16.429121,-6.5276203,1.4787644,-0.37423104,0.48365217,1.8144975,-10.78125,42.3375,-23.925001,0.05151379,-0.7443917,0.65834445,998.53754, , , , 
2025-09-20 21:04:48.317,17.8696,-6.262017,0.91166544,-0.23373213,0.25396705,1.4308743,-12.187501,42.5625,-23.94375,0.041948568,-0.7457646,0.65801865,998.5485, , , , 
2025-09-20 21:04:48.338,18.75973,-6.166304,0.4426722,-0.25938845,0.11835505,0.9861648,-11.043751,41.8125,-23.400002,0.03364045,-0.7471062,0.65747994,998.5485, , , , 
2025-09-20 21:04:48.358,18.98944,-6.1591253,1.8113668,-0.32536185,0.004734202,0.11995857,-10.462501,43.125,-24.618752,0.03085834,-0.74918747,0.65527457,998.54266, , , , 
2025-09-20 21:04:48.378,19.324436,-7.350751,2.6991038,-0.17447825,-0.11377356,-0.32169667,-7.8562503,42.9,-25.35,0.032912035,-0.7501176,0.653756,998.54266, , , , 
2025-09-20 21:04:48.398,19.133009,-7.5637126,2.696711,0.26778784,-0.3526217,-1.1200969,-8.681251,41.8125,-24.281252,0.04669231,-0.74858725,0.6534047,998.55414, , , , 
2025-09-20 21:04:48.418,18.214167,-7.2023964,1.7874385,0.3001637,-0.023365578,-1.7016402,-9.09375,42.6375,-25.050001,0.05737864,-0.7462201,0.65409136,998.55414,37.88834211,127.73979666,145.2286376953125,1.49
2025-09-20 21:04:48.439,16.637297,-7.850851,1.8424734,0.27450737,0.31749696,-2.2886813,-12.712501,42.99375,-23.1375,0.07333302,-0.74232346,0.65411526,998.5644, , , , 
2025-09-20 21:04:48.458,14.316257,-9.77468,2.2205393,0.4681515,0.28512114,-2.9343653,-13.368751,40.21875,-25.85625,0.09669026,-0.73536277,0.65331864,998.5644, , , , 
2025-09-20 21:04:48.478,13.457234,-11.301301,2.0075781,0.7088322,-0.10644319,-3.2440739,-16.575,41.23125,-23.41875,0.11388012,-0.7296086,0.6530277,998.5695, , , , 
2025-09-20 21:04:48.498,12.679567,-13.304094,1.0815558,0.8865939,-0.7637337,-3.605095,-19.518751,39.581253,-24.862501,0.14917998,-0.71786654,0.65226614,998.5695, , , , 
2025-09-20 21:04:48.518,11.956935,-14.086547,0.7968099,0.8358921,-1.0233512,-3.6924486,-22.462502,38.04375,-25.706251,0.18203518,-0.7076897,0.650024,998.5778, , , , 
2025-09-20 21:04:48.538,12.129218,-13.8688,1.3710874,0.7570905,-1.0893246,-3.7468154,-24.093752,35.643753,-27.093752,0.2073887,-0.7000076,0.6470577,998.5778, , , , 
2025-09-20 21:04:48.558,13.560126,-13.497912,2.2588246,0.70150185,-0.7362448,-3.9819984,-30.018751,31.9125,-24.4125,0.24904586,-0.6859281,0.64037424,998.5749, , , , 
2025-09-20 21:04:48.578,14.543576,-13.907085,2.4215364,0.81634444,-0.3923279,-4.3656216,-31.593752,29.8875,-24.750002,0.28146616,-0.6717066,0.6342901,998.5749, , , , 
2025-09-20 21:04:48.598,13.359129,-14.44547,1.5768701,0.96356285,-0.25305074,-4.8262134,-31.893751,26.1375,-25.893751,0.31447652,-0.6533861,0.6277962,998.5854, , , , 
2025-09-20 21:04:48.618,10.109675,-14.658431,1.6797615,1.080238,-1.2151628,-5.199452,-34.74375,22.837502,-25.556252,0.3599336,-0.62754875,0.61603594,998.5854, , , , 
2025-09-20 21:04:48.638,7.6666036,-14.548362,1.5553347,1.1993567,-1.9115486,-5.066283,-38.081253,17.268751,-25.031252,0.40158832,-0.6067515,0.6023328,998.57733, , , , 
2025-09-20 21:04:48.658,7.5062847,-13.883157,0.930808,1.1682025,-2.0874777,-4.7822313,-37.631252,12.975,-25.612501,0.44411728,-0.58669496,0.5862085,998.57733, , , , 
2025-09-20 21:04:48.678,7.499106,-13.122239,0.21535404,1.044197,-1.774104,-4.6515064,-40.5,8.53125,-21.206251,0.48382992,-0.56658286,0.5691647,998.5766, , , , 
2025-09-20 21:04:48.698,5.9748783,-11.921042,-1.1222339,0.71799517,-1.0783291,-4.454197,-40.425003,2.9625,-22.275002,0.5267218,-0.54002726,0.5481821,998.5766, , , , 
2025-09-20 21:04:48.718,5.0249276,-11.243874,-1.6749759,0.35453063,-0.5328268,-4.255666,-42.05625,-0.46875003,-19.125,0.5477634,-0.5238452,0.5362273,998.5683, , , , 
2025-09-20 21:04:48.738,4.26401,-10.817951,-1.2993027,0.08758274,-0.20112723,-4.0620217,-42.5625,-4.3875003,-18.69375,0.5651897,-0.5079637,0.5247632,998.5683, , , , 
2025-09-20 21:04:48.758,2.4646072,-10.009177,0.10049855,0.013668099,-0.10399973,-3.6747334,-44.287502,-8.4375,-16.59375,0.59240896,-0.47742185,0.5033621,998.5695, , , , 
2025-09-20 21:04:48.777,1.2873386,-9.552148,0.13878371,0.107741274,-0.27565274,-3.305771,-42.375,-12.20625,-18.431252,0.60451365,-0.46326572,0.4930333,998.5695, , , , 
2025-09-20 21:04:48.798,-0.0741775,-9.375079,-0.4833502,0.112017326,-0.11682789,-2.6319873,-40.3125,-14.981251,-18.018751,0.6224122,-0.4425499,0.4773632,998.57635, , , , 
2025-09-20 21:04:48.818,-1.0671989,-8.953942,-0.6987042,0.030772313,0.11957678,-2.027842,-41.325,-16.96875,-16.875,0.63236076,-0.4288848,0.4683523,998.57635, , , , 
2025-09-20 21:04:48.838,-1.4931214,-8.554341,-0.6891329,-0.054748755,0.22525638,-1.404149,-40.612503,-18.6375,-17.475,0.63690495,-0.42098886,0.46400258,998.5783, , , , 
2025-09-20 21:04:48.858,-1.7587247,-8.118847,-0.2321038,-0.15615231,0.34926194,-0.56970775,-38.49375,-19.143751,-19.368752,0.6397803,-0.4129962,0.46067518,998.5783, , , , 
2025-09-20 21:04:48.877,-1.4404793,-8.437093,0.21774685,-0.12072215,0.30527967,-0.007101303,-40.162502,-20.081251,-17.90625,0.6384243,-0.41097748,0.461533,998.5788, , , , 
2025-09-20 21:04:48.898,-1.1557333,-9.442079,-0.7968099,0.028939718,0.021838415,0.83344865,-37.8375,-21.056252,-20.1,0.6345037,-0.41452283,0.46606544,998.5788, , , , 
2025-09-20 21:04:48.918,-0.90448695,-8.963513,-1.5337993,-0.0816268,-0.05146536,1.5035673,-39.5625,-20.00625,-17.962502,0.6308952,-0.4205407,0.4702568,998.5783, , , , 
2025-09-20 21:04:48.938,1.2418749,-8.580662,-1.2227324,-0.38644832,0.31627524,2.2738678,-38.41875,-18.13125,-20.362501,0.6196573,-0.4367696,0.48037484,998.5783, , , , 
2025-09-20 21:04:48.958,2.225325,-8.925228,-0.4953143,-0.6057488,0.8177952,2.6892557,-41.268753,-15.337501,-18.056252,0.6043238,-0.45248064,0.49241126,998.5739, , , , 
2025-09-20 21:04:48.977,2.400001,-9.583255,0.3924229,-0.6436224,0.9143119,3.0313401,-38.34375,-14.137501,-20.1375,0.5839608,-0.46927196,0.5074728,998.5739, , , , 
2025-09-20 21:04:48.998,2.9623144,-10.880164,0.73459655,-0.3974439,0.5044216,3.6043313,-41.025,-10.1625,-22.85625,0.5558164,-0.49301845,0.52780014,998.57684, , , , 
2025-09-20 21:04:49.018,3.4432719,-11.980863,-0.011964113,-0.23067781,0.26923865,4.0508733,-42.881252,-6.8812504,-20.85,0.5385372,-0.5089402,0.54036164,998.57684, , , , 
2025-09-20 21:04:49.038,4.211368,-13.409378,-1.079163,-0.19646938,0.2197586,4.7515354,-41.756252,-2.04375,-20.775002,0.50699097,-0.53828746,0.5621759,998.5712, , , , 
2025-09-20 21:04:49.058,7.0325055,-14.407186,-1.524228,-0.4579195,0.49648035,5.380115,-41.550003,3.9562502,-22.21875,0.47574288,-0.56419945,0.58071107,998.5712, , , , 
2025-09-20 21:04:49.078,10.112068,-14.364115,-0.20817557,-0.6753874,0.7029526,5.6189632,-41.79375,8.418751,-23.212502,0.4479593,-0.5844421,0.59436655,998.55756, , , , 
2025-09-20 21:04:49.098,12.071791,-13.933406,1.3184453,-0.5049561,0.58994263,5.534664,-40.725002,12.262501,-24.018751,0.39810002,-0.6159176,0.6151525,998.55756, , , , 
2025-09-20 21:04:49.118,12.684353,-13.816158,0.89730847,-0.23556472,0.21670428,5.413713,-38.025,16.143751,-23.90625,0.36005822,-0.6372499,0.6297712,998.5546, , , , 
2025-09-20 21:04:49.138,12.815958,-13.5074835,-0.8877372,-0.081015944,-0.12782346,5.1889143,-36.09375,21.337502,-25.331251,0.31749937,-0.659649,0.6448318,998.5546, , , , 
2025-09-20 21:04:49.158,12.504891,-13.777873,-0.98584294,-0.21784966,0.032223117,5.10828,-33.1875,25.3875,-26.94375,0.29296368,-0.6716864,0.6518121,998.5434, , , , 
2025-09-20 21:04:49.179,13.92862,-13.526627,0.076570325,-0.35162905,0.34620762,4.986718,-32.193752,28.44375,-23.831251,0.24969454,-0.68999416,0.6608031,998.5434, , , , 
2025-09-20 21:04:49.197,15.232709,-11.734403,0.79920274,-0.25816673,0.4091267,4.4454923,-28.050001,31.25625,-27.0375,0.2152074,-0.7017238,0.6662875,998.5317, , , , 
2025-09-20 21:04:49.218,14.6225395,-10.451849,0.8327023,-0.08040508,0.17699806,3.9519134,-24.300001,34.5,-27.618752,0.18487433,-0.7101664,0.670621,998.5317, , , , 
2025-09-20 21:04:49.238,14.411971,-9.623933,0.38763726,0.1627191,-0.075289086,3.574399,-22.40625,35.30625,-26.175001,0.15955462,-0.71574354,0.67443544,998.5378, , , , 
2025-09-20 21:04:49.258,14.993426,-8.7984085,-0.15553348,0.3661371,-0.116217025,3.248808,-20.456251,36.2625,-26.8875,0.13812476,-0.71870595,0.6784177,998.5378, , , , 
2025-09-20 21:04:49.278,16.704294,-7.759924,-1.7491534,0.52801627,0.24297146,2.7491205,-21.112501,39.787502,-23.775002,0.11462566,-0.71919024,0.6840537,998.5429, , , , 
2025-09-20 21:04:49.298,16.80958,-7.389036,-3.9577286,0.29894194,0.87766,2.2017858,-16.743752,39.506252,-26.081251,0.096637934,-0.71848506,0.68812275,998.5429, , , , 
2025-09-20 21:04:49.318,16.577475,-7.3435726,-4.3405805,-0.20746495,1.4567598,1.7473023,-14.55,39.46875,-25.368752,0.07789329,-0.71963716,0.68940413,998.52924, , , , 
2025-09-20 21:04:49.338,16.857435,-7.1712894,-2.969493,-0.57337296,1.645517,1.3294709,-13.481251,41.081253,-26.362501,0.059106957,-0.7231711,0.6874146,998.52924, , , , 
2025-09-20 21:04:49.358,17.374285,-6.9798636,-1.6845472,-0.7236457,1.4317143,0.7870229,-10.2375,40.3125,-28.031252,0.043581333,-0.7276853,0.6834436,998.519, , , , 
2025-09-20 21:04:49.378,17.706888,-7.8460655,-0.28953153,-0.6967676,0.96990055,0.07108939,-8.56875,41.456253,-26.268751,0.034254912,-0.73215765,0.6786255,998.519, , , , 
2025-09-20 21:04:49.398,17.012968,-8.999406,0.9810573,-0.4548652,0.43722647,-0.44631308,-8.475,41.9625,-25.687502,0.032170273,-0.73562896,0.6742074,998.5219, , , , 
2025-09-20 21:04:49.418,17.044075,-8.001599,1.6342978,-0.028481571,-0.25793764,-0.9001856,-9.168751,41.625,-23.4375,0.039879244,-0.7367959,0.6715863,998.5219,37.88833546,127.73978087,145.0335693359375,1.71
2025-09-20 21:04:49.438,16.596619,-7.7623167,1.3160524,0.22808164,-0.76129025,-1.6637666,-10.1625,41.550003,-26.8875,0.055176534,-0.7351642,0.67153484,998.5395, , , , 
2025-09-20 21:04:49.458,15.4313135,-8.724232,1.174876,0.29222244,-0.8975131,-2.335718,-10.556251,42.506252,-26.268751,0.07113822,-0.73305815,0.6715546,998.5395, , , , 
2025-09-20 21:04:49.478,13.445271,-10.844273,1.5625132,0.36125016,-1.1265874,-2.8176901,-14.025001,41.381252,-25.087502,0.10384632,-0.72811544,0.6707903,998.55365, , , , 
2025-09-20 21:04:49.498,13.351951,-12.461821,1.8711873,0.497473,-1.326951,-3.1335073,-16.81875,39.862503,-25.462502,0.13437049,-0.72252214,0.66967267,998.55365, , , , 
2025-09-20 21:04:49.518,13.543376,-13.423735,1.2394822,0.49441868,-1.160185,-3.4762025,-19.81875,39.65625,-23.60625,0.16698994,-0.7151302,0.6681097,998.5671, , , , 
2025-09-20 21:04:49.538,12.760923,-13.53859,0.8566305,0.33192864,-0.7845031,-3.776748,-23.587502,39.037502,-24.243752,0.19977844,-0.7064921,0.6651863,998.5671, , , , 
2025-09-20 21:04:49.558,12.447463,-13.6199465,1.146162,0.15538873,-0.3911062,-4.0369763,-27.806252,34.875,-24.337502,0.23105614,-0.697053,0.6604844,998.5717, , , , 
2025-09-20 21:04:49.578,13.033705,-14.081761,2.036292,0.16149737,-0.19807291,-4.413269,-28.425001,35.41875,-23.85,0.26882055,-0.6831751,0.6525817,998.5717, , , , 
2025-09-20 21:04:49.598,12.921243,-14.371293,2.1272194,0.28367034,0.13423753,-4.7620726,-31.931252,31.95,-23.118752,0.29947972,-0.66881573,0.64549756,998.5739, , , , 
2025-09-20 21:04:49.618,12.47857,-14.6225395,1.7419748,0.3417025,0.6809615,-5.0699487,-32.006252,28.593752,-23.7,0.32161087,-0.6555564,0.64016664,998.5739, , , , 
2025-09-20 21:04:49.638,11.172089,-15.129818,1.6319051,0.40645415,1.5905392,-5.4413543,-35.04375,25.1625,-23.493752,0.3544262,-0.6281122,0.6315223,998.5734, , , , 
2025-09-20 21:04:49.661,10.322637,-15.38585,1.4093726,0.63552845,2.2032366,-5.55131,-36.75,19.425001,-26.85,0.37643063,-0.60086983,0.6252813,998.5734, , , , 
2025-09-20 21:04:49.678,9.30808,-15.141782,-0.22971097,0.84749854,2.639394,-5.4486847,-38.100002,14.062501,-28.10625,0.39449692,-0.5687628,0.62047106,998.57196, , , , 
2025-09-20 21:04:49.698,7.2861447,-14.033905,-2.292324,0.7699187,2.4628541,-5.1463065,-35.475002,11.1,-28.050001,0.4127034,-0.52568,0.6142602,998.57196, , , , 
2025-09-20 21:04:49.718,7.520642,-12.799209,-1.5361922,0.4492147,2.2545493,-4.944721,-35.34375,6.525,-30.281252,0.42506927,-0.49347916,0.6061577,998.5578, , , , 
2025-09-20 21:04:49.738,6.513263,-12.287145,0.50488555,0.37041312,1.9784383,-4.8946304,-35.71875,-0.6,-31.687502,0.43558204,-0.4624464,0.5952801,998.5578, , , , 
2025-09-20 21:04:49.758,3.6394832,-11.827723,2.37368,0.79862934,1.20264,-4.589809,-32.53125,-3.1125002,-34.03125,0.4478603,-0.4324874,0.58222866,998.5412, , , , 
2025-09-20 21:04:49.778,1.7036897,-10.8251295,1.5266209,1.2042435,0.3431533,-4.0608,-30.956251,-7.7812505,-35.79375,0.46000522,-0.41158625,0.57214594,998.5412, , , , 
2025-09-20 21:04:49.798,0.7680961,-9.643075,-0.21774685,1.3966659,-0.56337005,-3.2966082,-30.750002,-10.25625,-34.275,0.48508525,-0.38297138,0.55474967,998.54486, , , , 
2025-09-20 21:04:49.818,0.11964113,-8.62134,-1.1796615,1.2445606,-0.84070265,-2.7566037,-30.900002,-15.262501,-33.206253,0.50627226,-0.3661548,0.54049695,998.54486, , , , 
2025-09-20 21:04:49.838,0.3589234,-7.5924263,-1.942972,0.7741948,-0.45707956,-2.018679,-30.393751,-15.6,-32.30625,0.52400744,-0.35387045,0.5278177,998.54193, , , , 
2025-09-20 21:04:49.859,0.016749758,-6.9415784,-1.7730815,0.30199626,0.017562363,-1.4255294,-30.281252,-18.581251,-31.218752,0.53447014,-0.34420785,0.51912177,998.54193, , , , 
2025-09-20 21:04:49.878,-0.57427746,-6.6759753,-0.930808,0.034437504,-0.08933897,-0.853149,-29.60625,-18.35625,-34.40625,0.5390711,-0.33778366,0.51365995,998.5253, , , , 
2025-09-20 21:04:49.898,-0.10049855,-6.9990063,-0.5886344,-0.01809687,-0.49189886,-0.24289511,-29.7,-18.75,-32.8125,0.5424453,-0.33689484,0.50868475,998.5253, , , , 
2025-09-20 21:04:49.918,-0.7609176,-7.271788,-1.0983056,-0.14271328,-0.72586006,0.34231335,-29.306252,-18.84375,-31.63125,0.5444775,-0.341747,0.5060291,998.52094, , , , 
2025-09-20 21:04:49.938,-0.29192436,-6.4869423,-0.4761717,-0.39622217,-0.7551816,1.1639265,-30.243752,-18.54375,-33.7125,0.5439903,-0.3517928,0.50565654,998.52094, , , , 
2025-09-20 21:04:49.958,1.0719845,-6.5515485,0.14117654,-0.5049561,-0.5694787,1.7094287,-31.931252,-18.112501,-32.006252,0.5397259,-0.36590648,0.50857705,998.5102, , , , 
2025-09-20 21:04:49.978,1.7682959,-7.2622166,-0.22731815,-0.6161335,-0.35873035,2.0899975,-32.8875,-17.831251,-33.0,0.53409654,-0.3777166,0.51305836,998.5102, , , , 
2025-09-20 21:04:49.998,2.210968,-8.867801,-0.35174492,-0.7896191,-0.49556404,2.6074,-32.025,-14.887501,-31.725,0.5173215,-0.40497255,0.5257631,998.51483, , , , 
2025-09-20 21:04:50.018,2.6249263,-10.109675,-0.043070808,-0.85253817,-0.8645264,3.0563855,-34.78125,-11.8125,-30.993752,0.5074414,-0.42190042,0.5325309,998.51483, , , , 
2025-09-20 21:04:50.038,3.505485,-11.542976,0.23449662,-0.8708641,-1.1614066,3.7374997,-35.287502,-8.512501,-31.275002,0.48935488,-0.45577097,0.5442289,998.51166, , , , 
2025-09-20 21:04:50.058,5.0919266,-12.313465,0.5982057,-0.9203442,-1.1052071,4.368523,-35.8125,-5.34375,-30.7875,0.47136152,-0.48637345,0.5553534,998.51166, , , , 
2025-09-20 21:04:50.078,6.778867,-12.591033,1.1533405,-0.91667897,-0.87246764,4.8963103,-37.425003,-1.5375,-29.437502,0.448656,-0.51788104,0.56854516,998.51605, , , , 
2025-09-20 21:04:50.098,7.944171,-12.47857,1.8807586,-0.75113463,-0.9408845,5.151041,-37.7625,2.53125,-29.475,0.4224107,-0.548634,0.5828248,998.51605, , , , 
2025-09-20 21:04:50.118,8.76491,-12.227324,2.1296122,-0.43592837,-1.1394155,5.286042,-39.43125,7.4625,-28.35,0.39567348,-0.5776632,0.5969798,998.52094, , , , 
2025-09-20 21:04:50.138,9.6071825,-12.509677,1.5840486,-0.081015944,-1.1974477,5.417378,-39.84375,10.51875,-27.712502,0.36313534,-0.6099593,0.6144575,998.52094, , , , 
2025-09-20 21:04:50.158,11.239088,-13.131811,1.1102697,0.077198036,-0.8975131,5.477854,-33.73125,16.650002,-30.862501,0.3359368,-0.63200736,0.6285698,998.52704, , , , 
2025-09-20 21:04:50.178,12.234502,-13.189239,0.552742,0.21097742,-0.549931,5.3727846,-37.350002,19.35,-26.325,0.30660823,-0.65004295,0.6425849,998.52704, , , , 
2025-09-20 21:04:50.198,12.727424,-13.067204,-0.4546363,0.18165591,-0.38927358,5.2420597,-36.05625,23.587502,-26.23125,0.2761241,-0.6646616,0.6554837,998.52484, , , , 
2025-09-20 21:04:50.218,14.988641,-12.435499,-0.73459655,0.047876526,-0.25854853,5.046583,-31.593752,26.681252,-27.956251,0.24535815,-0.6774666,0.6659193,998.52484, , , , 
2025-09-20 21:04:50.238,16.74258,-11.380264,-0.5479564,-0.040088,0.1018617,4.519407,-31.612501,29.643751,-26.41875,0.21518055,-0.6881789,0.67377657,998.5136, , , , 
2025-09-20 21:04:50.258,16.106089,-10.600204,-0.72023964,-0.17997603,0.56550807,3.9360309,-27.075,33.225002,-26.493752,0.18609145,-0.69625396,0.6795968,998.5136, , , , 
2025-09-20 21:04:50.278,15.507884,-9.805787,-0.6795616,-0.37972882,0.9143119,3.5542405,-24.35625,35.23125,-24.73125,0.15732844,-0.7029177,0.68340474,998.50214, , , , 
2025-09-20 21:04:50.298,16.431513,-9.169296,0.6771688,-0.36262462,0.90575975,3.2097127,-21.431252,36.412502,-27.562502,0.12901697,-0.708997,0.6853266,998.50214, , , , 
2025-09-20 21:04:50.318,17.553747,-8.606983,0.6987042,-0.040698867,0.6412553,2.8071527,-18.056252,38.643753,-27.900002,0.09816235,-0.71373457,0.68765295,998.4941, , , , 
2025-09-20 21:04:50.338,18.884157,-7.6546397,-1.1030912,0.17127122,0.44394597,2.3013568,-16.087502,39.693752,-27.075,0.07941446,-0.71452236,0.6905758,998.4941, , , , 
2025-09-20 21:04:50.358,19.338793,-6.4821568,-2.1822543,-0.010155627,0.43417215,1.649564,-15.806251,39.73125,-26.643751,0.06569838,-0.7147659,0.6925796,998.49286, , , , 
2025-09-20 21:04:50.378,19.161724,-6.1160545,-0.48095736,-0.16714787,0.20204352,0.917748,-10.63125,41.90625,-29.94375,0.056954406,-0.7160599,0.69234884,998.49286, , , , 
2025-09-20 21:04:50.398,18.740587,-7.1162543,-0.02871387,0.016111558,0.055435978,0.3380373,-13.106251,40.631252,-28.368752,0.053921077,-0.71687084,0.6917997,998.4787, , , , 
2025-09-20 21:04:50.418,18.479769,-8.386844,-0.55513483,0.16516256,-0.2554942,-0.077961616,-11.587501,40.18125,-28.66875,0.055838507,-0.71628994,0.6920936,998.4787,37.88832769,127.73976038,145.596435546875,2.2
2025-09-20 21:04:50.438,18.886549,-7.4153576,-0.7896315,0.2115883,-0.7032581,-0.5593231,-10.650001,41.8875,-28.85625,0.06543433,-0.7146051,0.6927941,998.4887, , , , 
2025-09-20 21:04:50.458,19.881964,-7.5230346,-0.2536392,0.12728895,-0.9463823,-1.3516147,-13.743751,40.331253,-28.593752,0.08029494,-0.7131154,0.692445,998.4887, , , , 
2025-09-20 21:04:50.478,18.312271,-8.88455,0.1268196,0.056428634,-0.81993324,-2.2935681,-14.26875,40.74375,-26.56875,0.10170848,-0.71116406,0.6906643,998.4899, , , , 
2025-09-20 21:04:50.498,14.969499,-11.169696,0.1698904,-0.031535894,-0.6030763,-3.0314927,-16.556252,39.65625,-26.56875,0.1269578,-0.70823497,0.68752515,998.4899, , , , 
2025-09-20 21:04:50.518,12.966706,-12.488141,0.70588267,-0.06513346,-0.56520265,-3.3002734,-20.625,37.5,-28.181252,0.15378666,-0.70442045,0.68304455,998.50165, , , , 
2025-09-20 21:04:50.538,12.19861,-13.799408,1.3854443,-0.01687514,-0.79000086,-3.4700937,-21.225,39.037502,-25.893751,0.18169233,-0.6995197,0.67764246,998.50165, , , , 
2025-09-20 21:04:50.558,13.47877,-14.450256,2.0554347,0.11018474,-1.055727,-3.6832855,-24.581251,35.456253,-25.800001,0.21183272,-0.6933538,0.6714,998.51776, , , , 
2025-09-20 21:04:50.578,13.859229,-14.38565,1.8999012,0.24824017,-0.9891428,-4.1078367,-30.150002,32.53125,-26.2875,0.25324956,-0.682438,0.66264594,998.51776, , , , 
2025-09-20 21:04:50.598,12.476177,-13.998013,0.94277215,0.2164752,-0.51511174,-4.4584727,-31.218752,30.91875,-24.993752,0.28684166,-0.670556,0.6548919,998.53217, , , , 
2025-09-20 21:04:50.618,11.152946,-13.765908,0.34456646,0.092469655,-0.017867794,-4.6368456,-33.75,27.16875,-24.675001,0.3103864,-0.66020566,0.6484845,998.53217, , , , 
2025-09-20 21:04:50.638,8.9826565,-13.244273,0.7082755,-0.022983788,0.5245801,-4.7229776,-33.2625,24.6,-23.79375,0.34502858,-0.6407754,0.63677245,998.54486, , , , 
2025-09-20 21:04:50.658,8.56152,-12.729816,1.457229,0.08452842,0.6528617,-4.733362,-35.025,20.925001,-23.400002,0.3694782,-0.6231818,0.62702894,998.54486, , , , 
2025-09-20 21:04:50.678,8.458628,-12.827922,1.564906,0.34536767,0.6204859,-4.766349,-40.050003,18.5625,-23.681252,0.39305413,-0.60304946,0.6174099,998.5417, , , , 
2025-09-20 21:04:50.698,7.84128,-13.036098,0.6987042,0.5445096,0.52580184,-4.7938375,-38.081253,14.418751,-24.88125,0.4169961,-0.5804707,0.6077,998.5417, , , , 
2025-09-20 21:04:50.718,6.3074803,-12.8518505,-0.634098,0.4901426,0.53252137,-4.670443,-38.2125,10.8,-25.275002,0.44078678,-0.5566238,0.5971788,998.5356, , , , 
2025-09-20 21:04:50.738,4.5559344,-12.047862,-0.9595219,0.18593197,0.75609785,-4.352793,-39.393753,3.5812502,-24.73125,0.46645686,-0.5276174,0.58270466,998.5356, , , , 
2025-09-20 21:04:50.758,2.3449662,-11.286944,-0.16749759,-0.024205517,0.8636101,-3.8671558,-38.9625,1.1437501,-26.6625,0.48165926,-0.5061264,0.5710838,998.53705, , , , 
2025-09-20 21:04:50.778,1.2921243,-9.583255,1.9262222,0.099800035,0.5111411,-3.2037568,-38.9625,-1.7062501,-26.79375,0.4932328,-0.4872083,0.5604309,998.53705, , , , 
2025-09-20 21:04:50.798,0.98584294,-8.992228,2.8809586,0.49991646,0.1763872,-2.7755406,-37.350002,-3.05625,-25.2,0.50498474,-0.4705381,0.551004,998.5402, , , , 
2025-09-20 21:04:50.817,0.27517462,-8.504091,1.5577276,0.91469365,-0.05146536,-2.3051746,-37.21875,-6.8812504,-27.000002,0.51793325,-0.45462668,0.5440173,998.5402, , , , 
2025-09-20 21:04:50.838,-0.27517462,-7.989635,-0.93320084,0.8945351,-0.2658789,-1.7083597,-36.318752,-10.5,-28.743752,0.5310115,-0.44085273,0.5388201,998.5644, , , , 
2025-09-20 21:04:50.859,-0.14117654,-7.520642,-2.309074,0.474871,-0.34712392,-1.1188751,-37.85625,-11.53125,-28.050001,0.54443437,-0.42951402,0.53308153,998.5644, , , , 
2025-09-20 21:04:50.878,-0.30867413,-7.5996046,-2.3234308,0.06131555,-0.41798422,-0.7615193,-39.09375,-12.543751,-26.79375,0.551444,-0.42562476,0.5284429,998.5534, , , , 
2025-09-20 21:04:50.898,-0.7728817,-7.853244,-1.4069797,-0.3088685,-0.5120574,-0.30398157,-36.787502,-14.175,-26.775002,0.5551355,-0.42671493,0.5233983,998.5534, , , , 
2025-09-20 21:04:50.918,-0.60059845,-8.606983,-0.6436693,-0.53794277,-0.3996583,0.21708608,-38.2125,-13.106251,-24.375002,0.55513924,-0.4319064,0.5195794,998.53314, , , , 
2025-09-20 21:04:50.938,-1.3998013,-8.525627,0.3062813,-0.6717222,-0.116217025,0.94218254,-38.30625,-12.975,-26.38125,0.55083597,-0.4400748,0.51877826,998.53314, , , , 
2025-09-20 21:04:50.958,-0.2105684,-8.051848,1.2610176,-0.6576723,0.089033544,1.5872557,-38.7,-12.750001,-26.5125,0.54189366,-0.4509537,0.5220939,998.5263, , , , 
2025-09-20 21:04:50.978,1.3447664,-8.666803,1.6486548,-0.49334967,0.16050471,2.0069199,-37.350002,-10.387501,-26.156252,0.52962774,-0.4634412,0.52918106,998.5263, , , , 
2025-09-20 21:04:50.998,2.1511476,-10.310673,0.88295156,-0.25694498,0.091477,2.372217,-40.03125,-10.650001,-26.493752,0.512505,-0.47998416,0.54163957,998.54047, , , , 
2025-09-20 21:04:51.019,2.1367905,-11.617154,-0.19860429,-0.17936517,-0.10827578,2.7460663,-38.550003,-4.78125,-27.281252,0.501831,-0.4909099,0.55023146,998.54047, , , , 
2025-09-20 21:04:51.037,2.6536403,-12.732209,-0.8207382,-0.22273657,-0.36728245,3.3996916,-40.59375,-3.99375,-26.643751,0.48225445,-0.51308435,0.5653322,998.54144, , , , 
2025-09-20 21:04:51.059,4.0127635,-13.342379,-0.6843473,-0.32902706,-0.44547313,3.948859,-37.36875,-1.9125,-28.2,0.4634354,-0.5345381,0.57800907,998.54144, , , , 
2025-09-20 21:04:51.078,5.221139,-13.581661,-0.3804588,-0.43470666,-0.23350306,4.4033422,-40.256252,3.61875,-25.10625,0.44068715,-0.5577113,0.59129375,998.5258, , , , 
2025-09-20 21:04:51.098,6.7669024,-13.512269,-0.02871387,-0.6289616,0.22708899,4.7833004,-40.29375,4.74375,-26.250002,0.41249633,-0.58085763,0.60552144,998.5258, , , , 
2025-09-20 21:04:51.118,7.932207,-13.46202,0.5838487,-0.762741,0.43722647,4.934795,-38.643753,10.762501,-26.625002,0.37926716,-0.6032602,0.61965984,998.50995, , , , 
2025-09-20 21:04:51.138,8.719446,-13.433307,1.3998013,-0.75235635,0.35353798,4.9714465,-38.662502,14.3625,-25.893751,0.3526528,-0.6192736,0.6294301,998.50995, , , , 
2025-09-20 21:04:51.158,9.24826,-13.543376,1.7060826,-0.5263364,-0.052076224,5.007488,-35.8875,18.6375,-26.437502,0.30926248,-0.6437043,0.64368707,998.5087, , , , 
2025-09-20 21:04:51.178,11.289337,-14.689538,1.8711873,-0.22945608,-0.77656186,5.1095023,-34.29375,23.00625,-25.143751,0.2696693,-0.6653451,0.6555577,998.5087, , , , 
2025-09-20 21:04:51.198,14.1009035,-15.141782,1.5050855,0.14989094,-1.4479022,5.0991173,-31.931252,25.875002,-26.175001,0.2430798,-0.680269,0.66350955,998.5124, , , , 
2025-09-20 21:04:51.218,15.732809,-13.710874,-0.37088752,0.27328563,-1.4650065,4.709386,-31.425001,29.79375,-27.375002,0.22107203,-0.69178414,0.6701916,998.5124, , , , 
2025-09-20 21:04:51.238,14.64886,-11.882757,-2.213361,-0.27404922,-0.41187558,4.1626616,-30.075,33.768753,-24.0375,0.19972534,-0.7012165,0.6742498,998.5058, , , , 
2025-09-20 21:04:51.259,14.251652,-9.640682,0.33020952,-0.9734894,1.2936589,3.7662106,-24.54375,37.3125,-22.81875,0.15693828,-0.7170487,0.6736877,998.4841, , , , 
2025-09-20 21:04:51.278,14.639289,-8.941978,1.5457634,-0.8543708,1.6778928,3.5481317,-22.556252,38.381252,-23.7,0.139844,-0.7219285,0.672897,998.4841, , , , 
2025-09-20 21:04:51.298,15.046069,-8.025527,1.6510476,-0.20807582,1.3504694,3.135798,-19.368752,40.4625,-23.85,0.09890823,-0.729392,0.6731793,998.4841, , , , 
2025-09-20 21:04:51.318,16.077375,-7.271788,-0.75613195,0.267177,0.72372204,2.8077636,-14.681251,40.331253,-25.406252,0.07306878,-0.7303771,0.6763418,998.4948, , , , 
2025-09-20 21:04:51.337,17.546568,-6.5252275,-2.672783,0.3172679,0.34009898,2.3233478,-13.556251,41.4375,-26.212502,0.05392121,-0.72950643,0.67995864,998.4948, , , , 
2025-09-20 21:04:51.358,18.680767,-6.6281185,-3.2638102,0.19081889,0.22281294,1.6733876,-11.26875,42.5625,-26.831251,0.04080679,-0.72878575,0.68222237,998.5007, , , , 
2025-09-20 21:04:51.378,18.675982,-6.936793,-3.5198421,-0.035201084,0.37125307,0.9067524,-8.775001,42.675003,-25.3875,0.0326365,-0.72875744,0.68292564,998.5007, , , , 
2025-09-20 21:04:51.398,18.317057,-7.6570325,-3.1226335,-0.29970554,0.5422952,0.29710937,-10.5,42.131252,-26.118752,0.027793052,-0.72997665,0.68174016,998.486, , , , 
2025-09-20 21:04:51.418,18.757338,-8.446664,-1.6606189,-0.3681224,0.54351693,-0.3314705,-8.7375,42.91875,-24.7875,0.026372066,-0.7323321,0.6788512,998.486,37.88832063,127.73974217,145.7030029296875,1.55
2025-09-20 21:04:51.438,19.24308,-8.56152,-0.8781659,-0.16409355,0.44211337,-1.0486257,-10.106251,40.425003,-26.04375,0.029761633,-0.7339629,0.67612904,998.47235, , , , 
2025-09-20 21:04:51.460,17.111074,-8.750552,-1.6462619,-0.022983788,0.2753473,-1.6961424,-9.8625,43.068752,-25.9125,0.03919851,-0.73382515,0.6744199,998.47235, , , , 
2025-09-20 21:04:51.478,15.787844,-9.288938,-2.120041,-0.31131196,0.009010255,-2.1310782,-11.15625,42.43125,-26.212502,0.057341773,-0.73361933,0.6709113,998.477, , , , 
2025-09-20 21:04:51.498,15.031712,-9.8632145,0.22253251,-0.3730093,-0.29642212,-2.7926447,-10.575001,43.987503,-25.275002,0.07662387,-0.73446435,0.66545707,998.477, , , , 
2025-09-20 21:04:51.519,13.777873,-11.219945,1.8496519,-0.05291616,-0.75762504,-3.3295949,-15.618751,41.5875,-23.85,0.10202726,-0.73371017,0.65960616,998.47675, , , , 
2025-09-20 21:04:51.538,13.469198,-12.519248,2.0865414,0.28183773,-0.997084,-3.636249,-15.618751,40.612503,-26.718752,0.12514596,-0.7309573,0.6560048,998.47675, , , , 
2025-09-20 21:04:51.558,12.524034,-13.964513,0.98584294,0.5842158,-1.2157736,-3.9374053,-19.95,39.54375,-25.593752,0.16874981,-0.721905,0.65135765,998.49506, , , , 
2025-09-20 21:04:51.578,12.2991085,-13.926228,0.37567315,0.48281226,-1.3397791,-3.9593964,-24.187502,37.48125,-25.48125,0.21469337,-0.7102797,0.64545375,998.49506, , , , 
2025-09-20 21:04:51.598,12.777673,-13.210773,1.079163,0.32582,-1.2670863,-4.0980625,-26.643751,33.375,-24.075,0.25107843,-0.7006272,0.63831073,998.5068, , , , 
2025-09-20 21:04:51.618,12.969099,-12.8686,1.5984055,0.30749404,-1.0593922,-4.4566402,-30.675001,32.325,-23.90625,0.28762662,-0.6894337,0.6293797,998.5068, , , , 
2025-09-20 21:04:51.638,11.815758,-13.272987,0.9954142,0.19814926,-0.51816607,-4.8579783,-33.9375,30.000002,-22.650002,0.3236332,-0.67535853,0.61923563,998.51117, , , , 
2025-09-20 21:04:51.659,9.712467,-13.646268,0.7609176,0.098578304,-0.014202606,-4.9838166,-36.15,27.150002,-21.16875,0.3568818,-0.65866417,0.6081026,998.51117, , , , 
2025-09-20 21:04:51.678,8.712267,-13.77548,0.37088752,-0.010766491,0.37064222,-4.8365984,-36.91875,21.956251,-20.79375,0.38604316,-0.6403181,0.5967021,998.5202, , , , 
2025-09-20 21:04:51.698,8.635697,-13.545769,0.5886344,-0.024205517,0.5044216,-4.7559643,-39.412502,15.993751,-22.35,0.41160038,-0.6210315,0.5850157,998.5202, , , , 
2025-09-20 21:04:51.718,8.382058,-13.375878,1.0576276,0.082084954,0.39935285,-4.809109,-41.006252,15.450001,-20.775002,0.43565977,-0.6004608,0.5727269,998.5256, , , , 
2025-09-20 21:04:51.738,7.223932,-13.215559,0.93320084,0.267177,0.31199917,-4.7993355,-40.6875,11.137501,-22.40625,0.4662868,-0.57252175,0.55613196,998.5256, , , , 
2025-09-20 21:04:51.758,5.6303115,-13.052848,0.59581286,0.34109163,0.47937614,-4.648452,-40.237503,6.7125,-23.90625,0.48960695,-0.54854435,0.5428628,998.5307, , , , 
2025-09-20 21:04:51.778,3.2829528,-12.729816,-0.29192436,0.38201955,0.5007564,-4.274603,-42.525,2.0062501,-22.78125,0.51022565,-0.5240692,0.53055996,998.5307, , , , 
2025-09-20 21:04:51.798,1.8065811,-11.844472,-1.0815558,0.3239874,0.2924515,-3.758422,-42.581253,-3.35625,-22.931252,0.52841693,-0.50145185,0.5186613,998.53925, , , , 
2025-09-20 21:04:51.818,0.5288138,-10.980663,-1.4237294,0.20059273,0.16539164,-3.3686903,-39.956253,-4.9500003,-23.56875,0.54446876,-0.48172882,0.50660634,998.53925, , , , 
2025-09-20 21:04:51.838,-0.95712906,-9.879965,-1.5409778,-0.030314164,-0.07223476,-2.723617,-40.21875,-9.09375,-23.15625,0.5580447,-0.4656722,0.49438778,998.53656, , , , 
2025-09-20 21:04:51.857,-1.6462619,-9.805787,-1.1916257,-0.24594943,-0.04046979,-2.0461679,-40.162502,-10.950001,-22.125,0.56830823,-0.45423648,0.4828444,998.53656, , , , 
2025-09-20 21:04:51.878,-2.359323,-8.877372,-0.33020952,-0.35101816,0.0707076,-1.3632212,-37.74375,-12.187501,-24.16875,0.573959,-0.4469787,0.47406745,998.52435, , , , 
2025-09-20 21:04:51.898,-1.8400806,-8.630911,0.66999036,-0.2410625,0.12079851,-0.39988735,-38.175003,-14.231251,-22.931252,0.5751823,-0.44321853,0.46890104,998.52435, , , , 
2025-09-20 21:04:51.918,-1.4739788,-8.975478,0.25603202,0.0020616686,-0.050243627,0.2787834,-36.7125,-15.281251,-27.50625,0.5742024,-0.44350216,0.4689485,998.5207, , , , 
2025-09-20 21:04:51.938,-0.95712906,-8.896515,-1.0001999,0.039935283,-0.27992877,1.085125,-39.6375,-14.250001,-23.7,0.57127887,-0.4490651,0.4726985,998.5207, , , , 
2025-09-20 21:04:51.958,0.078963146,-9.678967,-1.7563318,-0.1598175,-0.1999055,1.807167,-39.46875,-14.7375,-22.143751,0.56598943,-0.45902178,0.47837383,998.5207, , , , 
2025-09-20 21:04:51.978,1.2155539,-10.169497,-1.1318051,-0.38828093,0.09880738,2.5371506,-38.081253,-11.71875,-24.618752,0.55531484,-0.4732312,0.48734686,998.5207, , , , 
2025-09-20 21:04:51.998,2.7302105,-10.849058,-0.25842485,-0.45058912,0.4176788,3.216432,-40.575,-9.375,-22.650002,0.5385721,-0.4903148,0.50022084,998.51483, , , , 
2025-09-20 21:04:52.019,4.23051,-11.397015,0.18185452,-0.3522399,0.5532908,3.640983,-41.7,-7.8562503,-24.150002,0.511375,-0.51342607,0.52091694,998.51483, , , , 
2025-09-20 21:04:52.038,4.7114677,-11.748759,-0.0071784677,-0.2618319,0.65958124,3.9952848,-40.29375,-2.25,-23.23125,0.48625425,-0.53198487,0.5399557,998.5212, , , , 
2025-09-20 21:04:52.061,5.7140603,-11.55494,-0.43070808,-0.23067781,0.5593994,4.360582,-39.9,3.9,-25.63125,0.45161766,-0.55554515,0.56478244,998.5212, , , , 
2025-09-20 21:04:52.078,6.355337,-11.533405,-0.6843473,-0.302149,0.45982847,4.518185,-39.300003,7.3500004,-28.2,0.4297094,-0.5699761,0.57904994,998.51385, , , , 
2025-09-20 21:04:52.097,6.9056864,-11.736795,0.14117654,-0.36384633,0.11102467,4.7503138,-40.706253,9.3,-25.85625,0.3994772,-0.5898074,0.5963964,998.51385, , , , 
2025-09-20 21:04:52.117,8.690732,-11.75833,1.2418749,-0.18608469,-0.31902415,4.989773,-39.506252,12.918751,-28.050001,0.36933088,-0.61035204,0.61184245,998.5109, , , , 
2025-09-20 21:04:52.138,10.581061,-11.437693,1.7252251,0.06620247,-0.4650208,4.9806094,-36.881252,16.5375,-26.6625,0.34755337,-0.6249531,0.6227983,998.5109, , , , 
2025-09-20 21:04:52.158,12.1148615,-11.083554,0.6628119,0.5500074,-0.32268932,4.677621,-34.48125,21.88125,-26.75625,0.3137237,-0.64399767,0.64104784,998.51825, , , , 
2025-09-20 21:04:52.178,11.906686,-11.772687,-2.2755744,0.53962266,0.041996952,4.5688868,-33.28125,22.650002,-28.48125,0.2807582,-0.6563898,0.6593031,998.51825, , , , 
2025-09-20 21:04:52.198,12.835101,-11.892328,-3.333202,0.072921984,0.2441932,4.608593,-31.968752,26.8875,-29.00625,0.25178227,-0.6659471,0.67117214,998.5151, , , , 
2025-09-20 21:04:52.218,14.146367,-11.318051,-2.1678972,-0.39683303,0.42012227,4.509633,-30.956251,29.85,-28.518751,0.22064014,-0.6770388,0.6787336,998.5151, , , , 
2025-09-20 21:04:52.238,15.483955,-10.19821,-0.36370903,-0.6277399,0.69195706,4.1620507,-26.362501,32.30625,-27.281252,0.18862613,-0.6881786,0.6829304,998.49286, , , , 
2025-09-20 21:04:52.258,16.211374,-9.162118,0.6580262,-0.541608,0.98211783,3.668472,-24.056252,34.29375,-27.6375,0.15742765,-0.697428,0.685438,998.49286, , , , 
2025-09-20 21:04:52.278,16.3358,-8.185846,0.42592242,-0.324751,1.2307398,3.1406848,-20.550001,35.643753,-29.00625,0.12801956,-0.70343363,0.68794465,998.48846, , , , 
2025-09-20 21:04:52.298,16.421942,-7.1688967,0.39720857,-0.26549712,1.1012365,2.481562,-17.90625,38.53125,-29.1375,0.09572037,-0.7075411,0.6907913,998.48846, , , , 
2025-09-20 21:04:52.318,15.876378,-6.855437,0.95473623,-0.10545053,0.8013019,1.8560363,-16.706251,38.025,-28.1625,0.07636742,-0.7092795,0.6922852,998.50214, , , , 
2025-09-20 21:04:52.338,14.696716,-7.082755,0.39720857,0.12362376,0.56367546,1.4198788,-14.85,38.475002,-29.156252,0.062831305,-0.7092568,0.6942557,998.50214, , , , 
2025-09-20 21:04:52.358,14.301901,-7.554141,-0.76331043,0.21525347,0.44577858,1.2176826,-13.087501,40.65,-28.687502,0.052937657,-0.70808196,0.6967659,998.5075, , , , 
2025-09-20 21:04:52.378,14.675181,-7.094719,-1.7563318,-0.008933897,0.4977021,1.0667989,-13.500001,38.60625,-28.837502,0.0441851,-0.7071552,0.6986742,998.5075, , , , 
2025-09-20 21:04:52.398,15.9840555,-7.4010005,-1.0193424,-0.3125337,0.2784016,0.76930785,-10.63125,39.65625,-30.13125,0.03662163,-0.7080367,0.6983799,998.51117, , , , 
2025-09-20 21:04:52.419,17.135002,-7.1784678,1.0241281,-0.2325104,-0.28420484,0.35819584,-9.76875,40.48125,-27.937502,0.033732247,-0.71025515,0.69639343,998.51117,37.88831522,127.73972619,146.09014892578125,1.61
2025-09-20 21:04:52.438,18.197416,-6.6281185,1.3639089,0.028328855,-0.9628756,-0.24533857,-7.8750005,41.68125,-30.225,0.03848675,-0.71136785,0.69526017,998.52216, , , , 
2025-09-20 21:04:52.458,18.12324,-7.1018977,1.5840486,0.131565,-1.4741694,-1.0773364,-10.81875,40.36875,-28.143751,0.052642386,-0.7112801,0.69464093,998.52216, , , , 
2025-09-20 21:04:52.478,17.001005,-9.195618,1.294517,0.11568252,-1.5413646,-2.0144029,-13.2375,39.375,-26.906252,0.08155164,-0.7099182,0.69290227,998.538, , , , 
2025-09-20 21:04:52.498,15.689738,-11.483156,1.2394822,-0.023594651,-1.3074033,-2.6808565,-13.81875,40.068752,-27.806252,0.10954241,-0.70817024,0.6896855,998.538, , , , 
2025-09-20 21:04:52.519,14.277973,-13.447663,1.6366907,-0.14210242,-0.96776253,-3.112127,-16.5,39.16875,-27.16875,0.13862252,-0.705839,0.6846902,998.5463, , , , 
2025-09-20 21:04:52.538,13.088739,-14.086547,2.0985055,-0.15187626,-0.7362448,-3.3589163,-19.25625,37.125,-26.456251,0.1672182,-0.7024396,0.67865425,998.5463, , , , 
2025-09-20 21:04:52.558,12.674782,-13.433307,2.359323,-0.117056966,-0.604298,-3.536678,-22.5375,36.28125,-24.50625,0.19537514,-0.6976085,0.6720869,998.56244, , , , 
2025-09-20 21:04:52.578,12.94517,-12.921243,2.7421749,-0.04741838,-0.42226028,-3.8738754,-25.63125,35.362503,-26.306252,0.22369392,-0.69102144,0.66497064,998.56244, , , , 
2025-09-20 21:04:52.597,11.880364,-12.854243,2.751746,0.0881936,0.029168794,-4.3350782,-28.575,33.05625,-25.85625,0.2596295,-0.6787497,0.65563047,998.57416, , , , 
2025-09-20 21:04:52.618,10.662417,-13.076776,2.359323,0.24701844,0.31261006,-4.595307,-28.275002,30.862501,-26.85,0.2807275,-0.6686869,0.65011877,998.57416, , , , 
2025-09-20 21:04:52.638,9.413364,-13.284951,1.6223338,0.43699738,0.24969098,-4.7529097,-31.2,29.437502,-26.925001,0.3156322,-0.6480204,0.640796,998.57465, , , , 
2025-09-20 21:04:52.658,8.95155,-13.167703,1.2346965,0.55245084,-0.1424842,-4.82377,-35.71875,24.6,-25.087502,0.34508154,-0.62955916,0.63190854,998.57465, , , , 
2025-09-20 21:04:52.678,8.6548395,-13.146168,0.79920274,0.5793289,-0.4876228,-4.9465537,-35.98125,20.475,-24.525002,0.3767325,-0.61029655,0.6206514,998.57587, , , , 
2025-09-20 21:04:52.698,8.154739,-13.131811,0.3924229,0.54145527,-0.5853612,-5.0039754,-38.1375,16.275002,-24.825,0.40939313,-0.5902647,0.60694814,998.57587, , , , 
2025-09-20 21:04:52.718,7.1210403,-12.849458,-0.038285162,0.4486038,-0.51388997,-4.9270062,-38.831253,11.34375,-25.237501,0.4410778,-0.5694804,0.5915055,998.5639, , , , 
2025-09-20 21:04:52.738,5.611169,-12.236895,-0.49292147,0.29955283,-0.65499973,-4.6899905,-41.268753,9.6,-23.34375,0.47769383,-0.5436362,0.5703678,998.5639, , , , 
2025-09-20 21:04:52.758,4.9340005,-11.5621195,-0.5288138,0.11446079,-0.73013616,-4.3882236,-40.29375,4.3500004,-22.837502,0.50461215,-0.5247246,0.5517271,998.55975, , , , 
2025-09-20 21:04:52.778,4.24726,-10.9352,-0.41635114,-0.092011504,-0.49922925,-4.084013,-39.84375,-0.71250004,-22.44375,0.52811104,-0.50722057,0.5326605,998.55975, , , , 
2025-09-20 21:04:52.798,3.2805598,-10.564312,-0.21535404,-0.23312128,-0.12538,-3.726046,-40.48125,-5.90625,-20.681252,0.5469103,-0.49030754,0.51488686,998.5556, , , , 
2025-09-20 21:04:52.818,1.7036897,-9.990034,-0.24885355,-0.2917643,0.15500695,-3.2098653,-42.09375,-8.90625,-22.5,0.5609399,-0.47402987,0.49970886,998.5556, , , , 
2025-09-20 21:04:52.838,0.9068798,-9.286545,0.059820566,-0.27832526,0.2234238,-2.5232534,-41.2125,-11.0625,-22.0125,0.5708762,-0.45970532,0.48743668,998.5549, , , , 
2025-09-20 21:04:52.858,0.6652047,-8.865408,-0.047856454,-0.21113014,0.102472566,-1.9319363,-40.0875,-12.806251,-22.650002,0.5780622,-0.44823015,0.47775498,998.5549, , , , 
2025-09-20 21:04:52.878,0.5623133,-8.863015,-0.11246266,-0.1702022,-0.003817905,-1.4395792,-38.8125,-14.531251,-23.60625,0.5835037,-0.44016618,0.47008482,998.54486, , , , 
2025-09-20 21:04:52.898,-0.22253251,-9.45165,-0.6556334,-0.106672265,0.0035124724,-0.6485093,-36.75,-16.050001,-25.125002,0.58746433,-0.43481714,0.46411356,998.54486, , , , 
2025-09-20 21:04:52.918,-1.5170496,-9.174082,-1.2251252,-0.20929754,0.08170316,0.2323577,-37.40625,-15.50625,-23.25,0.5870736,-0.4350337,0.46345124,998.5402, , , , 
2025-09-20 21:04:52.938,-1.0097711,-7.810173,-0.526421,-0.43776098,0.18982624,1.3300817,-38.662502,-15.150001,-22.518751,0.58154905,-0.44096804,0.4670553,998.5402, , , , 
2025-09-20 21:04:52.958,1.0456635,-7.647461,0.41874397,-0.48601928,0.47876528,1.9983678,-39.80625,-13.63125,-24.018751,0.57061094,-0.4515725,0.47504836,998.53925, , , , 
2025-09-20 21:04:52.978,2.8522446,-7.8723865,0.74895346,-0.39622217,0.7811433,2.3441172,-37.537502,-11.2875,-25.312502,0.5553538,-0.46354944,0.4873733,998.53925, , , , 
2025-09-20 21:04:52.998,3.1848469,-8.492127,0.16510476,-0.28687736,0.88926643,2.524933,-40.143753,-9.5625,-24.843752,0.53776217,-0.47504756,0.5025687,998.5351, , , , 
2025-09-20 21:04:53.018,2.3641088,-9.150154,-0.4235296,-0.24167338,0.71028304,2.8450263,-39.24375,-7.3500004,-25.518751,0.51908576,-0.48689157,0.5188612,998.5351, , , , 
2025-09-20 21:04:53.038,2.2157538,-10.183853,-1.2203395,-0.29115343,0.29061893,3.4259589,-38.775,-4.3125,-25.893751,0.49446094,-0.50575817,0.53925943,998.5307, , , , 
2025-09-20 21:04:53.058,3.062813,-10.736595,-1.2418749,-0.4182133,0.046883874,4.0276604,-39.3375,-1.25625,-25.087502,0.47256875,-0.52556074,0.5552542,998.5307, , , , 
2025-09-20 21:04:53.078,4.7210393,-11.047662,-0.7704889,-0.5831468,0.07498365,4.509022,-39.6375,0.71250004,-26.718752,0.44697455,-0.54828197,0.5714011,998.5185, , , , 
2025-09-20 21:04:53.098,6.8339014,-11.487942,-0.10049855,-0.694935,0.16905683,4.8175087,-37.350002,6.1875005,-28.031252,0.41738257,-0.5718893,0.58750904,998.5185, , , , 
2025-09-20 21:04:53.118,8.023134,-11.8899355,0.5168497,-0.6753874,0.14401138,4.9335732,-38.71875,11.868751,-25.893751,0.38528195,-0.59493524,0.60283387,998.5085, , , , 
2025-09-20 21:04:53.138,9.439685,-12.8518505,0.24646074,-0.60513794,0.22525638,5.215182,-37.706253,13.106251,-27.937502,0.35167396,-0.6166298,0.61748445,998.5085, , , , 
2025-09-20 21:04:53.158,12.112468,-12.607782,-0.019142581,-0.66988957,0.42867437,5.290929,-36.487503,17.831251,-26.475,0.31528446,-0.6368238,0.63161796,998.507, , , , 
2025-09-20 21:04:53.178,14.117654,-11.968899,-0.08135597,-0.807945,0.60887945,4.7826896,-32.68125,22.087502,-27.431252,0.26848835,-0.6586943,0.64604706,998.507, , , , 
2025-09-20 21:04:53.198,13.069597,-11.58844,0.10049855,-0.93072885,0.5997165,4.26773,-30.300001,26.56875,-28.3875,0.23364331,-0.6733614,0.6535047,998.498, , , , 
2025-09-20 21:04:53.218,11.96172,-11.550155,0.91166544,-0.956996,0.57955796,4.1082945,-28.987501,29.41875,-27.91875,0.2007171,-0.68655634,0.658194,998.498, , , , 
2025-09-20 21:04:53.238,12.823136,-11.5621195,0.8997013,-0.7786235,0.5086976,4.134562,-27.35625,32.456253,-28.275002,0.16813199,-0.69790107,0.6622428,998.49774, , , , 
2025-09-20 21:04:53.258,14.569897,-10.724631,0.7968099,-0.6631701,0.2112065,3.92137,-22.331251,35.5875,-27.581251,0.1371837,-0.70735735,0.6658482,998.49774, , , , 
2025-09-20 21:04:53.278,14.97907,-8.920443,1.2777673,-0.5300016,-0.016035201,3.5224755,-22.275002,38.193752,-25.875002,0.11071993,-0.7151701,0.6682565,998.5058, , , , 
2025-09-20 21:04:53.298,15.857236,-8.183454,0.7393822,-0.29237515,0.08170316,3.063105,-17.737501,38.90625,-25.781252,0.08304573,-0.72182924,0.67083144,998.5058, , , , 
2025-09-20 21:04:53.318,15.912271,-8.037491,-0.18424734,-0.21113014,0.2612974,2.693532,-17.212502,39.956253,-26.831251,0.06839712,-0.724172,0.67241895,998.50653, , , , 
2025-09-20 21:04:53.338,16.13241,-8.008778,-1.0097711,-0.28199047,0.46899143,2.3202934,-14.64375,41.081253,-26.7,0.045808025,-0.72697014,0.67410463,998.50653, , , , 
2025-09-20 21:04:53.358,16.931614,-7.9346,-0.9523434,-0.4560869,0.37858346,1.929951,-11.212501,40.6875,-26.56875,0.029655943,-0.72948915,0.6737083,998.5136, , , , 
2025-09-20 21:04:53.378,17.714066,-7.884351,-0.15792629,-0.5617665,-0.054519683,1.2781582,-11.400001,42.037502,-25.3875,0.01841407,-0.732837,0.6715504,998.5136, , , , 
2025-09-20 21:04:53.398,17.479568,-9.064013,0.6125626,-0.5813142,-0.47662723,0.691728,-9.20625,42.018753,-26.081251,0.014090957,-0.73672354,0.66821635,998.51385, , , , 
2025-09-20 21:04:53.418,17.718851,-9.657433,1.6797615,-0.39988735,-0.8761328,0.27267477,-8.175,43.48125,-25.35,0.016195133,-0.740465,0.66475624,998.51385,37.88830996,127.73971148,146.35986328125,1.4
2025-09-20 21:04:53.438,18.448662,-8.580662,1.942972,-0.1928042,-1.0031927,-0.28748822,-9.375,44.850002,-25.143751,0.023856085,-0.7428309,0.6625136,998.5212, , , , 
2025-09-20 21:04:53.458,18.223738,-7.745567,2.3784657,-0.13599378,-0.77350754,-1.1103231,-9.7875,42.825,-24.993752,0.03633716,-0.74394137,0.6607246,998.5212, , , , 
2025-09-20 21:04:53.478,15.847665,-8.970692,3.2279177,0.07353285,-0.66110843,-2.085874,-9.900001,42.300003,-23.868752,0.058511388,-0.74344146,0.6582823,998.5334, , , , 
2025-09-20 21:04:53.498,13.000205,-10.399207,3.048456,0.43944085,-0.97020596,-2.6753588,-13.2375,41.8125,-22.556252,0.082639985,-0.7401957,0.65740985,998.5334, , , , 
2025-09-20 21:04:53.518,11.191232,-11.073983,1.9812572,0.68928456,-1.3391683,-2.900157,-15.3,41.625,-24.487501,0.11180481,-0.7344024,0.657642,998.5505, , , , 
2025-09-20 21:04:53.538,10.566705,-11.499906,0.94277215,0.60559607,-1.4588978,-3.0143886,-16.650002,41.49375,-24.337502,0.14334948,-0.7274645,0.65741193,998.5505, , , , 
2025-09-20 21:04:53.558,10.164711,-11.117054,2.1248264,0.37896523,-1.6403246,-3.0968554,-23.325,38.831253,-25.650002,0.18362346,-0.7191771,0.6541352,998.57025, , , , 
2025-09-20 21:04:53.578,10.593026,-10.650454,3.4767714,0.3832413,-1.864512,-3.1524441,-24.900002,37.03125,-23.38125,0.20849495,-0.71425086,0.6507086,998.57025, , , , 
2025-09-20 21:04:53.598,12.02872,-10.336994,4.682754,0.6129264,-2.2133157,-3.4749806,-27.54375,34.875,-21.75,0.25322592,-0.7040223,0.6440051,998.5798, , , , 
2025-09-20 21:04:53.618,13.024134,-10.662417,4.9316072,0.8554398,-2.4937027,-3.9819984,-30.806252,33.28125,-20.85,0.28347996,-0.6954379,0.6395468,998.5798, , , , 
2025-09-20 21:04:53.638,12.643675,-11.870793,3.8141594,0.9189697,-2.2401938,-4.6264606,-33.881252,30.468752,-19.743752,0.33955398,-0.675938,0.6305269,998.5981, , , , 
2025-09-20 21:04:53.658,11.3371935,-13.081561,2.9742785,0.60803956,-0.9561561,-4.890965,-36.3375,26.475,-17.868752,0.38209227,-0.65667456,0.6222557,998.5981, , , , 
2025-09-20 21:04:53.678,10.832308,-13.5481615,3.4073794,0.43638653,0.20448698,-4.895852,-39.975002,22.875,-18.825,0.41615972,-0.63514185,0.61518615,998.6164, , , , 
2025-09-20 21:04:53.698,10.803595,-13.6606245,4.0965123,0.61598074,0.67912894,-4.945332,-41.7,18.075,-17.2875,0.44312704,-0.61071604,0.6103801,998.6164, , , , 
2025-09-20 21:04:53.718,10.794023,-13.612768,3.9696927,0.9409608,0.48365217,-5.0656724,-41.831253,14.475,-18.0,0.4684969,-0.58272856,0.606622,998.61786, , , , 
2025-09-20 21:04:53.738,10.064212,-13.706088,3.4911282,1.2689952,-0.15164718,-5.253208,-42.16875,10.59375,-18.975,0.5043665,-0.5439596,0.5992295,998.61786, , , , 
2025-09-20 21:04:53.758,8.585447,-13.373486,2.2707887,1.3697879,-0.4980075,-5.217167,-43.3875,4.4812503,-18.975,0.5357822,-0.5115699,0.58995163,998.6252, , , , 
2025-09-20 21:04:53.778,7.32443,-12.947563,0.9499506,1.1956915,-0.2848157,-5.0332966,-42.862503,-2.1937501,-17.400002,0.5655872,-0.47917837,0.5789282,998.6252, , , , 
2025-09-20 21:04:53.798,5.4221363,-12.413964,0.04546363,0.88231784,0.18799363,-4.688769,-42.487503,-6.24375,-18.75,0.5901887,-0.44748616,0.5681267,998.61224, , , , 
2025-09-20 21:04:53.817,4.0007997,-11.839686,-0.23449662,0.5634464,0.45127636,-4.192136,-44.268753,-12.675,-15.88125,0.6085822,-0.41786155,0.5584518,998.61224, , , , 
2025-09-20 21:04:53.838,2.8977082,-10.803595,0.23688944,0.35941756,0.502589,-3.57333,-40.987503,-15.31875,-17.00625,0.62211794,-0.39160052,0.5496502,998.5961, , , , 
2025-09-20 21:04:53.858,2.009971,-9.516255,0.74177504,0.3588067,0.41890052,-3.0455427,-40.78125,-18.768751,-17.75625,0.6325041,-0.36870578,0.5417554,998.5961, , , , 
2025-09-20 21:04:53.878,0.90448695,-8.807981,0.5982057,0.4247801,0.35475972,-2.5311947,-37.85625,-20.831251,-16.875,0.641112,-0.3487,0.5349775,998.58075, , , , 
2025-09-20 21:04:53.898,-0.5407779,-8.580662,-0.18903299,0.46326458,0.308334,-1.84275,-35.456253,-24.31875,-18.31875,0.6496432,-0.32789087,0.5289559,998.58075, , , , 
2025-09-20 21:04:53.918,-2.1559331,-8.042277,-0.9284152,0.39545858,0.23319763,-1.1506401,-35.325,-22.931252,-17.79375,0.6533513,-0.3185861,0.5269145,998.57245, , , , 
2025-09-20 21:04:53.938,-3.0604203,-6.8578296,-0.96430755,0.18654284,0.09025527,-0.04925097,-36.1875,-26.38125,-17.04375,0.65629387,-0.3113135,0.5264317,998.57245, , , , 
2025-09-20 21:04:53.958,-1.942972,-6.539584,-0.1268196,0.05337431,0.09269873,0.9702823,-35.1375,-24.900002,-18.46875,0.65508145,-0.31374294,0.5293342,998.5578, , , , 
2025-09-20 21:04:53.978,-0.7082755,-6.4821568,0.5240282,0.07108939,0.22892158,1.6141338,-35.831253,-23.34375,-19.25625,0.65044713,-0.3214315,0.53615886,998.5578, , , , 
2025-09-20 21:04:53.998,0.5407779,-7.001399,0.6723832,0.1834885,0.45310894,2.2451572,-37.143753,-23.868752,-16.7625,0.6427183,-0.3322266,0.5470338,998.5441, , , , 
2025-09-20 21:04:54.018,0.8207382,-7.645068,0.0047856453,0.28733552,0.58200145,2.841972,-38.4,-21.50625,-18.31875,0.6293689,-0.34843558,0.56538105,998.5441, , , , 
2025-09-20 21:04:54.038,1.1222339,-8.499306,-0.2632105,0.3105484,0.47082403,3.3966372,-37.96875,-20.19375,-20.1375,0.6195799,-0.3602764,0.57803655,998.5295, , , , 
2025-09-20 21:04:54.058,2.400001,-9.58804,-0.2105684,0.37530005,0.16661337,4.0356016,-38.4375,-17.400002,-19.48125,0.60115445,-0.3851991,0.5998195,998.5295, , , , 
2025-09-20 21:04:54.078,4.2520456,-10.222138,-0.15553348,0.57016593,-0.0594066,4.623254,-41.193752,-14.325001,-18.28125,0.5848288,-0.40875727,0.6172568,998.51874, , , , 
2025-09-20 21:04:54.098,5.9581285,-10.963913,-1.4739788,0.6752347,0.10430516,4.9854965,-40.537502,-10.387501,-19.03125,0.56661004,-0.4330465,0.6348782,998.51874, , , , 
2025-09-20 21:04:54.118,7.223932,-11.574083,-2.4358935,0.48647743,0.28267768,5.168145,-42.675003,-5.0062504,-19.425001,0.54463494,-0.45727408,0.652585,998.5048, , , , 
2025-09-20 21:04:54.138,8.394022,-12.373286,-2.5986054,0.22319472,0.09636392,5.295816,-44.04375,-1.66875,-19.78125,0.51969665,-0.48235732,0.6680533,998.5048, , , , 
2025-09-20 21:04:54.158,10.006784,-13.093526,-2.1631117,8.3993905E-4,-0.319635,5.339187,-44.100002,1.6875001,-19.66875,0.49411362,-0.5087234,0.67924184,998.4902, , , , 
2025-09-20 21:04:54.178,11.227124,-13.703695,-0.9379865,0.014278964,-0.90545434,5.3318567,-42.9375,6.5437503,-21.300001,0.47008193,-0.5353922,0.6854553,998.4902, , , , 
2025-09-20 21:04:54.198,13.024134,-14.053047,0.526421,0.56894416,-1.9793546,5.209073,-44.34375,12.225,-17.60625,0.44633535,-0.5652749,0.687186,998.47186, , , , 
2025-09-20 21:04:54.218,14.718252,-13.667803,-1.3112668,1.0386992,-2.1064146,4.928686,-41.34375,16.143751,-18.0,0.43247628,-0.58277726,0.6864511,998.47186, , , , 
2025-09-20 21:04:54.238,14.44547,-12.736995,-4.031906,0.7900772,-1.4723369,4.527959,-40.425003,21.5625,-16.85625,0.4186971,-0.5959442,0.68523204,998.4765, , , , 
2025-09-20 21:04:54.258,13.112668,-11.69851,-3.9577286,-0.022372922,-0.5969676,4.296441,-41.756252,23.15625,-14.025001,-0.40139678,0.6099906,-0.68226886,998.4765, , , , 
2025-09-20 21:04:54.278,13.488341,-10.987842,-1.4141582,-0.47502372,-0.2622137,4.1999245,-37.818752,27.300001,-15.13125,-0.38012525,0.626987,-0.6768907,998.46136, , , , 
2025-09-20 21:04:54.298,15.156138,-10.30828,1.3136597,-0.27160576,-0.28970262,3.895103,-36.075,31.687502,-13.875001,-0.35816365,0.6436474,-0.67029756,998.46136, , , , 
2025-09-20 21:04:54.318,16.295122,-9.269794,1.6390835,0.2690096,-0.33246315,3.366094,-34.93125,33.05625,-13.14375,-0.3382261,0.65528876,-0.66575724,998.44916, , , , 
2025-09-20 21:04:54.338,17.05604,-8.5016985,-0.1794617,0.7296016,-0.274431,2.6220608,-30.618752,36.131252,-15.937501,-0.31779513,0.66147494,-0.66475564,998.44916, , , , 
2025-09-20 21:04:54.358,17.13261,-8.12124,-1.7946169,0.82734,-0.4754055,1.9916482,-28.593752,37.443752,-15.13125,-0.30617195,0.6618241,-0.6660908,998.46405, , , , 
2025-09-20 21:04:54.378,17.12304,-7.793423,-2.3449662,0.6923389,-0.8645264,1.3667336,-27.431252,37.443752,-15.4125,-0.30029443,0.6599791,-0.66698253,998.46405, , , , 
2025-09-20 21:04:54.398,17.520247,-8.322237,-2.009971,0.47792533,-1.1485785,0.78824466,-27.956251,39.24375,-13.9125,-0.30047423,0.65690684,-0.6665621,998.46454, , , , 
2025-09-20 21:04:54.418,17.788244,-9.267402,-1.1150553,0.38079783,-1.2921318,0.2323577,-27.468752,38.04375,-13.89375,-0.3061784,0.65271956,-0.66526806,998.46454,37.88830432,127.73969788,146.68878173828125,1.43
2025-09-20 21:04:54.438,16.953148,-8.300702,-0.7752745,0.3154353,-1.2017237,-0.31864235,-26.906252,40.74375,-15.50625,-0.31585118,0.64699453,-0.6643681,998.4655, , , , 
2025-09-20 21:04:54.458,15.35235,-7.0875406,-0.047856454,0.08697187,-0.9463823,-0.98265237,-28.9125,39.6375,-13.837501,-0.33152282,0.63881063,-0.66420203,998.4655, , , , 
2025-09-20 21:04:54.478,13.674981,-7.661818,0.93320084,-3.8179048E-4,-1.0410663,-1.5110503,-29.156252,37.74375,-12.7875,-0.34684765,0.6316181,-0.6645784,998.4838, , , , 
2025-09-20 21:04:54.498,11.956935,-8.769695,2.1655045,0.13828452,-2.3147194,-1.8225914,-31.181252,37.912502,-12.88125,-0.36790034,0.6216163,-0.6636897,998.4838, , , , 
2025-09-20 21:04:54.518,11.763116,-9.38465,3.318845,0.5133555,-4.1350965,-2.0205116,-34.5,36.300003,-8.887501,-0.39974672,0.60540324,-0.6584176,998.5114, , , , 
2025-09-20 21:04:54.538,11.97847,-9.920643,1.2777673,0.53901184,-4.4154835,-2.2966225,-34.162502,35.193752,-7.0125003,-0.43969065,0.5826418,-0.6492412,998.5114, , , , 
2025-09-20 21:04:54.558,12.150753,-10.459028,0.6867401,-0.1390481,-3.3983934,-2.4242933,-37.818752,33.300003,-3.9,-0.47837928,0.56026566,-0.6386526,998.5339, , , , 
2025-09-20 21:04:54.578,13.5170555,-10.650454,2.9336007,-0.58375764,-2.8028004,-2.5715117,-38.456253,30.975,-2.4562502,-0.51203233,0.54255384,-0.62814116,998.5339, , , , 
2025-09-20 21:04:54.598,15.634703,-10.722239,6.101698,-0.39866564,-3.071581,-3.2043676,-39.54375,31.593752,-0.075,-0.54470575,0.52441967,-0.6180566,998.55804, , , , 
2025-09-20 21:04:54.618,15.400207,-11.014163,6.410372,-0.13965896,-3.4631453,-3.8201191,-42.7125,27.13125,4.6875,-0.58064175,0.4997402,-0.6080305,998.55804, , , , 
2025-09-20 21:04:54.638,13.895121,-12.35175,5.584848,-0.234343,-2.8638868,-4.4877944,-41.68125,22.987501,7.14375,-0.6283633,0.46037516,-0.59557587,998.59735, , , , 
2025-09-20 21:04:54.658,12.033505,-13.036098,6.3744793,-0.31680974,-1.3843724,-4.7046514,-43.10625,21.206251,9.243751,-0.6606665,0.42785522,-0.5905759,998.59735, , , , 
2025-09-20 21:04:54.678,11.444871,-13.229917,6.580262,-0.11033745,0.26190826,-4.6985426,-45.45,14.85,11.55,-0.68239826,0.39675176,-0.5945976,998.6308, , , , 
2025-09-20 21:04:54.698,11.813365,-13.782659,5.7954164,0.32276568,0.9503529,-4.7706246,-46.518753,11.64375,10.44375,-0.6951532,0.36533788,-0.6063979,998.6308, , , , 
2025-09-20 21:04:54.718,11.399407,-14.110476,4.3645086,0.6923389,0.94057906,-4.8891325,-47.1375,5.9437504,13.931251,-0.7036056,0.33088845,-0.62126994,998.6474, , , , 
2025-09-20 21:04:54.738,10.049855,-14.242081,2.5794628,0.91225016,0.41523534,-4.9722104,-47.831253,2.2875001,10.96875,-0.71182287,0.2932843,-0.6341012,998.6474, , , , 
2025-09-20 21:04:54.758,8.094919,-13.607983,1.6295122,0.8242857,-0.06551525,-4.928228,-47.41875,-2.2687502,10.40625,-0.7243461,0.24462919,-0.6431297,998.6337, , , , 
2025-09-20 21:04:54.778,6.4677997,-12.765709,1.2418749,0.61659163,-0.13698642,-4.701597,-48.206253,-6.8250003,11.38125,-0.734507,0.20709604,-0.6459054,998.6337, , , , 
2025-09-20 21:04:54.798,6.2668023,-12.2584305,1.146162,0.38385215,0.13240494,-4.387002,-47.30625,-13.218751,12.1125,0.7422814,-0.17280091,0.6474202,998.6103, , , , 
2025-09-20 21:04:54.818,6.611369,-11.801401,1.3471591,0.23785548,0.525191,-4.168923,-43.443752,-15.187501,11.34375,0.7462468,-0.14152816,0.64995855,998.6103, , , , 
2025-09-20 21:04:54.838,5.508278,-11.109876,1.4787644,0.2635118,0.6675225,-4.0339217,-42.15,-20.5125,9.65625,0.7470178,-0.11161304,0.65358835,998.5986, , , , 
2025-09-20 21:04:54.858,3.790231,-10.578669,1.0408778,0.37652177,0.48120874,-3.7853,-40.331253,-22.425001,8.34375,0.7463796,-0.08239578,0.6567019,998.5986, , , , 
2025-09-20 21:04:54.878,1.8496519,-10.179068,0.5240282,0.45226902,0.2997819,-3.3570838,-39.375,-27.806252,9.31875,0.7460952,-0.054765783,0.6576507,998.57855, , , , 
2025-09-20 21:04:54.898,-0.2009971,-9.731609,-0.33260235,0.43394306,0.2716821,-2.6295438,-36.787502,-27.91875,10.293751,0.7457861,-0.025049744,0.6571016,998.57855, , , , 
2025-09-20 21:04:54.918,-1.0743774,-9.762716,-1.0289137,0.33009607,0.3901899,-1.9673663,-34.95,-28.875002,11.85,0.7450307,-0.011133144,0.6570039,998.56, , , , 
2025-09-20 21:04:54.938,-2.6871397,-9.044869,-1.8400806,0.042989608,0.57589275,-0.9899827,-32.68125,-30.975,8.962501,0.7420797,0.0038236754,0.6588952,998.56, , , , 
2025-09-20 21:04:54.958,-3.4887354,-7.668997,-1.7994026,-0.3192532,0.7958041,-0.015042545,-34.631252,-33.28125,9.13125,0.7380971,0.0066051586,0.6628,998.54315, , , , 
2025-09-20 21:04:54.978,-3.3212378,-7.271788,-0.5312066,-0.55321443,1.0932952,0.78152514,-33.487503,-32.79375,8.53125,0.73361963,0.0030444323,0.66779083,998.54315, , , , 
2025-09-20 21:04:54.998,-2.2468605,-7.652247,1.3974084,-0.3363574,1.166599,1.8059454,-34.4625,-30.4125,8.19375,0.72338974,-0.011049639,0.67989963,998.53217, , , , 
2025-09-20 21:04:55.018,-0.9619147,-8.815159,1.3806586,0.14989094,0.8355103,2.5157702,-37.237503,-31.181252,7.1250005,0.71539515,-0.026561359,0.6900712,998.53217, , , , 
2025-09-20 21:04:55.038,0.46660042,-9.753145,0.49052864,0.5567269,0.44089165,3.1834455,-35.41875,-27.375002,5.64375,0.70968276,-0.044375587,0.6980065,998.5175, , , , 
2025-09-20 21:04:55.058,2.2588246,-10.509277,-0.86859465,0.76197743,0.08781181,3.7936993,-39.7125,-27.562502,5.9437504,0.70508254,-0.07012717,0.7040246,998.5175, , , , 
2025-09-20 21:04:55.078,3.2925239,-10.978271,-1.8640088,0.6770672,-0.033139415,4.2720065,-42.018753,-21.46875,6.61875,0.7020515,-0.09422203,0.7057346,998.50165, , , , 
2025-09-20 21:04:55.098,4.6492543,-11.667403,-1.9788643,0.3606393,0.15439607,4.7466483,-44.9625,-17.90625,7.33125,-0.6972962,0.12256236,-0.7058649,998.50165, , , , 
2025-09-20 21:04:55.118,5.548956,-12.579068,-1.5601203,0.12240203,0.3517054,5.0441394,-46.21875,-15.31875,8.25,-0.68907714,0.15524586,-0.7053934,998.4743, , , , 
2025-09-20 21:04:55.138,6.8913293,-13.744373,-0.52163535,-0.06024654,0.38652468,5.4338713,-46.893753,-8.025001,5.5875,-0.6774808,0.19151714,-0.70366514,998.4743, , , , 
2025-09-20 21:04:55.158,8.635697,-14.579469,0.1698904,-0.077961616,0.2838994,5.6556153,-47.53125,-4.0875,3.8812501,-0.6635045,0.22980559,-0.69932353,998.4687, , , , 
2025-09-20 21:04:55.178,10.411171,-15.433706,0.6269195,-0.06879865,0.107359484,5.720978,-46.631252,2.71875,5.1000004,-0.64373827,0.27724946,-0.68970823,998.4687, , , , 
2025-09-20 21:04:55.198,11.937792,-15.323636,1.0671989,-0.026038112,-0.21334453,5.746023,-47.79375,7.8187504,5.4,-0.62722063,0.31346986,-0.6781027,998.4819, , , , 
2025-09-20 21:04:55.218,13.691731,-13.864015,1.6295122,0.05215258,-0.4949532,5.546881,-46.48125,13.556251,4.78125,-0.6111328,0.3466705,-0.66301906,998.4819, , , , 
2025-09-20 21:04:55.238,15.35235,-12.581462,1.579263,0.18959716,-0.4411971,5.0343657,-46.0125,17.325,4.8187504,-0.59550905,0.37504023,-0.64670503,998.49994, , , , 
2025-09-20 21:04:55.258,15.768702,-11.909079,0.9738788,0.37041312,-0.10949751,4.3117127,-44.25,22.48125,5.26875,-0.5794691,0.39824244,-0.63247365,998.49994, , , , 
2025-09-20 21:04:55.278,15.469599,-11.253445,-0.70588267,0.41806057,0.2283107,3.8309622,-40.331253,27.375002,5.1937504,-0.56275314,0.41728172,-0.62128294,998.50653, , , , 
2025-09-20 21:04:55.298,15.924234,-10.085748,-1.9238294,0.10835214,0.6394227,3.3459356,-40.7625,29.456251,3.8812501,-0.545645,0.4348737,-0.61243236,998.50653, , , , 
2025-09-20 21:04:55.318,15.862021,-8.449057,-1.4668003,-0.31009024,1.0444261,2.7979898,-40.875,31.050001,3.5062501,-0.52928376,0.45295066,-0.60554594,998.4953, , , , 
2025-09-20 21:04:55.338,15.814165,-8.178668,0.39481574,-0.34979644,1.1433861,2.263483,-35.100002,33.525,3.05625,-0.5106462,0.47505137,-0.5997032,998.4953, , , , 
2025-09-20 21:04:55.358,15.897914,-8.10449,1.3854443,0.11018474,0.7921389,1.9140685,-36.600002,34.74375,2.0625,-0.49736196,0.48832044,-0.5971538,998.50555, , , , 
2025-09-20 21:04:55.378,16.311872,-7.8604226,-0.0741775,0.59032446,0.34865108,1.6061926,-35.325,35.98125,2.4750001,-0.48585153,0.49522796,-0.5962477,998.50555, , , , 
2025-09-20 21:04:55.398,17.592031,-7.4273214,-2.4071796,0.7112757,-0.07651082,1.0948987,-32.90625,38.362503,0.8625,-0.4773975,0.49686345,-0.5960727,998.5092, , , , 
2025-09-20 21:04:55.420,18.685553,-8.152347,-3.4169507,0.4889209,-0.40515608,0.44982556,-32.831253,38.23125,3.16875,-0.47412354,0.49481463,-0.59592426,998.5092,37.88829266,127.73968728,147.1917724609375,1.85
2025-09-20 21:04:55.438,18.061026,-8.752945,-3.4911282,0.082084954,-0.5419898,-0.21418446,-30.91875,38.081253,0.35625002,-0.47694993,0.49027526,-0.59579366,998.49677, , , , 
2025-09-20 21:04:55.458,16.845472,-8.087741,-1.9477576,-0.36567894,-0.65988666,-0.758465,-31.556252,39.2625,0.50625,-0.48491624,0.4849838,-0.5954971,998.49677, , , , 
2025-09-20 21:04:55.478,16.000805,-7.688139,0.9810573,-0.62224215,-0.75823593,-1.4188098,-33.28125,36.693752,2.3812501,-0.5009548,0.47682494,-0.5950172,998.4965, , , , 
2025-09-20 21:04:55.498,14.794823,-8.331808,3.1082766,-0.5257255,-0.8223767,-2.0699916,-34.18125,36.7125,3.8625002,-0.51698196,0.46695986,-0.59668714,998.4965, , , , 
2025-09-20 21:04:55.518,13.076776,-9.616755,4.735396,-0.12072215,-1.4637847,-2.633209,-33.881252,37.5,4.2562504,-0.5355939,0.45140556,-0.600207,998.528, , , , 
2025-09-20 21:04:55.538,11.41855,-11.042876,4.9363933,0.46570805,-2.7838635,-2.9435284,-36.9375,33.9375,3.99375,-0.55885965,0.42684034,-0.60198784,998.528, , , , 
2025-09-20 21:04:55.558,11.801401,-12.653246,3.8763726,0.5646681,-3.273777,-2.9502478,-38.475002,30.7875,5.26875,-0.58616364,0.3950403,-0.59944284,998.56415, , , , 
2025-09-20 21:04:55.578,13.004992,-12.660424,4.1276193,0.40278897,-2.7557638,-2.936198,-40.893753,29.156252,7.7812505,-0.61316913,0.36241037,-0.59471583,998.56415, , , , 
2025-09-20 21:04:55.598,14.050654,-11.856436,4.6037908,0.28733552,-2.0196717,-3.2141414,-41.8875,27.50625,13.06875,-0.6359999,0.3319873,-0.59276193,998.5832, , , , 
2025-09-20 21:04:55.618,14.337793,-12.165111,5.4723854,0.35514152,-1.611614,-3.8469973,-41.5875,26.175001,13.425,-0.66021186,0.29332277,-0.59623456,998.5832, , , , 
2025-09-20 21:04:55.638,14.206188,-12.614961,5.369494,0.5139664,-1.5633557,-4.291707,-42.018753,23.38125,14.868751,-0.67367953,0.26720312,-0.6004615,998.5976, , , , 
2025-09-20 21:04:55.658,12.861422,-13.318451,3.6131623,0.5946005,-1.422246,-4.8995175,-42.375,18.862501,16.087502,-0.6950469,0.21807747,-0.60877264,998.5976, , , , 
2025-09-20 21:04:55.678,11.140983,-13.708481,2.1463618,0.3172679,-0.71058846,-5.1774607,-43.66875,15.243751,15.187501,-0.709415,0.17749517,-0.61695504,998.60443, , , , 
2025-09-20 21:04:55.698,9.812965,-13.72523,1.8017955,0.072921984,-0.035582874,-5.253208,-43.5,9.65625,16.725,-0.71892846,0.13945203,-0.62813413,998.60443, , , , 
