Time,Accel_X,Accel_Y,Accel_Z,Gyro_X,Gyro_Y,Gyro_Z,Mag_X,Mag_Y,Mag_Z,Orient_X,Orient_Y,Orient_Z,Pressure,Lat,Lng,Alt,Speed
2025-09-28 19:12:36.296,0.66759753,5.3982077,7.4344997,0.32154396,-0.18043418,0.02046397,-14.775001,-44.5875,-22.0125,0.20317398,0.18989614,0.68068284,995.1999,37.88836546,127.73986226,149.245849609375,0.0
2025-09-28 19:12:36.315,0.7369894,5.4867425,7.348358,0.101632625,0.0956767,-0.051007207,-15.20625,-44.5125,-22.125,0.2065258,0.19128798,0.67984074,995.1691, , , , 
2025-09-28 19:12:36.335,0.2416751,5.352744,8.276773,-0.03642281,0.14576761,-0.083993904,-12.562501,-43.74375,-21.975,0.2056046,0.19328494,0.67955315,995.1447, , , , 
2025-09-28 19:12:36.355,0.08853444,5.3336015,8.705089,-0.025427246,0.05780308,-0.098654665,-12.4875,-44.850002,-22.237501,0.20475705,0.19374068,0.6793294,995.1447, , , , 
2025-09-28 19:12:36.376,-0.36370903,5.276174,8.891729,0.015500694,0.033979353,-0.07238748,-12.7875,-45.6375,-21.69375,0.20406722,0.19413875,0.6788637,995.13495, , , , 
2025-09-28 19:12:36.395,-0.23928227,5.3359947,8.85823,0.05459604,0.102396205,-0.025961753,-13.743751,-44.71875,-23.6625,0.20341259,0.1948826,0.6785717,995.13495, , , , 
2025-09-28 19:12:36.416,0.21535404,5.419743,8.047063,0.04176788,0.05535962,-0.04612029,-14.08125,-45.506252,-22.181252,0.20306168,0.19612111,0.67832595,995.1235, , , , 
2025-09-28 19:12:36.436,0.09332009,5.493921,7.7479596,-0.046807513,0.09506583,-0.07116575,-12.337501,-47.0625,-22.743752,0.20279941,0.19676922,0.6780123,995.1235, , , , 
2025-09-28 19:12:36.458,0.19621146,5.424529,7.6977105,-0.17447825,0.12377647,-0.038179047,-13.5375,-45.693752,-22.237501,0.20105214,0.19718653,0.67805254,995.12714, , , , 
2025-09-28 19:12:36.476,0.19621146,5.4795637,7.8484583,-0.23556472,0.12133302,-0.024740024,-13.5375,-45.7125,-21.618752,0.20007145,0.19703981,0.6782357,995.12714, , , , 
2025-09-28 19:12:36.495,0.09810573,5.3766723,8.578269,-0.29115343,0.16103923,0.030237807,-12.8625,-45.2625,-22.181252,0.19636714,0.19575766,0.6793406,995.1274, , , , 
2025-09-28 19:12:36.516,-0.0047856453,5.211568,8.851051,-0.25022548,0.14332415,0.05650499,-14.137501,-45.768753,-21.862501,0.19427334,0.19507967,0.6801743,995.1274, , , , 
2025-09-28 19:12:36.536,0.09092726,5.204389,8.810373,-0.14515674,0.12560907,0.074830934,-12.843751,-45.24375,-23.25,0.1913894,0.19427463,0.68159574,995.12885, , , , 
2025-09-28 19:12:36.556,0.023928227,5.218746,8.860622,-0.09995275,0.08590286,0.0754418,-13.44375,-45.43125,-24.4125,0.19059846,0.194088,0.6820962,995.12885, , , , 
2025-09-28 19:12:36.575,0.019142581,5.06082,8.384451,-0.016264275,0.040698867,0.068722285,-15.806251,-46.068752,-21.50625,0.18966077,0.19386376,0.6830633,995.1369, , , , 
2025-09-28 19:12:36.595,-0.047856454,5.0799623,8.492127,0.013668099,-0.033215772,0.043065965,-11.26875,-45.5625,-24.956251,0.18967085,0.19373977,0.6835989,995.1369, , , , 
2025-09-28 19:12:36.616,0.062213387,5.15414,8.477771,0.014278964,-0.022831071,0.01802051,-13.462501,-43.95,-22.800001,0.19000813,0.19355293,0.6837566,995.1462, , , , 
2025-09-28 19:12:36.635,-0.18424734,5.2546387,8.492127,-0.030314164,0.008933897,-9.162972E-4,-14.56875,-44.41875,-24.056252,0.19008842,0.19338894,0.68375546,995.1462, , , , 
2025-09-28 19:12:36.655,-0.29671,5.3814583,8.456235,-0.05108357,0.013209951,0.026572619,-12.375001,-43.068752,-25.29375,0.18981563,0.19332856,0.6838409,995.1777, , , , 
2025-09-28 19:12:36.676,-0.16749759,5.2833524,8.355737,-0.073685564,0.01809687,0.057726722,-13.51875,-44.943752,-23.212502,0.18937273,0.19307384,0.68420255,995.1777, , , , 
2025-09-28 19:12:36.696,-0.019142581,5.259424,8.315059,-0.08956805,-8.3993905E-4,0.0650571,-13.70625,-45.84375,-22.518751,0.18899854,0.19282083,0.684623,995.1777, , , , 
2025-09-28 19:12:36.715,0.1794617,5.156533,8.573483,-0.0730747,-0.09185879,0.046731155,-14.231251,-44.025,-21.9375,0.18898016,0.19205837,0.6850805,995.207, , , , 
2025-09-28 19:12:36.735,-0.086141616,5.1613183,8.819944,-0.0034361144,-0.2115883,0.033902995,-14.175,-46.0125,-22.9125,0.18950102,0.19089033,0.685207,995.207, , , , 
2025-09-28 19:12:36.756,0.2440679,5.1852465,8.051848,0.039935283,-0.19020802,0.07177661,-14.493751,-44.04375,-23.775002,0.1932896,0.1881352,0.6847888,995.2353, , , , 
2025-09-28 19:12:36.776,0.3278167,5.1469617,7.702496,-0.0938441,0.012599086,0.060781047,-16.29375,-45.600002,-22.575,0.1945562,0.18742989,0.68504024,995.27606, , , , 
2025-09-28 19:12:36.795,0.4331009,5.2977095,8.736196,-0.076739885,0.09995275,0.03329213,-14.418751,-44.925003,-21.5625,0.1936474,0.18700828,0.6858597,995.27606, , , , 
2025-09-28 19:12:36.816,0.46899325,5.130212,9.097511,0.019165883,0.0058795735,-0.02046397,-14.718751,-45.1875,-24.0,0.19318329,0.18673946,0.6862225,995.3122, , , , 
2025-09-28 19:12:36.836,0.23449662,5.2953167,8.611769,0.07536544,-0.12789981,-0.044898562,-13.762501,-44.71875,-23.19375,0.19374394,0.18634331,0.68598354,995.3122, , , , 
2025-09-28 19:12:36.857,0.11006984,5.204389,8.379665,0.08147409,-0.16332997,-0.045509428,-13.781251,-43.987503,-21.993752,0.19494747,0.18606913,0.68542194,995.3122, , , , 
2025-09-28 19:12:36.875,0.22013968,5.1852465,8.2049885,0.0570395,-0.0881936,9.162972E-4,-12.843751,-45.24375,-22.95,0.19664723,0.18588774,0.6846248,995.3432, , , , 
2025-09-28 19:12:36.896,0.5072784,5.2331033,8.04467,0.016722424,-0.036880963,-0.021685699,-13.218751,-45.54375,-22.125,0.19771944,0.18578379,0.6843774,995.3432, , , , 
2025-09-28 19:12:36.915,0.39481574,5.2259245,8.087741,-0.041920595,-2.290743E-4,-0.06139191,-13.63125,-45.581253,-23.625,0.19828013,0.18566714,0.68418413,995.3664, , , , 
2025-09-28 19:12:36.936,0.0741775,5.163711,8.504091,-0.026648976,0.10545053,-0.037568185,-12.187501,-46.425003,-23.41875,0.19701377,0.18607685,0.6839238,995.3686, , , , 
2025-09-28 19:12:36.956,0.06460621,5.180461,8.355737,-0.00160352,0.03825541,-0.03451386,-12.056251,-46.29375,-21.900002,0.19637594,0.18652378,0.6838865,995.3686, , , , 
2025-09-28 19:12:36.975,-0.0526421,5.1828537,8.193025,-0.0022143847,-0.013668099,-0.016187917,-13.218751,-46.29375,-21.618752,0.19617413,0.1869259,0.6836528,995.37933, , , , 
2025-09-28 19:12:36.996,0.19381863,5.204389,8.202596,-0.032757625,-0.010002911,-0.010690134,-13.593751,-45.3375,-22.556252,0.19616881,0.18707997,0.68353325,995.37933, , , , 
2025-09-28 19:12:37.016,0.124426775,5.180461,8.319844,-0.048029244,-0.022831071,-0.04367683,-12.95625,-45.768753,-22.9125,0.19620061,0.18674175,0.68338263,995.3874, , , , 
2025-09-28 19:12:37.035,-0.0071784677,5.180461,8.295917,-0.05108357,-0.0014508038,-0.038179047,-13.687501,-45.600002,-20.98125,0.19594161,0.18655673,0.6831192,995.3874, , , , 
2025-09-28 19:12:37.056,0.076570325,5.2259245,8.216953,-0.07185297,0.032757625,-0.032070402,-12.7875,-47.11875,-22.237501,0.19555233,0.18660809,0.68298024,995.3874, , , , 
2025-09-28 19:12:37.076,0.040677983,5.194818,8.319844,-0.09750929,0.06024654,-0.055283263,-10.96875,-46.162502,-23.868752,0.19435173,0.18668237,0.68285894,995.3879, , , , 
2025-09-28 19:12:37.096,-0.21296121,5.15414,8.396415,-0.091400646,0.011377357,-0.042455103,-12.243751,-45.9375,-22.96875,0.19328357,0.1867319,0.6826736,995.3842, , , , 
2025-09-28 19:12:37.116,-0.13399807,5.127819,8.774481,-0.06635518,0.05535962,0.015577052,-13.031251,-46.78125,-21.150002,0.19192128,0.18669902,0.6826499,995.3842, , , , 
2025-09-28 19:12:37.135,-0.009571291,5.144569,8.817552,-0.0058795735,0.07002038,0.027183482,-10.481251,-44.5125,-23.7,0.19086266,0.18683635,0.68296975,995.3818, , , , 
2025-09-28 19:12:37.155,0.3469593,5.24746,8.7266245,0.044822205,0.025427246,-0.01924224,-13.387501,-47.175003,-22.931252,0.19068614,0.1870473,0.68316185,995.3818, , , , 
2025-09-28 19:12:37.176,0.09332009,5.3503513,8.437093,0.052763447,0.05780308,-0.057115857,-11.85,-46.143753,-22.837502,0.19095062,0.1873441,0.68300647,995.3803, , , , 
2025-09-28 19:12:37.196,-0.13878371,5.316852,8.12124,-0.0028252497,0.1042288,-0.065667965,-12.168751,-46.40625,-24.487501,0.19087051,0.18850161,0.6826006,995.3803, , , , 
2025-09-28 19:12:37.216,-0.2440679,5.1469617,8.487342,-0.07063124,0.05535962,-0.040622506,-12.075001,-47.0625,-20.60625,0.1896535,0.18979196,0.6823131,995.3742, , , , 
2025-09-28 19:12:37.235,-0.18664017,4.996214,8.8701935,-0.030314164,-0.030772313,-0.0033597562,-13.1625,-47.41875,-21.09375,0.18892424,0.18976875,0.68225265,995.3742, , , , 
2025-09-28 19:12:37.256,0.033499517,5.0823555,8.755338,0.045433067,-0.14500403,0.041844238,-11.962501,-47.4,-22.612501,0.18912542,0.18867123,0.68225324,995.3632, , , , 
2025-09-28 19:12:37.276,0.14117654,5.168497,8.525627,0.04421134,-0.13828452,0.03940078,-11.71875,-45.506252,-23.5125,0.19008413,0.18800835,0.68222,995.3632, , , , 
2025-09-28 19:12:37.296,0.3684947,5.209175,8.32463,0.009392046,-0.036270097,0.0015271619,-10.40625,-45.61875,-24.4125,0.19103275,0.18752223,0.682192,995.3632,37.88836546,127.73986226,149.245849609375,0.0
2025-09-28 19:12:37.316,-0.04546363,5.0847483,8.255239,-0.082848534,0.1146135,-0.060781047,-13.012501,-46.7625,-22.21875,0.19094841,0.1877457,0.6821439,995.34906, , , , 
2025-09-28 19:12:37.335,-0.29910284,4.9052863,8.549556,-0.07246383,0.033368487,-0.031459536,-13.368751,-47.79375,-21.975,0.18912528,0.1881657,0.682039,995.3349, , , , 
2025-09-28 19:12:37.356,0.040677983,4.8693943,8.683554,-0.043753188,-0.07353285,-0.014966187,-10.14375,-44.9625,-23.550001,0.18845072,0.18784995,0.68198955,995.3349, , , , 
2025-09-28 19:12:37.376,0.24646074,4.84068,8.73141,-0.029092435,-0.06131555,-0.021685699,-12.13125,-46.800003,-22.931252,0.18844934,0.18671075,0.68190795,995.3349, , , , 
2025-09-28 19:12:37.396,0.2847459,4.84068,8.688339,-0.04497492,0.030314164,-0.033902995,-12.243751,-45.9375,-23.2875,0.18823193,0.18561575,0.681914,995.3349, , , , 
2025-09-28 19:12:37.416,0.25124636,4.8502517,8.688339,-0.037644543,0.05413789,-0.045509428,-12.525001,-45.84375,-23.1,0.1877455,0.18522476,0.6819595,995.3239, , , , 
2025-09-28 19:12:37.436,-0.02632105,4.895715,8.441878,-0.014431681,0.048029244,-0.044898562,-9.975,-45.581253,-23.7,0.18697904,0.18495542,0.68185943,995.3239, , , , 
2025-09-28 19:12:37.455,-0.2847459,5.022535,8.293523,-0.008933897,0.044364054,-0.024740024,-11.925,-45.9,-24.093752,0.1864043,0.18533732,0.68168086,995.3156, , , , 
2025-09-28 19:12:37.476,-0.38285163,5.151747,8.209774,-0.008323032,0.027259842,0.00763581,-10.481251,-46.631252,-23.41875,0.18575157,0.18632247,0.68153113,995.3156, , , , 
2025-09-28 19:12:37.495,-0.22253251,5.2019963,8.207381,-0.021762058,-0.0063377223,0.0070249448,-9.95625,-45.5625,-24.468752,0.1855505,0.18697968,0.6814815,995.3134, , , , 
2025-09-28 19:12:37.515,-0.27517462,5.1828537,8.152347,-0.058413945,0.021151192,-0.010079269,-11.793751,-48.225002,-25.35,0.1855276,0.18724443,0.6814126,995.3134, , , , 
2025-09-28 19:12:37.535,-0.42831525,5.0512486,8.532805,-0.13477205,0.08040508,-0.018631376,-10.35,-45.35625,-24.750002,0.18442164,0.18770705,0.68139464,995.3005, , , , 
2025-09-28 19:12:37.555,-0.48095736,4.898108,8.9826565,-0.11217005,0.07979421,0.008857539,-13.44375,-46.6875,-21.712502,0.18247189,0.1877997,0.6816034,995.3005, , , , 
2025-09-28 19:12:37.575,-0.3469593,4.8358946,9.133404,-0.04253146,0.021762058,0.026572619,-13.06875,-45.43125,-20.1375,0.18113957,0.18763462,0.6818762,995.3007, , , , 
2025-09-28 19:12:37.595,-0.29192436,4.9986067,8.717052,0.020387612,-0.047876526,0.051007207,-10.8,-45.28125,-23.475,0.18034323,0.18727562,0.6821819,995.3007, , , , 
2025-09-28 19:12:37.615,-0.0071784677,4.991428,8.657232,-0.008933897,-0.017944153,0.04734202,-12.3,-46.3125,-24.018751,0.18055227,0.18706168,0.6823953,995.299, , , , 
2025-09-28 19:12:37.636,0.059820566,4.962714,8.733803,-0.041920595,0.05902481,0.023518294,-11.25,-46.93125,-25.031252,0.18051815,0.18681985,0.6826662,995.299, , , , 
2025-09-28 19:12:37.657,-0.2847459,4.9722853,8.843872,-0.03642281,0.08773545,0.035124727,-9.993751,-46.55625,-25.331251,0.17921044,0.18687777,0.68327296,995.2961, , , , 
2025-09-28 19:12:37.676,-0.13160525,4.991428,8.743374,-0.0193186,0.018707734,0.062613636,-13.6125,-45.3375,-21.7875,0.17840035,0.18712167,0.68372947,995.2961, , , , 
2025-09-28 19:12:37.696,-0.059820566,4.912465,8.867801,8.3993905E-4,0.01809687,0.06750056,-11.64375,-45.24375,-24.618752,0.17823817,0.18695112,0.68421125,995.2924, , , , 
2025-09-28 19:12:37.716,-0.1052842,4.883751,8.796016,0.024663666,0.04497492,0.07849612,-10.3125,-45.112503,-24.150002,0.17809592,0.18685141,0.68476105,995.2924, , , , 
2025-09-28 19:12:37.737,0.10289137,4.924429,8.595019,0.045433067,0.03581195,0.07055488,-12.262501,-46.6875,-23.081251,0.17817771,0.18709415,0.6854878,995.2819, , , , 
2025-09-28 19:12:37.755,0.043070808,4.9938207,8.453842,0.037491824,0.03214676,0.055283263,-10.78125,-46.03125,-24.35625,0.17848882,0.18724398,0.6858242,995.2819, , , , 
2025-09-28 19:12:37.775,0.014356935,4.9938207,8.46102,0.008781182,0.037033677,0.03451386,-11.512501,-46.5,-21.618752,0.17882708,0.18750474,0.6861687,995.2817, , , , 
2025-09-28 19:12:37.795,0.124426775,4.9770713,8.6141615,0.0032833982,0.031535894,0.014966187,-11.4375,-44.325,-26.550001,0.17886004,0.1876122,0.68637455,995.2817, , , , 
2025-09-28 19:12:37.815,-0.1794617,4.8885365,8.616554,0.041157015,-0.0063377223,-3.054324E-4,-10.762501,-45.2625,-25.63125,0.17911202,0.1875931,0.686406,995.28046, , , , 
2025-09-28 19:12:37.836,-0.18903299,4.8861437,8.671589,0.05215258,0.016264275,0.05222894,-10.96875,-45.43125,-23.2875,0.179156,0.18791352,0.68644387,995.28046, , , , 
2025-09-28 19:12:37.855,0.16271193,4.996214,8.676374,0.069867656,-0.008170316,0.0650571,-13.106251,-44.925003,-21.09375,0.17943875,0.18813947,0.6867769,995.27264, , , , 
2025-09-28 19:12:37.875,0.20817557,5.1062837,8.429914,0.07170025,-0.049709123,0.04612029,-12.656251,-46.48125,-23.0625,0.18026666,0.18806522,0.68699735,995.27264, , , , 
2025-09-28 19:12:37.896,0.09332009,5.151747,8.46102,0.04421134,-0.022831071,0.041844238,-12.637501,-46.4625,-23.831251,0.18150802,0.18802287,0.6871276,995.27264, , , , 
2025-09-28 19:12:37.917,0.24646074,5.206782,8.394022,0.028939718,0.048029244,0.029626941,-12.806251,-46.36875,-21.806252,0.1824446,0.18842255,0.68750256,995.27264, , , , 
2025-09-28 19:12:37.936,0.40677986,5.163711,8.338987,-0.0064904382,0.012599086,-0.015577052,-11.75625,-45.75,-23.962502,0.18303625,0.18860365,0.68767124,995.26654, , , , 
2025-09-28 19:12:37.956,0.18424734,5.0249276,8.52802,-0.040698867,-0.010613776,-0.045509428,-13.05,-45.412502,-21.675001,0.1834476,0.18827488,0.687567,995.26654, , , , 
2025-09-28 19:12:37.976,0.14356937,4.9268217,8.774481,-0.025427246,-0.021609342,-0.044898562,-14.118751,-46.5,-23.5125,0.18334691,0.1877137,0.6873885,995.2614, , , , 
2025-09-28 19:12:37.997,0.19621146,4.8191447,8.721839,0.03932442,-0.06314815,-0.04367683,-10.425,-46.59375,-26.681252,0.18345211,0.18708643,0.68715113,995.2614, , , , 
2025-09-28 19:12:38.016,0.21774685,4.7449675,8.353344,0.06314815,-0.072921984,-0.05650499,-12.056251,-46.537502,-24.0375,0.18414971,0.1865085,0.6867559,995.26215, , , , 
2025-09-28 19:12:38.037,0.09332009,4.8287163,8.1020975,0.023441937,-0.008781182,-0.076052666,-11.775001,-45.131252,-23.831251,0.18499129,0.1862889,0.6860985,995.26215, , , , 
2025-09-28 19:12:38.059,-0.1052842,4.871787,8.082955,-0.019929463,0.009544762,-0.085215636,-12.95625,-47.25,-23.1375,0.18500295,0.18648554,0.6856846,995.24994, , , , 
2025-09-28 19:12:38.075,-0.36131623,4.8861437,8.403593,-0.059635673,-2.290743E-4,-0.0650571,-11.1,-46.29375,-26.156252,0.18431966,0.18674721,0.68502295,995.24994, , , , 
2025-09-28 19:12:38.097,-0.37328035,4.9363933,8.616554,-0.04864011,-8.3993905E-4,-0.029626941,-10.725,-45.018753,-24.2625,0.18336631,0.18678798,0.68471164,995.2453, , , , 
2025-09-28 19:12:38.115,-0.39720857,4.9698925,8.630911,-0.021762058,-0.051541716,0.0021380268,-12.58125,-45.46875,-23.737501,0.18282092,0.18678711,0.6845923,995.2453, , , , 
2025-09-28 19:12:38.136,-0.33020952,5.0392847,8.690732,0.0020616686,-0.10407609,0.031459536,-10.950001,-46.912502,-25.06875,0.18278618,0.18652816,0.6844678,995.2453, , , , 
2025-09-28 19:12:38.156,-0.25603202,5.089534,8.659625,0.008781182,-0.030772313,0.066889696,-11.493751,-45.112503,-23.400002,0.18326034,0.18611123,0.68455654,995.2475, , , , 
2025-09-28 19:12:38.176,-0.19860429,5.13739,8.60459,0.0045051277,-0.020998476,0.07788526,-13.368751,-45.037502,-24.45,0.18333021,0.18612985,0.6847097,995.2475, , , , 
2025-09-28 19:12:38.195,0.21535404,5.235496,8.556734,-0.0064904382,-0.053985175,0.038179047,-13.950001,-44.86875,-21.91875,0.18424226,0.1857839,0.68521017,995.248, , , , 
2025-09-28 19:12:38.215,0.05503492,5.1996036,8.482556,-0.04925097,0.035201084,0.0051923506,-12.01875,-44.79375,-23.0625,0.18478355,0.18547423,0.6853601,995.24774, , , , 
2025-09-28 19:12:38.235,-0.11246266,5.06082,8.724232,-0.076739885,0.0712421,0.009468404,-12.918751,-46.48125,-25.181252,0.18393955,0.18563588,0.68563604,995.24774, , , , 
2025-09-28 19:12:38.255,-0.02871387,4.981857,8.939586,-0.03459022,0.0077121677,0.014355322,-12.093751,-45.16875,-23.34375,0.18305247,0.18545546,0.6859134,995.2526, , , , 
2025-09-28 19:12:38.275,-0.10049855,4.9052863,8.872586,0.019776747,-0.013057235,0.019853106,-13.70625,-46.59375,-22.63125,0.18281336,0.1851813,0.6860431,995.2526, , , , 
2025-09-28 19:12:38.296,-0.1698904,4.9316072,8.611769,0.042378742,-0.01244637,0.038179047,-12.31875,-47.7,-22.087502,0.1827737,0.18512774,0.68612784,995.2526,37.88836546,127.73986226,149.245849609375,0.0
2025-09-28 19:12:38.316,0.17228323,4.8861437,8.4347,0.008781182,-0.030161448,0.032070402,-10.181251,-45.206253,-24.618752,0.18334495,0.18515755,0.68636477,995.25385, , , , 
2025-09-28 19:12:38.335,0.10289137,4.7832522,8.465807,-0.018707734,0.06635518,0.003970621,-9.7875,-46.912502,-24.562502,0.1834219,0.18480982,0.68663114,995.2465, , , , 
2025-09-28 19:12:38.355,-0.06699903,4.776074,8.463413,-0.020540329,0.07979421,0.003970621,-11.868751,-46.3875,-24.525002,0.18288761,0.18493032,0.6868159,995.2465, , , , 
2025-09-28 19:12:38.376,-0.038285162,4.790431,8.386844,-0.0077121677,0.017486004,0.010690134,-11.981251,-45.300003,-22.425001,0.18220009,0.18514548,0.68700653,995.24677, , , , 
2025-09-28 19:12:38.396,0.09332009,4.8885365,8.370093,0.0075594517,-0.028328855,0.0058032153,-13.781251,-45.46875,-22.6875,0.18224336,0.18490648,0.6870826,995.24677, , , , 
2025-09-28 19:12:38.416,0.10289137,4.9316072,8.288737,2.290743E-4,-0.025885396,3.054324E-4,-13.762501,-46.0875,-22.5,0.18241939,0.18478647,0.68708277,995.24677, , , , 
2025-09-28 19:12:38.435,0.12203395,5.056034,8.484949,-0.040698867,0.023594651,-0.00641408,-12.525001,-45.84375,-23.41875,0.18256317,0.18475504,0.6870599,995.2338, , , , 
2025-09-28 19:12:38.455,0.18903299,5.099105,8.566305,-0.058413945,0.037033677,-0.028405212,-12.50625,-44.23125,-21.806252,0.18238705,0.18464488,0.6871101,995.24286, , , , 
2025-09-28 19:12:38.475,0.17228323,5.1326046,8.690732,-0.06269,0.044364054,-0.041233372,-11.175,-44.325,-23.643751,0.1821189,0.18452755,0.6871056,995.24286, , , , 
2025-09-28 19:12:38.495,0.12203395,5.1589255,8.755338,-0.052305296,0.03092503,-0.05589413,-13.05,-45.6375,-23.831251,0.18166645,0.18440984,0.6870004,995.24286, , , , 
2025-09-28 19:12:38.515,0.15792629,5.0919266,8.709874,-0.035201084,0.0028252497,-0.07299834,-13.031251,-45.61875,-24.91875,0.18146192,0.18431139,0.6868064,995.24603, , , , 
2025-09-28 19:12:38.535,0.0,5.096712,8.690732,-0.024205517,0.033368487,-0.07788526,-13.89375,-45.35625,-23.1375,0.1812688,0.18425998,0.68640035,995.24603, , , , 
2025-09-28 19:12:38.555,-0.2009971,4.9770713,8.662018,-0.012599086,0.03825541,-0.04978548,-10.875,-46.518753,-25.406252,0.18024829,0.18502858,0.6857701,995.2431, , , , 
2025-09-28 19:12:38.576,-0.19381863,4.9292145,8.563912,-0.011377357,-0.0032833982,-0.03329213,-13.9875,-45.862503,-23.1,0.1798963,0.185288,0.68556005,995.2419, , , , 
2025-09-28 19:12:38.595,-0.043070808,4.9052863,8.642876,-0.023594651,0.023594651,-0.040011644,-13.9875,-47.34375,-23.79375,0.17955771,0.18529454,0.6853047,995.2419, , , , 
2025-09-28 19:12:38.616,-0.12921242,4.914858,8.583055,-0.021762058,0.052305296,-0.054061532,-12.375001,-46.575,-23.23125,0.1790174,0.18538864,0.6851295,995.24457, , , , 
2025-09-28 19:12:38.636,-0.2440679,4.941179,8.422736,-0.040698867,-2.290743E-4,-0.05589413,-11.6625,-45.24375,-23.53125,0.17827848,0.18580984,0.68472904,995.24457, , , , 
2025-09-28 19:12:38.656,-0.15074782,4.907679,8.539984,-0.048029244,0.00160352,-0.055283263,-10.5375,-46.237503,-24.675001,0.17794897,0.18582965,0.6844653,995.24945, , , , 
2025-09-28 19:12:38.676,-0.33020952,4.883751,8.516056,-0.040088,0.03581195,-0.049174614,-13.500001,-45.693752,-23.775002,0.17737147,0.18581513,0.68418497,995.24945, , , , 
2025-09-28 19:12:38.696,-0.44985065,4.833502,8.432307,-0.037033677,0.0297033,-0.012522728,-12.562501,-46.2,-25.237501,0.17672701,0.18609777,0.6840441,995.24945, , , , 
2025-09-28 19:12:38.715,-0.062213387,4.8765726,8.623733,-0.03092503,-0.045433067,0.021074835,-12.187501,-46.425003,-23.41875,0.17598276,0.18613501,0.6840862,995.23895, , , , 
2025-09-28 19:12:38.735,0.047856454,4.9579287,8.590233,-0.033368487,-0.020387612,-0.00641408,-10.856251,-45.768753,-25.593752,0.1761852,0.18549384,0.6842018,995.23676, , , , 
2025-09-28 19:12:38.756,-0.124426775,4.955536,8.571091,-0.05108357,0.008933897,-0.016187917,-9.8625,-45.693752,-22.462502,0.17617138,0.18511674,0.68419665,995.23676, , , , 
2025-09-28 19:12:38.776,-0.19621146,4.9531426,8.740981,-0.046807513,0.011988222,0.0021380268,-13.106251,-47.381252,-24.0375,0.1755253,0.18497519,0.68424237,995.2336, , , , 
2025-09-28 19:12:38.796,-0.13878371,4.95075,8.7266245,-0.035201084,-0.0051159924,0.0051923506,-13.387501,-45.05625,-23.0625,0.17533551,0.18487617,0.68429226,995.2336, , , , 
2025-09-28 19:12:38.815,-0.03589234,4.8933225,8.630911,-0.028481571,-0.037491824,0.0070249448,-15.0375,-45.225002,-23.175001,0.17535487,0.18443844,0.6843787,995.238, , , , 
2025-09-28 19:12:38.837,0.0741775,4.8646083,8.772088,-0.026648976,-0.036880963,-0.008246674,-10.78125,-44.53125,-24.45,0.17562045,0.18363275,0.6844152,995.238, , , , 
2025-09-28 19:12:38.856,0.09571291,4.87418,8.786445,-0.020540329,0.004657844,-0.022907428,-12.76875,-46.350002,-23.6625,0.17574425,0.1830476,0.68440115,995.2409, , , , 
2025-09-28 19:12:38.876,-0.059820566,4.9028935,8.73141,-0.0040469794,0.058413945,-0.035124727,-11.887501,-44.90625,-23.23125,0.17558071,0.18294682,0.6843591,995.2409, , , , 
2025-09-28 19:12:38.896,-0.18903299,4.9196434,8.616554,0.0045051277,0.031535894,-0.025961753,-11.137501,-46.3125,-24.0,0.17527822,0.18323939,0.68427473,995.2409, , , , 
2025-09-28 19:12:38.916,-0.14356937,4.8765726,8.618947,-0.00160352,-0.047876526,-0.003970621,-12.7875,-46.59375,-24.73125,0.1753545,0.18348758,0.68399,995.2426, , , , 
2025-09-28 19:12:38.936,0.050249275,4.831109,8.700303,0.003894263,-0.013668099,-0.0070249448,-12.13125,-46.800003,-23.25,0.17554532,0.18325765,0.68393886,995.23895, , , , 
2025-09-28 19:12:38.956,-0.10767702,4.962714,8.389236,0.0020616686,0.016264275,-0.038179047,-13.14375,-45.91875,-21.956251,0.17574488,0.18320808,0.6838217,995.23895, , , , 
2025-09-28 19:12:38.976,-0.19860429,4.9698925,8.257631,-0.03581195,0.0028252497,-0.04612029,-13.1625,-46.256252,-24.862501,0.17574976,0.18363102,0.6835139,995.23285, , , , 
2025-09-28 19:12:38.996,-0.24646074,4.814359,8.664411,-0.08773545,0.0064904382,-0.04734202,-12.543751,-45.45,-25.893751,0.17525975,0.18360117,0.6831333,995.23285, , , , 
2025-09-28 19:12:39.015,-0.36370903,4.8239303,8.882157,-0.07551816,0.015042545,-0.028405212,-11.94375,-44.53125,-24.468752,0.17432472,0.18324433,0.68299395,995.22723, , , , 
2025-09-28 19:12:39.035,-0.33499518,4.8239303,8.956335,-0.05780308,0.009544762,-0.011300999,-11.475,-46.48125,-23.325,0.17358692,0.18305618,0.6829635,995.22723, , , , 
2025-09-28 19:12:39.055,-0.29671,4.8239303,8.968299,0.0026725335,0.033368487,0.019853106,-11.925,-44.5125,-25.25625,0.17261083,0.182977,0.6830984,995.2282, , , , 
2025-09-28 19:12:39.075,-0.18424734,4.85743,8.894122,0.030772313,0.005268709,0.021685699,-11.700001,-46.237503,-24.862501,0.17231108,0.18312922,0.68323046,995.2282, , , , 
2025-09-28 19:12:39.095,-0.11485548,4.8693943,8.63809,0.037491824,-0.013057235,0.0033597562,-9.918751,-44.04375,-26.250002,0.17282377,0.18319556,0.68324816,995.21893, , , , 
2025-09-28 19:12:39.116,-0.28235307,4.8789654,8.449057,0.005726857,0.03886627,-3.054324E-4,-10.5375,-46.256252,-24.056252,0.17300737,0.18342716,0.68320864,995.21893, , , , 
2025-09-28 19:12:39.135,-0.4977071,4.855037,8.592627,-0.0193186,0.029092435,0.02046397,-11.1,-46.068752,-23.550001,0.1726524,0.18400675,0.68321896,995.21625, , , , 
2025-09-28 19:12:39.155,-0.31585258,4.816752,8.906086,8.3993905E-4,-0.015500694,0.04367683,-11.512501,-46.725002,-23.775002,0.17228968,0.18422356,0.6833369,995.21625, , , , 
2025-09-28 19:12:39.175,-0.17706887,4.7784667,8.886943,0.06498074,-0.02649626,0.043065965,-11.418751,-45.693752,-26.475,0.17248012,0.1839852,0.6836171,995.21893, , , , 
2025-09-28 19:12:39.196,-0.148355,4.8622155,8.597412,0.07903063,-0.03199404,0.05222894,-9.28125,-46.725002,-26.325,0.17312534,0.18422525,0.683836,995.21893, , , , 
2025-09-28 19:12:39.215,0.033499517,4.843073,8.34138,0.056428634,-0.035048366,0.03940078,-10.556251,-45.75,-25.312502,0.17405574,0.18438333,0.6839643,995.21405, , , , 
2025-09-28 19:12:39.236,0.0526421,4.85743,8.350951,-0.02481638,0.05902481,0.013133593,-13.9125,-46.96875,-23.8125,0.17468719,0.18452382,0.68417245,995.21405, , , , 
2025-09-28 19:12:39.256,0.0023928226,4.8454657,8.623733,-0.056581352,0.052305296,-0.0015271619,-11.1,-46.068752,-23.550001,0.17441037,0.18460028,0.6843641,995.21967, , , , 
2025-09-28 19:12:39.276,-0.0047856453,4.8047876,9.06162,0.014278964,0.0022143847,0.0015271619,-13.425,-47.41875,-22.9125,0.17383103,0.1842378,0.6845841,995.21967, , , , 
2025-09-28 19:12:39.295,-0.04546363,4.8263235,8.867801,0.06436988,0.0022143847,0.010079269,-10.106251,-46.443752,-25.800001,0.17389828,0.18403532,0.68465245,995.22186,37.88836546,127.73986226,149.245849609375,0.0
2025-09-28 19:12:39.315,-0.0023928226,4.924429,8.571091,0.068035066,0.008933897,0.014355322,-11.85,-47.11875,-25.875002,0.17433394,0.18428671,0.68467593,995.22186, , , , 
2025-09-28 19:12:39.336,0.10289137,5.003392,8.415557,0.024663666,0.028481571,-0.01802051,-12.1125,-46.78125,-24.337502,0.17513609,0.18479642,0.684638,995.2192, , , , 
2025-09-28 19:12:39.356,-0.06460621,4.95075,8.477771,8.3993905E-4,0.055970486,-0.027794348,-10.481251,-44.49375,-24.468752,0.17532735,0.18511465,0.68455094,995.2192, , , , 
2025-09-28 19:12:39.376,-0.1698904,4.922036,8.650054,0.0045051277,0.033368487,-0.014966187,-11.887501,-46.3875,-23.4375,0.17503889,0.1856825,0.684437,995.2199, , , , 
2025-09-28 19:12:39.396,-0.16031912,4.9196434,8.645268,0.022220206,9.926553E-4,-0.0033597562,-9.900001,-45.54375,-27.4125,0.17495124,0.18592931,0.6843743,995.2199, , , , 
2025-09-28 19:12:39.416,-0.1052842,4.9268217,8.518449,0.02527453,-0.020998476,-0.0033597562,-9.69375,-45.881252,-26.94375,0.17512675,0.1860672,0.68431395,995.2187, , , , 
2025-09-28 19:12:39.435,0.02632105,4.8646083,8.578269,0.006948587,-0.009392046,-0.013744458,-11.306251,-45.825,-25.237501,0.17558317,0.18611984,0.6841775,995.2187, , , , 
2025-09-28 19:12:39.456,-0.011964113,4.802395,8.683554,-0.00160352,0.04864011,-0.029016078,-11.0625,-46.66875,-24.45,0.17561679,0.18600933,0.6841135,995.21967, , , , 
2025-09-28 19:12:39.476,-0.12203395,4.7569313,8.700303,-0.005268709,0.085292,-0.031459536,-11.6625,-45.46875,-26.456251,0.17521766,0.18614092,0.68409926,995.21967, , , , 
2025-09-28 19:12:39.496,-0.22731815,4.847859,8.595019,0.0063377223,0.067576915,-0.032681264,-9.825001,-46.40625,-25.518751,0.17448464,0.18658543,0.68406624,995.21967, , , , 
2025-09-28 19:12:39.515,-0.34217364,4.8287163,8.549556,0.020998476,-0.023441937,-0.036346454,-11.512501,-44.381252,-21.900002,0.17419045,0.18711072,0.683698,995.2155, , , , 
2025-09-28 19:12:39.535,-0.35174492,4.8287163,8.4705925,0.010002911,-0.017944153,-0.010079269,-11.793751,-47.49375,-24.937502,0.17417377,0.18733068,0.6834034,995.2192, , , , 
2025-09-28 19:12:39.555,-0.17706887,4.831109,8.518449,-0.007101303,-0.0032833982,-0.00641408,-12.825001,-45.24375,-23.71875,0.17415571,0.18736356,0.68332136,995.2192, , , , 
2025-09-28 19:12:39.575,-0.13160525,4.907679,8.583055,-0.01687514,0.01687514,-0.017409647,-11.118751,-46.29375,-25.06875,0.17402501,0.18733592,0.68332016,995.2248, , , , 
2025-09-28 19:12:39.596,-0.17467605,4.9052863,8.595019,-0.013209951,0.027259842,-0.032070402,-10.51875,-43.36875,-25.312502,0.17381251,0.18737005,0.6832429,995.2248, , , , 
2025-09-28 19:12:39.616,-0.28713873,4.9363933,8.551949,-0.010155627,0.027259842,-0.032070402,-9.76875,-45.412502,-25.425001,0.17350984,0.1875883,0.68308234,995.2236, , , , 
2025-09-28 19:12:39.636,-0.44506502,4.981857,8.437093,-0.022372922,-0.020387612,-0.019853106,-11.75625,-45.75,-24.2625,0.17327124,0.18784845,0.6828594,995.2236, , , , 
2025-09-28 19:12:39.656,-0.3589234,5.046463,8.518449,-0.046807513,-0.042989608,-0.0070249448,-11.1,-46.068752,-23.550001,0.1731939,0.18794143,0.68264097,995.2316, , , , 
2025-09-28 19:12:39.676,-0.19621146,4.979464,8.676374,-0.067576915,0.010766491,-0.00763581,-11.19375,-47.30625,-23.775002,0.17312565,0.18779244,0.68256956,995.2316, , , , 
2025-09-28 19:12:39.695,-0.12203395,4.87418,8.882157,-0.07185297,0.059635673,-0.022907428,-11.868751,-46.3875,-24.525002,0.17214672,0.18744913,0.6827188,995.236, , , , 
2025-09-28 19:12:39.715,-0.3062813,4.814359,8.963513,-0.040088,0.07429643,-0.022907428,-10.931251,-45.412502,-25.462502,0.17140482,0.18731947,0.68280786,995.236, , , , 
2025-09-28 19:12:39.736,-0.38285163,4.7952166,8.920443,-0.0040469794,0.032757625,-0.0015271619,-12.69375,-45.975002,-23.7,0.17047702,0.18744497,0.68288565,995.236, , , , 
2025-09-28 19:12:39.756,-0.33020952,4.773681,8.752945,0.042989608,-0.03810269,0.03695732,-11.625,-45.862503,-24.431252,0.17027162,0.18744683,0.6829685,995.236, , , , 
2025-09-28 19:12:39.776,-0.05503492,4.7856455,8.56152,0.033215772,-0.006948587,0.03573559,-10.087501,-46.2,-24.112501,0.17059475,0.18737401,0.68308306,995.2419, , , , 
2025-09-28 19:12:39.796,-0.21296121,4.85743,8.463413,-0.021762058,0.050472703,0.013133593,-10.96875,-45.43125,-23.60625,0.17086096,0.18741338,0.68335843,995.2419, , , , 
2025-09-28 19:12:39.815,-0.25603202,4.924429,8.508878,-0.03214676,0.022983788,0.014355322,-10.725,-46.3875,-23.8875,0.17050783,0.18763675,0.6835603,995.2375, , , , 
2025-09-28 19:12:39.835,-0.2536392,4.855037,8.748159,-0.026648976,-0.0026725335,0.011911863,-11.325001,-45.206253,-25.425001,0.17036049,0.18749353,0.6837216,995.2375, , , , 
2025-09-28 19:12:39.855,-0.21296121,4.8239303,8.879765,-0.009544762,0.02481638,0.02535089,-11.15625,-43.55625,-25.3875,0.17010266,0.18732567,0.68389577,995.2365, , , , 
2025-09-28 19:12:39.876,-0.11246266,4.814359,8.913264,0.034437504,0.012599086,0.027794348,-12.58125,-46.2,-24.468752,0.16993605,0.18728825,0.68409926,995.2365, , , , 
2025-09-28 19:12:39.896,0.03589234,4.814359,8.819944,0.07841977,-0.008781182,0.00763581,-10.9875,-45.45,-22.2,0.1701575,0.18723541,0.6842286,995.2365, , , , 
2025-09-28 19:12:39.915,-0.12203395,4.914858,8.391629,0.0778089,-0.019776747,-0.009468404,-12.0375,-44.79375,-22.29375,0.17093858,0.1873818,0.68415564,995.2331, , , , 
2025-09-28 19:12:39.935,-0.14117654,4.8598228,8.532805,-0.011988222,-0.030161448,-0.009468404,-10.012501,-45.9375,-25.837502,0.17203459,0.1876784,0.68382794,995.2404, , , , 
2025-09-28 19:12:39.956,-0.11964113,4.8047876,8.796016,-0.013209951,-0.0063377223,-0.009468404,-8.7375,-45.54375,-26.906252,0.17210108,0.18734097,0.6837839,995.2404, , , , 
2025-09-28 19:12:39.976,-0.2321038,4.831109,8.779266,0.027107125,0.014431681,-0.014355322,-11.15625,-44.30625,-25.181252,0.17200308,0.18713194,0.6837641,995.2419, , , , 
2025-09-28 19:12:39.995,-0.2321038,4.855037,8.623733,0.046654798,-0.0075594517,-0.010690134,-11.53125,-44.625,-23.268751,0.17203937,0.18736559,0.6836574,995.2419, , , , 
2025-09-28 19:12:40.016,-0.29192436,4.910072,8.532805,0.043600474,-0.033826638,-0.010690134,-11.55,-45.375,-22.7625,0.1723131,0.18756844,0.6835116,995.2414, , , , 
2025-09-28 19:12:40.036,-0.29910284,4.910072,8.394022,0.023441937,-0.045433067,-0.0070249448,-12.50625,-45.825,-24.487501,0.17283215,0.18776037,0.683256,995.2414, , , , 
2025-09-28 19:12:40.056,-0.21774685,4.922036,8.480164,-0.0064904382,-0.033215772,-0.0058032153,-10.59375,-45.131252,-25.2,0.17313772,0.1878192,0.6831109,995.2414, , , , 
2025-09-28 19:12:40.075,-0.30867413,4.8765726,8.793623,0.0045051277,0.022372922,-0.003970621,-11.0625,-46.66875,-24.45,0.1729878,0.1877155,0.6830209,995.23236, , , , 
2025-09-28 19:12:40.095,-0.2943172,4.8502517,8.786445,0.041157015,-0.0032833982,0.0051923506,-12.01875,-47.025,-23.868752,0.17282526,0.18792087,0.68300813,995.22797, , , , 
2025-09-28 19:12:40.115,-0.25603202,4.900501,8.590233,0.0570395,-0.041157015,0.013744458,-10.8,-44.53125,-23.362501,0.17301439,0.18808702,0.68294966,995.22797, , , , 
2025-09-28 19:12:40.136,-0.23449662,4.910072,8.446664,0.05337431,-0.07108939,0.013744458,-11.64375,-46.612503,-23.925001,0.17352723,0.18817034,0.6828593,995.217, , , , 
2025-09-28 19:12:40.156,-0.16510476,4.922036,8.209774,-3.8179048E-4,-0.069867656,0.009468404,-12.900001,-46.256252,-23.34375,0.17483181,0.18810108,0.6826159,995.217, , , , 
2025-09-28 19:12:40.175,-0.14117654,4.907679,8.348558,-0.055970486,-0.014278964,-0.0021380268,-9.356251,-45.506252,-24.843752,0.17523877,0.18779851,0.6825683,995.21747, , , , 
2025-09-28 19:12:40.196,-0.1794617,4.900501,8.492127,-0.07185297,0.007101303,-0.003970621,-10.725,-46.40625,-23.41875,0.17517294,0.18762828,0.6825922,995.21747, , , , 
2025-09-28 19:12:40.215,-0.28713873,4.8885365,8.796016,-0.05291616,0.026038112,0.008246674,-10.725,-46.631252,-26.343752,0.17416602,0.18721148,0.68282086,995.22064, , , , 
2025-09-28 19:12:40.235,-0.27756742,5.0081778,8.750552,-0.013209951,-0.023441937,0.024129158,-10.650001,-45.393753,-24.093752,0.17369516,0.18704478,0.68298596,995.22064, , , , 
2025-09-28 19:12:40.256,-0.009571291,4.979464,8.566305,-0.022983788,-0.033826638,0.0058032153,-11.025001,-45.675003,-23.587502,0.17400998,0.18669412,0.6830929,995.2182, , , , 
2025-09-28 19:12:40.276,-0.09810573,4.871787,8.606983,-0.065744326,0.03581195,-0.016798781,-12.243751,-45.9375,-23.737501,0.17410703,0.18630268,0.68313503,995.2182, , , , 
2025-09-28 19:12:40.295,-0.15074782,4.7976093,8.922835,-0.058413945,0.06818778,-0.014966187,-12.618751,-44.9625,-24.525002,0.17330918,0.18609914,0.68325424,995.21576,37.88836546,127.73986226,149.245849609375,0.0
2025-09-28 19:12:40.316,-0.15792629,4.7545385,8.958728,8.3993905E-4,0.03581195,-0.014966187,-11.887501,-45.65625,-23.325,0.17235908,0.18597981,0.6833905,995.21576, , , , 
2025-09-28 19:12:40.335,-0.148355,4.723432,8.7266245,0.029550584,0.013820816,-0.032681264,-9.431251,-45.35625,-27.31875,0.17211178,0.18591069,0.68334717,995.2172, , , , 
2025-09-28 19:12:40.355,-0.3589234,4.7042894,8.506484,0.017333288,0.053527027,-0.030237807,-11.231251,-45.318752,-24.50625,0.17193525,0.18612473,0.68316376,995.2172, , , , 
2025-09-28 19:12:40.376,-0.47138608,4.7042894,8.492127,-3.8179048E-4,0.04497492,-0.0033597562,-12.3,-46.29375,-24.806252,0.17132558,0.1867314,0.6830612,995.21796, , , , 
2025-09-28 19:12:40.395,-0.2536392,4.7952166,8.69791,0.022831071,-0.046043932,0.01924224,-9.356251,-45.506252,-24.843752,0.17101152,0.18695945,0.6831063,995.21796, , , , 
2025-09-28 19:12:40.415,-0.12921242,4.855037,8.585447,0.033215772,-0.04848739,0.012522728,-10.650001,-46.125,-25.29375,0.17138052,0.18677476,0.68310714,995.2128, , , , 
2025-09-28 19:12:40.436,-0.148355,4.87418,8.487342,0.019776747,-0.024663666,0.0033597562,-8.90625,-44.925003,-27.54375,0.17199892,0.18663909,0.68305665,995.2128, , , , 
2025-09-28 19:12:40.455,-0.06699903,4.9435716,8.532805,0.0045051277,-0.017333288,-0.0027488915,-9.50625,-45.61875,-26.212502,0.17231996,0.1866323,0.68302023,995.2128, , , , 
2025-09-28 19:12:40.476,-0.13878371,5.0440702,8.475378,-0.0058795735,0.022372922,-0.01802051,-12.88125,-46.237503,-24.13125,0.17281492,0.18668252,0.6828927,995.21136, , , , 
2025-09-28 19:12:40.495,-0.28713873,5.0273204,8.432307,-0.020540329,0.027259842,-0.014966187,-13.481251,-46.93125,-23.1,0.17280166,0.18703607,0.6827915,995.20795, , , , 
2025-09-28 19:12:40.515,-0.32063824,4.9866424,8.439486,-0.027870705,-0.0112246405,-0.0070249448,-9.168751,-43.987503,-25.875002,0.17264888,0.18738922,0.68268454,995.20795, , , , 
2025-09-28 19:12:40.536,-0.16510476,4.895715,8.606983,-0.03581195,-0.042989608,-0.010690134,-10.8,-45.28125,-23.475,0.17271642,0.18718469,0.6826023,995.21014, , , , 
2025-09-28 19:12:40.555,-0.2105684,4.843073,8.626125,-0.04497492,-0.019165883,-0.014355322,-11.3625,-45.206253,-24.0375,0.17271201,0.18683273,0.6825464,995.21014, , , , 
2025-09-28 19:12:40.575,-0.23928227,4.8215375,8.85823,-0.045585785,0.043142326,-0.017409647,-10.5375,-46.237503,-24.375002,0.17184313,0.18649429,0.682566,995.2116, , , , 
2025-09-28 19:12:40.596,-0.3804588,4.792824,8.867801,0.0063377223,0.031535894,-0.033902995,-10.78125,-44.756252,-26.2875,0.17114528,0.18644346,0.6825511,995.2116, , , , 
2025-09-28 19:12:40.616,-0.45942193,4.7952166,8.750552,0.018555017,0.011988222,-0.031459536,-10.481251,-45.99375,-24.075,0.17088468,0.186561,0.6824544,995.2116, , , , 
2025-09-28 19:12:40.636,-0.37328035,4.76411,8.606983,0.003894263,-0.05093085,-0.014355322,-9.76875,-44.662502,-24.843752,0.1707944,0.18676798,0.6821055,995.2099, , , , 
2025-09-28 19:12:40.657,-0.27996024,4.766503,8.676374,-0.005268709,0.0022143847,-0.0070249448,-9.69375,-45.9,-26.325,0.17082869,0.18666679,0.6819704,995.2099, , , , 
2025-09-28 19:12:40.676,-0.42592242,4.7832522,8.719446,0.016722424,0.056581352,0.017409647,-11.38125,-44.71875,-24.993752,0.17008232,0.1870522,0.6820447,995.2094, , , , 
2025-09-28 19:12:40.695,-0.30388847,4.898108,8.633304,0.03199404,-0.017944153,0.025961753,-10.89375,-46.537502,-24.0,0.16993555,0.18744616,0.6821757,995.2143, , , , 
2025-09-28 19:12:40.715,-0.21296121,4.910072,8.578269,0.020998476,-0.032604907,0.021685699,-10.368751,-44.625,-23.550001,0.17029388,0.18748221,0.68221194,995.2143, , , , 
2025-09-28 19:12:40.736,-0.1268196,4.9363933,8.592627,-0.0040469794,0.015042545,0.013133593,-11.512501,-45.35625,-24.937502,0.17067358,0.18745722,0.6822897,995.2133, , , , 
2025-09-28 19:12:40.756,-0.16271193,4.9268217,8.669196,-0.021151192,0.027870705,-0.0021380268,-11.587501,-45.61875,-23.831251,0.17068796,0.18749504,0.6823788,995.2133, , , , 
2025-09-28 19:12:40.775,-0.2440679,4.979464,8.8701935,0.013668099,0.009544762,-0.003970621,-10.05,-46.18125,-26.587502,0.17043282,0.18754196,0.6824214,995.21674, , , , 
2025-09-28 19:12:40.795,-0.16510476,4.9842496,8.592627,0.029550584,0.015042545,-0.01924224,-11.775001,-47.25,-23.41875,0.17059468,0.18785764,0.68234634,995.21674, , , , 
2025-09-28 19:12:40.817,-0.43070808,4.95075,8.492127,0.014889829,0.0022143847,-0.012522728,-10.40625,-46.575,-27.150002,0.1708013,0.18829972,0.6821246,995.21893, , , , 
2025-09-28 19:12:40.835,-0.37806597,4.8622155,8.650054,0.005726857,-0.019165883,0.017409647,-10.106251,-44.2125,-24.843752,0.17081566,0.18865721,0.68202335,995.21893, , , , 
2025-09-28 19:12:40.856,-0.25842485,4.7976093,8.851051,0.046043932,-0.049709123,0.027183482,-9.9375,-46.29375,-25.35,0.17102589,0.18851884,0.6820921,995.217, , , , 
2025-09-28 19:12:40.876,-0.17706887,4.843073,8.659625,0.08025236,-0.066813335,0.03451386,-10.81875,-46.5,-27.562502,0.1715137,0.18836154,0.6821198,995.217, , , , 
2025-09-28 19:12:40.896,-0.11485548,4.8287163,8.518449,0.08025236,-0.04054615,0.029626941,-11.306251,-47.193752,-24.225,0.17226072,0.18831185,0.6821289,995.217, , , , 
2025-09-28 19:12:40.916,-0.059820566,4.912465,8.269595,0.015500694,0.031535894,0.004581486,-12.150001,-45.43125,-22.706251,0.1735071,0.18871477,0.6821842,995.2192, , , , 
2025-09-28 19:12:40.935,-0.1268196,4.881358,8.295917,-0.020540329,0.05291616,-0.01924224,-9.525001,-46.3875,-25.237501,0.17356573,0.18896027,0.6822163,995.2172, , , , 
2025-09-28 19:12:40.956,-0.32303107,4.87418,8.551949,-0.040698867,0.0193186,-0.021685699,-13.05,-46.3875,-23.94375,0.17321679,0.18916413,0.6821808,995.2172, , , , 
2025-09-28 19:12:40.975,-0.30388847,4.816752,8.705089,-0.01687514,-0.019776747,-0.0027488915,-11.90625,-46.40625,-22.81875,0.1726663,0.18904153,0.68211997,995.2138, , , , 
2025-09-28 19:12:40.996,-0.19621146,4.831109,8.676374,-0.00160352,0.0034361144,0.003970621,-10.51875,-44.11875,-25.725,0.17255701,0.18872935,0.6821406,995.2138, , , , 
2025-09-28 19:12:41.015,-0.19621146,4.914858,8.599805,-0.0022143847,0.03642281,0.0051923506,-11.775001,-47.25,-23.1,0.17240092,0.18872231,0.68223315,995.2133, , , , 
2025-09-28 19:12:41.036,-0.2727818,4.9268217,8.4682,-0.01809687,0.0034361144,0.008857539,-10.33125,-45.3375,-25.837502,0.17223619,0.18894392,0.6823204,995.2133, , , , 
2025-09-28 19:12:41.055,-0.24885355,4.9028935,8.609376,-0.035201084,-0.013057235,0.023518294,-11.56875,-45.600002,-24.91875,0.17218688,0.18888737,0.68240786,995.21136, , , , 
2025-09-28 19:12:41.075,-0.09810573,4.948357,8.831908,-0.028481571,-0.011835505,0.031459536,-9.58125,-45.2625,-25.612501,0.17214112,0.1886101,0.68256605,995.21136, , , , 
2025-09-28 19:12:41.095,-0.12921242,5.015356,8.796016,0.014889829,-0.034437504,0.014355322,-11.64375,-45.24375,-24.31875,0.1725025,0.1879467,0.6828544,995.2126, , , , 
2025-09-28 19:12:41.116,-0.0047856453,5.029713,8.719446,0.03138318,-0.032604907,3.054324E-4,-10.8,-46.256252,-25.725,0.17309028,0.18776804,0.68284255,995.2126, , , , 
2025-09-28 19:12:41.136,-0.10767702,4.979464,8.518449,0.036270097,-0.008170316,-0.024740024,-11.83125,-46.7625,-23.268751,0.17375074,0.18776439,0.68269926,995.2138, , , , 
2025-09-28 19:12:41.156,-0.22492532,4.941179,8.346166,-0.0028252497,-0.014889829,-0.027183482,-10.40625,-44.98125,-25.687502,0.17414519,0.18805864,0.6824288,995.2138, , , , 
2025-09-28 19:12:41.176,-0.09332009,4.900501,8.590233,-0.032757625,0.023594651,-0.03695732,-11.83125,-45.393753,-24.13125,0.17418493,0.18811934,0.6822257,995.2126, , , , 
2025-09-28 19:12:41.196,-0.12921242,4.8622155,8.647661,-0.03581195,0.058413945,-0.047952887,-10.9125,-45.16875,-23.625,0.17400302,0.18808876,0.68216825,995.2126, , , , 
2025-09-28 19:12:41.216,-0.4953143,4.7976093,8.745767,-0.010766491,-0.0075594517,-0.028405212,-11.19375,-45.075,-23.4375,0.17276783,0.18838558,0.68182105,995.20966, , , , 
2025-09-28 19:12:41.235,-0.39720857,4.802395,8.745767,0.011835505,-0.047265664,-0.008246674,-14.062501,-46.875,-22.575,0.17258213,0.18839481,0.6817084,995.20966, , , , 
2025-09-28 19:12:41.255,-0.30149564,4.867001,8.480164,0.0240528,-0.036880963,0.008857539,-12.825001,-45.862503,-23.38125,0.1728128,0.18820147,0.6815254,995.2082, , , , 
2025-09-28 19:12:41.276,-0.2943172,4.8526444,8.315059,-0.010155627,-0.015500694,0.014355322,-10.293751,-47.325,-25.406252,0.17312133,0.18827437,0.6814625,995.2082, , , , 
2025-09-28 19:12:41.296,-0.124426775,4.8215375,8.635697,-0.04497492,0.040698867,-0.0021380268,-9.50625,-45.0,-27.018751,0.17290828,0.18814291,0.68162966,995.2128,37.88836546,127.73986226,149.245849609375,0.0
2025-09-28 19:12:41.315,-0.22492532,4.843073,8.690732,-0.037033677,0.025427246,-0.013133593,-10.725,-45.65625,-23.60625,0.1723764,0.18799573,0.68177485,995.2128, , , , 
2025-09-28 19:12:41.335,-0.33260235,4.8502517,8.788837,-0.0058795735,-0.022831071,0.0027488915,-11.56875,-46.350002,-25.331251,0.17199224,0.18788451,0.6817676,995.21234, , , , 
2025-09-28 19:12:41.356,-0.16510476,4.867001,8.807981,0.0112246405,-0.025885396,0.0051923506,-8.8125,-44.325,-24.975,0.17207608,0.1875749,0.68174845,995.21234, , , , 
2025-09-28 19:12:41.378,-0.19621146,4.867001,8.673982,0.024663666,0.0022143847,-0.004581486,-11.53125,-44.60625,-24.056252,0.17225029,0.18746616,0.6817317,995.2226, , , , 
2025-09-28 19:12:41.395,-0.16510476,4.979464,8.346166,0.0045051277,-0.0075594517,-0.013744458,-11.775001,-45.131252,-23.831251,0.1724604,0.18766962,0.6816501,995.2226, , , , 
2025-09-28 19:12:41.416,-0.18664017,4.965107,8.41795,-0.04619665,-0.01244637,-0.028405212,-9.65625,-46.275,-24.300001,0.17271408,0.1876652,0.68147814,995.2255, , , , 
2025-09-28 19:12:41.436,-0.44985065,4.8622155,8.709874,-0.07246383,-0.010002911,0.0027488915,-10.837501,-45.54375,-23.456251,0.17239206,0.18745084,0.68138766,995.2255, , , , 
2025-09-28 19:12:41.456,-0.37567315,4.8382874,8.9108715,-0.04925097,-0.056428634,0.054061532,-11.94375,-45.2625,-24.581251,0.17184216,0.18698196,0.68154955,995.2255, , , , 
2025-09-28 19:12:41.475,-0.1268196,4.8358946,8.956335,-0.0058795735,-0.07658717,0.0772744,-12.20625,-45.91875,-25.44375,0.1718824,0.18630372,0.68184555,995.2255, , , , 
2025-09-28 19:12:41.496,-0.22013968,4.8526444,8.707481,0.03138318,0.007101303,0.07849612,-12.0375,-45.768753,-25.0125,0.17229334,0.18561657,0.68232703,995.2255, , , , 
2025-09-28 19:12:41.515,-0.552742,4.9603214,8.063812,0.011835505,0.016264275,0.09560034,-12.431251,-46.8375,-22.59375,0.17235398,0.18615615,0.6828149,995.2209, , , , 
2025-09-28 19:12:41.535,-0.31345975,4.766503,8.252846,-0.05108357,-0.06620247,0.094378605,-10.96875,-46.162502,-24.16875,0.17266548,0.18664137,0.68349826,995.2194, , , , 
2025-09-28 19:12:41.555,-0.3278167,4.587041,8.647661,-0.08895718,-0.008781182,0.09071342,-12.01875,-46.275,-23.75625,0.17261988,0.18607794,0.68393314,995.2194, , , , 
2025-09-28 19:12:41.576,-0.22253251,4.520042,9.02812,-0.08651373,0.045585785,0.09498947,-12.375001,-44.568752,-24.88125,0.17163607,0.18520969,0.68477196,995.20917, , , , 
2025-09-28 19:12:41.596,-0.13878371,4.4051867,9.276974,-0.0028252497,0.074907295,0.082161315,-13.781251,-45.693752,-25.44375,0.17007262,0.1841509,0.68595815,995.20917, , , , 
2025-09-28 19:12:41.616,-0.18903299,4.496114,9.183653,0.028939718,0.06940951,0.08155045,-11.25,-44.8125,-25.143751,0.16957676,0.18393219,0.68637973,995.20917, , , , 
2025-09-28 19:12:41.635,-0.31585258,4.7210393,8.76491,0.08391755,0.026648976,0.107817635,-11.475,-45.09375,-24.487501,0.16926108,0.184008,0.6868933,995.2121, , , , 
2025-09-28 19:12:41.656,0.10049855,5.151747,8.035098,0.013668099,-0.06498074,0.10598504,-12.150001,-45.65625,-25.462502,0.1710979,0.18478782,0.6878558,995.2099, , , , 
2025-09-28 19:12:41.676,0.27996024,5.0440702,8.372486,-0.0730747,-0.01244637,0.07116575,-12.39375,-45.318752,-24.225,0.17241457,0.18444297,0.68838394,995.2099, , , , 
2025-09-28 19:12:41.697,0.050249275,4.948357,9.01137,-0.0730747,0.08834632,0.051007207,-12.88125,-45.506252,-23.7,0.1721911,0.1836829,0.6892286,995.2082, , , , 
2025-09-28 19:12:41.718,0.08135597,4.996214,9.126225,0.006948587,0.025427246,0.043065965,-12.69375,-45.975002,-23.7,0.17159888,0.18349434,0.6898453,995.2082, , , , 
2025-09-28 19:12:41.735,0.023928227,5.0009995,8.834301,0.06253728,-0.030161448,0.00641408,-14.85,-45.825,-23.625,0.17199148,0.1833777,0.6900849,995.2072, , , , 
2025-09-28 19:12:41.755,-0.15792629,5.0177493,8.520842,0.049709123,-0.016111558,-0.013133593,-14.26875,-44.4,-23.775002,0.17282116,0.18362159,0.6899194,995.2072, , , , 
2025-09-28 19:12:41.776,-0.11724831,4.9770713,8.492127,0.024663666,0.015042545,-0.019853106,-13.556251,-45.300003,-25.031252,0.17318045,0.18404067,0.6897302,995.2094, , , , 
2025-09-28 19:12:41.795,-0.086141616,4.900501,8.508878,-0.007101303,0.025427246,-0.03451386,-10.743751,-45.99375,-26.531252,0.17327112,0.18453111,0.6895375,995.2094, , , , 
2025-09-28 19:12:41.815,-0.10289137,4.7712884,8.781659,-0.012599086,0.026038112,-0.031459536,-13.743751,-46.0875,-23.587502,0.17285974,0.18477227,0.68933487,995.2165, , , , 
2025-09-28 19:12:41.835,0.031106694,4.7138605,8.9108715,0.005726857,0.020540329,-0.032070402,-13.368751,-45.037502,-24.45,0.17257886,0.18470302,0.68926525,995.2165, , , , 
2025-09-28 19:12:41.856,-0.009571291,4.802395,8.779266,0.022831071,0.040088,-0.03695732,-13.14375,-45.28125,-22.9125,0.1723822,0.18458931,0.6891665,995.2165, , , , 
2025-09-28 19:12:41.875,-0.16510476,4.912465,8.475378,-0.013820816,0.077961616,-0.038789913,-13.51875,-45.693752,-23.325,0.17185855,0.18537383,0.6889545,995.2121, , , , 
2025-09-28 19:12:41.895,-0.24885355,4.814359,8.645268,-0.022983788,0.055970486,-0.024740024,-11.868751,-47.11875,-24.7875,0.1712846,0.18590699,0.68884045,995.21454, , , , 
2025-09-28 19:12:41.915,-0.16749759,4.8239303,8.836694,-0.0028252497,0.04253146,-0.013744458,-12.431251,-44.8125,-25.181252,0.17068003,0.18619807,0.68880594,995.21454, , , , 
2025-09-28 19:12:41.936,-0.06460621,4.8358946,8.894122,0.046654798,0.039477136,-0.022907428,-13.70625,-45.09375,-21.6375,0.17045574,0.18633407,0.68880165,995.2089, , , , 
2025-09-28 19:12:41.956,-0.15074782,4.9579287,8.571091,0.09124792,-0.003894263,-0.023518294,-12.825001,-45.862503,-23.38125,0.17076133,0.18695319,0.68856394,995.2089, , , , 
2025-09-28 19:12:41.975,-0.059820566,5.058427,8.480164,0.083306685,-0.016111558,-0.029016078,-13.2375,-46.537502,-23.75625,0.17157482,0.18762709,0.6882051,995.2094, , , , 
2025-09-28 19:12:41.995,-0.11246266,5.1158547,8.446664,0.06864593,0.005268709,-0.043065965,-12.20625,-45.693752,-22.21875,0.17225689,0.18812369,0.68790144,995.2094, , , , 
2025-09-28 19:12:42.016,-0.11485548,5.063213,8.446664,0.02527453,0.009544762,-0.068722285,-12.375001,-46.575,-22.9125,0.17313872,0.1892035,0.687191,995.2087, , , , 
2025-09-28 19:12:42.035,-0.14596218,4.955536,8.504091,0.006948587,0.010155627,-0.08032872,-11.587501,-47.100002,-23.737501,0.17329378,0.18952876,0.686796,995.2087, , , , 
2025-09-28 19:12:42.056,-0.2727818,4.8909297,8.657232,-0.0022143847,0.0193186,-0.07299834,-13.14375,-46.65,-22.06875,0.17318118,0.18973477,0.6864115,995.2087, , , , 
2025-09-28 19:12:42.076,-0.3182454,4.800002,8.693125,0.033215772,-0.022220206,-0.04734202,-13.668751,-45.600002,-21.768751,0.1727187,0.19000727,0.6856932,995.1999, , , , 
2025-09-28 19:12:42.097,-0.3493521,4.8239303,8.609376,0.033826638,-0.011835505,-0.029016078,-12.656251,-45.0,-22.050001,0.172742,0.19014521,0.6853323,995.1984, , , , 
2025-09-28 19:12:42.115,-0.3684947,4.871787,8.575876,0.033826638,0.01809687,-0.016187917,-12.88125,-46.875,-22.85625,0.17264946,0.19050442,0.6851025,995.1984, , , , 
2025-09-28 19:12:42.136,-0.3684947,4.941179,8.446664,0.041157015,-0.009392046,-0.010690134,-12.918751,-45.525,-21.54375,0.17262879,0.19103342,0.6849156,995.20575, , , , 
2025-09-28 19:12:42.155,-0.21296121,4.9340005,8.398808,0.016722424,-0.035048366,-0.022907428,-12.656251,-45.73125,-22.95,0.17299727,0.19132783,0.68465763,995.20575, , , , 
2025-09-28 19:12:42.176,-0.3062813,4.8765726,8.425129,-0.0077121677,0.00160352,-0.03451386,-11.53125,-45.35625,-24.468752,0.17318743,0.1913401,0.68445414,995.1989, , , , 
2025-09-28 19:12:42.195,-0.40438703,4.8598228,8.583055,-0.007101303,0.033368487,-0.024740024,-10.63125,-45.375,-25.48125,0.17269562,0.19160666,0.68423396,995.1989, , , , 
2025-09-28 19:12:42.216,-0.35653058,4.847859,8.516056,0.017333288,0.0040469794,-0.014966187,-11.34375,-45.84375,-23.0625,0.17227162,0.19192791,0.6841055,995.20306, , , , 
2025-09-28 19:12:42.235,-0.2632105,4.912465,8.492127,0.013668099,-0.033215772,-0.01924224,-11.6625,-46.21875,-26.250002,0.17239554,0.19207375,0.6839134,995.20306, , , , 
2025-09-28 19:12:42.255,-0.31106696,4.924429,8.492127,0.003894263,-0.0045051277,-0.014355322,-13.837501,-47.23125,-22.575,0.1726112,0.19206615,0.68371755,995.2045, , , , 
2025-09-28 19:12:42.275,-0.2440679,4.962714,8.420342,-0.0028252497,-0.023441937,-0.008857539,-13.200001,-45.54375,-22.893751,0.1726125,0.1921888,0.68365747,995.2045, , , , 
2025-09-28 19:12:42.296,-0.11006984,4.9292145,8.384451,-0.02481638,-0.047876526,-0.026572619,-12.31875,-47.68125,-22.556252,0.17284921,0.19205514,0.68355423,995.2045,37.88836546,127.73986226,149.245849609375,0.0
2025-09-28 19:12:42.316,-0.09332009,4.749753,8.7577305,-0.06024654,-2.290743E-4,-0.04978548,-12.637501,-44.98125,-23.1375,0.17297986,0.19109558,0.6832918,995.20135, , , , 
2025-09-28 19:12:42.336,-0.15553348,4.7306104,8.903693,-0.03825541,0.021762058,-0.046731155,-12.843751,-45.881252,-21.993752,0.172357,0.19042347,0.6831985,995.2111, , , , 
2025-09-28 19:12:42.355,-0.2009971,4.8047876,8.796016,0.014889829,-0.0051159924,-0.035124727,-9.168751,-45.35625,-25.500002,0.17178531,0.19002955,0.6830844,995.2111, , , , 
2025-09-28 19:12:42.376,-0.23688944,4.9052863,8.377272,0.04176788,-0.04054615,-0.03329213,-12.76875,-46.36875,-22.893751,0.17200686,0.18998967,0.6827435,995.2143, , , , 
2025-09-28 19:12:42.396,-0.22013968,4.9770713,8.169097,0.016722424,-0.047876526,-0.038179047,-12.356251,-46.55625,-24.31875,0.17232244,0.19006242,0.6825437,995.2143, , , , 
2025-09-28 19:12:42.415,-0.18185452,4.95075,8.484949,-0.08956805,0.022983788,-0.06811142,-12.8625,-46.85625,-24.243752,0.1726105,0.18990284,0.6820095,995.2048, , , , 
2025-09-28 19:12:42.435,-0.33499518,4.883751,8.76491,-0.09750929,0.05535962,-0.066889696,-9.9375,-45.5625,-25.237501,0.17189315,0.18974023,0.6818485,995.2048, , , , 
2025-09-28 19:12:42.455,-0.29192436,4.833502,9.068798,-0.05169443,0.0193186,-0.060781047,-12.7875,-47.11875,-22.6875,0.17100339,0.18955624,0.68171114,995.2048, , , , 
2025-09-28 19:12:42.475,-0.2847459,4.8622155,8.760123,0.056428634,-0.051541716,-0.044287696,-14.025001,-45.881252,-21.712502,0.17046808,0.18913794,0.6812722,995.2011, , , , 
2025-09-28 19:12:42.495,-0.29910284,4.989035,8.3174515,0.045433067,-0.06498074,-0.03573559,-12.750001,-45.600002,-23.868752,0.17114195,0.1892124,0.6807969,995.2133, , , , 
2025-09-28 19:12:42.516,-0.1268196,5.046463,8.209774,-0.0077121677,-0.039935283,-0.04734202,-13.9125,-47.71875,-23.925001,0.17194274,0.18940453,0.6803409,995.2133, , , , 
2025-09-28 19:12:42.536,-0.1363909,4.9842496,8.3581295,-0.050472703,-0.0063377223,-0.0736092,-12.31875,-47.68125,-22.556252,0.17224061,0.18936434,0.6800306,995.22015, , , , 
2025-09-28 19:12:42.556,-0.2536392,4.8263235,8.6141615,-0.056581352,0.0028252497,-0.083383046,-10.387501,-45.375,-22.275002,0.17177385,0.18911743,0.6793508,995.22015, , , , 
2025-09-28 19:12:42.575,-0.36131623,4.8454657,8.721839,-0.05169443,-0.013057235,-0.07849612,-10.293751,-45.09375,-24.45,0.17135337,0.18889736,0.67900693,995.2087, , , , 
2025-09-28 19:12:42.595,-0.4139583,4.76411,8.740981,-0.018707734,-0.03932442,-0.06750056,-11.175,-43.575,-24.300001,0.17073543,0.18848166,0.67845076,995.2087, , , , 
2025-09-28 19:12:42.615,-0.5383851,4.7401814,8.590233,0.005726857,-0.07658717,-0.041844238,-10.6125,-46.518753,-23.268751,0.17055246,0.18821615,0.6779665,995.2089, , , , 
2025-09-28 19:12:42.636,-0.2321038,4.8622155,8.355737,0.046654798,-0.18043418,0.014355322,-12.1125,-45.1875,-22.25625,0.17107129,0.1878591,0.67755044,995.2089, , , , 
2025-09-28 19:12:42.655,0.11724831,4.8454657,7.982456,0.07353285,-0.27084216,0.01802051,-11.137501,-47.0625,-24.112501,0.17316476,0.1868215,0.6772093,995.19965, , , , 
2025-09-28 19:12:42.676,0.45224348,4.7401814,7.2215385,0.046043932,-0.36002842,0.013133593,-11.887501,-47.1375,-24.337502,0.17642881,0.18522385,0.6767103,995.19965, , , , 
2025-09-28 19:12:42.696,1.0360922,4.426722,6.7405815,-0.012599086,-0.5493965,-0.013744458,-9.243751,-45.0,-24.581251,0.17969401,0.18308216,0.6762203,995.19965, , , , 
2025-09-28 19:12:42.715,0.8925229,3.7543387,6.314659,-0.014431681,-1.0930662,-0.031459536,-10.575001,-44.381252,-25.406252,0.18626866,0.17701443,0.6749033,995.1967, , , , 
2025-09-28 19:12:42.736,0.26799613,2.9886355,4.8358946,0.23907721,-2.173686,0.3252855,-15.20625,-45.131252,-20.550001,0.20308937,0.16141336,0.671364,995.1796, , , , 
2025-09-28 19:12:42.756,0.29192436,2.9575288,4.6707897,0.2598466,-2.2524874,0.36193737,-11.925,-46.40625,-22.368752,0.20705308,0.15805444,0.6707325,995.1796, , , , 
2025-09-28 19:12:42.777,-0.33499518,2.1774685,0.021535404,0.3050506,-3.9415286,1.104749,-16.96875,-45.300003,-22.2,0.25254998,0.119842365,0.6653446,995.16595, , , , 
2025-09-28 19:12:42.795,1.0911272,1.6941184,-1.1820544,-0.03886627,-4.522461,1.3790272,-19.331251,-45.09375,-17.94375,0.2823342,0.08985353,0.6624297,995.16595, , , , 
2025-09-28 19:12:42.815,1.591227,1.0289137,-1.713261,-0.39988735,-4.703888,1.5836669,-18.112501,-43.575,-20.79375,0.3048786,0.063131064,0.65980834,995.14667, , , , 
2025-09-28 19:12:42.836,2.4215364,0.15553348,-1.9142581,-1.0755038,-4.9952703,2.00272,-24.300001,-44.11875,-15.637501,0.3394516,0.011640337,0.6553878,995.14667, , , , 
2025-09-28 19:12:42.856,5.6039906,-0.80159557,0.9284152,-1.7737223,-4.562778,2.3710716,-24.225,-41.737503,-17.475,0.36155277,-0.036896843,0.65279645,995.12225, , , , 
2025-09-28 19:12:42.876,7.183254,-1.2203395,3.7806597,-1.9154428,-3.573788,2.2977679,-28.612501,-42.318752,-16.837502,0.37188607,-0.073064364,0.6522507,995.12225, , , , 
2025-09-28 19:12:42.896,4.369294,-1.7898313,3.1800613,-1.7969351,-2.6361105,2.356411,-30.000002,-40.48125,-16.0125,0.379073,-0.124247454,0.65392965,995.1237, , , , 
2025-09-28 19:12:42.915,3.0604203,-2.861816,1.6582261,-1.942321,-2.8859544,2.847546,-36.28125,-37.518753,-15.993751,0.38103962,-0.16242653,0.65720695,995.1237, , , , 
2025-09-28 19:12:42.936,4.5918264,-3.9457645,2.0482562,-2.0987022,-3.5114799,3.3710573,-39.525,-34.3875,-11.962501,0.3824091,-0.19510017,0.66003525,995.1254, , , , 
2025-09-28 19:12:42.955,7.743174,-5.6757755,1.9453648,-2.0974805,-4.7503138,3.9299986,-40.95,-30.675001,-13.575001,0.39025345,-0.27238017,0.6620747,995.1254, , , , 
2025-09-28 19:12:42.976,10.628919,-6.719046,1.9764715,-2.28074,-4.6617384,4.1144795,-44.25,-29.306252,-9.6,0.3953165,-0.31496108,0.6606187,995.12714, , , , 
2025-09-28 19:12:42.996,12.4833555,-7.1042905,3.6777685,-2.488434,-3.8266861,4.0338454,-45.825,-26.118752,-7.9125004,0.3963529,-0.37013397,0.65767,995.12714, , , , 
2025-09-28 19:12:43.016,11.330015,-7.793423,4.6875396,-2.321057,-2.6269476,3.769952,-49.443752,-21.28125,-5.49375,0.38746247,-0.42919868,0.65460443,995.143, , , , 
2025-09-28 19:12:43.035,9.786645,-9.571291,3.1680973,-2.3320527,-2.0722823,3.9269443,-50.193752,-17.53125,-2.5500002,0.37795407,-0.4593645,0.65407515,995.143, , , , 
2025-09-28 19:12:43.055,10.762917,-10.27478,3.7710886,-2.4505603,-1.8554254,4.167014,-49.612503,-14.606251,-1.8375001,0.36509642,-0.48871365,0.6541156,995.143, , , , 
2025-09-28 19:12:43.075,12.859029,-10.863415,4.9028935,-2.1206934,-1.771737,4.071719,-49.256252,-8.3625,-0.54375005,0.33490413,-0.544202,0.65381813,995.1606, , , , 
2025-09-28 19:12:43.095,14.366508,-11.179267,4.06062,-1.9020039,-1.581758,3.7100873,-48.412502,-3.54375,-1.5187501,0.31102833,-0.5833782,0.6526108,995.1694, , , , 
2025-09-28 19:12:43.115,14.08894,-11.609976,4.1611185,-1.8006003,-1.4204897,3.4095418,-49.3875,-0.80625004,2.7562501,0.297579,-0.6039601,0.6508964,995.1694, , , , 
2025-09-28 19:12:43.136,12.437892,-11.9019,4.3262234,-1.5000548,-1.3563489,3.2067347,-50.2125,3.3187501,5.2312503,0.27615482,-0.63380224,0.6474923,995.17206, , , , 
2025-09-28 19:12:43.156,11.990435,-11.748759,3.888337,-1.2929716,-1.4498112,3.1877978,-49.7625,3.99375,4.36875,0.2603015,-0.6544839,0.6452535,995.17206, , , , 
2025-09-28 19:12:43.176,12.143575,-11.545369,3.9050865,-1.1793509,-1.4656937,3.1499243,-49.65,6.2250004,6.6937504,0.2528696,-0.6640145,0.6442277,995.17206, , , , 
2025-09-28 19:12:43.196,11.980863,-9.9756775,4.2520456,-0.6332377,-1.1339941,2.7003279,-47.25,10.931251,8.19375,0.23264506,-0.6874592,0.6423656,995.1745, , , , 
2025-09-28 19:12:43.216,10.360922,-9.803394,3.2877383,-0.22823435,-0.94645864,2.4749186,-46.78125,14.587501,7.3125005,0.22083576,-0.697584,0.64344406,995.1774, , , , 
2025-09-28 19:12:43.236,9.2793665,-9.973285,1.7659031,0.11995857,-1.0332015,2.3961172,-43.331253,13.575001,7.3125005,0.21050644,-0.7041803,0.6466544,995.1774, , , , 
2025-09-28 19:12:43.255,9.537791,-9.585648,0.4211368,0.24335326,-1.170646,2.3179264,-46.93125,17.775002,10.70625,0.1999307,-0.71048295,0.6513617,995.1789, , , , 
2025-09-28 19:12:43.276,9.944571,-8.975478,-0.2727818,0.20364705,-1.0295362,2.071137,-43.7625,17.38125,9.150001,0.19441925,-0.71361804,0.6537669,995.1789, , , , 
2025-09-28 19:12:43.296,9.5665045,-8.834301,-0.56470615,0.14072797,-0.8438333,1.8359541,-43.631252,18.975,11.981251,0.189462,-0.71633714,0.65558225,995.1789,37.88836546,127.73986226,149.245849609375,0.0
2025-09-28 19:12:43.316,8.482556,-8.908479,-1.0313065,-0.10545053,-0.28916812,1.561065,-42.206253,19.3875,10.725,0.17883481,-0.72120416,0.6576924,995.1584, , , , 
2025-09-28 19:12:43.336,8.178668,-8.580662,-0.485743,-0.34674212,0.10728313,1.3820815,-41.081253,22.21875,12.150001,0.16958138,-0.7249181,0.6577269,995.14984, , , , 
2025-09-28 19:12:43.355,7.776674,-8.329415,0.45224348,-0.4096612,0.32841617,1.1798853,-39.675003,23.362501,11.775001,0.15944308,-0.72893214,0.65678626,995.14984, , , , 
2025-09-28 19:12:43.375,7.4392858,-8.408379,0.6149554,-0.33208138,0.4249328,1.0057888,-39.412502,24.525002,10.6125,0.14703982,-0.7329694,0.65580875,995.13544, , , , 
2025-09-28 19:12:43.396,7.391429,-8.298309,0.45224348,-0.30947936,0.50923216,0.9166026,-40.125,26.175001,12.281251,0.14231823,-0.7342298,0.65558237,995.13544, , , , 
2025-09-28 19:12:43.416,7.389036,-7.9776707,0.68195444,-0.3333031,0.7560215,0.6814197,-39.54375,26.98125,12.806251,0.12825961,-0.7373476,0.6548883,995.1425, , , , 
2025-09-28 19:12:43.435,7.2957163,-7.877172,0.91405827,-0.31986406,0.77129316,0.6093376,-39.84375,26.94375,13.14375,0.12595645,-0.737777,0.65475273,995.1425, , , , 
2025-09-28 19:12:43.456,6.7764735,-8.209774,1.6701902,-0.015042545,0.211741,0.40408704,-40.6875,27.000002,12.0,0.1138076,-0.7392781,0.654701,995.1503, , , , 
2025-09-28 19:12:43.478,6.506085,-8.097312,0.97866446,0.32582,-0.2494619,0.2855793,-40.2,27.281252,12.69375,0.11186963,-0.73825884,0.65642303,995.1503, , , , 
2025-09-28 19:12:43.496,6.45105,-7.958528,0.5096712,0.41500625,-0.38263044,0.22937973,-41.49375,26.775002,13.012501,0.11219453,-0.737244,0.657773,995.1503, , , , 
2025-09-28 19:12:43.516,6.1232333,-7.783852,-1.026521,0.44677123,-0.20059273,0.07055488,-40.8375,29.212502,12.187501,0.11560218,-0.7333351,0.6623636,995.15424, , , , 
2025-09-28 19:12:43.537,6.1040907,-7.8484583,-1.4261223,0.38873908,-0.08086322,0.04978548,-39.16875,27.393751,12.88125,0.11646027,-0.7320128,0.6637922,995.15424, , , , 
2025-09-28 19:12:43.556,6.3481584,-7.692925,-1.6773686,-0.01809687,0.43409577,-0.06383537,-40.10625,29.175001,11.64375,0.11577576,-0.7294305,0.66629934,995.14886, , , , 
2025-09-28 19:12:43.575,6.6089764,-7.62114,-1.0552348,-0.1824195,0.41760245,-0.16584979,-38.475002,27.73125,10.33125,0.114547335,-0.72944754,0.6659562,995.1391, , , , 
2025-09-28 19:12:43.596,7.1162543,-7.556534,0.021535404,-0.2013563,0.1995237,-0.30512697,-39.506252,27.6375,9.675,0.114317246,-0.72998154,0.6646292,995.1391, , , , 
2025-09-28 19:12:43.616,7.4344997,-7.503892,1.2969099,-0.0040469794,-0.22197299,-0.5006037,-39.6375,28.48125,10.40625,0.11830296,-0.7300877,0.6630108,995.1452, , , , 
2025-09-28 19:12:43.636,7.496713,-7.5230346,1.5002998,0.05948296,-0.30627233,-0.5195405,-39.9,26.587502,12.093751,0.11967533,-0.7299118,0.6628405,995.1452, , , , 
2025-09-28 19:12:43.657,9.683753,-7.6019974,1.4452649,0.5946005,-0.65446526,-0.67836535,-40.95,25.725,12.093751,0.13378657,-0.7255377,0.6646465,995.1579, , , , 
2025-09-28 19:12:43.676,9.683753,-7.6019974,1.4452649,0.5946005,-0.65446526,-0.67836535,-40.95,25.725,12.093751,0.13378657,-0.7255377,0.6646465,995.1579, , , , 
2025-09-28 19:12:43.697,11.68176,-8.628518,0.14356937,0.81390095,-0.45226902,-1.1328487,-38.71875,25.837502,10.931251,0.15477347,-0.71576965,0.6702619,995.1579, , , , 
2025-09-28 19:12:43.716,11.212767,-8.458628,-0.64606214,0.6190351,-0.16332997,-1.5012002,-40.518753,24.7875,10.087501,0.17445923,-0.7053214,0.67474324,995.174, , , , 
2025-09-28 19:12:43.736,10.430314,-8.362915,-0.047856454,0.46265373,0.039477136,-1.705229,-41.287502,24.712502,10.63125,0.18755715,-0.6987866,0.6760328,995.16864, , , , 
2025-09-28 19:12:43.756,9.765109,-8.219346,0.552742,0.4486038,0.112780906,-1.8188499,-41.2125,24.337502,10.35,0.20025222,-0.69210386,0.67667145,995.16864, , , , 
2025-09-28 19:12:43.776,9.389436,-7.920243,0.930808,0.5304597,0.030314164,-1.8609996,-41.98125,22.650002,10.05,0.21000144,-0.6867064,0.6770517,995.17255, , , , 
2025-09-28 19:12:43.795,9.999606,-7.865208,0.74177504,0.6972258,-0.2323577,-1.9795073,-42.99375,22.143751,12.50625,0.22792503,-0.6763795,0.67804426,995.17255, , , , 
2025-09-28 19:12:43.816,10.695917,-8.224132,0.37567315,0.7424298,-0.41134107,-2.0821326,-45.393753,19.03125,13.25625,0.24051948,-0.66956353,0.678397,995.17255, , , , 
2025-09-28 19:12:43.836,10.829915,-9.504292,-0.6221339,0.63186324,-0.63919365,-2.4309363,-44.4,16.893751,14.812501,0.2702742,-0.65529615,0.6768623,995.184, , , , 
2025-09-28 19:12:43.856,10.69831,-9.559326,-0.70588267,0.60620695,-0.6428588,-2.4480405,-46.575,16.800001,13.031251,0.2702742,-0.65529615,0.6768623,995.184, , , , 
2025-09-28 19:12:43.875,10.63849,-9.183653,-0.5455636,0.07231112,-0.07903063,-2.3765695,-47.1375,12.4125,10.875,0.30466646,-0.6406155,0.6699121,995.1901, , , , 
2025-09-28 19:12:43.896,11.526227,-8.338987,0.83748794,-0.18669555,0.60635966,-2.4981315,-48.862503,10.481251,12.243751,0.32195356,-0.6312658,0.6635051,995.1882, , , , 
2025-09-28 19:12:43.916,11.696117,-8.123632,1.6438692,-0.1928042,0.86475545,-2.6306891,-47.25,9.65625,10.725,0.3274121,-0.6270468,0.6609736,995.1882, , , , 
2025-09-28 19:12:43.935,10.305887,-8.087741,2.0554347,0.3068832,1.1665226,-3.0039275,-48.018753,4.36875,10.35,0.34193042,-0.6093851,0.6551445,995.19745, , , , 
2025-09-28 19:12:43.956,9.131011,-8.008778,1.1126626,0.5011382,0.7438042,-3.0735662,-50.100002,2.2687502,12.543751,0.35342613,-0.59370965,0.6523777,995.19745, , , , 
2025-09-28 19:12:43.975,8.583055,-7.6737823,0.849452,0.5500074,0.25816673,-3.0815074,-51.093754,-0.056250002,9.525001,0.36860362,-0.57810163,0.6479155,995.21063, , , , 
2025-09-28 19:12:43.996,7.9561353,-7.503892,1.1796615,0.59032446,-0.08880447,-3.0845616,-50.456253,-4.8375,9.431251,0.38186812,-0.5669493,0.64319175,995.21063, , , , 
2025-09-28 19:12:44.016,7.0085773,-7.4679995,1.2107682,0.70333445,-0.4088976,-3.0234752,-50.925003,-4.78125,12.562501,0.40131295,-0.55243754,0.63571787,995.21063, , , , 
2025-09-28 19:12:44.037,5.1254263,-6.8985076,0.03589234,0.6709586,-0.5255728,-2.6740606,-50.41875,-8.325001,9.31875,0.4317112,-0.53182256,0.6233213,995.2221, , , , 
2025-09-28 19:12:44.055,4.4602213,-6.3625154,-0.5192425,0.50419253,-0.42233664,-2.3790128,-48.15,-11.043751,7.2187505,0.44945642,-0.5195564,0.61523414,995.2211, , , , 
2025-09-28 19:12:44.077,3.9338005,-5.761917,-0.5814559,0.30443972,-0.2769508,-2.1224496,-49.687504,-14.1,10.03125,0.46410555,-0.50901955,0.60741353,995.2211, , , , 
2025-09-28 19:12:44.096,3.3116665,-5.2498527,-0.4235296,0.12851068,-0.11384992,-1.8616104,-48.768753,-16.743752,9.918751,0.47278777,-0.50222135,0.6019101,995.2211, , , , 
2025-09-28 19:12:44.115,2.8594232,-4.7856455,0.0071784677,-0.025427246,-0.0655916,-1.4364486,-49.068752,-18.88125,11.00625,0.484987,-0.49139407,0.59239453,995.2192, , , , 
2025-09-28 19:12:44.136,2.3425734,-4.907679,0.1698904,-0.026648976,-0.22441645,-1.1511747,-47.30625,-18.956251,10.51875,0.4912933,-0.48647162,0.5867186,995.2226, , , , 
2025-09-28 19:12:44.155,1.7036897,-5.0177493,0.1052842,-0.013820816,-0.35086545,-0.7999274,-48.750004,-20.118752,11.962501,0.49691644,-0.48357615,0.5816093,995.2226, , , , 
2025-09-28 19:12:44.176,1.2251252,-5.2666025,-0.25124636,-0.037033677,-0.33681557,-0.4327977,-47.04375,-20.41875,11.19375,0.5002599,-0.48279104,0.5785501,995.2211, , , , 
2025-09-28 19:12:44.195,0.9738788,-5.814559,-0.5240282,-0.08895718,-0.3050506,-0.023518294,-46.3125,-21.112501,12.075001,0.5025646,-0.4838032,0.5760085,995.2211, , , , 
2025-09-28 19:12:44.216,0.7920243,-6.9655066,-0.9092726,-0.20685409,-0.2775617,0.74617136,-47.60625,-21.618752,13.481251,0.5006695,-0.49041802,0.5757891,995.22284, , , , 
2025-09-28 19:12:44.236,0.6436693,-8.054241,-1.4380864,-0.3278053,-0.27939427,1.3136647,-45.112503,-22.48125,11.887501,0.4956799,-0.49873427,0.5778488,995.22284, , , , 
2025-09-28 19:12:44.256,1.2131611,-9.379865,-1.1581261,-0.47624546,-0.22319472,1.96729,-46.6875,-18.65625,12.13125,0.48692045,-0.5109043,0.5815468,995.2138, , , , 
2025-09-28 19:12:44.275,1.8113668,-10.025927,-0.83030945,-0.5495492,-0.02527453,2.527453,-47.60625,-16.743752,10.425,0.4771593,-0.522036,0.58597666,995.2138, , , , 
2025-09-28 19:12:44.296,2.7469604,-10.234102,-0.42592242,-0.5929206,0.06269,2.95628,-47.15625,-14.475,11.94375,0.4645467,-0.5343767,0.59190434,995.2138,37.88836546,127.73986226,149.245849609375,0.0
2025-09-28 19:12:44.315,4.2999024,-10.461421,0.4833502,-0.47319114,-0.04421134,3.5891361,-49.593754,-13.2375,13.9875,0.43355918,-0.5613624,0.6063394,995.20844, , , , 
2025-09-28 19:12:44.336,6.5539412,-10.7844515,0.37328035,-0.2984838,-0.49991646,3.8579166,-47.34375,-10.368751,10.35,0.4116546,-0.5802915,0.6164984,995.21185, , , , 
2025-09-28 19:12:44.356,8.740981,-10.657632,0.03589234,-0.14393501,-0.65263265,3.7815585,-48.281254,-7.51875,13.668751,0.39125693,-0.599112,0.6255817,995.21185, , , , 
2025-09-28 19:12:44.375,9.164511,-10.947164,-0.60777694,-0.12011129,-0.6281981,3.543932,-49.85625,-2.2125,14.45625,0.3724827,-0.61577284,0.6334204,995.21136, , , , 
2025-09-28 19:12:44.396,8.437093,-11.382657,-0.61016977,-0.1164461,-0.6288089,3.3881614,-47.53125,1.1625,12.7875,0.3590343,-0.6270111,0.6383504,995.21136, , , , 
2025-09-28 19:12:44.416,8.3581295,-12.201003,-0.12203395,-0.029092435,-0.6227003,3.435198,-48.693752,5.11875,15.76875,0.3323976,-0.64747995,0.64689857,995.2116, , , , 
2025-09-28 19:12:44.436,9.444471,-12.619746,-0.17706887,-0.037033677,-0.4143954,3.4968953,-47.737503,7.5937505,15.225,0.3135253,-0.6596321,0.6525429,995.2116, , , , 
2025-09-28 19:12:44.458,9.994821,-12.457035,0.1363909,-0.13599378,-0.0026725335,3.454135,-47.287502,11.3625,15.731251,0.29259187,-0.67070514,0.65787184,995.21674, , , , 
2025-09-28 19:12:44.476,11.169696,-12.1459675,0.09332009,-0.3675115,0.6918807,3.354564,-45.0,13.218751,15.243751,0.27428994,-0.67836267,0.6616969,995.21674, , , , 
2025-09-28 19:12:44.496,10.667203,-11.454442,0.45224348,-0.44448048,0.9203442,3.082729,-44.943752,18.337502,12.468751,0.24739295,-0.68758416,0.6661394,995.21967, , , , 
2025-09-28 19:12:44.516,10.5284195,-10.899307,0.46181476,-0.49884745,0.83726656,2.983769,-43.425003,19.893751,10.21875,0.22755992,-0.6937961,0.6687185,995.21967, , , , 
2025-09-28 19:12:44.535,10.5690975,-9.755538,0.9762716,-0.53549933,0.8598685,2.6313,-41.362503,21.45,11.2875,0.1854262,-0.70702326,0.67174447,995.2143, , , , 
2025-09-28 19:12:44.555,9.853643,-9.3511505,0.91884387,-0.5929206,1.2343286,2.4181082,-42.581253,22.706251,11.6625,0.16167152,-0.71318036,0.6726477,995.2143, , , , 
2025-09-28 19:12:44.575,9.312865,-9.269794,1.0001999,-0.67050046,1.4805071,2.337474,-38.98125,24.45,9.637501,0.14302374,-0.71738964,0.67292714,995.2177, , , , 
2025-09-28 19:12:44.597,9.77468,-8.348558,1.0839486,-0.73830646,1.6142865,2.189034,-40.40625,26.175001,10.6125,0.110962115,-0.7238582,0.67251575,995.2177, , , , 
2025-09-28 19:12:44.617,9.944571,-7.3866434,1.0073783,-0.8207732,1.8225914,1.9214752,-37.3125,29.625002,7.4625,0.08558337,-0.72865,0.6710196,995.22577, , , , 
2025-09-28 19:12:44.636,8.181061,-7.0779696,1.0456635,-0.76396275,1.7376813,1.7467679,-37.875,29.681252,7.36875,0.061104573,-0.7329024,0.6685737,995.22577, , , , 
2025-09-28 19:12:44.655,7.1545396,-6.9583282,1.2394822,-0.6601158,1.4976114,1.9501858,-34.96875,29.625002,6.9187503,0.037859045,-0.73636305,0.6662039,995.2338, , , , 
2025-09-28 19:12:44.675,8.305488,-7.094719,1.9669002,-0.43715012,1.2935826,2.11573,-36.300003,32.456253,7.05,0.014620039,-0.7387165,0.66477484,995.2338, , , , 
2025-09-28 19:12:44.696,9.616755,-7.0325055,1.7706888,-0.16959134,0.9563852,2.003331,-33.131252,32.04375,5.8125,-0.001539526,-0.73915166,0.66488767,995.2338, , , , 
2025-09-28 19:12:44.716,10.262816,-6.6352973,0.6987042,2.290743E-4,0.6784417,1.8041891,-36.075,32.850002,7.93125,-0.019459296,-0.7383383,0.66624105,995.2419, , , , 
2025-09-28 19:12:44.735,12.086147,-6.0155563,-0.13160525,-0.09689843,-0.07658717,1.4052944,-31.837502,34.800003,5.2125,-0.037980705,-0.73721176,0.6680671,995.2453, , , , 
2025-09-28 19:12:44.756,13.375878,-6.096912,1.227518,0.029550584,-0.52068585,1.0155627,-30.7875,35.662502,5.2125,-0.043468546,-0.73734057,0.66862464,995.2453, , , , 
2025-09-28 19:12:44.775,14.4693985,-6.8219376,1.3830515,0.39240426,-1.0154864,0.51648617,-30.35625,36.43125,6.20625,-0.041851524,-0.73617405,0.67098355,995.2404, , , , 
2025-09-28 19:12:44.796,15.424135,-8.01117,0.37088752,0.5805506,-1.2402846,0.08277218,-29.456251,36.412502,4.55625,-0.036052275,-0.7341884,0.674101,995.2404, , , , 
2025-09-28 19:12:44.816,15.416956,-9.669396,-1.0480564,0.52618366,-1.08879,-0.7241802,-29.306252,36.54375,6.5437503,-0.015961386,-0.7295437,0.6805193,995.24554, , , , 
2025-09-28 19:12:44.836,15.376278,-10.782059,-1.0719845,0.19081889,-0.66851515,-1.2586869,-28.29375,36.412502,5.68125,-3.8750004E-4,-0.7277617,0.682352,995.24554, , , , 
2025-09-28 19:12:44.855,14.768501,-11.818151,0.74177504,0.05948296,-0.15355614,-1.7302744,-31.143751,36.862503,6.0937505,0.0153922215,-0.7272215,0.6817747,995.24945, , , , 
2025-09-28 19:12:44.875,14.22533,-11.468799,1.8664017,0.20670137,0.1476002,-2.1456625,-31.368752,34.96875,6.0750003,0.02711593,-0.72616786,0.68120044,995.24945, , , , 
2025-09-28 19:12:44.896,13.213166,-11.32523,1.9908284,0.40339983,0.20624322,-2.5219553,-30.993752,33.99375,7.0312505,0.03980727,-0.72382754,0.68116736,995.24945, , , , 
2025-09-28 19:12:44.916,11.475977,-11.655439,2.7302105,0.7387646,0.47319114,-2.925126,-34.275,32.8125,4.5,0.058878593,-0.71842945,0.6820364,995.25287, , , , 
2025-09-28 19:12:44.936,7.7503524,-12.394821,0.7609176,1.3258057,0.44020444,-3.1370962,-38.9625,29.1,3.6562502,0.08814028,-0.7032341,0.6869342,995.2707, , , , 
2025-09-28 19:12:44.955,7.678568,-11.79183,-0.6149554,1.4015529,-0.6117047,-3.055851,-39.300003,27.337502,2.71875,0.110650085,-0.69078743,0.69110924,995.2707, , , , 
2025-09-28 19:12:44.976,7.719246,-12.452249,-1.1437693,1.2237912,-1.6929353,-3.0387468,-42.075,25.312502,3.1125002,0.14053154,-0.68012047,0.69294435,995.2846, , , , 
2025-09-28 19:12:44.996,8.405986,-12.770494,-0.8709874,0.9018655,-2.2378268,-3.061349,-44.68125,24.900002,6.0375004,0.16696551,-0.67417014,0.69159865,995.2846, , , , 
2025-09-28 19:12:45.016,10.131211,-13.483556,1.119841,0.18654284,-2.0863323,-3.2745407,-43.800003,23.38125,5.11875,0.22227801,-0.6664997,0.6812138,995.2802, , , , 
2025-09-28 19:12:45.035,10.490134,-13.330415,2.4358935,-0.18791728,-1.2567779,-3.494452,-42.956253,21.956251,7.1062503,0.25547588,-0.6619808,0.6706538,995.2802, , , , 
2025-09-28 19:12:45.055,10.167104,-13.086347,2.725425,-0.30459246,-0.53656834,-3.7168067,-42.487503,17.25,10.425,0.28380972,-0.6559671,0.65935713,995.2797, , , , 
2025-09-28 19:12:45.075,10.057034,-12.918849,2.8354948,-0.33574656,-0.2635118,-3.9403832,-46.537502,14.587501,10.387501,0.30903217,-0.6477727,0.6478483,995.2797, , , , 
2025-09-28 19:12:45.096,9.372686,-13.423735,3.9649072,-0.08773545,-0.09063706,-4.2244353,-47.4375,8.887501,12.656251,0.33390513,-0.63700604,0.63593,995.2824, , , , 
2025-09-28 19:12:45.116,8.556734,-13.18206,3.6346977,0.068035066,0.011377357,-4.2696395,-47.5125,6.2812505,11.418751,0.34644005,-0.63023865,0.63028836,995.2824, , , , 
2025-09-28 19:12:45.136,7.109076,-12.894921,1.6917256,0.21036656,0.5959749,-4.288576,-49.10625,0.63750005,12.20625,0.3870215,-0.60076094,0.6126138,995.2956, , , , 
2025-09-28 19:12:45.155,6.7238317,-12.019148,1.5074782,0.27817255,0.62163126,-4.225657,-51.037502,-3.05625,13.556251,0.40688816,-0.5814243,0.6030014,995.2956, , , , 
2025-09-28 19:12:45.176,4.4578285,-12.80878,0.6364908,0.33070692,0.5147299,-4.3459973,-48.300003,-8.493751,11.418751,0.42253914,-0.5662262,0.5949837,995.31024, , , , 
2025-09-28 19:12:45.197,1.0767702,-11.4903345,-0.7728817,0.36430448,0.5794816,-4.014298,-49.687504,-12.4875,11.175,0.4463445,-0.5393885,0.5818018,995.31024, , , , 
2025-09-28 19:12:45.215,0.19381863,-10.73181,-0.47377887,0.20120358,0.292986,-3.4199264,-47.287502,-15.95625,9.731251,0.46280995,-0.5200733,0.57103175,995.30927, , , , 
2025-09-28 19:12:45.236,0.124426775,-9.669396,0.5623133,0.2690096,-0.15722132,-2.9947646,-48.281254,-18.7875,9.075001,0.47787532,-0.5048497,0.55964786,995.30927, , , , 
2025-09-28 19:12:45.257,-0.39720857,-9.425328,0.35174492,0.3117701,-0.21769693,-2.862207,-47.287502,-20.19375,11.212501,0.4854768,-0.49812496,0.55395615,995.30927, , , , 
2025-09-28 19:12:45.276,-3.505485,-9.554541,-1.2777673,0.098578304,0.234343,-2.0631957,-44.5125,-24.0,9.28125,0.50462294,-0.47997585,0.53930265,995.30975, , , , 
2025-09-28 19:12:45.295,-3.8811584,-11.140983,-0.7322037,-0.07612903,0.2551124,-1.1255183,-44.71875,-25.66875,10.931251,0.5112922,-0.46962556,0.5325364,995.3078,37.88836546,127.73986226,149.245849609375,0.0
2025-09-28 19:12:45.316,-3.4169507,-11.533405,-0.46181476,-0.077961616,0.1787543,-0.7345649,-44.081253,-26.325,8.75625,0.5120828,-0.46768025,0.53124297,995.3078, , , , 
2025-09-28 19:12:45.336,-3.8380876,-11.521441,-1.026521,-0.07002038,0.16714787,0.54947287,-43.96875,-26.550001,7.8187504,0.5094224,-0.46780625,0.5326604,995.3022, , , , 
2025-09-28 19:12:45.355,-3.790231,-11.662618,-1.1174482,-0.07612903,0.14821106,0.65881765,-43.48125,-24.88125,7.51875,0.50821745,-0.46871594,0.5336969,995.3022, , , , 
2025-09-28 19:12:45.376,-1.5888343,-12.330215,-1.7300107,-0.2410625,-0.60620695,2.2281294,-44.025,-26.062502,7.9500003,0.49499154,-0.4863018,0.5448056,995.28876, , , , 
2025-09-28 19:12:45.396,0.77766734,-11.112268,-0.72023964,-0.4078286,-0.5121338,3.010647,-47.0625,-23.41875,11.512501,0.48352268,-0.50478286,0.5527608,995.28876, , , , 
2025-09-28 19:12:45.424,3.9816568,-10.719846,1.1318051,-0.47746718,0.27160576,3.6135707,-47.775,-19.0125,11.19375,0.45510477,-0.5342462,0.5705243,995.26825, , , , 
2025-09-28 19:12:45.435,5.0416775,-11.145768,1.7060826,-0.3265836,0.29970554,3.7088654,-48.843754,-17.98125,8.775001,0.43712768,-0.5477057,0.5817113,995.26825, , , , 
2025-09-28 19:12:45.455,5.1996036,-11.284552,1.7443677,-0.28382304,0.270384,3.7223046,-48.91875,-16.125,8.83125,0.43712768,-0.5477057,0.5817113,995.26825, , , , 
2025-09-28 19:12:45.476,5.8863435,-13.430914,-0.19860429,0.2164752,-0.37652177,4.0485063,-49.500004,-10.21875,10.40625,0.39796308,-0.5765541,0.6086807,995.2631, , , , 
2025-09-28 19:12:45.496,6.6855464,-15.005391,-1.6606189,-0.03825541,-0.23113596,4.4449577,-52.18125,-6.01875,10.9125,0.36982858,-0.59770936,0.62696385,995.25433, , , , 
2025-09-28 19:12:45.515,8.066205,-15.323636,-1.2514462,-0.36201373,-0.010613776,4.664258,-47.04375,-1.0125,10.087501,0.34240913,-0.6158661,0.6400251,995.25433, , , , 
2025-09-28 19:12:45.536,10.112068,-14.490934,0.3684947,-0.6387355,0.17081307,4.600117,-49.050003,2.775,8.38125,0.3114806,-0.6342588,0.6507344,995.23627, , , , 
2025-09-28 19:12:45.558,10.147961,-13.366307,1.4285151,-0.68577206,0.36201373,4.360658,-47.287502,6.675,11.53125,0.27161896,-0.6547513,0.6610774,995.23627, , , , 
2025-09-28 19:12:45.577,9.41815,-12.904492,1.538585,-0.6869938,0.473802,4.2549787,-47.568752,11.512501,8.34375,0.23955661,-0.66860425,0.6678281,995.2238, , , , 
2025-09-28 19:12:45.595,9.516255,-12.674782,1.7994026,-0.66866785,0.48540843,4.200001,-46.518753,15.8625,6.4500003,0.20740013,-0.68088454,0.6733463,995.2238, , , , 
2025-09-28 19:12:45.616,9.829716,-12.399607,2.115255,-0.5623774,0.4249328,4.097986,-44.11875,18.243752,5.90625,0.17582154,-0.6913929,0.6778888,995.2282, , , , 
2025-09-28 19:12:45.636,10.47817,-12.21536,1.5744773,-0.38095054,0.30825764,3.968483,-44.41875,21.9375,6.80625,0.14585021,-0.69975674,0.6819598,995.2282, , , , 
2025-09-28 19:12:45.655,11.205588,-11.765509,0.74416786,-0.32352927,0.27221662,3.8212647,-43.350002,25.031252,6.675,0.11769952,-0.70620656,0.68549085,995.23846, , , , 
2025-09-28 19:12:45.675,12.279965,-10.877771,0.6412765,-0.38767007,0.38583747,3.5873034,-39.693752,25.7625,7.4812503,0.084315956,-0.7127487,0.688211,995.23846, , , , 
2025-09-28 19:12:45.696,12.736995,-9.846465,1.3016955,-0.39133525,0.48724103,3.2623234,-36.75,30.806252,5.9625,0.058826618,-0.7169958,0.6889619,995.23944, , , , 
2025-09-28 19:12:45.716,13.146168,-9.1669035,1.9788643,-0.22823435,0.3644572,2.9776604,-36.862503,31.9125,7.7625003,0.041322786,-0.71926665,0.6892771,995.23944, , , , 
2025-09-28 19:12:45.735,13.933406,-8.331808,1.7347964,0.19326234,0.26488623,2.554942,-34.40625,33.15,7.275,0.016935088,-0.71993124,0.6913779,995.2397, , , , 
2025-09-28 19:12:45.756,13.914264,-7.3986077,0.033499517,0.4125628,0.44020444,2.1224496,-30.88125,35.268753,6.7875004,7.271506E-4,-0.71757185,0.6948914,995.2397, , , , 
2025-09-28 19:12:45.777,14.333008,-7.1162543,-1.0313065,0.38018698,0.5067887,1.7950262,-30.375002,36.412502,8.0625,-0.013937913,-0.7145127,0.6983766,995.2409, , , , 
2025-09-28 19:12:45.795,15.833307,-7.503892,-1.6007984,0.35086545,0.2154062,1.3637556,-27.975,36.45,4.2562504,-0.025649669,-0.7117897,0.7011176,995.2409, , , , 
2025-09-28 19:12:45.816,16.247265,-7.32443,-2.239682,0.23174682,-0.10407609,0.68997175,-27.4125,38.60625,5.6062503,-0.0320338,-0.7092101,0.70368814,995.2338, , , , 
2025-09-28 19:12:45.835,15.9840555,-7.2502527,-2.3114667,-0.007101303,-0.12545635,0.15546508,-26.550001,38.34375,3.2250001,-0.031674,-0.7087311,0.70422864,995.2338, , , , 
2025-09-28 19:12:45.855,15.558133,-8.7673025,-1.0552348,-0.30581418,-0.022220206,-0.5067123,-27.206251,38.775,4.03125,-0.026644187,-0.7105371,0.7024544,995.22406, , , , 
2025-09-28 19:12:45.875,15.761522,-10.882557,0.50488555,-0.26855144,-0.2201404,-1.0210605,-25.48125,39.43125,5.68125,-0.01816284,-0.7130257,0.6998543,995.22406, , , , 
2025-09-28 19:12:45.895,15.653846,-10.437492,0.6891329,-0.14271328,-0.24335326,-1.5769475,-27.91875,37.443752,4.65,-0.005041003,-0.7145089,0.69798565,995.2204, , , , 
2025-09-28 19:12:45.916,14.567504,-9.882358,0.89730847,-0.21968225,0.11094832,-2.2690573,-27.656252,37.987503,3.6562502,0.011208602,-0.7154543,0.69580287,995.2204, , , , 
2025-09-28 19:12:45.936,11.933006,-11.097912,1.7706888,-0.15431972,0.46219558,-2.9013023,-32.1375,36.2625,6.0937505,0.028930625,-0.7159135,0.6925822,995.2326, , , , 
2025-09-28 19:12:45.955,9.8321085,-12.437892,1.9812572,0.098578304,0.21235187,-3.2220063,-30.843752,35.287502,4.1625004,0.048490237,-0.7144892,0.6895254,995.2326, , , , 
2025-09-28 19:12:45.975,9.162118,-13.509876,1.3710874,0.40095636,-0.5793289,-3.3875506,-33.09375,34.18125,3.3750002,0.079128996,-0.7096523,0.68676263,995.2526, , , , 
2025-09-28 19:12:45.996,9.348758,-14.397614,0.35174492,0.42966703,-1.1627047,-3.4999497,-38.49375,29.38125,5.7562504,0.10963448,-0.70448524,0.6842442,995.2526, , , , 
2025-09-28 19:12:46.016,9.963714,-15.194424,0.11724831,0.17676899,-1.4601959,-3.5561492,-39.75,29.118752,7.14375,0.14331019,-0.69985366,0.67939335,995.26337, , , , 
2025-09-28 19:12:46.035,10.966306,-15.1657095,0.8757731,-0.18486296,-1.1901937,-3.6526659,-42.9375,26.306252,6.39375,0.17688091,-0.6962787,0.6713962,995.26337, , , , 
2025-09-28 19:12:46.056,11.653047,-15.069997,2.7302105,-0.37545276,-0.60193086,-3.937329,-42.9,23.587502,5.625,0.20770088,-0.6924648,0.6610434,995.27094, , , , 
2025-09-28 19:12:46.075,10.406385,-14.955141,4.2927237,-0.12805253,-0.26778784,-4.2604766,-43.3125,20.175001,6.6375003,0.2368025,-0.6859121,0.65033203,995.27094, , , , 
2025-09-28 19:12:46.095,9.542577,-14.916857,3.330809,0.13889538,0.03825541,-4.4400706,-44.550003,16.425001,9.6,0.26576364,-0.67535836,0.6407572,995.2873, , , , 
2025-09-28 19:12:46.116,9.23151,-14.993426,3.481557,0.303218,0.56665343,-4.5701847,-48.112503,11.19375,11.043751,0.29299006,-0.6612344,0.632004,995.2873, , , , 
2025-09-28 19:12:46.135,8.908479,-14.91925,3.2638102,0.70516706,0.86414456,-4.7442813,-48.16875,6.4687505,9.618751,0.32398957,-0.6376499,0.6230028,995.29535, , , , 
2025-09-28 19:12:46.155,7.745567,-14.933606,2.1224337,1.0234276,0.5446623,-4.868898,-50.04375,1.5375,9.9375,0.34983215,-0.6146265,0.6163397,995.29535, , , , 
2025-09-28 19:12:46.176,5.651847,-14.644074,0.55752766,1.1700351,-0.13645191,-4.8298025,-47.9625,-3.3375,9.69375,0.37890035,-0.59068465,0.60788035,995.30414, , , , 
2025-09-28 19:12:46.196,3.2997024,-13.095919,0.1052842,1.0735185,-0.8395573,-4.510931,-49.800003,-7.5000005,8.587501,0.41043547,-0.56871724,0.5962447,995.30414, , , , 
2025-09-28 19:12:46.217,2.4358935,-11.614761,-0.0023928226,0.9036981,-1.048473,-4.164571,-48.487503,-12.6,8.7375,0.4419733,-0.5495849,0.58203053,995.28973, , , , 
2025-09-28 19:12:46.235,1.3926228,-10.5690975,-0.45942193,0.6575196,-0.55733776,-3.815156,-47.30625,-15.337501,9.84375,0.47025844,-0.5319281,0.5672325,995.28973, , , , 
2025-09-28 19:12:46.255,-0.16510476,-9.753145,-0.89491564,0.38629562,0.12988512,-3.349677,-46.893753,-19.78125,10.05,0.49184066,-0.5143613,0.55444473,995.2839, , , , 
2025-09-28 19:12:46.276,-1.5625132,-9.126225,-1.0097711,0.17554727,0.47563457,-2.7400339,-44.625,-22.181252,12.1125,0.5061017,-0.49752036,0.5448197,995.2839, , , , 
2025-09-28 19:12:46.295,-1.7371893,-9.293723,-1.0241281,0.083306685,0.058413945,-2.0387611,-43.18125,-23.8875,10.51875,0.5176693,-0.48099697,0.5355563,995.2751,37.88835062,127.73985397,150.024169921875,1.66
2025-09-28 19:12:46.315,-1.8017955,-9.040084,-0.8327023,0.0692568,-0.48647743,-1.533576,-44.4375,-26.38125,11.25,0.52420974,-0.47522107,0.5296838,995.2751, , , , 
2025-09-28 19:12:46.336,-1.7467605,-8.721839,-0.9667004,-0.04130973,-0.6569087,-0.8347467,-43.706253,-26.550001,9.95625,0.5344593,-0.47179136,0.51991206,995.2675, , , , 
2025-09-28 19:12:46.356,-1.9645073,-8.5016985,-0.7920243,-0.20196716,-0.3087158,-0.29718572,-41.5125,-27.937502,10.89375,0.5389998,-0.4726631,0.5144411,995.2675, , , , 
2025-09-28 19:12:46.375,-2.1774685,-8.717052,-0.38524446,-0.26794055,0.031535894,0.20616686,-42.375,-27.675001,12.975,0.53847027,-0.47525313,0.51283604,995.2651, , , , 
2025-09-28 19:12:46.396,-2.536392,-9.726824,-1.0480564,-0.23556472,0.15248711,1.009454,-42.525,-29.2875,11.0625,0.53175765,-0.4811945,0.5167033,995.2651, , , , 
2025-09-28 19:12:46.416,-2.9359934,-9.717253,-1.7156538,-0.35651594,0.04253146,1.7565417,-43.03125,-28.10625,12.13125,0.525252,-0.48775965,0.52120334,995.25995, , , , 
2025-09-28 19:12:46.436,-0.849452,-9.750752,-1.1700903,-0.6937133,0.3345248,2.739423,-43.143753,-26.60625,10.51875,0.50770247,-0.5056375,0.5320292,995.25995, , , , 
2025-09-28 19:12:46.455,1.6941184,-10.001999,0.56470615,-0.89224434,0.9246202,3.3423467,-45.35625,-22.987501,10.70625,0.48472053,-0.5230385,0.54512966,995.248, , , , 
2025-09-28 19:12:46.476,4.019942,-10.741381,2.1702902,-0.7376956,0.9191224,3.5408776,-46.85625,-20.2875,10.70625,0.46380025,-0.536054,0.55693674,995.248, , , , 
2025-09-28 19:12:46.496,4.6564326,-12.569497,1.8089739,-0.09750929,0.19341506,3.660607,-48.881252,-16.63125,10.087501,0.43056643,-0.5563194,0.5773845,995.2409, , , , 
2025-09-28 19:12:46.516,4.5559344,-14.009976,-0.021535404,0.27450737,-0.47792533,3.9135053,-48.393753,-14.718751,11.94375,0.4088731,-0.5723774,0.59335506,995.2409, , , , 
2025-09-28 19:12:46.535,5.1062837,-16.060625,-2.5698915,0.3105484,-0.94462603,4.474279,-50.23125,-10.06875,12.168751,0.389516,-0.5902055,0.6084297,995.2463, , , , 
2025-09-28 19:12:46.555,7.0779696,-16.311872,-2.778067,-0.07979421,-0.6312524,5.065596,-49.800003,-5.7937503,12.187501,0.36687556,-0.61058354,0.62233835,995.2463, , , , 
2025-09-28 19:12:46.576,10.033105,-15.321243,-1.7491534,-0.49518228,-0.04421134,5.273901,-48.075,1.8750001,9.88125,0.33664888,-0.6320357,0.63516897,995.2353, , , , 
2025-09-28 19:12:46.597,11.7463665,-13.828122,0.18664017,-0.70409805,0.43837184,4.935482,-50.156254,4.125,12.281251,0.2923922,-0.65638804,0.6481805,995.2353, , , , 
2025-09-28 19:12:46.615,11.923435,-13.028919,0.37088752,-0.71509355,0.6937133,4.476112,-45.525,11.700001,10.743751,0.25673658,-0.67200094,0.6562573,995.2216, , , , 
2025-09-28 19:12:46.636,10.999805,-12.758531,0.05742774,-0.78106695,0.7743475,4.1743445,-44.7,14.56875,5.25,0.23078975,-0.68184215,0.6609613,995.2216, , , , 
2025-09-28 19:12:46.655,9.7196455,-13.021741,0.10289137,-0.93011796,0.5984184,4.054004,-47.381252,16.875,9.262501,0.18917197,-0.69692576,0.6657956,995.2265, , , , 
2025-09-28 19:12:46.675,10.339387,-12.748959,0.5455636,-1.0284672,0.47502372,4.080882,-44.04375,20.325,9.168751,0.15673621,-0.70871896,0.66720575,995.2265, , , , 
2025-09-28 19:12:46.696,12.466606,-11.66501,1.7682959,-1.0987166,0.43592837,3.7901106,-43.3875,23.5125,8.45625,0.117731564,-0.72249705,0.6663004,995.2309, , , , 
2025-09-28 19:12:46.716,13.048062,-10.827522,2.6799614,-1.0278563,0.47624546,3.3777769,-43.631252,24.825,11.962501,0.09632295,-0.72956115,0.66473144,995.2309, , , , 
2025-09-28 19:12:46.736,12.576675,-9.851251,3.3020952,-0.82871443,0.58681196,2.9733844,-41.4375,28.29375,10.6125,0.07056619,-0.73687255,0.6625334,995.2358, , , , 
2025-09-28 19:12:46.756,11.765509,-8.985049,2.5842485,-0.40355253,0.5452732,2.6129742,-37.350002,29.587502,10.106251,0.042065803,-0.7420886,0.661451,995.2358, , , , 
2025-09-28 19:12:46.776,12.296716,-8.640483,1.9405792,-0.23495387,0.4548652,2.4773622,-37.987503,31.518751,10.06875,0.026687248,-0.74358517,0.6617286,995.2531, , , , 
2025-09-28 19:12:46.796,13.861622,-7.470392,1.2658032,0.053985175,0.31558803,2.157269,-33.018753,32.90625,9.76875,0.0043270495,-0.74398327,0.66344637,995.2531, , , , 
2025-09-28 19:12:46.816,14.85225,-6.5347986,1.0576276,0.24640758,0.10789399,1.7125595,-33.3375,34.237503,10.03125,-0.009599965,-0.7426717,0.6658254,995.26776, , , , 
2025-09-28 19:12:46.836,15.357136,-6.623333,0.8853444,0.5322923,-0.31299183,1.2140938,-33.7125,34.575,9.431251,-0.017888593,-0.7400863,0.6692717,995.26776, , , , 
2025-09-28 19:12:46.856,15.960127,-7.23111,-0.2656033,0.8413899,-0.6110939,0.6985239,-30.393751,35.79375,9.637501,-0.019484153,-0.73458326,0.6760118,995.2753, , , , 
2025-09-28 19:12:46.875,16.3358,-7.6809607,-1.7922242,0.88109607,-0.5958222,0.28741187,-30.225,37.29375,9.075001,-0.017017009,-0.73048264,0.68079424,995.2753, , , , 
2025-09-28 19:12:46.895,16.618153,-8.71466,-3.062813,0.5927679,-0.43272135,-0.2629773,-28.612501,38.60625,6.9750004,-0.009223982,-0.724718,0.68719727,995.2802, , , , 
2025-09-28 19:12:46.915,16.85265,-10.281959,-2.7876384,0.28367034,-0.3154353,-0.8023709,-28.0125,37.912502,6.6375003,-1.5013549E-4,-0.7224191,0.68940914,995.2802, , , , 
2025-09-28 19:12:46.936,16.345371,-10.315458,-2.1128623,0.10102176,-0.34658942,-1.271515,-30.000002,36.09375,7.8750005,0.008692407,-0.72171354,0.68966085,995.2668, , , , 
2025-09-28 19:12:46.956,16.02234,-10.521241,-1.1174482,-0.08773545,-0.36491534,-1.881769,-29.812502,38.362503,5.86875,0.024057962,-0.7216427,0.6884716,995.2668, , , , 
2025-09-28 19:12:46.976,14.354543,-11.301301,0.11246266,-0.20868668,0.041920595,-2.6111414,-29.79375,34.03125,4.5750003,0.0477767,-0.72195274,0.6847262,995.2653, , , , 
2025-09-28 19:12:46.996,11.330015,-12.847065,1.2370893,-0.19646938,0.15676318,-3.1126616,-35.79375,32.98125,9.900001,0.07346423,-0.7209894,0.6793575,995.2653, , , , 
2025-09-28 19:12:47.016,10.179068,-13.189239,1.9764715,-0.04741838,-0.23419029,-3.2519386,-34.050003,32.5875,5.8875003,0.096460186,-0.71875,0.6747242,995.27313, , , , 
2025-09-28 19:12:47.036,9.851251,-13.170095,2.617748,0.101632625,-0.6190351,-3.3704464,-40.0125,29.456251,9.150001,0.11607742,-0.7160798,0.6713041,995.27313, , , , 
2025-09-28 19:12:47.056,10.186246,-14.057833,3.2470603,0.37957612,-1.2592214,-3.62029,-40.03125,25.48125,6.7500005,0.15447305,-0.70949936,0.6655072,995.29144, , , , 
2025-09-28 19:12:47.076,10.186246,-14.347364,3.050849,0.57016593,-1.3917791,-3.8414233,-42.037502,25.893751,8.493751,0.18952934,-0.7018639,0.6606667,995.29144, , , , 
2025-09-28 19:12:47.096,9.757931,-13.9573345,2.3832514,0.60254174,-1.025871,-3.9861982,-43.40625,22.0125,9.168751,0.21623097,-0.6945901,0.6568177,995.3056, , , , 
2025-09-28 19:12:47.115,10.107283,-13.481163,1.2921243,0.43394306,0.012599086,-4.2317657,-45.65625,17.53125,10.89375,0.2563405,-0.67968535,0.6499225,995.3056, , , , 
2025-09-28 19:12:47.136,9.506684,-13.593625,1.0600204,0.3001637,0.50739956,-4.4376273,-45.45,15.806251,12.675,0.28348556,-0.6653217,0.64357907,995.3205, , , , 
2025-09-28 19:12:47.155,8.3581295,-13.7730875,1.4787644,0.3087158,0.63690287,-4.57385,-49.4625,11.2875,13.35,0.3143858,-0.64481837,0.6340909,995.3205, , , , 
2025-09-28 19:12:47.176,8.020741,-13.672588,1.7036897,0.44616038,0.4597521,-4.6361585,-49.406254,5.45625,10.575001,0.33294132,-0.63130105,0.6276668,995.31244, , , , 
2025-09-28 19:12:47.196,6.678368,-13.543376,1.2083755,0.58910275,0.28748822,-4.6746426,-50.831253,1.5562501,13.106251,0.3652877,-0.6067685,0.61568594,995.31244, , , , 
2025-09-28 19:12:47.216,5.4341,-13.153346,0.69152576,0.6000983,0.19585852,-4.5646873,-50.1375,-3.2062502,10.6875,0.39118624,-0.58609474,0.6049457,995.3129, , , , 
2025-09-28 19:12:47.236,4.5942197,-12.514462,0.31106696,0.54206616,0.17936517,-4.3563824,-50.568752,-8.212501,10.25625,0.40974432,-0.57069707,0.5962962,995.3129, , , , 
2025-09-28 19:12:47.256,3.5700915,-11.755938,-0.014356935,0.39973465,0.4322632,-3.9403832,-52.237503,-12.0,11.868751,0.4418836,-0.54068565,0.5788717,995.30634, , , , 
2025-09-28 19:12:47.276,2.6081767,-10.865808,0.22731815,0.32337654,0.5171734,-3.6154032,-49.875004,-16.35,10.63125,0.4547841,-0.5261591,0.5707302,995.30634, , , , 
2025-09-28 19:12:47.296,2.225325,-10.322637,0.37328035,0.3117701,0.44448048,-3.339903,-46.0875,-18.075,9.5625,0.46602324,-0.5122848,0.5630383,995.30634,37.88833751,127.73984975,150.28704833984375,1.37
2025-09-28 19:12:47.316,0.9834501,-9.420543,0.6987042,0.47975793,-0.19204062,-2.8860307,-47.831253,-22.368752,9.525001,0.487694,-0.48798954,0.5475212,995.29584, , , , 
2025-09-28 19:12:47.335,-0.2105684,-9.554541,-0.038285162,0.5952114,-0.5274054,-2.504851,-45.09375,-24.806252,7.9875,0.499555,-0.4780202,0.53947777,995.2829, , , , 
2025-09-28 19:12:47.356,-1.7611175,-9.042477,-1.3591232,0.53840095,-0.727769,-1.6508621,-45.05625,-25.931252,9.900001,0.5183459,-0.46574128,0.52739537,995.2829, , , , 
2025-09-28 19:12:47.376,-1.8041883,-8.303095,-1.6965113,0.31360272,-0.61964595,-0.98563033,-43.6875,-27.7875,10.950001,0.5295317,-0.46093237,0.5201407,995.2785, , , , 
2025-09-28 19:12:47.396,-0.75613195,-7.8699937,-1.2011969,0.036880963,-0.24518585,-0.18539746,-44.287502,-29.118752,13.406251,0.53578687,-0.4602251,0.51559585,995.2785, , , , 
2025-09-28 19:12:47.416,-0.4426722,-8.717052,-1.5122639,-0.05780308,-0.0674242,0.25198174,-42.09375,-27.88125,10.78125,0.5359612,-0.46164793,0.51543975,995.2631, , , , 
2025-09-28 19:12:47.435,-0.83748794,-9.645468,-2.2157538,-0.27282748,0.05169443,0.9288199,-42.45,-28.9125,11.043751,0.5313479,-0.46756938,0.51869744,995.2631, , , , 
2025-09-28 19:12:47.456,-1.3112668,-9.190832,-1.5696917,-0.5031235,-0.05948296,1.7192789,-43.59375,-28.143751,9.731251,0.52287817,-0.47742018,0.5237416,995.2636, , , , 
2025-09-28 19:12:47.476,-0.069391854,-8.908479,-0.53359944,-0.609414,-0.09308052,2.3838997,-43.818752,-27.056252,9.69375,0.51371104,-0.48826003,0.52888155,995.2636, , , , 
2025-09-28 19:12:47.496,2.6249263,-9.315259,0.33738798,-0.55321443,0.18730642,3.0821183,-44.5875,-25.031252,10.89375,0.49294338,-0.50985783,0.54123044,995.2482, , , , 
2025-09-28 19:12:47.516,4.362116,-10.19821,0.3924229,-0.4078286,0.3174206,3.3264642,-47.53125,-22.725,12.918751,0.47223094,-0.52739173,0.55459946,995.2482, , , , 
2025-09-28 19:12:47.536,5.0656056,-11.16491,-0.11724831,-0.23067781,0.16714787,3.4706283,-49.162502,-19.9125,13.087501,0.45589623,-0.5400601,0.5656134,995.2463, , , , 
2025-09-28 19:12:47.556,5.127819,-12.959527,-1.457229,-0.15493058,-0.25068364,3.8628035,-48.300003,-15.825001,10.59375,0.4240211,-0.5664526,0.58699924,995.2463, , , , 
2025-09-28 19:12:47.576,5.3216376,-13.765908,-1.579263,-0.24594943,-0.38934994,4.2415395,-48.506252,-11.85,9.618751,0.4071838,-0.5811519,0.59701014,995.2309, , , , 
2025-09-28 19:12:47.596,6.582655,-14.179867,-0.3804588,-0.39866564,-0.092469655,4.7607746,-50.175003,-8.55,9.918751,0.37473348,-0.60732454,0.6132457,995.2309, , , , 
2025-09-28 19:12:47.615,8.020741,-13.969298,0.49052864,-0.47929978,0.4976257,4.9611382,-51.3375,-3.0937502,13.593751,0.34247196,-0.62710786,0.62696636,995.2292, , , , 
2025-09-28 19:12:47.636,9.262616,-13.30888,1.227518,-0.5257255,0.93072885,4.9226537,-49.593754,0.45000002,13.200001,0.3146345,-0.63997585,0.6375835,995.2292, , , , 
2025-09-28 19:12:47.656,10.250853,-12.289537,1.375873,-0.5165625,1.0822233,4.523759,-51.99375,4.6687503,14.75625,0.26637954,-0.6572224,0.653841,995.22577, , , , 
2025-09-28 19:12:47.676,10.085748,-11.834901,0.6628119,-0.58681196,1.0028108,4.2177157,-48.581253,11.025001,10.481251,0.22999907,-0.6684261,0.6639933,995.22577, , , , 
2025-09-28 19:12:47.696,9.865608,-11.760723,0.35653058,-0.86292285,0.7248674,3.9086182,-46.93125,14.475,5.64375,0.19599572,-0.6789554,0.67081046,995.2253, , , , 
2025-09-28 19:12:47.716,10.310673,-11.956935,1.2323036,-0.9710459,0.31314456,3.7614,-47.04375,19.050001,6.7875004,0.16464321,-0.689959,0.6741012,995.2253, , , , 
2025-09-28 19:12:47.735,10.966306,-12.191431,1.6151553,-0.90995944,-0.13645191,3.5775297,-43.162502,20.71875,3.9562502,0.13766299,-0.7008732,0.6750009,995.23724, , , , 
2025-09-28 19:12:47.756,10.951949,-11.272588,2.3234308,-0.7163153,-0.49991646,3.331351,-40.331253,25.237501,4.03125,0.10998339,-0.712915,0.674639,995.23724, , , , 
2025-09-28 19:12:47.776,11.626725,-10.80838,2.7302105,-0.3852266,-0.80046195,3.218341,-39.99375,26.475,7.6312504,0.091304444,-0.72020096,0.6747708,995.24164, , , , 
2025-09-28 19:12:47.795,12.713067,-10.2723875,1.5984055,0.14072797,-1.1071161,3.0497425,-40.162502,29.325,8.25,0.076713845,-0.7242209,0.67682093,995.24164, , , , 
2025-09-28 19:12:47.815,13.75873,-8.973084,-0.48095736,0.32154396,-0.8865939,2.8542657,-34.725002,30.975,10.05,0.06474409,-0.7252267,0.6805298,995.24115, , , , 
2025-09-28 19:12:47.836,14.586647,-7.4177504,-1.4763715,0.14622575,-0.27267477,2.600757,-34.875,31.612501,8.175,0.052166466,-0.72531307,0.6837208,995.24115, , , , 
2025-09-28 19:12:47.856,15.859629,-6.8482585,0.37088752,-0.073685564,0.47624546,2.0735805,-33.956253,32.68125,10.5,0.03335393,-0.72649944,0.68483424,995.2409, , , , 
2025-09-28 19:12:47.875,17.051254,-7.456035,1.3998013,0.26595524,0.37117672,1.592219,-31.44375,34.93125,9.637501,0.022895597,-0.7264053,0.6856664,995.2409, , , , 
2025-09-28 19:12:47.896,17.764315,-7.877172,0.11485548,0.63186324,0.0193186,1.1169662,-29.081251,35.568752,7.3500004,0.015985515,-0.72441113,0.6881736,995.2482, , , , 
2025-09-28 19:12:47.915,17.393427,-7.542177,-3.0795627,0.46204284,-0.30199626,0.24098615,-31.406252,34.95,7.4812503,0.014766833,-0.71833384,0.69478106,995.2482, , , , 
2025-09-28 19:12:47.936,17.438892,-8.243274,-2.6153553,0.035048366,-0.17982332,-0.30512697,-28.687502,37.575,8.7375,0.018197965,-0.7171856,0.695856,995.24384, , , , 
2025-09-28 19:12:47.956,16.92204,-8.997013,-0.19860429,-0.1353829,0.09873102,-1.0467168,-27.712502,37.2,6.80625,0.027617933,-0.7178985,0.69440114,995.24384, , , , 
2025-09-28 19:12:47.976,16.314264,-8.95155,0.16510476,-0.06696605,0.39133525,-1.5983276,-30.468752,37.29375,6.1687503,0.037649218,-0.7179725,0.6929978,995.2463, , , , 
2025-09-28 19:12:47.995,14.720645,-10.212567,0.66041905,0.021609342,0.5513818,-2.4174974,-30.975,36.24375,6.43125,0.0536476,-0.71650153,0.69118303,995.2463, , , , 
2025-09-28 19:12:48.016,12.906885,-11.806187,0.94277215,0.2512945,0.16592614,-2.9019132,-32.30625,35.49375,6.9187503,0.071303345,-0.7134113,0.6898845,995.2504, , , , 
2025-09-28 19:12:48.036,11.856436,-12.617353,0.8255238,0.4247801,-0.21708608,-3.1413722,-35.9625,31.875002,6.7312503,0.08821535,-0.7097334,0.68920285,995.2504, , , , 
2025-09-28 19:12:48.056,10.4159565,-13.576876,0.09571291,0.48281226,-0.70272356,-3.3985462,-38.025,29.79375,8.306251,0.1219819,-0.7018956,0.687587,995.2575, , , , 
2025-09-28 19:12:48.076,10.114461,-14.062618,0.0047856453,0.36002842,-0.84749854,-3.466963,-40.85625,28.0125,7.1625004,0.15143432,-0.6953397,0.6845379,995.2575, , , , 
2025-09-28 19:12:48.096,10.186246,-14.550755,0.44745782,0.13217586,-0.99471694,-3.490176,-43.443752,26.868752,8.118751,0.18151629,-0.68923783,0.67928267,995.2697, , , , 
2025-09-28 19:12:48.116,11.334801,-14.2851515,1.4763715,-0.05535962,-0.863381,-3.6483898,-41.925003,24.16875,7.8,0.21159275,-0.6835801,0.67176825,995.2697, , , , 
2025-09-28 19:12:48.136,11.607583,-13.942978,2.4909284,-0.15920663,-0.48831004,-3.9532113,-45.65625,20.925001,7.2937503,0.2409441,-0.67702657,0.66252846,995.27313, , , , 
2025-09-28 19:12:48.156,10.1599245,-14.036298,3.2350962,-0.09873102,0.4426479,-4.3728757,-46.631252,18.7875,14.00625,0.27475247,-0.664811,0.6503803,995.27313, , , , 
2025-09-28 19:12:48.176,8.334201,-14.024334,3.3619158,0.07475458,1.0962732,-4.464505,-46.143753,13.63125,10.2375,0.29195634,-0.6543393,0.64402384,995.29095, , , , 
2025-09-28 19:12:48.196,7.2023964,-13.914264,3.1920254,0.3417025,1.3436735,-4.3912015,-47.7,8.868751,10.200001,0.31157118,-0.6368569,0.6373091,995.29095, , , , 
2025-09-28 19:12:48.216,6.3720865,-13.256237,2.2995026,0.7546471,1.3534473,-4.2054987,-49.612503,5.08125,8.925,0.33426464,-0.61089396,0.631053,995.2968, , , , 
2025-09-28 19:12:48.236,5.898308,-12.516855,1.4380864,0.9024764,1.4420227,-4.0930996,-48.506252,1.0875001,8.26875,0.34713665,-0.59366846,0.62808156,995.2968, , , , 
2025-09-28 19:12:48.256,4.761717,-11.849257,1.0169497,1.080238,1.1341468,-3.9428267,-51.393753,-5.175,9.075001,0.36762547,-0.56348413,0.62315714,995.2885, , , , 
2025-09-28 19:12:48.275,3.6801612,-11.10509,0.4354937,1.1914154,0.47929978,-3.7687302,-50.943752,-8.212501,6.2625003,0.38584396,-0.5398626,0.61792254,995.2885, , , , 
2025-09-28 19:12:48.295,2.8259234,-10.523634,0.033499517,1.1651483,0.05413789,-3.6294532,-48.9,-11.231251,5.30625,0.40129748,-0.52359354,0.6125356,995.2885,37.88832864,127.73985727,149.57080078125,1.2
2025-09-28 19:12:48.316,1.1078769,-9.88475,-0.4881358,0.9684498,-0.37346745,-3.2152867,-51.656254,-16.875,5.7562504,0.43351385,-0.49575028,0.5983644,995.2746, , , , 
2025-09-28 19:12:48.336,0.51445687,-9.504292,-0.70588267,0.7583123,-0.32276568,-2.8286095,-48.862503,-18.956251,6.20625,0.44817656,-0.48428953,0.5906787,995.26654, , , , 
2025-09-28 19:12:48.356,-0.31585258,-8.750552,-0.80159557,0.4681515,-0.060093824,-2.2006404,-48.037502,-19.368752,5.2125,0.46723363,-0.46813858,0.5793444,995.26654, , , , 
2025-09-28 19:12:48.376,-0.72502524,-8.315059,-0.5168497,0.29710937,0.0730747,-1.7437135,-48.750004,-22.800001,6.0937505,0.4771598,-0.45782042,0.57251626,995.2558, , , , 
2025-09-28 19:12:48.396,-1.0001999,-7.6977105,-0.22253251,0.1871537,-0.13767365,-1.0656536,-43.7625,-22.78125,5.11875,0.48514947,-0.4492494,0.566408,995.2558, , , , 
2025-09-28 19:12:48.416,-0.19860429,-7.4512496,-0.40677986,0.10407609,-0.21769693,-0.607505,-47.79375,-25.2,7.0687504,0.48980403,-0.4464851,0.5628279,995.2526, , , , 
2025-09-28 19:12:48.436,-0.30149564,-7.685746,-0.4833502,-0.0040469794,-0.07536544,-0.2941314,-45.881252,-25.35,4.8562503,0.49152413,-0.44592306,0.56132144,995.2526, , , , 
2025-09-28 19:12:48.456,-0.9619147,-9.391829,-1.2801601,-0.1805869,-0.16943862,0.38698283,-45.91875,-26.118752,6.61875,0.49040824,-0.44843993,0.561455,995.2502, , , , 
2025-09-28 19:12:48.476,-1.524228,-8.915657,-1.3208381,-0.36140287,-0.47792533,1.0442734,-46.10625,-26.268751,7.1062503,0.48784623,-0.453675,0.5625547,995.2502, , , , 
2025-09-28 19:12:48.496,-0.1268196,-8.269595,-1.012164,-0.5923098,-0.5628355,1.6704098,-45.5625,-24.862501,9.13125,0.48203576,-0.46602532,0.56487435,995.24994, , , , 
2025-09-28 19:12:48.516,2.1702902,-8.149954,0.18185452,-0.87880534,-0.03810269,2.301433,-45.61875,-22.48125,6.2250004,0.4677641,-0.48584497,0.570831,995.24994, , , , 
2025-09-28 19:12:48.536,3.211168,-8.762517,0.96909314,-0.8745293,0.07246383,2.4920228,-48.187504,-22.125,6.61875,0.45554507,-0.49816823,0.576243,995.25214, , , , 
2025-09-28 19:12:48.556,3.4432719,-10.6408825,0.40917268,-0.6259073,-0.33192864,2.8108943,-47.662502,-17.34375,6.4500003,0.4295212,-0.5230852,0.588905,995.25214, , , , 
2025-09-28 19:12:48.575,3.6897326,-11.834901,-0.4211368,-0.56665343,-0.82795084,3.163974,-50.381252,-16.25625,7.2937503,0.41749898,-0.53712845,0.59502345,995.24506, , , , 
2025-09-28 19:12:48.596,5.056034,-13.189239,-1.0001999,-0.61918783,-1.044197,3.6355617,-49.518753,-13.425,7.5000005,0.39757398,-0.5643433,0.6041912,995.24506, , , , 
2025-09-28 19:12:48.616,6.1232333,-13.344772,-1.3639089,-0.8708641,-0.5829941,3.9831438,-49.29375,-8.56875,9.056251,0.37745044,-0.5872754,0.61181885,995.23065, , , , 
2025-09-28 19:12:48.636,6.8219376,-12.930814,-0.5694918,-1.1072688,-0.19998185,4.190227,-49.631252,-4.5,8.700001,0.35834002,-0.60437167,0.6176082,995.23065, , , , 
2025-09-28 19:12:48.656,7.984849,-12.433106,0.9451649,-1.1433098,-0.25557056,4.311789,-49.987503,-1.1625,8.08125,0.32178,-0.6319492,0.6264218,995.2358, , , , 
2025-09-28 19:12:48.676,8.800801,-12.289537,1.5314065,-0.97410023,-0.46021026,4.2598658,-50.98125,2.8125,10.89375,0.29301104,-0.6525065,0.6321673,995.2358, , , , 
2025-09-28 19:12:48.696,9.133404,-12.421143,1.698904,-0.6472876,-0.6245329,4.129751,-48.487503,7.1625004,10.856251,0.2663391,-0.67041755,0.6374392,995.2443, , , , 
2025-09-28 19:12:48.716,8.891729,-12.550355,1.012164,-0.3675115,-0.73571026,4.0766063,-47.53125,11.53125,6.1687503,0.24176759,-0.68523854,0.64290226,995.2443, , , , 
2025-09-28 19:12:48.736,9.334401,-12.909278,0.32542387,-0.25083634,-0.75159276,4.1065383,-49.406254,14.175,10.2375,0.21823663,-0.6976693,0.6484479,995.24335, , , , 
2025-09-28 19:12:48.756,10.813166,-12.581462,-0.24885355,-0.29542947,-0.32093307,4.1053166,-45.43125,17.19375,10.425,0.18773444,-0.7107702,0.65471977,995.24335, , , , 
2025-09-28 19:12:48.776,11.691332,-12.251252,0.1363909,-0.40905032,-0.010002911,3.9874198,-43.537502,20.00625,9.6,0.16781372,-0.71761346,0.65764374,995.23334, , , , 
2025-09-28 19:12:48.796,12.153146,-11.083554,1.7156538,-0.31986406,0.21907139,3.6318965,-42.112503,23.493752,11.1,0.13365787,-0.72711265,0.661008,995.23334, , , , 
2025-09-28 19:12:48.816,12.433106,-9.896714,1.8903298,0.03565923,0.081015944,3.335627,-40.612503,25.031252,9.9375,0.1085377,-0.7316903,0.66405576,995.24286, , , , 
2025-09-28 19:12:48.836,12.911671,-9.470792,1.119841,0.33498296,-0.0112246405,3.1615307,-39.3375,29.268751,10.481251,0.09203832,-0.73293483,0.6673605,995.24286, , , , 
2025-09-28 19:12:48.856,14.761323,-7.597212,-0.7393822,0.5933788,0.30642503,2.8218899,-36.487503,31.1625,11.625,0.062424816,-0.7309296,0.6761347,995.2436, , , , 
2025-09-28 19:12:48.876,15.888342,-6.853044,-1.7946169,0.49136436,0.6759982,2.4211626,-35.025,33.9375,10.5375,0.048026204,-0.7288939,0.68036175,995.2436, , , , 
2025-09-28 19:12:48.896,16.197016,-6.3361945,-1.8927227,0.3191005,0.76457363,1.9330816,-33.956253,34.800003,10.06875,0.030251136,-0.72663355,0.684375,995.2375, , , , 
2025-09-28 19:12:48.916,16.388443,-6.9726853,-1.5816557,0.23174682,0.3522399,1.2385284,-32.53125,34.575,9.46875,0.01451828,-0.7246929,0.68727005,995.2375, , , , 
2025-09-28 19:12:48.936,16.414762,-7.9011,-2.0386848,0.17921245,0.1579849,0.7675516,-29.868752,35.1375,5.1375003,0.009818238,-0.72372186,0.6885031,995.23285, , , , 
2025-09-28 19:12:48.956,15.488741,-8.6141615,-2.0841484,-0.20441063,0.234343,0.1395826,-30.16875,36.693752,7.0875,0.0071479497,-0.723446,0.68878376,995.23285, , , , 
2025-09-28 19:12:48.976,15.136996,-9.638289,-0.019142581,-0.3907244,0.21296273,-0.18845178,-30.300001,36.80625,7.7250004,0.007947469,-0.72547436,0.6863414,995.23944, , , , 
2025-09-28 19:12:48.996,15.795022,-9.2793665,2.115255,-0.028481571,0.1146135,-0.6197223,-29.681252,35.49375,7.8750005,0.011489607,-0.72704023,0.6841493,995.23944, , , , 
2025-09-28 19:12:49.015,15.768702,-8.941978,1.3926228,0.37041312,-0.14439316,-1.3099995,-32.68125,35.41875,10.51875,0.022346329,-0.72500724,0.6850535,995.2487, , , , 
2025-09-28 19:12:49.036,14.924035,-9.827323,0.6628119,0.50174904,-0.29038984,-1.8890994,-31.3875,34.21875,6.58125,0.033441886,-0.7223759,0.68650556,995.2487, , , , 
2025-09-28 19:12:49.056,13.25863,-11.557333,-0.6029913,0.48831004,-0.46143198,-2.622137,-33.2625,35.8875,6.99375,0.058222134,-0.71684647,0.6884769,995.2482, , , , 
2025-09-28 19:12:49.076,11.909079,-12.626925,-0.74416786,0.3661371,-0.65446526,-2.9171848,-35.15625,33.075,7.6687503,0.07641776,-0.7135056,0.68843853,995.2482, , , , 
2025-09-28 19:12:49.096,11.129018,-13.8353,-0.17228323,0.22685991,-0.9055307,-3.136485,-35.86875,31.7625,7.9687505,0.103568435,-0.70948106,0.6864345,995.2507, , , , 
2025-09-28 19:12:49.115,11.430513,-15.287744,0.32063824,0.09674571,-1.0515274,-3.3973246,-38.60625,29.737501,7.5937505,0.14054811,-0.7044383,0.68134475,995.2507, , , , 
2025-09-28 19:12:49.136,11.303694,-15.644275,0.83748794,0.003894263,-1.0307579,-3.5793622,-40.912502,26.268751,7.5750003,0.1716835,-0.6999956,0.6752381,995.25653, , , , 
2025-09-28 19:12:49.156,10.353744,-14.3689,1.6079768,-0.07185297,-0.614759,-3.7406304,-43.5,25.125002,7.6125,0.20234548,-0.69461817,0.6678185,995.25653, , , , 
2025-09-28 19:12:49.176,9.944571,-13.244273,2.0434706,-0.092011504,0.040698867,-3.9177814,-44.925003,23.23125,9.262501,0.23025292,-0.6875031,0.6600018,995.2651, , , , 
2025-09-28 19:12:49.196,9.52822,-12.734602,2.1870399,-0.016264275,0.53733194,-4.1395254,-44.850002,19.368752,11.00625,0.25473672,-0.6776275,0.65250856,995.2651, , , , 
2025-09-28 19:12:49.216,7.987242,-12.562319,1.7347964,0.23419029,0.54221886,-4.4400706,-46.48125,15.937501,13.837501,0.28439653,-0.6608229,0.6433457,995.27606, , , , 
2025-09-28 19:12:49.235,6.719046,-12.380465,1.3806586,0.3985129,0.32414013,-4.5188723,-50.04375,11.231251,12.31875,0.30350828,-0.6489606,0.63735056,995.27606, , , , 
2025-09-28 19:12:49.255,5.4628143,-12.021541,0.93320084,0.5170207,0.046807513,-4.4693923,-46.8375,8.1,10.462501,0.33695573,-0.62755275,0.6261313,995.27875, , , , 
2025-09-28 19:12:49.275,4.9172506,-12.050255,0.7704889,0.53290313,-0.1834885,-4.3331695,-50.343754,2.4750001,13.012501,0.36409056,-0.6100187,0.61582613,995.27875, , , , 
2025-09-28 19:12:49.296,4.510471,-11.365908,0.81595254,0.5310706,-0.46265373,-4.136471,-48.656254,-1.6875001,10.762501,0.3910914,-0.5930722,0.60424846,995.27313,37.88831664,127.73986233,149.42718505859375,1.26
2025-09-28 19:12:49.316,4.019942,-10.736595,0.77766734,0.54206616,-0.60070914,-3.9080074,-49.031254,-5.4750004,13.481251,0.42428032,-0.57271594,0.58835536,995.27313, , , , 
2025-09-28 19:12:49.336,2.9455647,-10.167104,0.40438703,0.52618366,-0.46326458,-3.6887069,-48.91875,-12.168751,13.2375,0.442992,-0.5605575,0.5787518,995.26776, , , , 
2025-09-28 19:12:49.356,1.8137596,-9.827323,-0.4642076,0.36186102,-0.043600474,-3.1877978,-46.95,-14.94375,11.325001,0.4694414,-0.54057866,0.5642739,995.26776, , , , 
2025-09-28 19:12:49.376,1.3639089,-9.561719,-0.4139583,0.2635118,0.12744166,-2.789514,-47.737503,-18.018751,12.056251,0.48511136,-0.5257691,0.5547062,995.257, , , , 
2025-09-28 19:12:49.395,0.6628119,-9.396614,-0.73459655,0.21891867,-0.055206906,-2.2562292,-48.675003,-20.362501,13.9875,0.49747577,-0.51295525,0.54659414,995.257, , , , 
2025-09-28 19:12:49.416,0.069391854,-9.049655,-1.0911272,0.17676899,-0.29955283,-1.7461569,-46.725002,-24.750002,10.950001,0.5084002,-0.5035109,0.5388947,995.24384, , , , 
2025-09-28 19:12:49.435,-0.10767702,-8.963513,-1.3543376,0.08269582,-0.3068832,-1.307556,-43.66875,-24.056252,11.512501,0.5173435,-0.49751353,0.5320795,995.24384, , , , 
2025-09-28 19:12:49.456,-0.4833502,-9.016156,-1.7970098,-0.12621993,-0.20670137,-0.74006265,-44.643753,-24.300001,13.950001,0.52419364,-0.49401352,0.5257087,995.2431, , , , 
2025-09-28 19:12:49.476,-1.3998013,-9.241081,-2.2827528,-0.31314456,-0.047265664,-0.31612253,-42.581253,-23.7,11.681251,0.5256536,-0.49400526,0.52311367,995.2431, , , , 
2025-09-28 19:12:49.496,-2.5698915,-9.908679,-2.4741786,-0.5727621,0.06024654,0.27214026,-42.862503,-25.85625,11.681251,0.52358747,-0.49696186,0.5214614,995.2431, , , , 
2025-09-28 19:12:49.515,-3.2398818,-9.777073,-1.4931214,-0.8403209,0.16653702,1.5262456,-44.4,-26.1375,12.01875,0.5131394,-0.5074731,0.5233126,995.2402, , , , 
2025-09-28 19:12:49.535,-1.672583,-9.475577,0.038285162,-0.8555925,0.17264566,2.1560473,-45.35625,-23.625,12.281251,0.5026008,-0.51747483,0.52704275,995.24677, , , , 
2025-09-28 19:12:49.556,1.1485549,-9.844072,1.5050855,-0.5183951,0.1268308,2.9807148,-43.162502,-21.0,8.962501,0.4750063,-0.5415744,0.5406628,995.24677, , , , 
2025-09-28 19:12:49.576,2.7469604,-10.549955,1.6893328,-0.14821106,-0.15355614,3.272097,-49.331253,-20.0625,13.25625,0.46015802,-0.5541521,0.54988647,995.2453, , , , 
2025-09-28 19:12:49.596,3.4337006,-11.925828,0.6939186,0.23419029,-0.5316814,3.5139997,-46.893753,-16.6875,12.825001,0.441866,-0.5707829,0.5633559,995.2453, , , , 
2025-09-28 19:12:49.616,4.6731825,-13.780266,-1.0911272,0.40645415,-1.0448078,3.9849763,-50.156254,-13.181251,13.425,0.42077887,-0.5927079,0.5805059,995.23724, , , , 
2025-09-28 19:12:49.635,5.95095,-14.787644,-1.3974084,0.35453063,-1.0771837,4.3044586,-48.562504,-6.675,14.418751,0.4074565,-0.60704356,0.59019995,995.23724, , , , 
2025-09-28 19:12:49.655,8.099705,-14.31865,-1.6654046,0.08147409,-0.35575238,4.5665197,-47.268753,-5.4187503,13.762501,0.3800104,-0.6307499,0.6062243,995.22675, , , , 
2025-09-28 19:12:49.676,8.973084,-13.483556,-0.997807,-0.18364123,0.18303037,4.5274243,-48.16875,1.81875,14.981251,0.35167328,-0.64806813,0.6186231,995.22675, , , , 
2025-09-28 19:12:49.695,8.719446,-12.600604,0.31585258,-0.27221662,0.42737627,4.3857036,-49.65,5.5125003,17.25,0.32000872,-0.66348433,0.62973416,995.2172, , , , 
2025-09-28 19:12:49.715,8.676374,-12.318251,0.6269195,-0.15676318,0.23495387,4.2928524,-44.625,9.168751,13.725,0.28834054,-0.6768233,0.6396406,995.2172, , , , 
2025-09-28 19:12:49.736,8.958728,-12.239287,0.014356935,-0.04253146,0.06024654,4.1981683,-45.6375,12.675,11.94375,0.25875682,-0.6882116,0.64837736,995.22577, , , , 
2025-09-28 19:12:49.756,9.293723,-12.232109,-0.6556334,-0.04925097,0.20257804,4.130362,-44.925003,16.237501,11.962501,0.22304684,-0.7001322,0.65768754,995.22577, , , , 
2025-09-28 19:12:49.775,10.916057,-11.866008,-1.0001999,-0.11155918,0.41943502,4.0417867,-44.193752,19.800001,11.681251,0.1935585,-0.70824975,0.6638317,995.2204, , , , 
2025-09-28 19:12:49.796,12.705888,-11.399407,-1.3064811,-0.16470441,0.60513794,3.837147,-43.29375,22.125,12.225,0.17124175,-0.7134709,0.6675427,995.2204, , , , 
2025-09-28 19:12:49.816,13.706088,-9.365508,-2.347359,-0.5012909,1.0846667,3.110218,-42.61875,24.91875,14.325001,0.13560009,-0.7207655,0.6713214,995.2233, , , , 
2025-09-28 19:12:49.836,12.949956,-8.355737,-1.9166509,-0.93072885,1.3222932,2.6984951,-39.3375,26.5125,12.187501,0.108325996,-0.727283,0.6705146,995.2233, , , , 
2025-09-28 19:12:49.856,12.18186,-7.9776707,1.6366907,-0.9802089,1.0101413,2.3417501,-39.525,28.368752,10.556251,0.07701656,-0.73667663,0.6654093,995.226, , , , 
2025-09-28 19:12:49.875,12.313465,-7.853244,3.1561332,-0.4548652,0.41027206,2.2281294,-37.4625,29.718752,9.4875,0.061502006,-0.74074465,0.6631552,995.226, , , , 
2025-09-28 19:12:49.896,13.794622,-7.432107,1.6151553,0.38873908,-0.26045746,2.112065,-34.21875,31.181252,7.9875,0.04305926,-0.7418421,0.6650593,995.24603, , , , 
2025-09-28 19:12:49.916,15.424135,-7.0372915,-1.1174482,0.7112757,-0.46082112,1.8335106,-34.4625,34.612503,11.53125,0.033794478,-0.7387463,0.6703816,995.24603, , , , 
2025-09-28 19:12:49.936,16.642082,-6.946364,-2.993421,0.57016593,-0.416228,1.4242313,-33.99375,34.03125,11.512501,0.02908927,-0.7359548,0.67439866,995.237, , , , 
2025-09-28 19:12:49.956,17.316858,-7.353144,-3.37388,0.20364705,-0.3050506,0.9080505,-31.556252,36.54375,9.4125,0.025755439,-0.73387504,0.6773642,995.237, , , , 
2025-09-28 19:12:49.976,17.532211,-8.922835,-2.3688943,-0.26305366,-0.06436988,0.15424335,-31.781252,34.875,11.53125,0.026010782,-0.73472273,0.6765938,995.22504, , , , 
2025-09-28 19:12:49.996,17.64228,-10.533205,-0.45224348,-0.39561132,-2.290743E-4,-0.53420126,-29.812502,34.237503,9.20625,0.031051796,-0.73763585,0.67287487,995.22504, , , , 
2025-09-28 19:12:50.016,17.58964,-9.894321,0.3900301,-0.24594943,0.074907295,-1.1071924,-28.44375,35.1375,7.7625003,0.039015703,-0.73921597,0.6700922,995.23627, , , , 
2025-09-28 19:12:50.036,17.283358,-9.52822,0.4139583,-0.18303037,0.2135736,-1.7663155,-31.050001,34.706253,10.387501,0.04750351,-0.7394644,0.66843027,995.23627, , , , 
2025-09-28 19:12:50.056,15.196816,-10.77488,0.86141616,-0.099341884,0.32902706,-2.6380196,-33.375,34.21875,12.20625,0.06706898,-0.738411,0.66529983,995.2458, , , , 
2025-09-28 19:12:50.076,12.74178,-12.629318,1.2011969,0.12851068,0.08590286,-3.1987934,-35.5875,33.487503,12.168751,0.0880323,-0.735469,0.66276014,995.2458, , , , 
2025-09-28 19:12:50.096,10.722239,-13.457234,1.18684,0.3814087,-0.3606393,-3.382053,-37.706253,30.806252,10.5375,0.10692398,-0.7316725,0.6612564,995.2651, , , , 
2025-09-28 19:12:50.116,10.3848505,-13.993227,0.849452,0.5964331,-0.86215925,-3.4345872,-39.65625,27.73125,10.9125,0.14307114,-0.72304344,0.6592375,995.2651, , , , 
2025-09-28 19:12:50.136,10.370493,-13.6606245,0.62452674,0.5964331,-0.86765707,-3.5188866,-42.91875,26.1375,12.281251,0.1740685,-0.7147407,0.65710765,995.2702, , , , 
2025-09-28 19:12:50.156,10.01157,-13.028919,0.6149554,0.49991646,-0.5897136,-3.6740463,-45.037502,21.225,9.075001,0.21231972,-0.7030418,0.6528427,995.2702, , , , 
2025-09-28 19:12:50.176,9.489935,-12.619746,0.76570326,0.42233664,-0.32154396,-3.7717845,-45.675003,20.400002,11.043751,0.23414096,-0.6952406,0.64946914,995.2751, , , , 
2025-09-28 19:12:50.196,8.805588,-12.260823,1.0839486,0.3746892,-0.09308052,-3.8676903,-43.40625,16.3875,11.493751,0.26159087,-0.68378145,0.6442202,995.2751, , , , 
2025-09-28 19:12:50.216,7.877172,-12.067004,1.402194,0.42600182,0.0712421,-3.977646,-46.95,13.51875,13.575001,0.29416844,-0.6673783,0.6368311,995.2758, , , , 
2025-09-28 19:12:50.236,7.207182,-11.916257,1.2993027,0.48525572,0.06940951,-4.019796,-48.3375,8.793751,13.06875,0.31326944,-0.6562951,0.6321334,995.2758, , , , 
2025-09-28 19:12:50.256,6.506085,-11.657832,1.2729816,0.6068178,-0.030161448,-4.049117,-48.768753,6.6375003,12.618751,0.34523863,-0.63625836,0.623507,995.27655, , , , 
2025-09-28 19:12:50.276,5.5369916,-11.830115,0.81595254,0.6740129,0.004657844,-4.0240717,-47.30625,2.9250002,11.7375,0.37073222,-0.6188198,0.6160398,995.27655, , , , 
2025-09-28 19:12:50.296,4.802395,-11.997613,-0.04546363,0.6734021,0.12377647,-3.9141161,-50.906254,-0.82500005,15.262501,0.39490902,-0.60045874,0.6084317,995.28143,37.88830608,127.73986719,149.0670166015625,1.02
2025-09-28 19:12:50.316,3.7567315,-11.219945,-1.1533405,0.5310706,0.30092725,-3.702757,-47.456253,-4.93125,13.125001,0.4166892,-0.5819007,0.60072494,995.28143, , , , 
2025-09-28 19:12:50.336,3.1489546,-10.633704,-1.5337993,0.33864817,0.46708247,-3.5995207,-50.7,-9.262501,14.793751,0.43565238,-0.56383336,0.5924791,995.2758, , , , 
2025-09-28 19:12:50.356,1.4333007,-10.578669,-1.8807586,-0.07979421,0.8537599,-3.3301294,-47.71875,-12.168751,11.868751,0.45372075,-0.54236895,0.58147746,995.2758, , , , 
2025-09-28 19:12:50.375,0.4546363,-11.109876,-1.3016955,-0.2984838,0.8537599,-2.9593344,-48.24375,-14.83125,11.00625,0.4632515,-0.52719957,0.57254,995.26556, , , , 
2025-09-28 19:12:50.396,-0.64606214,-10.956735,-0.32542387,-0.3174206,0.33696827,-2.4077234,-48.581253,-17.962502,10.59375,0.47066373,-0.51506627,0.5634804,995.26556, , , , 
2025-09-28 19:12:50.416,-1.2777673,-10.255638,0.14117654,-0.20624322,-0.17249294,-1.7418809,-46.8375,-22.5,9.431251,0.47990113,-0.505626,0.55220777,995.2653, , , , 
2025-09-28 19:12:50.435,-1.8735801,-9.559326,0.19142582,-0.15309799,-0.23968807,-1.2971714,-43.78125,-22.800001,6.9750004,0.4848392,-0.50256526,0.54646236,995.2653, , , , 
2025-09-28 19:12:50.456,-2.900101,-9.035298,-0.019142581,-0.0816268,-0.199371,-0.40775225,-44.025,-23.71875,9.825001,0.4894629,-0.5005805,0.5407956,995.2646, , , , 
2025-09-28 19:12:50.476,-2.210968,-10.4566345,-0.6125626,0.0112246405,-0.49869475,0.24953826,-46.050003,-22.931252,9.525001,0.49005485,-0.5020198,0.5398971,995.2646, , , , 
2025-09-28 19:12:50.496,-1.942972,-10.365707,-1.0600204,0.066813335,-1.5194498,1.1847723,-44.5875,-22.1625,9.95625,0.49077994,-0.5117114,0.5395904,995.2619, , , , 
