Time,Accel_X,Accel_Y,Accel_Z,Gyro_X,Gyro_Y,Gyro_Z,Mag_X,Mag_Y,Mag_Z,Orient_X,Orient_Y,Orient_Z,Pressure,Lat,Lng,Alt,Speed
2025-09-20 21:11:28.772,-0.124426775,4.833502,8.221739,0.038179047,-0.12614357,-0.029856017,25.143751,-27.581251,-30.0375,0.18720351,0.17131726,0.6817938,998.3715,37.88835732,127.73982246,141.30487060546875,0.0
2025-09-20 21:11:28.790,0.24885355,4.9172506,9.025727,0.04367683,-0.019853106,-0.033521205,23.587502,-28.10625,-30.768751,0.1883083,0.17111643,0.6809991,998.3903, , , , 
2025-09-20 21:11:28.811,0.36610186,4.9363933,9.049655,0.12797616,-0.083993904,-0.059177525,26.831251,-26.75625,-33.206253,0.18890943,0.17122844,0.6805777,998.42035, , , , 
2025-09-20 21:11:28.831,-0.06460621,4.9292145,8.705089,0.16096286,-0.16523892,-0.08727731,25.743752,-27.6375,-32.11875,0.19037409,0.17132768,0.6796738,998.42035, , , , 
2025-09-20 21:11:28.851,0.16031912,4.941179,8.142776,0.10109812,-0.17867795,-0.11232276,24.712502,-26.75625,-29.737501,0.19215065,0.17156686,0.6784258,998.4328, , , , 
2025-09-20 21:11:28.871,0.17706887,4.989035,8.236095,0.038789913,-0.12186752,-0.13187043,25.406252,-26.306252,-30.91875,0.19369851,0.17160411,0.67708284,998.4328, , , , 
2025-09-20 21:11:28.891,0.2105684,5.0249276,8.463413,0.040011644,-0.054672398,-0.13125958,24.50625,-27.900002,-30.2625,0.19465192,0.17172775,0.675573,998.4367, , , , 
2025-09-20 21:11:28.911,0.19381863,5.127819,8.819944,0.08093958,-0.04367683,-0.10071633,25.575,-26.175001,-30.31875,0.19515568,0.17211886,0.67457044,998.4367, , , , 
2025-09-20 21:11:28.931,0.12203395,4.979464,8.520842,0.12186752,-0.051007207,-0.067118764,23.6625,-26.868752,-29.156252,0.1958588,0.17271383,0.67373264,998.4538, , , , 
2025-09-20 21:11:28.951,0.078963146,4.9770713,8.221739,0.07910699,-0.060781047,-0.04329504,26.212502,-27.468752,-30.937502,0.1967636,0.17339672,0.6730026,998.4538, , , , 
2025-09-20 21:11:28.971,0.11964113,4.9674997,8.367701,-0.010690134,-0.032070402,-0.012751802,24.187502,-27.300001,-31.031252,0.19731109,0.17368288,0.67253447,998.465, , , , 
2025-09-20 21:11:28.991,0.9499506,5.003392,8.532805,-0.066889696,0.026572619,-0.026801692,24.093752,-26.94375,-30.13125,0.19711807,0.17357206,0.6724675,998.465, , , , 
2025-09-20 21:11:29.011,0.26081768,5.1254263,8.331808,-0.0858265,0.05222894,-0.03046688,25.85625,-26.250002,-30.975,0.19679575,0.1731763,0.67253834,998.467, , , , 
2025-09-20 21:11:29.031,-0.0526421,5.070391,8.037491,-0.13041963,0.018631376,-0.013973532,26.362501,-26.062502,-32.568752,0.19600086,0.17314793,0.6724716,998.467, , , , 
2025-09-20 21:11:29.051,0.13160525,4.895715,8.097312,-0.21410811,0.009468404,0.0074067353,25.031252,-26.718752,-30.075,0.19494642,0.17276022,0.67255133,998.48016, , , , 
2025-09-20 21:11:29.072,1.0504491,4.800002,8.106883,-0.28130323,0.08032872,-5.345067E-4,25.331251,-26.175001,-33.54375,0.19294241,0.17136437,0.67322224,998.48016, , , , 
2025-09-20 21:11:29.091,0.1794617,4.7545385,8.599805,-0.2782489,0.20433427,-0.010308343,26.212502,-26.718752,-31.125002,0.19078435,0.17010045,0.67389905,998.5131, , , , 
2025-09-20 21:11:29.111,0.11246266,4.7784667,9.15494,-0.17989968,0.2073886,0.047112945,25.125002,-27.075,-31.312502,0.18718816,0.16986157,0.67492193,998.5131, , , , 
2025-09-20 21:11:29.131,0.44985065,4.8287163,9.236296,-0.07177661,0.045509428,0.027565273,25.500002,-28.031252,-30.825,0.1849864,0.1694867,0.6758308,998.5693, , , , 
2025-09-20 21:11:29.151,0.43070808,4.855037,8.745767,-0.05650499,0.07177661,-0.0029779659,25.706251,-25.650002,-31.9125,0.18445748,0.16882516,0.67625,998.5693, , , , 
2025-09-20 21:11:29.171,0.15792629,4.776074,8.750552,-0.13041963,0.24709481,-0.0054214248,26.212502,-25.987501,-30.562502,0.18338417,0.16888466,0.6766342,998.6237, , , , 
2025-09-20 21:11:29.191,-0.22492532,4.6803613,9.23151,-0.1291979,0.31734425,0.05261073,24.91875,-27.225,-30.0375,0.17962089,0.17010677,0.6776599,998.6237, , , , 
2025-09-20 21:11:29.211,-0.0047856453,4.76411,9.379865,-0.01802051,0.22143848,0.08315397,25.10625,-26.343752,-30.112501,0.17669529,0.17122683,0.67879975,998.65375, , , , 
2025-09-20 21:11:29.231,0.09332009,4.8646083,9.006584,0.09071342,0.09071342,0.054443322,25.3875,-27.075,-29.175001,0.17576388,0.17213382,0.67957795,998.65375, , , , 
2025-09-20 21:11:29.251,-0.10289137,4.855037,8.583055,0.11942407,-0.027794348,0.05383246,27.13125,-27.13125,-30.13125,0.1763885,0.17306158,0.6797903,998.6735, , , , 
2025-09-20 21:11:29.271,0.11724831,4.8789654,8.583055,0.09926552,-0.044898562,0.06482802,26.062502,-26.625002,-29.8875,0.17763299,0.17365587,0.6798363,998.6735, , , , 
2025-09-20 21:11:29.291,0.33020952,4.9531426,8.3174515,0.051007207,0.068722285,0.033063058,25.875002,-27.000002,-31.85625,0.17870726,0.1741189,0.6800556,998.6818, , , , 
2025-09-20 21:11:29.311,0.3493521,4.941179,8.252846,-9.162972E-4,0.12553272,-0.023136504,25.968752,-26.38125,-30.0375,0.17908995,0.17489284,0.680264,998.6818, , , , 
2025-09-20 21:11:29.331,0.1698904,4.948357,8.386844,-0.019853106,0.07177661,-0.05978839,24.50625,-27.900002,-30.73125,0.17892435,0.17565675,0.68023235,998.6801, , , , 
2025-09-20 21:11:29.351,-0.19381863,4.8861437,8.4682,-0.003970621,0.01924224,-0.042684175,27.000002,-27.768751,-28.987501,0.17865005,0.17631997,0.6798203,998.6801, , , , 
2025-09-20 21:11:29.371,-0.05503492,4.898108,8.575876,0.003970621,-0.06933315,-0.023747368,26.775002,-27.54375,-30.375002,0.17869723,0.1766503,0.67948365,998.6711, , , , 
2025-09-20 21:11:29.391,0.22492532,4.871787,8.7577305,0.014355322,-0.100487255,-0.037797257,26.456251,-28.95,-29.175001,0.17934404,0.1762932,0.6791189,998.6711, , , , 
2025-09-20 21:11:29.412,0.25603202,4.8789654,8.628518,0.008857539,-0.055283263,-0.075670876,26.6625,-27.431252,-30.975,0.18020733,0.17564972,0.6786697,998.6672, , , , 
2025-09-20 21:11:29.433,0.07178468,4.914858,8.554341,-0.047952887,0.032070402,-0.087888174,27.431252,-27.843752,-29.962502,0.18049829,0.17539798,0.67797905,998.6662, , , , 
2025-09-20 21:11:29.451,-0.11246266,4.871787,8.537591,-0.06750056,0.06139191,-0.0787252,26.156252,-27.50625,-27.993752,0.17972317,0.17566282,0.6775624,998.6662, , , , 
2025-09-20 21:11:29.471,-0.08853444,4.8119664,8.523234,-0.054672398,-0.04978548,-0.084833845,26.737501,-26.812502,-28.85625,0.17913136,0.17576975,0.67725307,998.6662, , , , 
2025-09-20 21:11:29.491,0.14356937,4.7018967,8.652447,0.016187917,-0.18356487,-0.09888373,26.962502,-28.7625,-30.468752,0.1796002,0.17485939,0.67629945,998.65546, , , , 
2025-09-20 21:11:29.511,0.11485548,4.7832522,8.13799,0.07177661,-0.22693627,-0.12698352,25.650002,-27.16875,-28.725,0.18112426,0.17387646,0.6751774,998.65546, , , , 
2025-09-20 21:11:29.531,-0.17706887,4.7856455,7.4656067,0.04367683,-0.5225948,-0.14164427,27.018751,-27.018751,-30.581251,0.18380189,0.17281994,0.67346954,998.6379, , , , 
2025-09-20 21:11:29.551,0.10767702,4.610969,7.6737823,0.04612029,-0.9618066,-0.09277509,26.775002,-27.54375,-30.825,0.18838084,0.16973953,0.67115283,998.6379, , , , 
2025-09-20 21:11:29.571,0.8781659,4.3405805,7.580462,0.18600832,-1.3564253,-0.053068876,26.19375,-27.468752,-30.468752,0.19608316,0.16327526,0.6684162,998.6274, , , , 
2025-09-20 21:11:29.591,1.98365,3.8093736,5.4388857,0.29352054,-1.4492767,-0.18868086,25.2,-28.181252,-31.706251,0.20769672,0.15430698,0.664952,998.6274, , , , 
2025-09-20 21:11:29.611,1.0001999,4.1204405,5.383851,0.2244928,-1.7602068,-0.10254893,24.4125,-26.175001,-30.0375,0.22348313,0.14241476,0.6589198,998.61884, , , , 
2025-09-20 21:11:29.631,1.0241281,3.6586258,4.165904,0.24404047,-1.8579452,-0.04940369,23.60625,-27.35625,-32.0625,0.2362868,0.13219972,0.65421396,998.61884, , , , 
2025-09-20 21:11:29.651,0.99302137,3.359523,2.9647074,0.25442517,-2.8011205,0.09720386,20.5125,-27.4125,-32.04375,0.2523134,0.11869895,0.6486392,998.6088, , , , 
2025-09-20 21:11:29.671,1.5984055,2.3258235,2.5459633,0.15057817,-3.6807656,0.23281583,18.75,-28.331251,-33.80625,0.27435794,0.09760735,0.64120924,998.6088, , , , 
2025-09-20 21:11:29.691,1.6510476,1.579263,2.457429,0.07910699,-4.127308,0.5284744,16.087502,-27.843752,-35.25,0.29950723,0.07078308,0.63258153,998.5761, , , , 
2025-09-20 21:11:29.711,2.3114667,1.6319051,1.146162,-0.1084285,-4.0191846,0.87911075,13.312501,-28.500002,-35.081253,0.32523152,0.04048479,0.6245807,998.5761, , , , 
2025-09-20 21:11:29.731,2.8929226,1.0241281,0.634098,-0.3338376,-4.123643,1.1032982,9.731251,-28.35,-37.5,0.34870183,0.0085748015,0.6179893,998.55316, , , , 
2025-09-20 21:11:29.751,2.6679974,0.016749758,0.5838487,-0.603229,-4.2562003,1.3775765,3.9750001,-27.937502,-38.925003,0.3705707,-0.026430255,0.6115478,998.55316, , , , 
2025-09-20 21:11:29.771,3.2877383,-1.7563318,2.5531418,-0.78954273,-4.7748246,1.9707261,1.44375,-26.7,-39.1875,0.39654645,-0.07685629,0.60363823,998.5312,37.88835732,127.73982246,141.30487060546875,0.0
2025-09-20 21:11:29.791,3.5605202,-2.2181466,4.0390844,-0.5897899,-5.229919,2.6103015,-4.14375,-25.406252,-39.45,0.41771764,-0.12287769,0.5982723,998.5312, , , , 
2025-09-20 21:11:29.811,5.986842,-2.7326035,1.9597218,-0.33933538,-5.155393,3.0721154,-8.56875,-25.368752,-37.59375,0.440619,-0.17187648,0.59446573,998.5109, , , , 
2025-09-20 21:11:29.831,8.300702,-3.4073794,0.70348984,-0.490219,-4.624552,3.2712572,-15.543751,-25.725,-36.54375,0.46030805,-0.21953605,0.592147,998.5109, , , , 
2025-09-20 21:11:29.852,8.886943,-4.0941195,-0.10289137,-0.9837977,-3.963596,3.4484081,-21.675001,-21.2625,-35.381252,0.47316328,-0.2653743,0.5911488,998.49896, , , , 
2025-09-20 21:11:29.871,8.949157,-5.0416775,0.3182454,-1.3356558,-3.494452,3.7410123,-28.06875,-20.0625,-33.54375,0.47877055,-0.31115395,0.5906575,998.49896, , , , 
2025-09-20 21:11:29.891,9.585648,-6.3314085,0.27038896,-1.6496403,-2.6740606,4.040336,-29.475,-16.125,-32.381252,0.47687462,-0.35596144,0.5920721,998.49286, , , , 
2025-09-20 21:11:29.911,10.951949,-7.7240314,0.148355,-2.11573,-2.111454,4.433733,-33.24375,-10.03125,-31.706251,0.46233672,-0.41033378,0.59706366,998.5087, , , , 
2025-09-20 21:11:29.931,14.526826,-8.7266245,3.5198421,-2.4272711,-1.6038254,4.4856563,-34.3875,-6.3,-31.650002,0.44231686,-0.45393583,0.601317,998.5087, , , , 
2025-09-20 21:11:29.951,14.371293,-8.781659,5.881558,-1.9966115,-1.0552689,4.0140686,-35.8875,-0.50625,-29.6625,0.41873688,-0.4921393,0.6057026,998.5329, , , , 
2025-09-20 21:11:29.971,11.947364,-9.38465,4.15394,-1.4957024,-1.1780528,3.8576875,-36.300003,3.0937502,-32.1375,0.39640066,-0.5231197,0.6108677,998.5329, , , , 
2025-09-20 21:11:29.991,10.052248,-10.365707,1.538585,-1.3955206,-1.5305218,4.1368527,-35.943752,7.0875,-30.712502,0.37661445,-0.55188763,0.6157496,998.5329, , , , 
2025-09-20 21:11:30.011,11.820544,-11.23191,2.1296122,-1.520137,-1.5274674,4.519865,-38.60625,10.556251,-31.706251,0.35044354,-0.58982253,0.62029856,998.55414, , , , 
2025-09-20 21:11:30.031,13.99562,-11.466406,3.278167,-1.4358376,-1.1352922,4.511924,-39.037502,13.837501,-27.056252,0.33233035,-0.6116243,0.62382716,998.56024, , , , 
2025-09-20 21:11:30.051,15.950556,-11.097912,2.8833513,-1.2696824,-0.8280272,4.1234136,-37.4625,17.362501,-26.6625,0.3004016,-0.6422544,0.62744445,998.56024, , , , 
2025-09-20 21:11:30.071,15.608382,-10.63849,2.4622145,-1.1707224,-0.85307264,3.6719844,-37.125,21.225,-25.218752,0.27712753,-0.6624106,0.62951577,998.56024, , , , 
2025-09-20 21:11:30.092,15.096318,-10.523634,2.5028925,-1.1212423,-0.7486148,3.1356454,-34.425003,24.375002,-26.437502,0.25690767,-0.679876,0.6297924,998.57684, , , , 
2025-09-20 21:11:30.111,14.790037,-9.887143,2.2707887,-1.135903,-0.27885976,2.789285,-33.99375,26.643751,-24.45,0.23795365,-0.6946062,0.6290265,998.57684, , , , 
2025-09-20 21:11:30.131,14.184652,-9.052048,2.28036,-1.1982113,0.24220788,2.449644,-32.850002,29.38125,-25.050001,0.21826959,-0.70690817,0.6277201,998.5815, , , , 
2025-09-20 21:11:30.151,13.636696,-8.070991,2.7972097,-1.2073742,0.571464,2.0531929,-31.650002,30.375002,-24.150002,0.1980981,-0.7171629,0.62578636,998.5815, , , , 
2025-09-20 21:11:30.171,12.406785,-7.429714,3.3882368,-1.0644319,0.8952223,1.6341397,-28.63125,33.037502,-23.0625,0.17892048,-0.7251744,0.6235253,998.5861, , , , 
2025-09-20 21:11:30.194,10.772488,-7.1449685,3.2757742,-0.8005383,0.9984585,1.2987748,-29.362501,33.075,-23.15625,0.15666908,-0.73160547,0.62164485,998.5859, , , , 
2025-09-20 21:11:30.211,9.954143,-6.9391856,2.821138,-0.6502656,1.1212423,1.1533891,-27.6375,34.256252,-23.550001,0.14093497,-0.7346013,0.6211401,998.5859, , , , 
2025-09-20 21:11:30.231,9.02812,-6.7525454,3.141776,-0.44257152,1.1945461,1.1014656,-27.056252,35.8125,-22.931252,0.12466169,-0.73587114,0.6215199,998.5859, , , , 
2025-09-20 21:11:30.252,9.614362,-6.204589,2.5746772,-0.10598504,0.53114694,0.990899,-25.406252,35.850002,-24.0375,0.111082144,-0.73597425,0.623272,998.5778, , , , 
2025-09-20 21:11:30.271,8.755338,-6.058627,1.6199409,0.16768238,-0.010690134,0.7618247,-23.681252,37.800003,-25.706251,0.103213035,-0.7354659,0.62589747,998.5778, , , , 
2025-09-20 21:11:30.291,7.7144604,-6.233303,0.6125626,0.25076,-0.35888305,0.71845335,-23.85,37.125,-23.19375,0.09997953,-0.7347429,0.6290105,998.56464, , , , 
2025-09-20 21:11:30.311,8.530413,-6.0251274,0.634098,0.2593121,-0.5189296,0.6909644,-22.9125,36.61875,-24.337502,0.09870146,-0.73449206,0.6320097,998.56464, , , , 
2025-09-20 21:11:30.331,9.296116,-5.639883,0.863809,0.30024004,-0.3509418,0.4472294,-22.21875,36.43125,-24.093752,0.09863459,-0.7338712,0.63548,998.5456, , , , 
2025-09-20 21:11:30.351,9.049655,-5.656633,0.16031912,0.29352054,-0.101708986,0.15706861,-21.975,37.59375,-24.806252,0.09947572,-0.7324038,0.63800955,998.5456, , , , 
2025-09-20 21:11:30.371,8.3174515,-5.948557,-0.49052864,0.18173227,0.05650499,-0.032299474,-21.825,37.5,-26.5125,0.10054294,-0.7307025,0.63969976,998.5341, , , , 
2025-09-20 21:11:30.391,8.207381,-6.290731,-0.37088752,0.06017018,0.038789913,-0.13614649,-22.35,37.912502,-24.7875,0.101812884,-0.72960246,0.6402265,998.5341, , , , 
2025-09-20 21:11:30.411,7.6426754,-6.458228,-0.23449662,0.032070402,0.040622506,-0.28092143,-23.34375,36.693752,-24.150002,0.10378232,-0.7288678,0.6399733,998.5256, , , , 
2025-09-20 21:11:30.431,6.317052,-6.8650084,-0.2009971,0.035124727,0.15546508,-0.27847797,-22.800001,37.0125,-26.23125,0.10605486,-0.7280259,0.6395181,998.5256, , , , 
2025-09-20 21:11:30.451,6.113662,-6.6185474,-0.038285162,0.07055488,0.043065965,-0.13309216,-23.268751,37.068752,-24.16875,0.10723806,-0.72704494,0.6394146,998.51654, , , , 
2025-09-20 21:11:30.471,6.814759,-6.364908,0.3397808,0.20005822,-0.37781987,-0.053068876,-21.65625,37.631252,-26.38125,0.10909254,-0.72627425,0.6398275,998.51654, , , , 
2025-09-20 21:11:30.491,7.4105716,-5.838487,0.22253251,0.34483317,-0.8750638,0.02451095,-23.681252,37.78125,-25.406252,0.11522837,-0.72544426,0.6412197,998.5246, , , , 
2025-09-20 21:11:30.511,10.167104,-5.613562,0.81834537,0.4083631,-1.2177589,0.013515383,-22.275002,38.41875,-23.118752,0.122813374,-0.72504914,0.6426428,998.5246, , , , 
2025-09-20 21:11:30.531,12.780066,-5.812166,2.0003998,0.5201514,-1.3326015,-0.20150901,-23.60625,38.287502,-23.587502,0.13306265,-0.72427565,0.64402145,998.5451, , , , 
2025-09-20 21:11:30.551,14.914464,-6.128019,2.6009982,0.70768684,-1.2843432,-0.6333904,-24.056252,36.6375,-25.44375,0.14644201,-0.72181886,0.6457606,998.5451, , , , 
2025-09-20 21:11:30.571,16.414762,-6.2117677,2.8091738,0.8151991,-1.1456769,-1.0878738,-25.518751,36.73125,-25.143751,0.16688788,-0.7160475,0.64820445,998.5639, , , , 
2025-09-20 21:11:30.591,17.694923,-6.3338017,3.5581272,0.8781181,-1.0033454,-1.4995967,-27.88125,34.59375,-22.78125,0.180868,-0.71132076,0.64944166,998.5639, , , , 
2025-09-20 21:11:30.611,18.431913,-7.3363943,3.385844,1.0662645,-0.73700833,-2.1379504,-27.825,33.375,-23.475,0.20175512,-0.70279044,0.651046,998.59467, , , , 
2025-09-20 21:11:30.631,16.689938,-8.812766,1.6630118,1.0797035,-0.42363474,-2.659018,-30.375002,32.362503,-23.475,0.22508733,-0.69120294,0.65252244,998.59467, , , , 
2025-09-20 21:11:30.651,15.661024,-8.650054,1.4931214,0.8713986,-0.21288638,-2.880151,-33.1875,27.843752,-23.53125,0.2544149,-0.67525715,0.65234554,998.62274, , , , 
2025-09-20 21:11:30.671,16.024733,-8.140383,2.3449662,0.85490525,-0.013744458,-3.1727552,-34.143753,28.125002,-24.525002,0.27734283,-0.661752,0.6505804,998.62274, , , , 
2025-09-20 21:11:30.691,15.189638,-7.9776707,1.902294,0.9166026,0.25625777,-3.5863109,-34.275,24.50625,-25.5375,0.30070066,-0.6458444,0.6481767,998.6359, , , , 
2025-09-20 21:11:30.712,14.333008,-8.693125,1.4045869,0.9624175,0.31612253,-3.8721955,-37.237503,21.581251,-23.98125,0.32441342,-0.62754595,0.64487284,998.6359, , , , 
2025-09-20 21:11:30.731,13.8448715,-9.74836,0.7082755,0.95630884,0.065667965,-4.114098,-39.9375,16.725,-25.893751,0.35570166,-0.602602,0.63846296,998.6484, , , , 
2025-09-20 21:11:30.751,12.823136,-10.392029,0.76570326,0.89033544,-0.20250167,-4.2747555,-38.943752,14.45625,-25.406252,0.38276976,-0.5822719,0.6303175,998.65155, , , , 
2025-09-20 21:11:30.771,11.3683,-10.403993,0.6867401,0.82008594,-0.19456044,-4.270479,-39.600002,11.26875,-24.393751,0.4100807,-0.56180876,0.6200071,998.65155,37.88835732,127.73982246,141.30487060546875,0.0
2025-09-20 21:11:30.791,10.078569,-9.801002,0.38763726,0.6838631,0.09071342,-4.117763,-40.987503,6.6375003,-23.5125,0.43474534,-0.5410109,0.6091401,998.653, , , , 
2025-09-20 21:11:30.811,9.506684,-9.236296,-0.11006984,0.6319396,0.15851942,-3.9809294,-40.518753,3.0937502,-24.6,0.45628572,-0.5198621,0.59833795,998.653, , , , 
2025-09-20 21:11:30.831,8.059027,-8.88455,-0.16749759,0.6172789,-0.06444623,-3.892354,-39.80625,-2.1750002,-25.7625,0.47693872,-0.4990282,0.5865747,998.653, , , , 
2025-09-20 21:11:30.851,5.7140603,-8.008778,-0.016749758,0.6459895,-0.42485645,-3.593641,-41.11875,-5.68125,-23.868752,0.49777317,-0.47953343,0.57341015,998.654, , , , 
2025-09-20 21:11:30.871,4.3118663,-7.092326,-0.37088752,0.6679806,-0.5561924,-3.1978009,-40.893753,-8.887501,-24.187502,0.51826894,-0.46198454,0.5597618,998.654, , , , 
2025-09-20 21:11:30.891,3.65384,-6.3074803,-1.5170496,0.558025,-0.32833982,-2.7738607,-37.85625,-11.325001,-24.206251,0.53650886,-0.44607168,0.5472333,998.6479, , , , 
2025-09-20 21:11:30.911,3.4408789,-5.7379885,-2.361716,0.25014913,-0.17867795,-2.3590834,-40.425003,-14.343751,-20.98125,0.5508277,-0.4319875,0.5363712,998.6479, , , , 
2025-09-20 21:11:30.931,3.8261235,-5.3910294,-0.93320084,0.0051923506,-0.37659815,-1.9791255,-38.9625,-17.306252,-22.050001,0.563967,-0.41899753,0.52327347,998.63715, , , , 
2025-09-20 21:11:30.951,3.103491,-5.3910294,-0.1268196,0.1065959,-0.55863583,-1.6681954,-38.925003,-15.562501,-21.075,0.57336074,-0.41171813,0.51282996,998.63715, , , , 
2025-09-20 21:11:30.971,1.7060826,-5.3647084,-1.0289137,0.13408482,-0.5720749,-1.2173772,-39.225002,-19.44375,-22.81875,0.5822069,-0.40637556,0.5037605,998.61957, , , , 
2025-09-20 21:11:30.991,0.30149564,-5.163711,-1.9190438,-0.08643737,-0.3735438,-0.5350412,-37.29375,-19.125,-21.50625,0.5883751,-0.40390104,0.4971074,998.61957, , , , 
2025-09-20 21:11:31.011,-0.047856454,-5.1613183,-1.4691931,-0.32467464,-0.2403753,0.12713623,-37.48125,-20.025002,-20.962502,0.59017175,-0.40531674,0.49345493,998.61884, , , , 
2025-09-20 21:11:31.031,0.13878371,-5.465207,-0.9738788,-0.4395172,-0.19761476,0.747164,-38.325,-19.21875,-22.0125,0.5879259,-0.41086486,0.49275398,998.61884, , , , 
2025-09-20 21:11:31.051,0.11246266,-6.3720865,-1.0552348,-0.5696314,-0.0980438,1.4594324,-39.018753,-18.300001,-21.825,0.58029044,-0.42301196,0.49602306,998.6237, , , , 
2025-09-20 21:11:31.071,0.86859465,-6.759724,-0.61016977,-0.6863066,-0.091324285,2.1167228,-38.2125,-16.48125,-21.712502,0.56995517,-0.4372231,0.50184846,998.6237, , , , 
2025-09-20 21:11:31.091,2.28036,-6.8506513,0.1698904,-0.72845626,-0.097432934,2.6121342,-39.018753,-15.431251,-22.462502,0.5562609,-0.45494547,0.50995404,998.62103, , , , 
2025-09-20 21:11:31.111,3.1154552,-6.855437,0.8422736,-0.6337722,-0.08032872,2.942001,-42.131252,-13.387501,-21.9375,0.54028064,-0.47436258,0.51976734,998.62103, , , , 
2025-09-20 21:11:31.132,3.2877383,-7.5756764,0.863809,-0.4480693,-0.038789913,3.2645378,-42.09375,-8.90625,-22.5,0.5227993,-0.49403593,0.53126067,998.6274, , , , 
2025-09-20 21:11:31.151,4.5655055,-9.104691,0.12921242,-0.29352054,-0.20983206,3.678704,-41.25,-7.6875005,-23.2875,0.49904007,-0.5190594,0.54778665,998.62396, , , , 
2025-09-20 21:11:31.171,6.1328044,-10.2723875,-0.30867413,-0.2800815,-0.3026835,3.9236608,-43.162502,-4.1625004,-23.75625,0.48400956,-0.53498363,0.55791795,998.62396, , , , 
2025-09-20 21:11:31.191,8.441878,-11.042876,-1.2179468,-0.3894263,-0.14752385,3.9939103,-41.9625,-0.20625001,-21.31875,0.46242985,-0.5567122,0.5712012,998.62396, , , , 
2025-09-20 21:11:31.212,8.886943,-11.540584,-1.7228323,-0.73700833,0.21532984,3.9658105,-42.46875,5.2312503,-22.35,0.4315164,-0.5830503,0.58639103,998.6164, , , , 
2025-09-20 21:11:31.232,8.492127,-11.990435,-1.3710874,-1.0943643,0.458454,4.0794315,-43.706253,8.3625,-23.94375,0.4027169,-0.6040904,0.59665954,998.6164, , , , 
2025-09-20 21:11:31.251,8.590233,-12.464213,-0.33499518,-1.3729186,0.66309375,4.3359947,-41.643753,12.056251,-24.375002,0.3698925,-0.62564594,0.60544217,998.601, , , , 
2025-09-20 21:11:31.272,9.533006,-12.866207,0.91884387,-1.4211769,0.7987057,4.5247517,-39.09375,16.66875,-24.750002,0.33341148,-0.6470549,0.61326015,998.601, , , , 
2025-09-20 21:11:31.291,10.753345,-13.043276,1.6630118,-1.2635738,0.6960804,4.582173,-38.98125,19.5375,-23.0625,0.29502428,-0.6668091,0.62065417,998.5861, , , , 
2025-09-20 21:11:31.311,11.775081,-12.77528,1.8113668,-0.9807434,0.28985533,4.46,-35.925003,24.45,-23.362501,0.2581951,-0.68416667,0.6273678,998.5861, , , , 
2025-09-20 21:11:31.331,12.390036,-12.287145,1.2777673,-0.7357866,-0.0962112,4.2284822,-34.29375,26.737501,-23.5125,0.2180978,-0.7022422,0.6343812,998.59735, , , , 
2025-09-20 21:11:31.351,12.686746,-12.425928,0.70588267,-0.54825115,-0.37659815,4.012236,-30.993752,32.79375,-24.50625,0.1905966,-0.7142016,0.6388171,998.59735, , , , 
2025-09-20 21:11:31.371,12.911671,-12.227324,-0.45942193,-0.54702944,-0.23976442,3.846081,-28.706251,34.143753,-22.66875,0.1651489,-0.724376,0.64234006,998.60614, , , , 
2025-09-20 21:11:31.393,12.7082815,-11.140983,-1.7611175,-0.98868465,0.59284425,3.720243,-26.75625,37.21875,-23.8125,0.13829756,-0.73367876,0.64411163,998.60614, , , , 
2025-09-20 21:11:31.411,12.7393875,-9.659825,0.09092726,-1.6026038,1.5079197,3.5223227,-23.925001,38.98125,-22.050001,0.1058842,-0.74386185,0.6419094,998.612, , , , 
2025-09-20 21:11:31.431,13.411771,-7.9369926,3.1657043,-1.6221514,1.8304563,3.1814601,-20.5125,39.318752,-21.337502,0.06986607,-0.7540444,0.63632435,998.612, , , , 
2025-09-20 21:11:31.451,14.124832,-6.943971,3.6586258,-1.0344995,1.3478731,2.7404158,-16.725,42.075,-21.28125,0.03664049,-0.76113224,0.6313273,998.6108, , , , 
2025-09-20 21:11:31.471,14.179867,-6.04427,2.2420747,-0.38820457,0.36560258,2.351295,-14.531251,41.41875,-20.85,0.0066315033,-0.76494783,0.6293665,998.6108, , , , 
2025-09-20 21:11:31.491,15.675381,-5.3072805,0.9738788,0.014355322,-0.37965247,2.0318127,-12.618751,42.862503,-20.831251,-0.008062814,-0.7655542,0.6308525,998.63763, , , , 
2025-09-20 21:11:31.511,17.082361,-4.8382874,-0.14117654,0.15057817,-0.76327556,1.5327361,-11.475,44.9625,-19.987501,-0.01550265,-0.76512635,0.63358617,998.63763, , , , 
2025-09-20 21:11:31.531,18.39602,-4.912465,-0.021535404,0.08704823,-0.86223567,0.87972164,-10.837501,43.66875,-21.225,-0.01695737,-0.76488316,0.63563615,998.6413, , , , 
2025-09-20 21:11:31.551,18.960726,-5.8624153,0.62452674,0.074830934,-0.8463532,0.057497647,-9.900001,43.275,-21.300001,-0.012835236,-0.76506317,0.6365145,998.6413, , , , 
2025-09-20 21:11:31.571,18.405592,-6.8410797,0.7704889,0.20189081,-0.7467822,-0.5778017,-9.01875,44.737503,-21.46875,-0.0037116155,-0.764821,0.63714886,998.633, , , , 
2025-09-20 21:11:31.591,18.077776,-7.704889,0.019142581,0.26603162,-0.5610793,-1.0921499,-9.712501,44.4,-19.21875,0.009115945,-0.76363397,0.63810706,998.633, , , , 
2025-09-20 21:11:31.611,17.927027,-9.006584,-0.4881358,0.18784092,-0.097432934,-1.6535347,-12.675,43.237503,-21.618752,0.02764794,-0.7615421,0.638351,998.64056, , , , 
2025-09-20 21:11:31.631,17.558533,-9.552148,-0.29910284,0.23121232,0.083383046,-2.1153483,-13.14375,43.068752,-22.181252,0.03976383,-0.7599323,0.6377497,998.64056, , , , 
2025-09-20 21:11:31.651,16.141981,-9.530613,-0.31106696,0.33139414,0.092546016,-2.71705,-14.83125,42.768753,-21.825,0.06379456,-0.7556382,0.636365,998.64056, , , , 
2025-09-20 21:11:31.672,14.376079,-9.954143,0.24646074,0.40958482,0.076052666,-3.2857654,-17.831251,42.45,-21.0375,0.08706252,-0.75067216,0.6345344,998.6457, , , , 
2025-09-20 21:11:31.693,12.976277,-11.145768,0.7369894,0.5995638,-0.008246674,-3.729864,-19.95,41.25,-22.44375,0.120670155,-0.7418186,0.63152,998.6457, , , , 
2025-09-20 21:11:31.713,12.021541,-12.335001,0.9499506,0.7846558,-0.17684536,-3.9351146,-24.112501,38.081253,-21.675001,0.15053964,-0.73216593,0.6289539,998.6403, , , , 
2025-09-20 21:11:31.731,11.947364,-13.098311,0.8135597,0.92210037,-0.43401942,-4.06584,-27.018751,36.80625,-22.06875,0.17441784,-0.72364455,0.6268863,998.6403, , , , 
2025-09-20 21:11:31.751,11.638689,-13.947763,0.5096712,0.9587523,-0.70951945,-4.2252755,-29.8875,34.256252,-21.31875,0.20849818,-0.71108526,0.62318754,998.6403, , , , 
2025-09-20 21:11:31.772,11.176874,-14.143974,0.75613195,0.9837977,-0.8610139,-4.2258863,-32.5875,32.25,-23.38125,0.2531072,-0.6941473,0.6163301,998.6435,37.88835732,127.73982246,141.30487060546875,0.0
2025-09-20 21:11:31.791,11.8588295,-13.756337,0.57427746,1.0290017,-0.74128443,-4.2368817,-35.41875,28.48125,-22.875,0.28825757,-0.6791818,0.6099827,998.6435, , , , 
2025-09-20 21:11:31.811,12.033505,-13.438092,-0.18903299,0.9654718,-0.33994624,-4.449463,-37.443752,24.393751,-21.1875,0.3219969,-0.6620932,0.6029628,998.6403, , , , 
2025-09-20 21:11:31.831,10.906486,-13.349558,-0.9667004,0.77366024,0.12186752,-4.6620436,-38.11875,22.35,-22.5375,0.353462,-0.6426835,0.59471095,998.6403, , , , 
2025-09-20 21:11:31.851,9.262616,-13.021741,-0.8327023,0.54580766,0.3423897,-4.73718,-40.6875,18.13125,-25.275002,0.3820378,-0.6217711,0.584848,998.64154, , , , 
2025-09-20 21:11:31.871,7.578069,-12.926028,-0.31345975,0.45417798,0.062002774,-4.6479936,-39.956253,14.587501,-24.225,0.4090766,-0.60059786,0.57298076,998.64154, , , , 
2025-09-20 21:11:31.891,7.068398,-12.473784,0.863809,0.46456265,-0.3564396,-4.3932633,-42.037502,10.03125,-24.675001,0.4359282,-0.5806759,0.55904746,998.6274, , , , 
2025-09-20 21:11:31.911,6.802795,-11.669796,1.1892328,0.54947287,-0.4865538,-4.1715193,-41.662502,4.18125,-21.300001,0.46249878,-0.56177884,0.54418445,998.6274, , , , 
2025-09-20 21:11:31.931,6.108876,-10.892129,0.3062813,0.50976664,-0.21471897,-3.951608,-42.5625,0.4875,-21.45,0.49347532,-0.5378483,0.52603114,998.63226, , , , 
2025-09-20 21:11:31.951,4.8693943,-10.382458,-0.38763726,0.32284203,0.124310985,-3.6950448,-44.8875,-3.73125,-20.6625,0.51449823,-0.5182017,0.5124982,998.63226, , , , 
2025-09-20 21:11:31.971,3.802195,-9.810573,-0.16510476,0.1725693,0.3026835,-3.4054947,-42.91875,-6.39375,-21.018751,0.53119135,-0.499064,0.50008464,998.6381, , , , 
2025-09-20 21:11:31.991,2.4454648,-9.49472,-0.28953153,0.098654665,0.19700389,-2.9656723,-41.925003,-8.775001,-21.91875,0.5446967,-0.48139864,0.48865238,998.6381, , , , 
2025-09-20 21:11:32.011,1.294517,-9.509077,-0.18424734,0.04856375,-0.07055488,-2.4879758,-41.8875,-12.13125,-21.4125,0.556454,-0.46670702,0.47751462,998.63324, , , , 
2025-09-20 21:11:32.031,0.46181476,-9.107083,0.19381863,0.06017018,-0.22082762,-1.9009348,-41.1375,-14.2875,-21.84375,0.56659114,-0.45584452,0.46712282,998.63324, , , , 
2025-09-20 21:11:32.051,0.3182454,-8.599805,-0.33260235,0.09682207,-0.15974113,-1.3303871,-38.550003,-15.262501,-22.21875,0.5744767,-0.44824576,0.4591518,998.63446, , , , 
2025-09-20 21:11:32.071,-0.997807,-8.331808,-1.5146568,-0.046731155,3.054324E-4,-0.6407208,-39.131252,-16.06875,-22.725,0.58042943,-0.4424066,0.4533059,998.64154, , , , 
2025-09-20 21:11:32.091,-2.0817556,-8.446664,-1.7491534,-0.24159703,0.15790854,-0.048792824,-41.550003,-17.7,-21.300001,0.58089435,-0.44145122,0.45186633,998.64154, , , , 
2025-09-20 21:11:32.111,-2.361716,-9.195618,-1.6151553,-0.3979784,0.2941314,0.73005974,-41.1375,-17.15625,-21.675001,0.5765038,-0.4446151,0.45411235,998.64154, , , , 
2025-09-20 21:11:32.132,-2.7182465,-9.334401,-2.120041,-0.58062696,0.19456044,1.7007239,-40.162502,-15.187501,-20.962502,0.56761485,-0.45268443,0.46010825,998.63104, , , , 
2025-09-20 21:11:32.151,-1.079163,-9.073584,-1.375873,-0.80786866,0.08643737,2.5412738,-40.818752,-14.250001,-22.95,0.55426717,-0.46707302,0.4686668,998.63104, , , , 
2025-09-20 21:11:32.171,1.1126626,-9.12144,-0.02632105,-0.90010923,0.17867795,3.1619124,-39.9,-11.90625,-23.34375,0.536121,-0.48627526,0.4796948,998.6252, , , , 
2025-09-20 21:11:32.191,3.1800613,-9.705289,0.8446664,-0.7638864,0.25503606,3.597459,-42.3375,-7.3125005,-23.34375,0.5138979,-0.5073054,0.49358824,998.6252, , , , 
2025-09-20 21:11:32.211,4.627719,-10.839486,0.2105684,-0.5232057,0.13408482,3.9474845,-40.893753,-6.15,-25.575,0.4835059,-0.5339297,0.51396567,998.6257, , , , 
2025-09-20 21:11:32.231,5.3479586,-11.760723,-0.36131623,-0.42302385,-0.024129158,4.203437,-39.16875,-2.1000001,-27.225,0.46466118,-0.5502895,0.5268235,998.6257, , , , 
2025-09-20 21:11:32.250,6.73101,-13.540983,-0.863809,-0.3686569,-0.1273653,4.6841874,-38.925003,2.1375,-25.781252,0.43128687,-0.57878315,0.5485211,998.62665, , , , 
2025-09-20 21:11:32.271,7.432107,-14.737394,-0.849452,-0.39858928,0.021074835,5.0959105,-39.1875,7.4625,-25.44375,0.4008867,-0.60182625,0.5664792,998.62665, , , , 
2025-09-20 21:11:32.290,9.9038925,-14.974284,-0.29671,-0.4657844,0.19944735,5.4294424,-40.162502,10.481251,-26.60625,0.36605343,-0.6243636,0.58471537,998.611, , , , 
2025-09-20 21:11:32.310,12.08854,-14.062618,-0.3924229,-0.5195405,0.24404047,5.1661596,-36.1875,15.618751,-27.150002,0.3289976,-0.6449325,0.6016118,998.611, , , , 
2025-09-20 21:11:32.331,11.282159,-13.581661,-0.72502524,-0.6582068,0.23915356,4.858284,-35.662502,20.5125,-25.63125,0.2932964,-0.662882,0.6150457,998.5981, , , , 
2025-09-20 21:11:32.350,10.918449,-13.751552,0.20817557,-0.82497287,0.23365578,4.838125,-33.99375,22.81875,-27.956251,0.24897425,-0.68356687,0.6272966,998.5981, , , , 
2025-09-20 21:11:32.370,12.021541,-13.72523,1.0001999,-0.68875,0.040622506,4.8711123,-30.73125,28.125002,-27.056252,0.21342683,-0.6984879,0.6352659,998.591, , , , 
2025-09-20 21:11:32.391,14.514862,-12.736995,0.64606214,-0.43768463,-0.3839285,4.5742316,-29.8875,30.187502,-26.475,0.18118358,-0.7108883,0.6422452,998.591, , , , 
2025-09-20 21:11:32.410,15.548561,-11.906686,-0.21774685,-0.30207264,-0.4486802,4.072712,-26.00625,33.3375,-27.993752,0.15411909,-0.7205553,0.647706,998.5927, , , , 
2025-09-20 21:11:32.430,15.041284,-11.265409,-1.3471591,-0.4621192,-0.058337588,3.642663,-23.175001,35.98125,-25.2,0.12978943,-0.7281344,0.65136355,998.5927, , , , 
2025-09-20 21:11:32.450,14.656038,-10.205389,-1.0552348,-0.7528908,0.6056724,3.371439,-21.75,35.86875,-24.4125,0.10425319,-0.7351752,0.6525688,998.60077, , , , 
2025-09-20 21:11:32.470,14.7661085,-8.860622,-0.4642076,-0.95753056,0.9318742,3.0861652,-16.95,39.225002,-25.10625,0.076761015,-0.7419226,0.65157646,998.60077, , , , 
2025-09-20 21:11:32.490,14.706288,-7.2095747,0.19381863,-1.1255183,0.95386535,2.7501895,-16.66875,40.725002,-23.831251,0.04983027,-0.74853456,0.64845014,998.60223, , , , 
2025-09-20 21:11:32.510,15.017355,-5.804988,1.9477576,-1.0173953,0.51282096,2.350684,-13.14375,41.362503,-25.95,0.020856718,-0.756509,0.64252496,998.60223, , , , 
2025-09-20 21:11:32.530,15.677774,-4.9986067,3.1441689,-0.6502656,-0.041233372,1.9585088,-7.9500003,42.393753,-26.400002,0.0044184513,-0.76122797,0.6388172,998.60516, , , , 
2025-09-20 21:11:32.550,16.271194,-4.321438,3.4456646,-0.15790854,-0.5378664,1.496695,-9.375,44.2125,-23.56875,-0.0048994455,-0.7634513,0.63780564,998.60516, , , , 
2025-09-20 21:11:32.570,17.749958,-5.130212,3.1130621,0.39064804,-0.76144296,1.0232749,-7.4625,43.537502,-24.0375,-0.007706591,-0.76282483,0.63998634,998.6535, , , , 
2025-09-20 21:11:32.591,19.482363,-5.663811,0.016749758,0.85551614,-0.64415693,0.42035133,-6.6937504,43.85625,-22.275002,-0.0056333994,-0.7590007,0.6454835,998.6535, , , , 
2025-09-20 21:11:32.610,20.94677,-6.448657,-3.251846,0.6637046,-0.32956156,-0.27725625,-9.01875,43.237503,-22.1625,3.4305205E-5,-0.7541448,0.6513906,998.6552, , , , 
2025-09-20 21:11:32.630,21.01377,-7.066005,-4.106084,0.09926552,0.12797616,-1.1165844,-7.8750005,42.881252,-24.2625,0.008815068,-0.75151634,0.65359366,998.6552, , , , 
2025-09-20 21:11:32.650,19.532612,-8.298309,-2.321038,-0.33139414,0.5018254,-2.0701444,-9.9375,41.550003,-22.893751,0.023879785,-0.7519998,0.6497974,998.633, , , , 
2025-09-20 21:11:32.670,17.233109,-10.037891,-0.37806597,-0.3686569,0.59284425,-2.817843,-12.431251,42.16875,-23.4375,0.04015075,-0.75282913,0.6438908,998.633, , , , 
2025-09-20 21:11:32.690,14.311472,-11.583654,1.2251252,-0.07788526,0.4621192,-3.3346345,-12.225,42.318752,-24.69375,0.060720965,-0.7517063,0.637857,998.63837, , , , 
2025-09-20 21:11:32.710,12.19861,-12.7393875,1.7467605,0.4883864,-0.07299834,-3.558822,-17.00625,40.6875,-21.6375,0.085424855,-0.7472588,0.6336427,998.63837, , , , 
2025-09-20 21:11:32.731,12.521641,-13.780266,1.0145568,0.9117157,-0.7290671,-3.7035968,-17.41875,39.05625,-25.987501,0.11504627,-0.73969615,0.631601,998.6547, , , , 
2025-09-20 21:11:32.750,12.763316,-14.4693985,0.09092726,1.0711514,-1.2409718,-3.8569238,-20.775002,38.34375,-26.04375,0.14981201,-0.73016626,0.6300402,998.6547, , , , 
2025-09-20 21:11:32.770,12.835101,-14.61536,-0.0741775,0.9978476,-1.4156791,-3.9711556,-25.931252,34.6875,-24.225,0.18777256,-0.7198096,0.6270399,998.653,37.88835776,127.73980966,141.5677490234375,1.36
2025-09-20 21:11:32.790,13.213166,-14.35215,0.19621146,0.810923,-1.07726,-4.155026,-28.29375,32.98125,-27.112501,0.23531796,-0.70582014,0.62034565,998.653, , , , 
2025-09-20 21:11:32.810,13.459627,-14.215759,0.09571291,0.61361367,-0.52931434,-4.443965,-32.4,28.9125,-22.44375,0.27082035,-0.692723,0.6130649,998.65643, , , , 
2025-09-20 21:11:32.830,12.68196,-14.371293,0.8279166,0.4205804,-0.13041963,-4.810484,-34.050003,25.650002,-24.54375,0.30429682,-0.67754126,0.60366046,998.65643, , , , 
2025-09-20 21:11:32.850,11.346765,-14.514862,1.4333007,0.47922343,0.023518294,-5.0829296,-37.425003,22.06875,-24.150002,0.33690274,-0.65980154,0.5926452,998.6674, , , , 
2025-09-20 21:11:32.871,10.212567,-14.644074,1.1437693,0.60017467,0.037568185,-5.1904416,-40.85625,17.475,-22.59375,0.36940557,-0.63935995,0.58073413,998.6674, , , , 
2025-09-20 21:11:32.890,8.441878,-14.373686,0.44985065,0.6673698,0.03940078,-5.1330204,-38.25,12.7875,-25.3875,0.4013988,-0.61684173,0.5680941,998.67645, , , , 
2025-09-20 21:11:32.910,7.436893,-13.751552,0.076570325,0.6508764,0.03695732,-5.0065713,-40.6875,8.793751,-23.8125,0.43189535,-0.59334683,0.55470884,998.67645, , , , 
2025-09-20 21:11:32.931,6.0729837,-12.928421,-0.4953143,0.5702423,0.1084285,-4.805597,-40.612503,3.3187501,-24.45,0.46718088,-0.5633943,0.5368825,998.6774, , , , 
2025-09-20 21:11:32.950,4.4458647,-12.131611,-0.23688944,0.5042689,0.03573559,-4.5630836,-39.393753,-1.63125,-25.837502,0.49255174,-0.53964686,0.52196777,998.6774, , , , 
2025-09-20 21:11:32.970,3.0245278,-11.332408,-0.17228323,0.47861254,-0.23121232,-4.2209992,-41.2125,-5.2125,-22.2,0.5162606,-0.5172443,0.50636023,998.6784, , , , 
2025-09-20 21:11:32.990,2.1870399,-11.236695,0.19860429,0.51465356,-0.6130028,-3.8673086,-41.081253,-9.7875,-23.34375,0.5389933,-0.49728513,0.48986217,998.6784, , , , 
2025-09-20 21:11:33.010,0.11724831,-11.475977,-1.0025927,0.49205157,-0.6863066,-3.3425758,-39.46875,-13.368751,-22.6875,0.5608571,-0.47979593,0.47317374,998.6767, , , , 
2025-09-20 21:11:33.030,-1.9118652,-11.3371935,-2.629712,0.15241076,-0.24709481,-2.546619,-40.0875,-17.681252,-20.831251,0.5786681,-0.46510577,0.45858863,998.6767, , , , 
2025-09-20 21:11:33.050,-2.6344976,-10.365707,-2.4358935,-0.4016436,0.33750278,-1.615661,-40.125,-17.2875,-22.5375,0.5880578,-0.45434046,0.44867802,998.67377, , , , 
2025-09-20 21:11:33.070,-1.7946169,-9.501899,-0.5694918,-0.72356933,0.41325003,-0.89972746,-38.11875,-18.09375,-21.018751,0.58917576,-0.4484241,0.44303113,998.67377, , , , 
2025-09-20 21:11:33.090,-1.7922242,-9.920643,1.2394822,-0.62949616,0.2159407,-0.33773187,-36.54375,-17.681252,-21.975,0.585503,-0.44686309,0.43900034,998.6645, , , , 
2025-09-20 21:11:33.110,-3.9242291,-10.284351,1.0671989,-0.34361145,-0.0058032153,0.3342194,-35.5125,-18.54375,-24.35625,0.58169895,-0.4491031,0.43860522,998.6645, , , , 
2025-09-20 21:11:33.130,-4.6636114,-9.38465,0.25842485,-0.1933387,-0.26053384,1.4123957,-39.0,-16.9125,-23.775002,0.5765562,-0.45646468,0.4419471,998.67645, , , , 
2025-09-20 21:11:33.151,-1.2801601,-8.920443,0.32303107,-0.116980605,-0.16462806,2.5198936,-39.225002,-17.306252,-24.187502,0.56752336,-0.4700345,0.45022148,998.67645, , , , 
2025-09-20 21:11:33.170,2.6488547,-9.391829,0.1363909,0.049174614,0.016187917,3.060509,-37.875,-15.0375,-25.3875,0.5540312,-0.48673427,0.46371818,998.6713, , , , 
2025-09-20 21:11:33.190,5.1086764,-10.557134,-1.174876,0.21655156,0.0858265,3.2016187,-40.350002,-11.85,-22.06875,0.5381844,-0.50369316,0.4804814,998.6713, , , , 
2025-09-20 21:11:33.210,5.13739,-12.016755,-3.249453,0.15790854,-0.14508039,3.4270277,-41.23125,-7.6875005,-23.75625,0.51764935,-0.52510154,0.5017797,998.62885, , , , 
2025-09-20 21:11:33.230,5.5106707,-13.378271,-3.8739798,-0.13347395,-0.160352,3.868683,-40.443752,-5.11875,-23.04375,0.49897772,-0.5452362,0.5175614,998.62885, , , , 
2025-09-20 21:11:33.250,6.472585,-14.014762,-3.2398818,-0.52870345,0.26175556,4.375701,-42.35625,-1.4625001,-22.44375,0.47440532,-0.56785834,0.5336015,998.59, , , , 
2025-09-20 21:11:33.270,7.960921,-13.895121,-1.6606189,-0.75899947,0.5073232,4.7471066,-41.5875,2.9625,-23.400002,0.44288498,-0.5914617,0.55033207,998.59, , , , 
2025-09-20 21:11:33.290,10.095319,-13.387843,-0.72023964,-0.74006265,0.40286532,4.8973794,-41.41875,8.1,-24.16875,0.4079063,-0.61471134,0.56659377,998.582, , , , 
2025-09-20 21:11:33.310,11.444871,-12.598211,-0.18424734,-0.594066,0.24831653,4.753826,-40.818752,11.025001,-24.393751,0.37326908,-0.6362795,0.58119273,998.582, , , , 
2025-09-20 21:11:33.330,10.770095,-12.435499,-0.9092726,-0.571464,0.30512697,4.612716,-37.256252,15.50625,-25.95,0.33982915,-0.65505475,0.59423554,998.5744, , , , 
2025-09-20 21:11:33.350,10.30828,-12.619746,-0.96430755,-0.7137955,0.16584979,4.734889,-36.862503,19.7625,-24.075,0.30605996,-0.6724349,0.605377,998.5744, , , , 
2025-09-20 21:11:33.370,12.232109,-12.265609,-0.15792629,-0.8127556,0.049174614,4.8454556,-37.068752,23.71875,-25.050001,0.271498,-0.6899382,0.61413324,998.5754, , , , 
2025-09-20 21:11:33.391,14.914464,-11.294123,0.56470615,-0.8640682,0.14446951,4.543689,-33.43125,27.843752,-27.056252,0.22822641,-0.70979816,0.6221798,998.5754, , , , 
2025-09-20 21:11:33.410,16.141981,-10.439885,0.25842485,-0.8145882,0.17867795,3.9768062,-31.312502,31.3875,-22.6875,0.1964053,-0.7226166,0.6262783,998.5617, , , , 
2025-09-20 21:11:33.430,14.81875,-9.609575,-0.27996024,-0.93676114,0.2782489,3.5742462,-29.081251,33.61875,-24.45,0.16814026,-0.7333483,0.62808454,998.5617, , , , 
2025-09-20 21:11:33.450,14.749359,-8.659625,1.0193424,-1.0015128,0.44562587,3.3806021,-26.718752,35.9625,-23.1375,0.14042114,-0.7432619,0.627931,998.5661, , , , 
2025-09-20 21:11:33.470,15.661024,-7.5326056,2.656033,-0.6508764,0.23060146,3.0831108,-25.181252,37.96875,-20.475,0.114105314,-0.7513827,0.6275103,998.5661, , , , 
2025-09-20 21:11:33.491,16.29273,-6.2811594,1.9525433,-0.016798781,-0.015577052,2.6744423,-21.65625,37.96875,-22.06875,0.09286727,-0.7558865,0.62922996,998.5837, , , , 
2025-09-20 21:11:33.510,16.321444,-5.383851,-2.0985055,0.2837467,0.24953826,2.3073127,-18.73125,41.5125,-22.743752,0.07223103,-0.7563302,0.634978,998.5837, , , , 
2025-09-20 21:11:33.531,17.230717,-4.6037908,-4.220939,-0.008246674,0.3808742,2.0898447,-17.15625,40.55625,-22.85625,0.056548577,-0.75617737,0.63858193,998.59, , , , 
2025-09-20 21:11:33.550,19.513468,-4.4004006,-3.7016966,-0.3912589,0.36315912,1.6634612,-16.331251,41.756252,-22.6875,0.042589646,-0.75806105,0.6386526,998.59, , , , 
2025-09-20 21:11:33.570,20.714666,-4.666004,-2.0482562,-0.6734784,0.5720749,0.93531036,-15.69375,41.943752,-23.23125,0.032193955,-0.7613784,0.6356477,998.5822, , , , 
2025-09-20 21:11:33.591,21.640688,-6.570691,0.06460621,-0.6716458,0.60994846,0.32444555,-12.4875,43.3875,-22.875,0.02519888,-0.76500905,0.63081133,998.5822, , , , 
2025-09-20 21:11:33.610,22.77967,-6.798009,1.2873386,-0.3442223,0.25137085,-0.3340667,-13.8,42.862503,-20.868752,0.0235666,-0.76743484,0.6264492,998.601, , , , 
2025-09-20 21:11:33.633,22.346571,-6.1160545,1.7706888,-0.09682207,0.06627883,-1.4910445,-13.218751,42.80625,-20.75625,0.03289437,-0.7678805,0.62282014,998.6264, , , , 
2025-09-20 21:11:33.650,20.384457,-6.5443697,3.1202407,0.066889696,0.13713914,-2.2277474,-13.35,42.16875,-21.337502,0.044053677,-0.7669948,0.6205336,998.6264, , , , 
2025-09-20 21:11:33.672,15.771094,-8.123632,4.807181,0.7681625,-0.48533207,-3.0811255,-18.45,41.53125,-21.375,0.07185266,-0.7615422,0.618394,998.6264, , , , 
2025-09-20 21:11:33.691,12.373286,-9.882358,3.1609187,1.4523311,-1.4944807,-3.3633451,-21.206251,39.506252,-21.6,0.10477229,-0.75268203,0.62039524,998.665, , , , 
2025-09-20 21:11:33.710,12.703495,-11.260623,-0.5838487,1.4413354,-1.5238022,-3.350517,-22.331251,38.15625,-22.63125,0.14252234,-0.74176425,0.6234583,998.665, , , , 
2025-09-20 21:11:33.731,14.141582,-12.268002,-2.3282163,1.0442734,-1.018617,-3.4219882,-23.6625,38.775,-23.456251,0.16947055,-0.7336245,0.6240631,998.66547, , , , 
2025-09-20 21:11:33.750,15.448063,-12.952349,-1.6175481,0.27458373,-0.18967351,-3.752466,-29.75625,34.78125,-22.743752,0.20855631,-0.721413,0.619533,998.66547, , , , 
2025-09-20 21:11:33.770,15.270994,-13.55534,-0.043070808,-0.010079269,0.2696968,-4.1739626,-30.69375,31.575,-22.462502,0.2366249,-0.71179,0.6115415,998.65424,37.88835113,127.739793,141.613037109375,1.94
2025-09-20 21:11:33.790,13.600804,-13.911871,1.3543376,9.162972E-4,0.6814197,-4.5258207,-32.7,30.2625,-23.71875,0.26350752,-0.6999992,0.6016902,998.65424, , , , 
2025-09-20 21:11:33.811,11.480763,-14.196617,2.0697916,0.3197877,0.7669407,-4.6815915,-35.4375,26.75625,-24.618752,0.29624793,-0.6803778,0.5894486,998.6618, , , , 
2025-09-20 21:11:33.830,11.387443,-14.440684,1.9262222,0.67653275,0.49632764,-4.709691,-35.4,23.38125,-23.6625,0.3165198,-0.6662788,0.5826917,998.6618, , , , 
2025-09-20 21:11:33.850,11.253445,-14.624932,0.3278167,1.046106,0.060781047,-4.855077,-38.362503,18.112501,-24.750002,0.3540743,-0.6398604,0.57142013,998.6784, , , , 
2025-09-20 21:11:33.870,9.664611,-14.407186,-0.9499506,1.054658,-0.14446951,-4.943652,-38.362503,13.875001,-23.268751,0.38671666,-0.61713916,0.5606971,998.6784, , , , 
2025-09-20 21:11:33.891,7.786245,-13.60559,-1.2299109,0.9025527,-0.20127994,-4.83614,-41.568752,10.3125,-22.893751,0.419001,-0.5942041,0.5478011,998.67426, , , , 
2025-09-20 21:11:33.910,6.6448684,-12.394821,-1.0719845,0.7553343,-0.19272783,-4.6418853,-40.74375,4.40625,-21.5625,0.44909418,-0.5717047,0.53334904,998.67426, , , , 
2025-09-20 21:11:33.930,5.4676,-11.4353,-1.2203395,0.60689414,-0.030237807,-4.4195304,-40.818752,3.05625,-23.79375,0.47639388,-0.5494738,0.51820105,998.664, , , , 
2025-09-20 21:11:33.951,3.95055,-10.593026,-1.1772687,0.4725039,0.088269964,-4.148917,-41.71875,-4.14375,-22.518751,0.50016487,-0.5274227,0.50318736,998.664, , , , 
2025-09-20 21:11:33.970,2.6009982,-10.147961,-0.8997013,0.39431322,-0.015577052,-3.7604072,-41.568752,-6.99375,-22.368752,0.52580905,-0.50127286,0.48470458,998.64886, , , , 
2025-09-20 21:11:33.991,1.2370893,-9.846465,-0.44985065,0.40897396,-0.2593121,-3.2808783,-40.987503,-10.668751,-22.21875,0.5441371,-0.482921,0.47021013,998.64886, , , , 
2025-09-20 21:11:34.010,0.06699903,-9.243474,-0.75613195,0.4499019,-0.48227775,-2.6034293,-38.34375,-13.6125,-23.25,0.5607702,-0.4678662,0.45678696,998.6503, , , , 
2025-09-20 21:11:34.030,-0.36370903,-8.707481,-1.2394822,0.37598726,-0.52748173,-2.1055746,-39.73125,-15.4875,-24.54375,0.57173586,-0.45905104,0.44788694,998.6503, , , , 
2025-09-20 21:11:34.050,-0.45224348,-8.365308,-1.4285151,0.11331542,-0.31367907,-1.2845722,-39.206253,-17.081251,-22.5,0.58519787,-0.449262,0.43619958,998.63666, , , , 
2025-09-20 21:11:34.071,-0.2009971,-7.9944205,-0.8350951,-0.040622506,-0.14569125,-0.68348134,-37.987503,-18.206251,-21.337502,0.59064597,-0.44529054,0.43056643,998.63666, , , , 
2025-09-20 21:11:34.091,-0.019142581,-8.807981,-0.526421,-0.04367683,-0.043065965,-0.108657576,-37.74375,-19.29375,-22.368752,0.5924825,-0.444342,0.428004,998.6291, , , , 
2025-09-20 21:11:34.110,-1.1102697,-9.851251,-1.5984055,-0.11331542,0.0070249448,0.5461895,-38.925003,-20.025002,-22.2,0.59087026,-0.44683194,0.42964822,998.6291, , , , 
2025-09-20 21:11:34.130,-1.2753744,-9.504292,-1.4045869,-0.34727663,0.11209369,1.4600432,-37.4625,-17.8875,-22.48125,0.58489686,-0.45425576,0.4347539,998.6171, , , , 
2025-09-20 21:11:34.151,1.0648061,-8.736196,-0.18185452,-0.54580766,0.46150833,2.3060908,-36.675003,-16.181252,-22.81875,0.57285994,-0.46655968,0.44422325,998.6171, , , , 
2025-09-20 21:11:34.170,3.37388,-8.719446,0.52163535,-0.5842922,0.72295845,2.7147593,-41.41875,-16.425001,-22.3125,0.5553928,-0.48084596,0.45794746,998.61224, , , , 
2025-09-20 21:11:34.190,4.321438,-9.322437,1.0600204,-0.4083631,0.4865538,2.8961864,-40.068752,-12.168751,-25.312502,0.53539133,-0.4956666,0.47376454,998.61224, , , , 
2025-09-20 21:11:34.210,4.359723,-10.21496,0.7537391,-0.07666353,-0.160352,3.1362562,-40.48125,-10.35,-22.743752,0.5168829,-0.5118464,0.48918685,998.6132, , , , 
2025-09-20 21:11:34.230,4.802395,-11.181661,-0.33499518,0.1517999,-0.45906487,3.4948337,-41.175003,-5.9437504,-23.85,0.5006028,-0.5302156,0.504096,998.6132, , , , 
2025-09-20 21:11:34.250,5.5202417,-12.033505,-1.6941184,0.1188132,-0.28252497,3.9511497,-41.850002,-3.525,-24.393751,0.47822934,-0.5547589,0.52429307,998.6159, , , , 
2025-09-20 21:11:34.270,6.8051877,-12.562319,-2.1176481,-0.10476331,-0.118202336,4.3457685,-41.475002,0.61875004,-23.118752,0.45556068,-0.5754586,0.5414793,998.6159, , , , 
2025-09-20 21:11:34.290,8.30788,-12.801601,-1.5744773,-0.3686569,0.11270455,4.6078296,-42.54375,3.8812501,-24.88125,0.4283002,-0.597087,0.55819935,998.60956, , , , 
2025-09-20 21:11:34.310,9.288938,-12.863814,-0.4953143,-0.5568032,0.42913252,4.780704,-41.850002,8.175,-23.6625,0.39661944,-0.61823916,0.5742505,998.60956, , , , 
2025-09-20 21:11:34.330,9.944571,-12.768102,0.23688944,-0.5904008,0.56535536,4.902266,-39.65625,13.125001,-24.6375,0.36162016,-0.6380178,0.5896197,998.60345, , , , 
2025-09-20 21:11:34.351,11.243874,-12.509677,-0.016749758,-0.5378664,0.7082977,4.9731264,-37.912502,18.16875,-24.806252,0.3246482,-0.6559342,0.6043173,998.60345, , , , 
2025-09-20 21:11:34.370,12.784851,-12.346965,-0.64606214,-0.6808088,0.83719015,4.8924923,-35.737503,22.368752,-24.487501,0.28624794,-0.67173135,0.61783636,998.60345, , , , 
2025-09-20 21:11:34.391,14.431113,-12.227324,-0.1268196,-0.82741636,0.82741636,4.623101,-33.73125,24.937502,-26.081251,0.23797019,-0.6895052,0.63071734,998.60345, , , , 
2025-09-20 21:11:34.410,14.888143,-11.420942,0.7393822,-0.8793399,0.6966913,4.2321477,-30.956251,30.581251,-27.31875,0.20173582,-0.7019182,0.6375063,998.60004, , , , 
2025-09-20 21:11:34.430,14.273187,-10.521241,1.538585,-0.80725783,0.6545416,3.9169414,-29.56875,32.475002,-26.493752,0.16861488,-0.7123748,0.64215934,998.60004, , , , 
2025-09-20 21:11:34.451,14.268401,-9.52822,1.564906,-0.5891791,0.6716458,3.6909213,-24.35625,34.256252,-27.6,0.13743742,-0.72038376,0.64630336,998.60565, , , , 
2025-09-20 21:11:34.471,15.010177,-8.7266245,1.2203395,-0.39736754,0.3753764,3.4545166,-22.800001,37.0125,-25.7625,0.10864107,-0.7261265,0.6503944,998.60565, , , , 
2025-09-20 21:11:34.491,15.651453,-7.3698936,0.9906286,-0.1621846,-0.20494513,3.124039,-20.681252,37.4625,-24.618752,0.08486149,-0.7303065,0.6541964,998.61395, , , , 
2025-09-20 21:11:34.511,16.721045,-6.364908,-0.03589234,0.16829325,-0.70951945,2.7007096,-18.2625,38.475002,-25.85625,0.06465964,-0.7333913,0.6591702,998.61395, , , , 
2025-09-20 21:11:34.531,17.070396,-5.4580283,-1.5553347,0.2593121,-0.7498365,2.3726752,-17.737501,40.3875,-25.406252,0.05655238,-0.7340448,0.6623702,998.61664, , , , 
2025-09-20 21:11:34.550,18.678373,-5.3312087,-3.0412776,0.050396346,-0.43218684,1.9340743,-15.0375,39.05625,-27.31875,0.04571472,-0.73486876,0.66616976,998.61664, , , , 
2025-09-20 21:11:34.570,20.183458,-4.8909297,-2.952743,-0.22266021,-0.027183482,1.4209478,-12.4125,40.6875,-25.2,0.038004506,-0.7365278,0.66647744,998.6142, , , , 
2025-09-20 21:11:34.591,20.769701,-4.9459643,-2.5962126,-0.6337722,0.39003715,0.643317,-16.556252,41.25,-23.868752,0.031816777,-0.73938775,0.6640383,998.6142, , , , 
2025-09-20 21:11:34.610,20.475384,-6.532406,-0.40917268,-0.78709924,0.47861254,-0.016416991,-12.262501,41.550003,-23.41875,0.02838758,-0.74368775,0.65866905,998.60614, , , , 
2025-09-20 21:11:34.631,19.659431,-6.384051,1.9980069,-0.42913252,-0.009468404,-0.4916698,-12.243751,43.050003,-24.281252,0.029649092,-0.74737954,0.6531186,998.60614, , , , 
2025-09-20 21:11:34.650,20.114067,-5.3240304,2.7421749,0.09376775,-0.69730216,-1.082987,-14.175,42.975002,-23.456251,0.038437806,-0.74833906,0.65043986,998.6213, , , , 
2025-09-20 21:11:34.671,19.482363,-5.8887367,2.9910283,0.45295623,-1.0992512,-1.9699626,-13.687501,40.18125,-24.431252,0.056742262,-0.7465178,0.6500495,998.6213, , , , 
2025-09-20 21:11:34.690,17.670996,-8.544769,2.9479575,0.7278454,-1.1664463,-2.8502188,-18.6,41.4,-22.59375,0.09084678,-0.7406101,0.65054494,998.64105, , , , 
2025-09-20 21:11:34.710,15.68256,-11.339586,1.7802601,0.8616248,-0.82191855,-3.3828928,-20.1375,40.143753,-24.825,0.122631535,-0.73281777,0.6510043,998.64105, , , , 
2025-09-20 21:11:34.731,14.155939,-13.021741,0.20578274,0.7858775,-0.3741547,-3.5973063,-20.8125,37.575,-24.150002,0.14616136,-0.7255871,0.6509075,998.66034, , , , 
2025-09-20 21:11:34.750,13.186846,-14.117654,-0.9595219,0.42180213,0.037568185,-3.7744572,-26.04375,35.662502,-23.79375,0.18199693,-0.71290976,0.64828277,998.66034, , , , 
2025-09-20 21:11:34.771,12.528819,-14.218152,-0.11724831,0.21655156,-0.021074835,-3.9027388,-29.550001,32.7,-25.125002,0.20908754,-0.7032617,0.64293057,998.6596,37.88835059,127.73977886,141.9813232421875,1.3
2025-09-20 21:11:34.791,12.416357,-13.99562,0.8781659,0.17134757,-0.25198174,-4.082333,-30.112501,31.406252,-24.35625,0.23706082,-0.6935489,0.63521504,998.6596, , , , 
2025-09-20 21:11:34.811,12.102897,-13.761123,1.2394822,0.19394957,-0.11759147,-4.293692,-35.100002,28.518751,-23.681252,0.2737039,-0.67961067,0.62357664,998.6618, , , , 
2025-09-20 21:11:34.830,11.428121,-13.720445,1.0863415,0.16340633,0.21716243,-4.434802,-33.99375,26.643751,-25.06875,0.29499596,-0.6696312,0.61602336,998.6618, , , , 
2025-09-20 21:11:34.850,10.523634,-13.830515,1.4285151,0.20311254,0.43218684,-4.5771337,-36.28125,24.16875,-23.306252,0.3279626,-0.6501789,0.60274875,998.6755, , , , 
2025-09-20 21:11:34.870,9.868001,-14.048262,1.6606189,0.40225446,0.25076,-4.682813,-38.268753,19.35,-23.587502,0.3542977,-0.63222677,0.5914743,998.6755, , , , 
2025-09-20 21:11:34.891,8.49452,-14.038691,1.1940185,0.61178106,-0.068722285,-4.7164106,-37.55625,13.968751,-25.837502,0.38226795,-0.6126083,0.5793478,998.6811, , , , 
2025-09-20 21:11:34.911,7.4033933,-13.667803,0.70348984,0.6985239,-0.25320345,-4.614396,-38.662502,10.743751,-25.5375,0.41130143,-0.5922716,0.56619114,998.6811, , , , 
2025-09-20 21:11:34.930,6.410372,-13.043276,0.040677983,0.64476776,-0.17195843,-4.3871546,-42.6375,5.71875,-23.75625,0.43934125,-0.5718111,0.55243075,998.6923, , , , 
2025-09-20 21:11:34.951,5.8672013,-12.047862,-0.1363909,0.5317578,0.019853106,-4.1330347,-40.59375,2.0812502,-23.60625,0.47019044,-0.5462156,0.5353533,998.6923, , , , 
2025-09-20 21:11:34.970,5.0656056,-11.504691,-0.3397808,0.4761691,0.094378605,-3.9296167,-41.193752,-1.0875001,-25.218752,0.49167582,-0.52572703,0.5220306,998.6794, , , , 
2025-09-20 21:11:34.991,4.182654,-11.023734,-0.4139583,0.4254673,-0.040011644,-3.6467865,-40.162502,-5.4375,-26.306252,0.5111921,-0.5060596,0.508714,998.6794, , , , 
2025-09-20 21:11:35.011,3.089134,-10.411171,-0.29910284,0.39858928,-0.1933387,-3.341354,-40.55625,-7.8750005,-23.34375,0.52931404,-0.4882342,0.4951731,998.6657, , , , 
2025-09-20 21:11:35.030,1.3040884,-10.01157,-0.6939186,0.34727663,-0.16340633,-2.9901068,-41.1375,-10.05,-23.325,0.5456624,-0.47218293,0.482148,998.6657, , , , 
2025-09-20 21:11:35.050,-0.66759753,-9.236296,-1.0480564,0.15668681,0.1084285,-2.25768,-39.225002,-13.593751,-22.237501,0.55831236,-0.45824277,0.47127607,998.66473, , , , 
2025-09-20 21:11:35.070,-1.5002998,-8.958728,-1.0552348,0.04734202,0.20005822,-1.5997785,-39.300003,-15.468751,-23.04375,0.5664107,-0.44708765,0.46356836,998.66473, , , , 
2025-09-20 21:11:35.091,-1.8329022,-9.109476,-0.9595219,-0.0027488915,0.0051923506,-0.9400445,-39.768753,-18.712502,-25.893751,0.5710597,-0.43977538,0.45865557,998.66034, , , , 
2025-09-20 21:11:35.110,-1.6606189,-9.74836,-0.74895346,0.013133593,-0.4480693,-0.16913319,-36.206253,-16.875,-23.75625,0.5744346,-0.43801638,0.4548162,998.66034, , , , 
2025-09-20 21:11:35.131,-1.5050855,-10.353744,-1.2107682,0.0058032153,-0.6966913,0.566348,-37.143753,-19.21875,-22.743752,0.5755452,-0.44129193,0.453697,998.663, , , , 
2025-09-20 21:11:35.150,-1.2299109,-9.274581,-1.0600204,-0.21838416,-0.5079341,1.5437317,-39.318752,-17.587502,-21.993752,0.57337725,-0.45341036,0.4554196,998.663, , , , 
2025-09-20 21:11:35.170,0.8662018,-8.427522,0.05742774,-0.34910923,0.041844238,2.2492805,-39.84375,-15.7875,-20.493752,0.56486,-0.4674198,0.46209806,998.6535, , , , 
2025-09-20 21:11:35.191,3.0987053,-8.080562,0.66041905,-0.32406378,0.4535671,2.6353471,-40.8375,-14.26875,-21.5625,0.5502802,-0.48201567,0.4742248,998.6535, , , , 
2025-09-20 21:11:35.211,4.536792,-8.544769,0.5072784,-0.1432478,0.33872452,2.77157,-40.912502,-12.637501,-23.962502,0.5331253,-0.49622518,0.48912904,998.6491, , , , 
2025-09-20 21:11:35.231,4.8191447,-9.317652,-0.567099,0.028405212,-0.024129158,2.9316165,-40.5,-8.3625,-23.94375,0.51686525,-0.51084465,0.5040173,998.6491, , , , 
2025-09-20 21:11:35.251,5.13739,-10.164711,-1.6749759,0.041844238,-0.26175556,3.2755332,-43.350002,-5.7937503,-23.325,0.4973881,-0.5314964,0.5217189,998.6337, , , , 
2025-09-20 21:11:35.270,5.7020965,-10.688739,-2.5507488,-0.19028437,-0.09926552,3.6316674,-43.21875,-3.0375001,-24.112501,0.4794551,-0.5501861,0.53576326,998.6337, , , , 
2025-09-20 21:11:35.291,6.046663,-11.07159,-2.2325034,-0.63010705,0.35216355,4.0421686,-43.162502,-0.43125,-22.10625,0.4558107,-0.5702667,0.5501986,998.62225, , , , 
2025-09-20 21:11:35.310,7.5732837,-11.143375,0.4642076,-0.92148954,0.5610793,4.5473537,-42.9375,3.5625002,-22.35,0.42534423,-0.59188956,0.56481564,998.62225, , , , 
2025-09-20 21:11:35.331,8.482556,-11.507084,2.6464617,-0.7510582,0.5073232,4.858284,-40.0125,9.8625,-24.88125,0.39069194,-0.6136211,0.57988113,998.6125, , , , 
2025-09-20 21:11:35.351,12.368501,-10.932807,3.034099,-0.18845178,0.29107708,4.8857727,-40.3875,12.31875,-26.212502,0.35528958,-0.63293254,0.59635687,998.6125, , , , 
2025-09-20 21:11:35.371,12.557533,-10.195817,1.4715859,0.19700389,-0.113926284,4.491765,-38.175003,16.893751,-24.393751,0.32409918,-0.6478801,0.61255336,998.622, , , , 
2025-09-20 21:11:35.391,11.346765,-10.473385,0.08853444,0.32284203,-0.4413498,4.334773,-37.068752,20.75625,-26.118752,0.2919557,-0.6628264,0.6299664,998.622, , , , 
2025-09-20 21:11:35.411,11.954542,-11.188839,-0.30867413,0.2904662,-0.51526445,4.4306784,-36.91875,23.118752,-24.112501,0.26755852,-0.673756,0.6419824,998.61053, , , , 
2025-09-20 21:11:35.430,14.419149,-10.985449,-0.04546363,0.25870124,-0.37659815,4.4178505,-33.412502,28.81875,-25.10625,0.2424473,-0.6838862,0.6525583,998.61053, , , , 
2025-09-20 21:11:35.451,15.914663,-10.068997,-0.32542387,0.15729769,0.3735438,4.138685,-32.1375,28.462502,-25.987501,0.21561266,-0.69173217,0.6621781,998.5998, , , , 
2025-09-20 21:11:35.470,15.639489,-8.520842,-0.32063824,0.024740024,0.8139773,3.5821874,-30.018751,31.66875,-26.550001,0.18731473,-0.69725144,0.670411,998.5998, , , , 
2025-09-20 21:11:35.490,14.730216,-7.6666036,-0.78723866,-0.1291979,1.0534363,3.182071,-26.85,34.36875,-26.118752,0.15975673,-0.70131916,0.67681175,998.6049, , , , 
2025-09-20 21:11:35.510,14.227723,-7.111469,-1.0360922,-0.32772896,1.2305871,2.8094435,-24.150002,34.65,-27.187502,0.12674406,-0.7058765,0.6818776,998.6049, , , , 
2025-09-20 21:11:35.531,14.392828,-7.4129643,-0.6628119,-0.5250383,1.3881903,2.617632,-20.587502,35.625,-26.85,0.10727174,-0.7087191,0.6833132,998.59344, , , , 
2025-09-20 21:11:35.551,16.01277,-7.8077803,0.99302137,-0.4566214,1.1139119,2.3482406,-19.556252,37.10625,-26.718752,0.07625405,-0.7134099,0.68381673,998.59344, , , , 
2025-09-20 21:11:35.570,17.970098,-6.9822564,1.4691931,-0.0051923506,0.4743365,1.9352959,-15.95625,39.600002,-28.0125,0.05766946,-0.7151198,0.6849795,998.58905, , , , 
2025-09-20 21:11:35.591,18.738194,-6.0490556,-1.3112668,0.33017242,0.3026835,1.2639556,-14.681251,39.35625,-28.143751,0.04682383,-0.7140278,0.6879861,998.58905, , , , 
2025-09-20 21:11:35.610,18.22613,-5.8337016,-3.735196,0.10537417,0.63988084,0.7257837,-14.681251,38.71875,-26.718752,0.03996262,-0.71220404,0.6905874,998.60126, , , , 
2025-09-20 21:11:35.631,17.800207,-6.63769,-3.7734814,-0.30879214,0.87017685,0.35437793,-13.650001,39.975002,-29.5125,0.03375079,-0.71235263,0.69004464,998.60126, , , , 
2025-09-20 21:11:35.651,18.015562,-6.7262244,-1.3160524,-0.43707374,0.3582722,-0.11415535,-11.493751,41.41875,-27.825,0.029800601,-0.71462804,0.6865983,998.58417, , , , 
2025-09-20 21:11:35.670,18.312271,-6.458228,-0.09332009,-0.29840744,-0.40958482,-0.6889791,-13.875001,38.325,-27.69375,0.03330819,-0.71700394,0.6828591,998.58417, , , , 
2025-09-20 21:11:35.691,18.19263,-7.0636125,1.1078769,-0.23182319,-0.8640682,-1.3145046,-12.450001,39.46875,-28.837502,0.045895215,-0.71900994,0.67900836,998.5961, , , , 
2025-09-20 21:11:35.711,16.847864,-9.006584,2.9216363,-0.025961753,-1.2067634,-2.1904848,-14.887501,39.9375,-26.2875,0.07220236,-0.7200745,0.6737218,998.5961, , , , 
2025-09-20 21:11:35.730,15.404992,-10.437492,3.4672,0.20127994,-1.3387102,-2.6443572,-18.35625,38.831253,-24.937502,0.092311025,-0.7191269,0.6707498,998.61664, , , , 
2025-09-20 21:11:35.751,13.983656,-12.268002,2.8833513,0.43707374,-1.4456115,-3.0469172,-19.85625,37.818752,-26.587502,0.13008875,-0.7144322,0.66642016,998.61664, , , , 
2025-09-20 21:11:35.770,13.954942,-13.323236,2.4430718,0.5079341,-1.723555,-3.3572364,-23.025002,36.73125,-25.25625,0.16313858,-0.70868415,0.6625193,998.6423,37.88834191,127.73975879,142.3560791015625,2.57
2025-09-20 21:11:35.790,13.818551,-13.75873,1.8783658,0.5073232,-2.0222678,-3.729253,-25.650002,35.34375,-24.900002,0.20031212,-0.7017808,0.6569591,998.6423, , , , 
2025-09-20 21:11:35.811,12.875778,-13.746766,1.375873,0.18723005,-1.4077379,-4.0243006,-29.625002,31.687502,-24.13125,0.24867457,-0.691706,0.64664876,998.6503, , , , 
2025-09-20 21:11:35.831,12.296716,-13.617554,2.0554347,-0.07177661,-0.4327977,-4.244212,-34.3875,29.081251,-23.94375,0.28220192,-0.68222904,0.636548,998.6503, , , , 
2025-09-20 21:11:35.850,11.779866,-13.596018,2.4191437,-0.0650571,0.35521787,-4.5001645,-34.725002,24.69375,-22.25625,0.3103894,-0.66986173,0.62663496,998.6606, , , , 
2025-09-20 21:11:35.871,10.753345,-13.670196,1.7419748,0.097432934,0.62766355,-4.727406,-37.66875,22.5,-20.90625,0.33602172,-0.6537652,0.6173457,998.6606, , , , 
2025-09-20 21:11:35.891,9.9038925,-13.667803,0.8135597,0.24953826,0.29168794,-4.9387655,-37.65,19.5375,-23.04375,0.36233103,-0.635029,0.60726136,998.6684, , , , 
2025-09-20 21:11:35.910,9.23151,-13.799408,0.4953143,0.31245732,-0.19822562,-5.089038,-39.131252,17.175001,-25.3875,0.3913847,-0.61520296,0.5946064,998.6684, , , , 
2025-09-20 21:11:35.931,7.941778,-13.763515,0.16271193,0.33139414,-0.53297955,-5.1495137,-41.362503,10.6875,-21.69375,0.43097654,-0.5897909,0.57457817,998.66156, , , , 
2025-09-20 21:11:35.951,6.6759753,-13.301702,-0.18185452,0.2696968,-0.4865538,-5.0664363,-40.65,4.6875,-23.4375,0.45458302,-0.5741857,0.5610556,998.66156, , , , 
2025-09-20 21:11:35.970,4.8789654,-12.356536,-0.9667004,0.109039366,-0.26908594,-4.7946014,-43.612503,0.375,-20.71875,0.48362583,-0.5530058,0.5424551,998.6435, , , , 
2025-09-20 21:11:35.990,3.4672,-11.559726,-1.3208381,-0.11575887,0.035124727,-4.4024262,-44.1375,-3.6562502,-21.056252,0.5138517,-0.5270443,0.5194767,998.6435, , , , 
2025-09-20 21:11:36.010,2.1104696,-10.911271,-0.94755775,-0.2452622,0.22999059,-3.9302275,-41.7,-7.6312504,-22.0125,0.5322175,-0.5074859,0.502452,998.6286, , , , 
2025-09-20 21:11:36.031,1.0289137,-10.19821,-0.5072784,-0.24098615,0.20311254,-3.4415357,-40.818752,-8.418751,-22.050001,0.5433586,-0.49398187,0.4908,998.6286, , , , 
2025-09-20 21:11:36.050,-0.4019942,-9.332008,-0.25603202,-0.1291979,0.17134757,-2.6468008,-42.075,-13.031251,-20.8875,0.5584762,-0.47458294,0.47399542,998.6213, , , , 
2025-09-20 21:11:36.070,-1.1557333,-8.370093,-0.3493521,-0.076052666,0.24098615,-1.8031964,-38.8875,-14.793751,-22.5,0.5687023,-0.45960402,0.46237862,998.6149, , , , 
2025-09-20 21:11:36.091,-1.1174482,-7.850851,-0.31585258,-0.06017018,0.26847506,-1.1721731,-39.487503,-16.35,-22.96875,0.5722327,-0.45321944,0.4582232,998.6149, , , , 
2025-09-20 21:11:36.111,-0.8709874,-7.520642,-0.011964113,-0.031459536,0.11759147,-0.4495201,-37.7625,-17.2875,-23.56875,0.57458854,-0.44728068,0.45528862,998.6149, , , , 
2025-09-20 21:11:36.130,-0.72023964,-7.946564,0.086141616,0.03695732,-0.038179047,-0.020693045,-39.112503,-17.94375,-20.925001,0.57470685,-0.44671574,0.45525894,998.62006, , , , 
2025-09-20 21:11:36.151,-0.8877372,-9.963714,-1.4093726,0.13347395,-0.318566,0.72150767,-39.412502,-17.456251,-22.9125,0.57357544,-0.4507387,0.4579178,998.62006, , , , 
2025-09-20 21:11:36.171,-1.3136597,-9.343972,-2.5028925,-0.17012584,-0.42485645,1.65552,-37.10625,-17.081251,-25.2,0.570143,-0.4598387,0.46232054,998.6103, , , , 
2025-09-20 21:11:36.191,0.59342,-8.532805,-1.0935199,-0.56718796,0.003970621,2.328693,-40.443752,-14.587501,-22.81875,0.5610045,-0.47453916,0.46912217,998.6103, , , , 
2025-09-20 21:11:36.211,2.5028925,-8.305488,0.91884387,-0.6875283,0.6716458,2.6903248,-40.95,-13.387501,-22.6875,0.5446603,-0.49071702,0.4799917,998.60565, , , , 
2025-09-20 21:11:36.230,3.1680973,-9.217153,1.4213367,-0.4401281,0.83413583,2.883969,-40.74375,-9.75,-25.218752,0.523688,-0.505225,0.49501815,998.60565, , , , 
2025-09-20 21:11:36.251,3.0269206,-10.856236,-0.18664017,-0.09987639,0.25992295,3.218112,-42.24375,-6.80625,-23.38125,0.49778855,-0.52310234,0.51593065,998.61053, , , , 
2025-09-20 21:11:36.271,3.5365918,-11.976077,-1.579263,-0.038179047,-0.23609924,3.6670976,-42.2625,-4.18125,-25.06875,0.4834106,-0.5360648,0.5280271,998.61053, , , , 
2025-09-20 21:11:36.291,6.108876,-12.926028,-2.2947168,-0.25137085,-0.18417573,4.2016044,-40.893753,-1.0500001,-25.556252,0.4572391,-0.56223285,0.54749423,998.60834, , , , 
2025-09-20 21:11:36.310,7.585248,-13.406985,-2.3569303,-0.6685915,0.5109884,4.5302496,-41.100002,3.9,-24.112501,0.42960435,-0.5841785,0.56366783,998.60834, , , , 
2025-09-20 21:11:36.331,8.930014,-13.174882,-0.7800602,-0.9703587,0.77488196,4.673803,-39.3375,8.71875,-27.825,0.40399873,-0.60042864,0.5757549,998.59344, , , , 
2025-09-20 21:11:36.351,9.781859,-12.768102,0.8997013,-0.9355394,0.36743516,4.645703,-38.15625,12.431251,-26.306252,0.35867217,-0.62686646,0.5933107,998.59344, , , , 
2025-09-20 21:11:36.370,10.212567,-12.51207,1.3280165,-0.6185006,-0.27885976,4.6493683,-37.800003,15.806251,-24.993752,0.31726784,-0.6513401,0.6076093,998.59247, , , , 
2025-09-20 21:11:36.390,11.624332,-12.287145,1.6295122,-0.3857611,-0.6349939,4.6524224,-35.550003,18.7875,-27.093752,0.29488376,-0.664915,0.615243,998.59247, , , , 
2025-09-20 21:11:36.411,13.304094,-12.179467,1.3495519,-0.015577052,-0.9422589,4.434344,-37.256252,22.95,-23.1375,0.26218903,-0.6842085,0.6271264,998.5966, , , , 
2025-09-20 21:11:36.431,12.9954195,-11.849257,0.91166544,0.20066908,-0.9947933,4.237645,-33.487503,26.212502,-25.10625,0.24514735,-0.6932679,0.63388157,998.5966, , , , 
2025-09-20 21:11:36.451,12.629318,-11.016556,0.5886344,0.3564396,-0.8500183,4.134409,-33.412502,29.56875,-23.90625,0.21824794,-0.7047538,0.6448604,998.5959, , , , 
2025-09-20 21:11:36.470,13.3687,-10.624132,0.62931234,0.54641855,-0.62766355,4.087373,-31.518751,31.63125,-24.843752,0.19640625,-0.7110702,0.6536966,998.5959, , , , 
2025-09-20 21:11:36.491,15.677774,-9.698111,-1.1796615,0.70585424,-0.082161315,3.8289769,-29.23125,32.23125,-23.118752,0.17361929,-0.71435916,0.663163,998.5944, , , , 
2025-09-20 21:11:36.511,16.390835,-8.571091,-4.2352962,0.47739083,0.62888527,3.3952627,-26.23125,36.15,-23.8125,0.14976822,-0.7153454,0.6721505,998.5944, , , , 
2025-09-20 21:11:36.530,16.110874,-7.245467,-5.369494,-0.182954,1.1841614,2.9340599,-26.025002,36.300003,-25.837502,0.124438845,-0.7173205,0.6774269,998.58026, , , , 
2025-09-20 21:11:36.550,15.9433775,-6.6448684,-1.9070797,-0.8768964,1.4114031,2.3268602,-17.98125,39.131252,-25.7625,0.09867901,-0.7226852,0.6767781,998.58026, , , , 
2025-09-20 21:11:36.571,15.4217415,-6.1710896,0.9667004,-0.69180435,0.9117157,1.786245,-16.837502,40.59375,-24.281252,0.07191409,-0.73013324,0.67245984,998.559, , , , 
2025-09-20 21:11:36.591,15.026926,-5.613562,1.2897314,-0.18539746,0.37781987,1.4404955,-16.3875,40.537502,-26.025002,0.05787093,-0.7330838,0.6710167,998.559, , , , 
2025-09-20 21:11:36.611,16.14916,-5.95095,-0.9284152,0.21838416,0.040622506,1.0941352,-15.562501,41.100002,-24.6,0.049486008,-0.73311955,0.6722452,998.58417, , , , 
2025-09-20 21:11:36.630,17.027327,-6.1447687,-2.6464617,0.22388195,0.0027488915,0.8241329,-13.668751,41.90625,-22.368752,0.045915693,-0.73225164,0.6738233,998.58417, , , , 
2025-09-20 21:11:36.651,18.64966,-7.688139,-3.6466618,-0.15302163,-0.054672398,0.25358525,-13.743751,40.55625,-25.66875,0.043775883,-0.73199046,0.67444646,998.59564, , , , 
2025-09-20 21:11:36.670,19.381863,-8.449057,-2.1655045,-0.4071414,-0.29779658,-0.31451902,-14.493751,41.2125,-25.181252,0.046708237,-0.7339852,0.6718304,998.59564, , , , 
2025-09-20 21:11:36.691,19.262222,-8.176275,0.14117654,-0.4657844,-0.51648617,-1.0432807,-12.39375,40.6875,-25.81875,0.058346573,-0.73744303,0.6663607,998.5903, , , , 
2025-09-20 21:11:36.710,18.013168,-7.9657063,2.4646072,-0.29474226,-0.36315912,-1.7311144,-14.625001,42.075,-24.750002,0.07338823,-0.7391042,0.6617488,998.5903, , , , 
2025-09-20 21:11:36.731,16.25923,-8.4682,3.1848469,0.10415245,-0.22204934,-2.2454627,-15.6,41.5875,-24.468752,0.08670805,-0.73830414,0.65940905,998.6198, , , , 
2025-09-20 21:11:36.751,14.730216,-10.2317095,1.7371893,0.6704241,-0.6252201,-2.753091,-21.09375,38.41875,-23.7,0.114099465,-0.7319337,0.658818,998.6198, , , , 
2025-09-20 21:11:36.771,13.653446,-11.432906,-0.6125626,0.8451314,-1.1432334,-3.134271,-21.393751,38.381252,-23.6625,0.1425095,-0.7237796,0.65948784,998.6579,37.88833439,127.73974276,142.67205810546875,0.9
2025-09-20 21:11:36.793,13.158132,-12.031113,-1.8041883,0.64721125,-1.1786636,-3.3535712,-24.468752,37.6875,-23.15625,0.16649553,-0.7173237,0.65881455,998.6579, , , , 
2025-09-20 21:11:36.810,12.406785,-13.344772,-1.174876,0.10231985,-0.81031215,-3.6632798,-26.5125,34.74375,-24.0,0.20682947,-0.70779055,0.65307426,998.66254, , , , 
2025-09-20 21:11:36.831,12.337394,-13.878371,0.18903299,-0.10231985,-0.49449503,-3.7964482,-27.900002,33.61875,-24.4125,0.23692617,-0.70067114,0.6451751,998.66254, , , , 
2025-09-20 21:11:36.851,12.7082815,-13.785051,1.146162,-0.14019346,-0.008857539,-4.095772,-32.737503,29.493752,-21.35625,0.27159488,-0.6897865,0.63396895,998.66425, , , , 
2025-09-20 21:11:36.871,12.090933,-13.768302,0.89730847,-0.15974113,0.29474226,-4.4512954,-35.5875,27.581251,-22.800001,0.298347,-0.67821574,0.62429595,998.66425, , , , 
2025-09-20 21:11:36.891,10.815558,-13.966906,1.1030912,-0.1310305,0.45051277,-4.687089,-37.40625,25.9125,-22.050001,0.32471448,-0.6641884,0.6134988,998.6718, , , , 
2025-09-20 21:11:36.911,10.028319,-13.974084,0.9906286,-0.029626941,0.43218684,-4.809873,-38.175003,20.60625,-22.44375,0.35093522,-0.6479511,0.60183036,998.6718, , , , 
2025-09-20 21:11:36.931,9.15494,-14.038691,0.8135597,0.068722285,0.3753764,-4.894783,-39.412502,18.225,-21.712502,0.37068772,-0.6345316,0.59242517,998.67596, , , , 
2025-09-20 21:11:36.950,7.881958,-13.655839,0.6795616,0.17745622,0.25503606,-4.8526335,-41.381252,13.44375,-22.78125,0.40370023,-0.61012274,0.5755574,998.67596, , , , 
2025-09-20 21:11:36.971,7.0612197,-12.873385,0.11246266,0.25198174,0.17379104,-4.750008,-40.893753,7.89375,-22.96875,0.43610778,-0.5841532,0.5575475,998.6757, , , , 
2025-09-20 21:11:36.991,6.096912,-12.093326,-0.44745782,0.24159703,0.016187917,-4.643107,-40.55625,4.55625,-21.73125,0.46119985,-0.5629161,0.5420889,998.6757, , , , 
2025-09-20 21:11:37.011,4.615755,-11.540584,-0.79441714,0.14508039,-0.11942407,-4.4482408,-41.850002,-1.1812501,-22.2,0.4854544,-0.54231375,0.52514386,998.66644, , , , 
2025-09-20 21:11:37.030,3.0436704,-10.762917,0.124426775,0.116980605,-0.31612253,-4.114709,-43.85625,-3.0,-21.2625,0.5023873,-0.52782166,0.5118145,998.66644, , , , 
2025-09-20 21:11:37.051,2.201397,-9.667004,0.37567315,0.30146176,-0.5506946,-3.5704284,-41.737503,-6.39375,-21.768751,0.523676,-0.5102896,0.49430957,998.66156, , , , 
2025-09-20 21:11:37.070,1.7347964,-8.664411,-1.0025927,0.32772896,-0.521984,-3.1183884,-42.05625,-11.53125,-21.6,0.54820746,-0.49066022,0.47450945,998.66156, , , , 
2025-09-20 21:11:37.091,0.8997013,-8.236095,-1.8496519,0.13164136,-0.41325003,-2.7494261,-40.575,-12.356251,-22.931252,0.5648778,-0.47684687,0.46007448,998.65497, , , , 
2025-09-20 21:11:37.111,-0.3469593,-7.9944205,-1.3806586,-0.16096286,-0.22021675,-2.1367285,-37.912502,-14.325001,-22.800001,0.57731616,-0.4657325,0.4470088,998.65497, , , , 
2025-09-20 21:11:37.131,-1.105484,-7.676175,-0.7609176,-0.25014913,-0.06750056,-1.5454116,-40.143753,-16.556252,-21.35625,0.5850722,-0.45768046,0.43673447,998.64154, , , , 
2025-09-20 21:11:37.150,-1.4787644,-7.216753,-0.32063824,-0.22754712,0.054672398,-0.6908117,-39.28125,-18.09375,-20.737501,0.58912134,-0.45195428,0.42942694,998.64154, , , , 
2025-09-20 21:11:37.170,-1.4883357,-7.475178,-0.36610186,-0.1517999,0.04978548,0.005574141,-40.48125,-19.706251,-21.75,0.58901346,-0.45121992,0.42789716,998.6374, , , , 
2025-09-20 21:11:37.191,-1.5696917,-8.068598,-0.9954142,-0.062613636,-0.02535089,0.85040015,-38.49375,-18.0,-22.987501,0.58628994,-0.45440316,0.43015054,998.6374, , , , 
2025-09-20 21:11:37.210,-0.94277215,-8.003992,-1.5146568,-0.09071342,-0.16768238,1.722715,-38.325,-16.368752,-22.63125,0.58071434,-0.46253031,0.43596452,998.64154, , , , 
2025-09-20 21:11:37.230,1.1581261,-7.8221374,-0.7322037,-0.10537417,-0.18967351,2.422766,-41.100002,-16.1625,-20.19375,0.57143164,-0.47596806,0.44498172,998.64154, , , , 
2025-09-20 21:11:37.251,3.4025939,-7.745567,-1.6390835,-0.0754418,0.060781047,2.7306418,-40.275,-13.481251,-19.650002,0.5589252,-0.49201688,0.4570549,998.6337, , , , 
2025-09-20 21:11:37.270,2.5603201,-9.341579,-2.4837499,-0.32162032,0.32223117,2.9371142,-41.662502,-11.231251,-23.19375,0.539059,-0.51180404,0.47468227,998.6337, , , , 
2025-09-20 21:11:37.291,2.1822543,-10.9352,-1.4811572,-0.41325003,0.100487255,3.4355798,-42.768753,-9.356251,-22.875,0.51935875,-0.5301663,0.48929426,998.61786, , , , 
2025-09-20 21:11:37.310,4.87418,-12.2584305,-0.1794617,-0.21655156,-0.3509418,4.1557894,-42.5625,-3.1312501,-20.325,0.49726525,-0.5524998,0.5047999,998.61786, , , , 
2025-09-20 21:11:37.330,7.381858,-12.598211,-0.23688944,0.021074835,-0.48349947,4.5742316,-43.0125,0.43125,-20.775002,0.47363833,-0.57636034,0.5217559,998.61664, , , , 
2025-09-20 21:11:37.350,10.360922,-11.784652,-0.567099,0.1273653,-0.34055713,4.6841874,-43.050003,5.2875004,-21.35625,0.44840503,-0.599404,0.5394899,998.61664, , , , 
2025-09-20 21:11:37.370,11.533405,-11.006984,-0.9284152,0.045509428,0.014355322,4.4044113,-43.256252,7.9875,-19.800001,0.42177576,-0.6195758,0.5567074,998.61053, , , , 
2025-09-20 21:11:37.391,10.454242,-10.939985,-0.6364908,-0.0632245,0.21471897,4.1405177,-41.8875,11.868751,-20.15625,0.39433005,-0.636511,0.57220984,998.61053, , , , 
2025-09-20 21:11:37.410,9.427721,-11.452049,-0.47377887,-0.074830934,0.182954,4.1637306,-39.1875,16.3875,-21.46875,0.35943186,-0.6552866,0.5893769,998.6037, , , , 
2025-09-20 21:11:37.431,10.238888,-11.710474,-0.33020952,-0.06933315,0.17012584,4.2828493,-39.46875,20.1,-21.65625,0.33789903,-0.66601497,0.59893,998.6037, , , , 
2025-09-20 21:11:37.450,12.18186,-11.626725,-0.8039884,-0.107817635,0.48594293,4.231537,-37.575,22.9125,-22.331251,0.30033773,-0.68210375,0.614013,998.5976, , , , 
2025-09-20 21:11:37.470,12.746566,-11.5932255,-1.6127625,-0.3515527,0.9819651,4.0458336,-35.831253,26.437502,-22.706251,0.2681545,-0.6928171,0.6247432,998.5976, , , , 
2025-09-20 21:11:37.490,12.701102,-11.224731,-0.07178468,-0.70585424,1.2440261,3.869294,-32.662502,28.275002,-23.925001,0.23378754,-0.7029037,0.6327667,998.5927, , , , 
2025-09-20 21:11:37.510,13.612768,-10.997413,1.2658032,-0.60689414,1.4480549,3.724519,-30.843752,30.69375,-23.94375,0.19869103,-0.71193105,0.6389176,998.5927, , , , 
2025-09-20 21:11:37.535,13.2203455,-9.970892,0.05503492,-0.46456265,1.7467679,3.4227517,-27.13125,33.1875,-23.85,0.15502827,-0.7190051,0.6468487,998.59125, , , , 
2025-09-20 21:11:37.551,12.404392,-8.623733,0.49052864,-0.5042689,1.5439607,3.3109634,-25.031252,34.78125,-24.7875,0.12092611,-0.72284687,0.6520383,998.59125, , , , 
2025-09-20 21:11:37.571,13.648661,-7.6402826,2.2468605,-0.205556,0.7449496,3.1423647,-21.581251,35.775,-26.737501,0.09106853,-0.7260525,0.6562145,998.5859, , , , 
2025-09-20 21:11:37.590,14.950356,-7.0085773,1.1150553,0.45234537,0.016187917,2.8650322,-17.306252,38.193752,-24.862501,0.069133565,-0.726431,0.6623363,998.5859, , , , 
2025-09-20 21:11:37.611,15.491134,-6.515656,-2.0434706,0.6850849,-0.45417798,2.5889213,-18.375,38.5875,-26.306252,0.054134026,-0.7241526,0.6703589,998.60126, , , , 
2025-09-20 21:11:37.631,16.814365,-6.0107703,-3.6921253,0.46028662,-0.58307046,2.3635123,-16.35,38.550003,-25.9125,0.045608543,-0.722592,0.6755691,998.60126, , , , 
2025-09-20 21:11:37.651,18.728622,-5.802595,-3.0412776,-0.1725693,-0.62766355,1.6811762,-16.725,39.506252,-26.38125,0.035539117,-0.7231263,0.679339,998.5778, , , , 
2025-09-20 21:11:37.670,18.991833,-5.8600225,-0.7322037,-0.5006037,-0.44501498,1.0269401,-11.700001,40.518753,-25.893751,0.031705763,-0.72642463,0.6777925,998.5778, , , , 
2025-09-20 21:11:37.690,19.020548,-7.5924263,1.5290136,-0.5201514,-0.044287696,0.38736463,-9.637501,41.98125,-26.812502,0.03036531,-0.73121655,0.6733981,998.57294, , , , 
2025-09-20 21:11:37.711,18.917656,-7.925029,2.5866413,-0.15607595,0.052839804,-0.0066431547,-12.187501,40.443752,-24.13125,0.031157788,-0.73311615,0.6709249,998.57294, , , , 
2025-09-20 21:11:37.731,19.838892,-6.963114,1.7946169,0.14263692,-0.054672398,-0.46479174,-12.431251,40.66875,-24.13125,0.033918228,-0.73267716,0.67074245,998.5966, , , , 
2025-09-20 21:11:37.751,19.81975,-6.9559355,1.4237294,0.28741187,-0.03329213,-1.6718606,-13.33125,41.2125,-25.44375,0.046063118,-0.72997296,0.67114526,998.5966, , , , 
2025-09-20 21:11:37.772,16.92922,-8.439486,1.1653047,0.39858928,0.041233372,-2.6431355,-15.58125,40.125,-26.550001,0.0633225,-0.72624326,0.67073005,998.6152,37.88832949,127.73973128,143.00384521484375,1.37
2025-09-20 21:11:37.791,13.634303,-10.564312,0.863809,0.43585202,-0.04856375,-3.2350636,-16.5375,38.90625,-27.45,0.08584566,-0.72095686,0.6693866,998.6152, , , , 
2025-09-20 21:11:37.811,11.267802,-12.141182,0.9595219,0.47861254,-0.14630212,-3.42321,-19.6875,37.95,-25.368752,0.11135963,-0.7145523,0.66695786,998.62714, , , , 
2025-09-20 21:11:37.830,10.356136,-12.952349,1.079163,0.521984,-0.2953531,-3.3963318,-20.71875,37.21875,-25.987501,0.1377078,-0.70720774,0.66389847,998.62714, , , , 
2025-09-20 21:11:37.851,10.856236,-12.921243,1.1940185,0.5366447,-0.6520982,-3.3425758,-23.400002,35.23125,-29.306252,0.1715742,-0.6973652,0.65919,998.63495, , , , 
2025-09-20 21:11:37.871,11.617154,-12.270394,1.6103697,0.5109884,-0.8713986,-3.490405,-26.025002,34.068752,-26.79375,0.20051888,-0.68924505,0.653971,998.63495, , , , 
2025-09-20 21:11:37.890,11.88515,-11.784652,1.6893328,0.44440413,-0.8451314,-3.834322,-29.962502,30.45,-27.4125,0.23139927,-0.6802658,0.6469567,998.63934, , , , 
2025-09-20 21:11:37.911,11.260623,-11.91865,2.2181466,0.4169152,-0.6698132,-4.2289405,-33.2625,28.500002,-28.968752,0.26325142,-0.6696665,0.6379833,998.63934, , , , 
2025-09-20 21:11:37.931,10.805987,-12.1459675,2.1391835,0.4847212,-0.6319396,-4.4183087,-34.068752,26.38125,-23.98125,0.28751585,-0.66020197,0.63040483,998.6506, , , , 
2025-09-20 21:11:37.950,10.992627,-12.51207,1.2418749,0.6362157,-0.73700833,-4.600346,-36.487503,22.29375,-24.88125,0.32888594,-0.6416256,0.6166014,998.6506, , , , 
2025-09-20 21:11:37.971,11.042876,-12.768102,-0.16271193,0.5720749,-0.8634574,-4.7854385,-38.831253,18.5625,-25.500002,0.36319506,-0.62486196,0.60386467,998.65106, , , , 
2025-09-20 21:11:37.991,10.875379,-13.050455,-0.4833502,0.2452622,-0.8164208,-4.9308243,-40.631252,15.637501,-23.75625,0.40605122,-0.60335326,0.5836367,998.65106, , , , 
2025-09-20 21:11:38.011,10.025927,-13.2514515,-0.069391854,-0.00641408,-0.43707374,-5.0022955,-40.4625,10.6875,-24.112501,0.43776414,-0.585535,0.5646107,998.6423, , , , 
2025-09-20 21:11:38.031,8.788837,-13.060026,0.22971097,-0.107817635,0.17989968,-4.913109,-41.98125,8.26875,-22.725,0.45833543,-0.57084167,0.55041164,998.6423, , , , 
2025-09-20 21:11:38.050,6.606583,-12.356536,-0.634098,-0.11453715,0.79076445,-4.633333,-41.04375,0.54375005,-23.306252,0.48557243,-0.5430488,0.52965534,998.63715, , , , 
2025-09-20 21:11:38.070,5.0105705,-11.126625,-0.93320084,-0.19089524,0.8952223,-4.282086,-40.0875,-5.8125,-26.1375,0.5023,-0.51982266,0.51495403,998.63715, , , , 
2025-09-20 21:11:38.091,3.5772698,-10.092926,-0.47138608,-0.16707152,0.6496547,-3.9662685,-39.581253,-9.0,-24.618752,0.5167351,-0.49769023,0.5002384,998.6308, , , , 
2025-09-20 21:11:38.110,1.6773686,-9.437292,0.09571291,0.013744458,0.24953826,-3.5679848,-39.15,-10.462501,-24.281252,0.530648,-0.47749156,0.48518696,998.6308, , , , 
2025-09-20 21:11:38.130,-0.19381863,-8.487342,-0.040677983,0.28252497,-0.28802276,-2.956509,-39.28125,-13.218751,-23.94375,0.5450986,-0.46015283,0.47053695,998.62616, , , , 
2025-09-20 21:11:38.150,-1.0217353,-7.6259255,-1.1964114,0.35705048,-0.55985755,-2.1825435,-37.48125,-16.125,-26.437502,0.5597748,-0.44722587,0.4569612,998.62616, , , , 
2025-09-20 21:11:38.170,-1.698904,-7.4416785,-2.5028925,0.1432478,-0.286801,-1.5423572,-37.068752,-17.475,-23.15625,0.57427377,-0.43647885,0.44359633,998.613, , , , 
2025-09-20 21:11:38.191,-2.7732813,-8.281559,-2.6703901,-0.19761476,-0.014355322,-0.6877574,-38.30625,-18.46875,-22.66875,0.5797518,-0.43162024,0.43711516,998.613, , , , 
2025-09-20 21:11:38.211,-3.5605202,-8.609376,-2.268396,-0.38026333,-0.13164136,0.28962627,-36.693752,-19.9125,-23.212502,0.5798586,-0.43196505,0.43453526,998.60004, , , , 
2025-09-20 21:11:38.230,-2.5794628,-8.018349,-1.3998013,-0.5024363,-0.26480988,1.3641374,-38.568752,-19.743752,-22.875,0.57533103,-0.43952554,0.43582904,998.60004, , , , 
2025-09-20 21:11:38.251,0.11246266,-7.0372915,0.016749758,-0.4987711,-0.074830934,2.1558182,-38.1375,-16.96875,-22.931252,0.56602895,-0.4529583,0.44168064,998.592, , , , 
2025-09-20 21:11:38.270,3.4049866,-7.1018977,0.6939186,-0.31184646,0.3478875,2.5644867,-37.143753,-14.118751,-22.275002,0.54859513,-0.47177064,0.45601663,998.592, , , , 
2025-09-20 21:11:38.291,4.3357944,-8.185846,-0.31106696,-0.10109812,0.6722567,2.6335144,-40.143753,-12.431251,-24.206251,0.53226966,-0.48469836,0.47178802,998.59125, , , , 
2025-09-20 21:11:38.310,3.5581272,-9.956535,-1.9621146,-0.0632245,0.5006037,2.8821363,-39.54375,-10.25625,-24.243752,0.51508063,-0.49683228,0.4891092,998.59125, , , , 
2025-09-20 21:11:38.331,4.278367,-11.32523,-2.7732813,-0.22388195,-0.07238748,3.453295,-38.11875,-5.49375,-25.743752,0.49712196,-0.5131256,0.50563014,998.5837, , , , 
2025-09-20 21:11:38.351,6.4797635,-11.631511,-2.8546374,-0.5531381,0.07299834,3.9755843,-41.79375,-3.99375,-25.29375,0.4764711,-0.53431916,0.5213054,998.5837, , , , 
2025-09-20 21:11:38.370,7.7144604,-11.334801,-2.292324,-1.01373,0.7192933,4.2791843,-40.29375,-0.88125,-23.925001,0.44934717,-0.55649245,0.53776747,998.57513, , , , 
2025-09-20 21:11:38.390,9.35833,-10.688739,-0.17706887,-1.3503166,0.878729,4.320112,-39.5625,4.0687504,-25.837502,0.41542503,-0.57832396,0.5540008,998.57513, , , , 
2025-09-20 21:11:38.411,10.310673,-9.52822,2.7732813,-1.0558797,0.2764163,4.0971465,-38.2125,7.70625,-27.88125,0.37267226,-0.6044844,0.5707227,998.571, , , , 
2025-09-20 21:11:38.432,10.061819,-9.255438,2.3569303,-0.4639518,-0.15485422,3.8784568,-38.9625,11.231251,-28.1625,0.34466097,-0.6223854,0.5827141,998.571, , , , 
2025-09-20 21:11:38.450,9.020942,-10.100104,0.22731815,-0.15363249,-0.3527744,3.850357,-38.30625,16.143751,-25.406252,0.32091352,-0.6373451,0.5949197,998.5898, , , , 
2025-09-20 21:11:38.470,8.585447,-11.059627,-1.3854443,-0.22143848,-0.35582873,4.0696573,-37.162502,17.38125,-26.681252,0.2974726,-0.65155494,0.6067774,998.5898, , , , 
2025-09-20 21:11:38.491,10.406385,-11.12184,-1.1988041,-0.5592467,-0.31245732,4.3604293,-35.925003,21.243752,-27.337502,0.27109635,-0.6666146,0.6172204,998.5971, , , , 
2025-09-20 21:11:38.510,12.799209,-10.490134,0.29192436,-0.7278454,-0.23548837,4.3634834,-34.537502,25.35,-25.25625,0.24246818,-0.68221766,0.62526923,998.5971, , , , 
2025-09-20 21:11:38.531,14.457435,-10.164711,1.3351951,-0.6551525,-0.066889696,4.1002007,-33.15,25.63125,-26.643751,0.21349347,-0.6960354,0.631689,998.592, , , , 
2025-09-20 21:11:38.551,14.208581,-9.619147,1.3328022,-0.39858928,0.045509428,3.6903105,-28.25625,30.862501,-27.91875,0.18631503,-0.7063954,0.6376131,998.592, , , , 
2025-09-20 21:11:38.571,14.079369,-8.733803,0.28235307,-0.25320345,0.05589413,3.5162141,-28.800001,32.8875,-23.5125,0.15521255,-0.7154573,0.6449401,998.60004, , , , 
2025-09-20 21:11:38.591,15.426528,-7.905886,-0.46660042,-0.23793183,0.13775001,3.295081,-28.0125,33.75,-25.95,0.13751966,-0.71975684,0.648881,998.60004, , , , 
2025-09-20 21:11:38.611,16.074982,-6.984649,-0.9523434,-0.38209593,0.28741187,2.788674,-22.706251,36.15,-24.6375,0.11040594,-0.72571045,0.6533338,998.6054, , , , 
2025-09-20 21:11:38.630,16.058233,-5.8217373,-0.2321038,-0.5225948,0.37293294,2.4417028,-23.25,36.3375,-25.368752,0.09585309,-0.72913104,0.65429884,998.6054, , , , 
2025-09-20 21:11:38.650,17.71646,-5.0775695,1.5625132,-0.35399613,0.5335904,1.921857,-19.21875,39.600002,-24.581251,0.0740055,-0.7340434,0.6543672,998.60834, , , , 
2025-09-20 21:11:38.670,18.295523,-5.2905307,0.38524446,0.009468404,0.42668906,1.3800199,-19.63125,38.9625,-25.893751,0.060442206,-0.7351867,0.6555458,998.60834, , , , 
2025-09-20 21:11:38.690,18.187845,-5.070391,-2.0578275,0.02046397,0.24770567,0.8595631,-14.812501,39.46875,-27.50625,0.050662976,-0.7344977,0.6577708,998.62225, , , , 
2025-09-20 21:11:38.711,18.376879,-6.1878395,-1.7491534,-0.2953531,0.085215636,0.37331474,-15.731251,40.725002,-27.018751,0.047331985,-0.735319,0.6570463,998.62225, , , , 
2025-09-20 21:11:38.730,18.415163,-6.7022963,0.083748795,-0.32895067,-0.19272783,0.036728244,-14.906251,39.9375,-25.218752,0.047803666,-0.7369045,0.6549736,998.6159, , , , 
2025-09-20 21:11:38.751,18.125631,-6.5850477,1.9214365,-0.024129158,-0.80725783,-0.53748465,-15.562501,40.350002,-24.393751,0.05608823,-0.7386073,0.6520346,998.6159, , , , 
2025-09-20 21:11:38.770,18.25963,-7.125826,2.440679,0.22876886,-1.14079,-1.2375357,-17.2875,41.175003,-24.88125,0.070473075,-0.73834413,0.65070724,998.62054,37.88832414,127.73971936,143.33673095703125,1.18
2025-09-20 21:11:38.790,17.233109,-8.796016,2.254039,0.32772896,-1.2110394,-1.9577453,-18.0,39.112503,-24.69375,0.09094808,-0.7364489,0.64941466,998.62054, , , , 
2025-09-20 21:11:38.811,15.225531,-10.8682,2.3904297,0.32100943,-1.3057234,-2.4940846,-19.650002,38.943752,-25.125002,0.1163663,-0.7333542,0.6471135,998.6425, , , , 
2025-09-20 21:11:38.830,13.828122,-12.543177,3.2231321,0.3442223,-1.3112212,-2.7750823,-21.9375,36.225002,-26.268751,0.14468116,-0.7293543,0.6436372,998.6425, , , , 
2025-09-20 21:11:38.850,13.201202,-13.344772,4.0271206,0.53053606,-1.2818997,-2.9913285,-24.581251,34.818752,-24.375002,0.18161575,-0.72215146,0.6390134,998.6767, , , , 
2025-09-20 21:11:38.871,12.464213,-12.952349,3.7040894,0.69730216,-1.1927135,-3.2130723,-29.85,34.912502,-24.13125,0.21221857,-0.71377265,0.63584346,998.6767, , , , 
2025-09-20 21:11:38.891,11.542976,-12.009577,3.6227336,0.7846558,-1.0296125,-3.4006078,-30.16875,31.987501,-22.06875,0.23550646,-0.7060482,0.6334496,998.7131, , , , 
2025-09-20 21:11:38.910,10.676775,-11.184053,3.37388,0.9428698,-0.85795957,-3.6473973,-32.5875,28.7625,-22.575,0.27438307,-0.69026464,0.62941873,998.7131, , , , 
2025-09-20 21:11:38.931,9.956535,-10.772488,2.8522446,1.0173953,-0.84085536,-3.9021277,-36.600002,26.343752,-20.925001,0.30607802,-0.67497885,0.6258387,998.73236, , , , 
2025-09-20 21:11:38.950,10.30828,-11.018949,2.7182465,1.081536,-0.99051726,-4.1470847,-37.78125,24.112501,-21.13125,0.33892086,-0.6578934,0.62102914,998.73236, , , , 
2025-09-20 21:11:38.970,10.619347,-11.641082,2.8259234,1.1988221,-1.3234385,-4.462291,-40.55625,18.46875,-20.362501,0.3743315,-0.6390287,0.61419755,998.7431, , , , 
2025-09-20 21:11:38.991,9.753145,-12.677175,2.0291135,1.1432334,-1.2599086,-4.6596003,-41.41875,14.156251,-20.8125,0.4214328,-0.61263484,0.6026396,998.7431, , , , 
2025-09-20 21:11:39.010,9.322437,-12.921243,1.8065811,1.0045671,-0.99234986,-4.660211,-42.15,10.59375,-20.0625,0.45704386,-0.59004784,0.5918669,998.7414, , , , 
2025-09-20 21:11:39.031,8.69791,-12.8111725,1.3806586,0.85490525,-0.62888527,-4.5991244,-41.86875,9.13125,-19.237501,0.48905104,-0.56645906,0.5806512,998.7414, , , , 
2025-09-20 21:11:39.051,7.9393854,-12.342179,1.2011969,0.6649263,-0.09315688,-4.443354,-44.49375,0.61875004,-17.081251,0.5163597,-0.54205304,0.56986165,998.7443, , , , 
2025-09-20 21:11:39.070,7.810173,-11.581262,1.2323036,0.49938196,0.40347618,-4.2930813,-43.237503,-3.4687502,-18.84375,0.53867185,-0.5168843,0.5602127,998.7443, , , , 
2025-09-20 21:11:39.091,7.1018977,-11.19841,1.6773686,0.49938196,0.47128218,-4.2368817,-44.34375,-5.08125,-16.78125,0.5529659,-0.4974795,0.5534225,998.74335, , , , 
2025-09-20 21:11:39.111,4.6875396,-10.358529,1.6462619,0.6411026,0.13286309,-3.9436667,-43.350002,-11.08125,-17.15625,0.5754637,-0.46495557,0.5416684,998.74335, , , , 
2025-09-20 21:11:39.133,2.8785655,-9.38465,1.1413764,0.7315106,-0.16279547,-3.431762,-40.95,-13.06875,-17.60625,0.5977857,-0.43513194,0.5286171,998.73505, , , , 
2025-09-20 21:11:39.150,1.5960127,-8.384451,0.7728817,0.75411254,-0.15974113,-3.0255368,-40.4625,-18.73125,-19.181252,0.6141751,-0.41393903,0.5185056,998.73505, , , , 
2025-09-20 21:11:39.170,0.0526421,-7.3770723,-0.16510476,0.71257377,-0.068722285,-2.4849215,-37.03125,-20.38125,-16.987501,0.62804884,-0.39500946,0.51009095,998.736, , , , 
2025-09-20 21:11:39.190,-1.0983056,-6.853044,-1.1844472,0.5439751,0.058337588,-1.7873139,-38.9625,-21.956251,-16.06875,0.63873243,-0.37931523,0.5038205,998.736, , , , 
2025-09-20 21:11:39.210,-2.0075781,-6.7429743,-1.5074782,0.36621344,0.15729769,-1.0897064,-40.7625,-24.375002,-16.81875,0.6457686,-0.367828,0.50000864,998.7221, , , , 
2025-09-20 21:11:39.230,-2.4047868,-7.2095747,-1.7970098,0.18600832,0.17318016,-0.3456731,-37.350002,-25.518751,-15.731251,0.6491022,-0.36124182,0.4989939,998.7221, , , , 
2025-09-20 21:11:39.251,-3.306881,-7.5254273,-1.820938,-0.014355322,0.14813471,0.5339722,-38.4375,-25.143751,-15.7875,0.64896584,-0.36051282,0.5006251,998.7043, , , , 
2025-09-20 21:11:39.270,-2.239682,-7.2263246,-0.9020941,-0.18356487,0.17684536,1.5229622,-37.575,-25.181252,-15.262501,0.6447174,-0.36670896,0.50547796,998.7043, , , , 
2025-09-20 21:11:39.291,-0.27038896,-7.094719,-0.2943172,-0.21288638,0.3564396,2.2773802,-39.28125,-22.21875,-17.868752,0.6360013,-0.3787512,0.51435393,998.6777, , , , 
2025-09-20 21:11:39.311,2.1966112,-7.233503,-0.17228323,-0.18906265,0.5531381,2.811276,-40.74375,-20.643751,-16.725,0.61959,-0.39810386,0.53074837,998.6777, , , , 
2025-09-20 21:11:39.331,3.3140593,-8.26481,-0.35174492,-0.12797616,0.43646288,3.1148758,-39.131252,-19.96875,-17.25,0.60386044,-0.41525084,0.54588544,998.66425, , , , 
2025-09-20 21:11:39.351,3.65384,-9.377472,-0.45942193,-0.013744458,0.13591741,3.4642906,-40.912502,-15.675,-16.368752,0.5876054,-0.4341536,0.56080365,998.66425, , , , 
2025-09-20 21:11:39.371,5.089534,-10.490134,-1.4141582,0.065667965,-0.07788526,3.8754025,-42.9,-11.775001,-17.00625,0.5710123,-0.45527375,0.5753393,998.642, , , , 
2025-09-20 21:11:39.393,6.640083,-11.394622,-2.3401806,-0.05589413,-0.004581486,4.252917,-43.125,-9.9375,-16.48125,0.5475951,-0.48435462,0.59321666,998.622, , , , 
2025-09-20 21:11:39.410,7.719246,-12.1459675,-2.7493532,-0.31428993,0.15790854,4.5424666,-43.425003,-4.3500004,-18.45,0.5307632,-0.50290644,0.6037401,998.622, , , , 
2025-09-20 21:11:39.430,10.1288185,-12.524034,-1.0456635,-0.6221658,0.12858704,4.799641,-43.631252,-1.125,-19.85625,0.4975715,-0.5362467,0.6194165,998.622, , , , 
2025-09-20 21:11:39.451,11.7463665,-12.497713,0.67477596,-0.558025,-0.0754418,4.8026953,-44.04375,3.43125,-19.29375,0.4762324,-0.55648464,0.62725276,998.60004, , , , 
2025-09-20 21:11:39.471,12.437892,-12.535997,0.6987042,-0.34055713,0.015577052,4.6255445,-44.081253,8.2875,-19.575,0.4419405,-0.58686894,0.63849837,998.60004, , , , 
2025-09-20 21:11:39.491,11.760723,-13.191631,0.45224348,-0.42485645,0.59467685,4.491154,-42.2625,11.45625,-20.1,0.41259867,-0.6074688,0.6475219,998.5986, , , , 
2025-09-20 21:11:39.511,11.753545,-13.543376,0.76570326,-0.38453937,0.4327977,4.511924,-41.49375,16.7625,-20.175001,0.38068566,-0.6262117,0.6560878,998.5986, , , , 
2025-09-20 21:11:39.530,13.342379,-12.581462,0.3493521,-0.16157374,-0.24587308,4.4526696,-40.443752,20.475,-20.19375,0.35078287,-0.64347005,0.66270894,998.60004, , , , 
2025-09-20 21:11:39.551,14.718252,-11.387443,0.12921242,0.040622506,-0.8597922,4.1722827,-37.59375,22.893751,-21.243752,0.32634637,-0.6585312,0.66669995,998.60004, , , , 
2025-09-20 21:11:39.571,15.156138,-10.147961,-0.41874397,0.12125666,-0.9025527,3.706193,-35.79375,28.181252,-21.73125,0.30293277,-0.6733106,0.6690216,998.59125, , , , 
2025-09-20 21:11:39.590,14.864214,-8.9108715,-0.10767702,0.11148282,-0.6850849,3.4465754,-36.28125,29.475,-19.59375,0.29021806,-0.6803717,0.66981256,998.59125, , , , 
2025-09-20 21:11:39.610,15.326029,-6.9224358,-0.15792629,0.25198174,-0.19639303,3.050735,-32.175003,33.768753,-20.8875,0.2688315,-0.68931234,0.6717631,998.5839, , , , 
2025-09-20 21:11:39.630,15.476777,-5.8504515,-1.052842,0.22571453,0.21410811,2.5919757,-32.662502,32.2125,-19.050001,0.25162223,-0.6940711,0.67422634,998.5839, , , , 
2025-09-20 21:11:39.651,15.18246,-5.0105705,-1.0432707,0.17867795,0.2556469,2.0635777,-28.518751,34.631252,-19.3125,0.23567519,-0.6977062,0.67646515,998.57733, , , , 
2025-09-20 21:11:39.670,15.127425,-4.3836513,-0.2105684,0.33811367,-0.36621344,1.6836197,-29.868752,35.86875,-19.556252,-0.22401822,0.6999842,-0.67810917,998.57733, , , , 
2025-09-20 21:11:39.690,15.96252,-4.3405805,-0.6628119,0.6832523,-1.0528255,1.3006074,-26.94375,36.65625,-18.35625,-0.21931747,0.6995833,-0.67989266,998.5649, , , , 
2025-09-20 21:11:39.711,16.448263,-4.7210393,-2.2037897,0.80176,-1.4395028,0.86628264,-26.831251,37.162502,-19.48125,-0.22151242,0.6962316,-0.6821361,998.5649, , , , 
2025-09-20 21:11:39.731,16.957933,-5.0679984,-3.2446675,0.58307046,-1.4822634,0.41668615,-27.7875,37.66875,-17.550001,-0.2284916,0.69186944,-0.6835528,998.5622, , , , 
2025-09-20 21:11:39.751,17.247465,-6.3338017,-2.3904297,0.18845178,-1.5543455,-0.1532507,-29.475,36.506252,-18.243752,-0.24206235,0.6875414,-0.6824262,998.5622, , , , 
2025-09-20 21:11:39.770,16.8024,-7.4105716,-0.10049855,0.11148282,-2.0613632,-0.68470305,-28.706251,37.331253,-18.525002,-0.25807777,0.68417263,-0.67939407,998.5485,37.88831921,127.73970669,143.5087890625,1.36
2025-09-20 21:11:39.790,15.9433775,-7.288538,1.1174482,0.15057817,-2.4260495,-1.087263,-30.581251,37.74375,-16.03125,-0.27981177,0.678817,-0.67550266,998.5485, , , , 
2025-09-20 21:11:39.811,15.290136,-7.1617184,2.5627131,0.16157374,-2.5176792,-1.5338051,-32.34375,34.93125,-13.668751,-0.30552533,0.67147404,-0.6710449,998.5595, , , , 
2025-09-20 21:11:39.830,14.395221,-7.8628154,3.6634114,0.32100943,-2.4437644,-2.009058,-33.956253,34.3875,-12.39375,-0.33388302,0.6616457,-0.66686755,998.5595, , , , 
2025-09-20 21:11:39.851,13.564912,-8.851051,3.507878,0.49449503,-2.3313653,-2.4085634,-35.68125,32.456253,-11.025001,-0.36369795,0.6486223,-0.66395617,998.5822, , , , 
2025-09-20 21:11:39.871,12.97867,-9.669396,2.7086751,0.51648617,-2.2934918,-2.6571853,-36.525,33.24375,-11.75625,-0.39440188,0.63299084,-0.66166943,998.5822, , , , 
2025-09-20 21:11:39.891,12.756138,-10.392029,2.7038896,0.29718572,-2.3906193,-2.9131377,-38.1375,31.95,-10.425,-0.4260391,0.61625624,-0.6581922,998.62836, , , , 
2025-09-20 21:11:39.911,13.509876,-11.911471,5.615955,0.17623448,-2.7101016,-3.2216244,-39.787502,25.5375,-6.3375,-0.46797165,0.5944469,-0.6503403,998.62836, , , , 
2025-09-20 21:11:39.931,13.706088,-12.330215,7.353144,0.36193737,-2.8670938,-3.4158795,-42.80625,23.831251,-3.6000001,-0.5034043,0.57418674,-0.642487,998.6503, , , , 
2025-09-20 21:11:39.951,14.184652,-12.246467,7.4153576,0.5610793,-2.857931,-3.68466,-45.46875,20.41875,0.112500004,-0.5394374,0.54998547,-0.6347744,998.6503, , , , 
2025-09-20 21:11:39.970,12.969099,-12.150753,6.8721867,0.63988084,-2.1187844,-4.040183,-44.98125,20.587502,0.20625001,-0.5741516,0.52233756,-0.62827224,998.6906, , , , 
2025-09-20 21:11:39.990,11.985648,-12.244074,5.5896335,0.59284425,-0.5537489,-4.178239,-45.84375,15.13125,2.775,-0.6082169,0.48609757,-0.6265395,998.6906, , , , 
2025-09-20 21:11:40.010,11.059627,-12.268002,4.2687955,0.6356048,0.2244928,-4.244212,-48.075,7.8,4.03125,-0.62702185,0.4565769,-0.63100946,998.7233, , , , 
2025-09-20 21:11:40.031,10.667203,-12.540784,3.2350962,0.6832523,0.2403753,-4.311407,-48.393753,5.4187503,2.9625,0.64237374,-0.42605692,0.636999,998.7233, , , , 
2025-09-20 21:11:40.051,10.01157,-12.425928,3.2327034,0.7211259,-0.21410811,-4.407313,-48.91875,0.61875004,3.45,0.65851307,-0.39448604,0.6402136,998.7338, , , , 
2025-09-20 21:11:40.071,9.32483,-12.241681,3.1848469,0.7809906,-0.3839285,-4.5007753,-47.381252,-2.5875,4.40625,0.67574,-0.3617187,0.64036614,998.7338, , , , 
2025-09-20 21:11:40.091,8.114061,-12.119647,2.6919255,0.82375115,-0.24404047,-4.470843,-45.956253,-5.5687504,5.8125,0.69208926,-0.327859,0.6392845,998.7204, , , , 
2025-09-20 21:11:40.111,7.0731835,-11.794223,2.306681,0.88911366,-0.25625777,-4.322403,-46.95,-10.51875,5.4187503,0.70627826,-0.2938358,0.63793427,998.7204, , , , 
2025-09-20 21:11:40.130,6.101698,-11.442478,1.4955142,0.92026776,-0.45051277,-4.0890527,-44.362503,-17.212502,6.15,0.7194024,-0.26037514,0.63516974,998.71185, , , , 
2025-09-20 21:11:40.151,5.1661043,-11.021341,0.5982057,0.7840449,-0.5091558,-3.7084837,-40.893753,-17.587502,3.4875002,0.7348694,-0.2213463,0.6288688,998.71185, , , , 
2025-09-20 21:11:40.170,4.3669014,-10.372886,0.5240282,0.61055934,-0.2593121,-3.3077564,-42.99375,-21.9375,7.05,0.744705,-0.19376747,0.62355196,998.69794, , , , 
2025-09-20 21:11:40.190,3.5772698,-9.997213,0.6723832,0.5421425,0.012522728,-2.9180248,-40.443752,-25.29375,7.4437504,0.7512394,-0.16929713,0.61991614,998.69794, , , , 
2025-09-20 21:11:40.211,1.727618,-9.12144,-0.36610186,0.5006037,0.34727663,-2.4562109,-40.85625,-26.56875,7.0875,0.75494933,-0.14733565,0.61827713,998.6694, , , , 
2025-09-20 21:11:40.230,-0.009571291,-8.599805,-1.4117653,0.35033095,0.55863583,-2.044488,-38.175003,-29.2875,7.1250005,0.75599533,-0.12843828,0.61870074,998.6694, , , , 
2025-09-20 21:11:40.250,-2.3162522,-8.970692,-1.2586247,0.13408482,0.60017467,-1.348713,-35.71875,-30.900002,6.80625,0.7549949,-0.11415256,0.6204807,998.6547, , , , 
2025-09-20 21:11:40.271,-3.306881,-9.52822,-0.4977071,0.21838416,0.30757043,-0.5130501,-35.175003,-31.95,5.25,0.7530865,-0.10463316,0.62314,998.6547, , , , 
2025-09-20 21:11:40.290,-3.2877383,-9.219545,-1.1988041,0.35216355,0.043065965,0.6011673,-35.34375,-31.237501,6.7875004,0.75275236,-0.10428325,0.6247799,998.6352, , , , 
2025-09-20 21:11:40.310,-1.8113668,-8.544769,-1.6127625,0.2678642,0.14630212,1.5449533,-36.5625,-30.618752,8.418751,0.75198746,-0.11108467,0.6273803,998.6352, , , , 
2025-09-20 21:11:40.330,0.7920243,-8.157132,-1.1557333,0.113926284,0.40897396,2.2853215,-38.30625,-29.925001,7.1625004,0.7486456,-0.12461692,0.6325045,998.6213, , , , 
2025-09-20 21:11:40.351,3.6394832,-8.41795,-0.41156548,0.11026109,0.6093376,2.662225,-38.23125,-29.6625,6.0750003,0.7423064,-0.14256603,0.640048,998.6213, , , , 
2025-09-20 21:11:40.371,4.8047876,-9.171689,-0.46181476,0.2922988,0.4431824,2.8350997,-41.5125,-24.656252,8.137501,0.73455924,-0.16167614,0.64821464,998.6069, , , , 
2025-09-20 21:11:40.391,4.685147,-9.580862,-1.012164,0.41325003,0.23915356,3.0073636,-42.318752,-24.35625,7.5750003,0.7291768,-0.17614813,0.6532494,998.6069, , , , 
2025-09-20 21:11:40.410,5.020142,-10.461421,-2.2899313,0.36987862,0.14080434,3.4600146,-43.18125,-19.331251,5.8500004,0.7207043,-0.20216653,0.65918577,998.5983, , , , 
2025-09-20 21:11:40.431,5.879165,-10.63849,-2.1918256,0.14019346,0.24220788,3.8216465,-45.375,-16.331251,6.675,0.7121841,-0.22652307,0.66287154,998.5983, , , , 
2025-09-20 21:11:40.451,7.348358,-10.470992,-0.6987042,0.074830934,0.27397284,4.089816,-45.54375,-13.087501,3.8812501,0.69806385,-0.2610663,0.6666387,998.5734, , , , 
2025-09-20 21:11:40.470,8.207381,-10.755738,-0.4354937,0.31062475,0.0962112,4.207713,-46.55625,-8.475,5.7375,-0.6851446,0.28874108,-0.6685279,998.5734, , , , 
2025-09-20 21:11:40.491,8.776874,-11.215159,-1.134198,0.539699,-0.17562363,4.3231664,-47.4375,-6.2250004,7.3875003,-0.675421,0.3084345,-0.66863585,998.55634, , , , 
2025-09-20 21:11:40.510,10.006784,-11.775081,-2.6273193,0.6533199,-0.51526445,4.446561,-47.662502,0.4875,5.175,-0.659977,0.33954045,-0.6650743,998.55634, , , , 
2025-09-20 21:11:40.531,11.172089,-11.717652,-2.9718857,0.5366447,-0.52564913,4.4538913,-49.29375,5.64375,7.8375,-0.6475623,0.36378992,-0.6592002,998.55194, , , , 
2025-09-20 21:11:40.551,12.691531,-11.459228,-2.6895328,0.25198174,-0.1273653,4.274908,-48.24375,9.262501,6.1312504,-0.6338256,0.38789287,-0.65226126,998.55194, , , , 
2025-09-20 21:11:40.571,13.136597,-11.339586,-1.8041883,-0.07788526,0.53420126,4.046445,-47.11875,12.093751,8.475,-0.6171337,0.41238335,-0.6465645,998.53876, , , , 
2025-09-20 21:11:40.591,13.1078825,-10.932807,-0.55034924,-0.32772896,1.0931425,3.7135234,-46.29375,14.681251,7.1625004,-0.59159607,0.44372833,-0.64259404,998.53876, , , , 
2025-09-20 21:11:40.611,12.88535,-9.942178,1.3615161,-0.22693627,1.1487312,3.3696065,-46.55625,20.5125,5.30625,-0.56969345,0.46706828,-0.641158,998.5285, , , , 
2025-09-20 21:11:40.630,12.622139,-9.420543,1.1940185,0.13225223,0.93492854,3.0861652,-43.818752,22.29375,4.1625004,-0.54875016,0.48618942,-0.64042693,998.5285, , , , 
2025-09-20 21:11:40.650,12.598211,-8.853444,-0.2656033,0.34849834,0.69058263,2.9456663,-42.768753,24.6375,4.36875,-0.5340205,0.4976511,-0.64001465,998.55414, , , , 
2025-09-20 21:11:40.670,13.801801,-7.3435726,-1.3734802,0.3265072,0.36132652,2.6964335,-41.550003,26.156252,2.15625,-0.51218,0.51346165,-0.6378992,998.55414, , , , 
2025-09-20 21:11:40.692,14.871393,-5.8193445,-0.86141616,0.29840744,0.13713914,2.2523348,-42.9375,29.60625,3.80625,-0.49495512,0.5259023,-0.6340801,998.58, , , , 
2025-09-20 21:11:40.711,15.400207,-4.9363933,-0.701097,0.42302385,-0.068722285,1.7538692,-39.393753,31.725,1.1437501,-0.48492596,0.53217983,-0.63140655,998.58, , , , 
2025-09-20 21:11:40.731,15.754344,-5.2905307,-2.0697916,0.5384773,-0.27885976,1.2737294,-39.80625,31.181252,1.9875001,-0.47846758,0.5343905,-0.62972164,998.5832, , , , 
2025-09-20 21:11:40.750,15.955341,-5.312066,-3.9457645,0.33017242,-0.23304491,0.8998802,-36.54375,33.393753,0.6,-0.4751477,0.5344527,-0.6283997,998.5832, , , , 
2025-09-20 21:11:40.770,16.816757,-5.3647084,-4.338187,-0.19089524,-0.085215636,0.50465065,-39.225002,31.85625,2.5125,-0.4742917,0.5355507,-0.6265505,998.5944,37.88831252,127.73969553,143.42340087890625,1.14
2025-09-20 21:11:40.791,18.154345,-6.5084777,-2.7637103,-0.5745183,-0.0772744,6.8722287E-4,-33.43125,34.10625,-2.4,-0.4758523,0.53726083,-0.62467635,998.5944, , , , 
2025-09-20 21:11:40.811,17.498713,-8.01117,-0.9092726,-0.69241524,-0.47922343,-0.7207441,-34.93125,32.7,0.15,-0.48420042,0.5378075,-0.62161374,998.58466, , , , 
2025-09-20 21:11:40.831,15.974484,-7.2646093,-0.13878371,-0.86040306,-0.31917685,-1.0671045,-36.84375,33.35625,0.63750005,-0.4953452,0.53516877,-0.6190645,998.58466, , , , 
2025-09-20 21:11:40.850,15.622739,-6.5946193,2.3856442,-1.0961969,0.48411033,-1.434845,-37.74375,31.3875,3.61875,-0.50812286,0.53309125,-0.6186144,998.5871, , , , 
2025-09-20 21:11:40.871,14.498113,-7.5254273,6.2715883,-0.6820305,0.87078774,-2.0475423,-38.5125,30.956251,0.7875,-0.5156506,0.5303199,-0.6236906,998.5871, , , , 
2025-09-20 21:11:40.891,12.638889,-8.784052,7.4273214,0.26542073,0.027794348,-2.4268894,-39.956253,29.79375,3.0187502,-0.5244284,0.52007127,-0.63233584,998.6152, , , , 
2025-09-20 21:11:40.911,11.373086,-9.834501,5.56092,1.231198,-1.2330306,-2.6755114,-41.53125,27.750002,3.1312501,-0.5383319,0.49991855,-0.6405486,998.6152, , , , 
2025-09-20 21:11:40.931,10.853844,-10.267602,3.1848469,1.5091414,-1.6978986,-2.8276167,-45.487503,23.38125,2.2687502,-0.55700886,0.4725703,-0.64652526,998.67523, , , , 
2025-09-20 21:11:40.950,10.588241,-10.84188,1.6342978,1.3063344,-1.6850705,-2.8996987,-43.78125,22.5375,4.14375,-0.5773606,0.44312474,-0.65040964,998.67523, , , , 
2025-09-20 21:11:40.971,12.124433,-11.251052,2.1415763,1.0338887,-1.5189153,-2.998048,-44.49375,21.337502,5.83125,-0.5971314,0.41489276,-0.65280354,998.71796, , , , 
2025-09-20 21:11:40.993,13.959727,-11.586047,2.9575288,0.8768964,-1.2983931,-3.3694537,-45.09375,19.1625,6.7875004,-0.62083614,0.3797772,-0.6555168,998.71796, , , , 
2025-09-20 21:11:41.010,13.593625,-12.136396,2.7493532,0.733954,-0.86712253,-3.79767,-44.8125,15.450001,6.3375,-0.638586,0.35005176,-0.65907633,998.72186, , , , 
2025-09-20 21:11:41.031,11.973684,-12.459428,2.684747,0.53297955,-0.24098615,-4.0762243,-44.362503,13.368751,7.9687505,-0.65355015,0.31995106,-0.66478294,998.72186, , , , 
2025-09-20 21:11:41.051,10.650454,-12.366107,2.9312077,0.4083631,0.5091558,-4.2118363,-46.050003,8.83125,9.4875,-0.6637187,0.29076636,-0.6735867,998.7292, , , , 
2025-09-20 21:11:41.071,9.985249,-12.466606,3.345166,0.5891791,0.9721913,-4.2490993,-45.862503,6.7500005,8.6625,-0.6687455,0.2619037,-0.68544495,998.7292, , , , 
2025-09-20 21:11:41.090,10.155139,-12.631711,2.7900312,0.87017685,0.90927225,-4.3059096,-46.800003,-0.80625004,7.8,-0.6707993,0.23141266,-0.69822633,998.7238, , , , 
2025-09-20 21:11:41.110,9.303294,-12.631711,1.7611175,1.2073742,0.2922988,-4.4189196,-47.71875,-3.2625,7.1062503,-0.67341185,0.1978959,-0.7086883,998.7238, , , , 
2025-09-20 21:11:41.131,7.489535,-12.165111,0.5383851,1.3020582,-0.12675445,-4.3529463,-45.675003,-7.7812505,5.90625,-0.6789789,0.16187185,-0.7142921,998.7221, , , , 
2025-09-20 21:11:41.150,6.125626,-11.351551,-1.0600204,1.0497711,0.44501498,-4.0181923,-41.79375,-14.700001,4.6687503,-0.684849,0.11847583,-0.71851015,998.7221, , , , 
2025-09-20 21:11:41.171,5.453243,-10.2723875,-1.0648061,0.8121447,0.7480039,-3.707262,-42.768753,-16.331251,8.56875,-0.6840682,0.08823773,-0.724033,998.705, , , , 
2025-09-20 21:11:41.191,4.7401814,-9.609575,-1.1006985,0.7027999,0.4413498,-3.4885724,-44.34375,-20.587502,7.89375,0.6822571,-0.06075746,0.7284719,998.705, , , , 
2025-09-20 21:11:41.211,3.4695928,-9.439685,-0.8805587,0.58062696,0.062613636,-3.2069638,-40.631252,-23.19375,8.26875,0.6821364,-0.03544141,0.7297129,998.6882, , , , 
2025-09-20 21:11:41.231,1.9453648,-9.193225,-0.552742,0.53236866,-0.09010255,-2.8044038,-41.79375,-25.425001,7.5937505,0.68322015,-0.012820432,0.72856224,998.6882, , , , 
2025-09-20 21:11:41.251,0.6364908,-8.453842,-0.9379865,0.49205157,0.017409647,-2.270508,-39.9,-27.487501,9.675,0.6842425,0.0065950803,0.7266761,998.6606, , , , 
2025-09-20 21:11:41.271,-0.567099,-8.123632,-2.2612174,0.30390522,0.3741547,-1.7445534,-39.112503,-30.768751,9.9375,0.6836018,0.022226203,0.7260243,998.6606, , , , 
2025-09-20 21:11:41.291,-2.009971,-8.973084,-2.8522446,-0.041844238,0.46028662,-1.0322851,-37.85625,-30.50625,8.231251,0.67985064,0.03452765,0.7280476,998.6506, , , , 
2025-09-20 21:11:41.310,-2.8666015,-9.963714,-2.347359,-0.24342962,-0.0021380268,-0.20761767,-36.600002,-30.6375,10.275001,0.67804915,0.036671944,0.72914743,998.6506, , , , 
2025-09-20 21:11:41.330,-3.2949169,-9.430114,-1.3734802,-0.35582873,-0.40042186,0.81313735,-35.7,-30.656252,8.793751,0.6797215,0.031202052,0.7279818,998.64374, , , , 
2025-09-20 21:11:41.351,-1.442872,-8.23131,-0.033499517,-0.36315912,-0.3356702,1.7801363,-37.256252,-30.956251,10.368751,0.68282986,0.018359898,0.72636104,998.64374, , , , 
2025-09-20 21:11:41.370,1.8137596,-7.685746,0.27996024,-0.1744019,0.03573559,2.4581962,-36.412502,-28.593752,5.8125,0.6840839,8.498933E-4,0.72674716,998.6462, , , , 
2025-09-20 21:11:41.391,4.3669014,-8.23131,-0.94277215,-0.0015271619,0.02046397,2.6353471,-40.631252,-25.425001,7.3125005,0.6833169,-0.018125534,0.7285888,998.6462, , , , 
2025-09-20 21:11:41.411,5.0847483,-9.425328,-2.1631117,0.050396346,-0.52992517,2.703153,-40.95,-23.25,9.375,0.68374544,-0.037116878,0.7284031,998.63226, , , , 
2025-09-20 21:11:41.431,5.424529,-10.475778,-2.8019953,-0.045509428,-0.9947933,2.984151,-42.112503,-21.75,9.262501,-0.6892006,0.0626237,-0.72184753,998.63226, , , , 
2025-09-20 21:11:41.450,6.771688,-11.277373,-2.199004,-0.31551164,-0.7620538,3.326846,-44.025,-18.09375,10.03125,-0.6939695,0.08675263,-0.7142351,998.6064, , , , 
2025-09-20 21:11:41.470,7.02772,-11.284552,-1.012164,-0.54092073,-0.2196059,3.6145632,-45.1875,-17.325,9.806251,-0.6944003,0.11450809,-0.7086206,998.6064, , , , 
2025-09-20 21:11:41.490,7.4273214,-10.992627,0.0023928226,-0.57818353,-0.045509428,3.8271441,-46.331253,-12.225,9.168751,-0.6906426,0.14486201,-0.70469,998.6081, , , , 
2025-09-20 21:11:41.511,7.9776707,-10.750952,0.45224348,-0.44501498,-0.2538143,3.9792495,-47.5875,-9.0,9.58125,-0.68540007,0.1756788,-0.69981104,998.6081, , , , 
2025-09-20 21:11:41.530,8.386844,-10.851451,0.11246266,-0.25625777,-0.4725039,4.11364,-47.90625,-6.2812505,7.9125004,-0.6802633,0.20551597,-0.69247454,998.61615, , , , 
2025-09-20 21:11:41.551,8.508878,-11.186446,-0.79441714,-0.19211698,-0.46517354,4.2993426,-48.375004,-1.8750001,10.950001,-0.6746241,0.23452266,-0.683054,998.61615, , , , 
2025-09-20 21:11:41.571,9.60479,-11.614761,-1.3710874,-0.3686569,-0.1499673,4.5271955,-48.7125,2.9437501,11.025001,-0.66439044,0.27233475,-0.66996175,998.62006, , , , 
2025-09-20 21:11:41.590,11.227124,-11.344372,-0.5838487,-0.5317578,-0.024129158,4.5424666,-47.68125,6.5437503,9.618751,-0.65301013,0.30446813,-0.6591299,998.62006, , , , 
2025-09-20 21:11:41.611,12.600604,-10.671989,0.54317075,-0.49082986,-0.16707152,4.3408813,-48.35625,10.575001,11.475,-0.64081883,0.33548215,-0.64728653,998.6413, , , , 
2025-09-20 21:11:41.630,13.253844,-10.315458,0.95473623,-0.2819141,-0.38637197,3.9969647,-47.737503,15.000001,10.387501,-0.6293362,0.36242977,-0.63457197,998.6413, , , , 
2025-09-20 21:11:41.651,13.354343,-10.176675,0.72741807,-0.036346454,-0.42363474,3.6689303,-45.675003,17.94375,9.543751,-0.61868185,0.38469827,-0.6217163,998.6733, , , , 
2025-09-20 21:11:41.670,13.610375,-9.827323,-0.39720857,0.062002774,-0.10415245,3.4581819,-45.506252,21.16875,12.731251,-0.6072879,0.40395245,-0.610154,998.6733, , , , 
2025-09-20 21:11:41.692,14.512469,-8.49452,-0.76331043,-0.043065965,0.16523892,3.1576364,-43.0875,23.681252,11.56875,-0.5911897,0.42666027,-0.59833455,998.6938, , , , 
2025-09-20 21:11:41.711,15.177674,-7.513463,-0.31106696,-0.06933315,0.26847506,2.7984478,-41.100002,28.237501,9.712501,-0.58169615,0.43926206,-0.59228414,998.6938, , , , 
2025-09-20 21:11:41.731,15.337994,-6.7645097,-0.083748795,-0.010079269,0.33505934,2.3683991,-41.943752,27.0375,10.950001,-0.5698569,0.45376694,-0.5859031,998.7045, , , , 
2025-09-20 21:11:41.750,15.548561,-6.02752,-0.009571291,0.1640172,0.18906265,1.9633957,-38.71875,30.843752,11.925,-0.55688834,0.46753007,-0.58018893,998.7045, , , , 
2025-09-20 21:11:41.771,15.885949,-5.4987063,-0.15553348,0.34055713,-0.09560034,1.5779401,-38.49375,32.49375,10.575001,-0.54885596,0.47422138,-0.5766511,998.7143,37.88830355,127.73968959,143.88946533203125,1.14
2025-09-20 21:11:41.790,15.924234,-5.5130634,-0.61734825,0.43401942,-0.2556469,1.1075742,-36.75,31.66875,9.975,-0.5435739,0.47686675,-0.573823,998.7143, , , , 
2025-09-20 21:11:41.811,15.620346,-5.407779,-0.62931234,0.33017242,-0.15913028,0.6756928,-36.206253,34.350002,9.76875,-0.5404685,0.47703907,-0.5722909,998.7187, , , , 
2025-09-20 21:11:41.830,15.4624195,-5.895915,0.62452674,0.30879214,-0.14019346,0.27068946,-36.581253,34.575,8.25,-0.5391554,0.4758519,-0.57232755,998.7187, , , , 
2025-09-20 21:11:41.850,15.677774,-6.558727,-0.6149554,0.5415316,0.08949169,-0.098272875,-35.568752,34.65,9.993751,-0.5390233,0.47219825,-0.57452095,998.7292, , , , 
2025-09-20 21:11:41.870,15.55574,-5.9318075,-3.2063823,0.31428993,0.54825115,-0.4739547,-35.175003,33.7125,9.8625,-0.5382141,0.46636668,-0.5818656,998.7292, , , , 
2025-09-20 21:11:41.890,16.252052,-6.046663,-2.713461,-0.094378605,0.56169015,-0.86490816,-37.0875,32.8875,10.106251,-0.53874403,0.4639638,-0.58710617,998.7155, , , , 
2025-09-20 21:11:41.910,16.491333,-7.183254,0.16510476,-0.19944735,-0.040622506,-1.5845069,-34.48125,34.050003,7.5937505,-0.545544,0.4573724,-0.5950983,998.7155, , , , 
2025-09-20 21:11:41.931,15.261423,-8.958728,1.3663018,-0.054061532,-0.57879436,-2.1733806,-38.79375,31.706251,10.200001,-0.5571888,0.44536307,-0.600802,998.7153, , , , 
2025-09-20 21:11:41.951,13.986049,-10.753345,2.5004997,0.09498947,-0.6557633,-2.5435646,-41.081253,29.00625,8.418751,-0.57171804,0.4287079,-0.6064876,998.7153, , , , 
2025-09-20 21:11:41.970,14.220545,-11.801401,3.211168,0.3130682,-0.5421425,-2.8153994,-38.943752,27.975,8.26875,-0.58591044,0.40957272,-0.61346817,998.73627, , , , 
2025-09-20 21:11:41.993,13.768302,-12.684353,2.7230322,0.55985755,-0.4639518,-3.2216244,-41.5125,26.212502,9.8625,-0.60241663,0.38156885,-0.62483627,998.7514, , , , 
2025-09-20 21:11:42.011,13.007384,-12.7393875,2.5028925,0.6692024,-0.49327332,-3.4439793,-43.3875,24.16875,8.94375,-0.61525947,0.35606688,-0.63491297,998.7514, , , , 
2025-09-20 21:11:42.030,12.598211,-12.296716,2.2995026,0.7492257,-0.53297955,-3.7054293,-44.86875,22.0125,10.293751,-0.62805164,0.3281741,-0.6448508,998.7514, , , , 
2025-09-20 21:11:42.051,11.693725,-12.184253,1.9764715,0.75655603,-0.3564396,-3.9955902,-44.775,17.8125,7.4437504,-0.6403584,0.29821274,-0.65497595,998.76044, , , , 
2025-09-20 21:11:42.071,10.334601,-12.373286,1.7347964,0.7504474,-0.06933315,-4.2191668,-45.91875,14.56875,10.21875,-0.6508442,0.26724407,-0.6660022,998.76044, , , , 
2025-09-20 21:11:42.090,9.523434,-12.457035,1.5098711,0.79137534,-0.013744458,-4.334009,-46.5,12.39375,9.9375,-0.659242,0.23564716,-0.67744416,998.75775, , , , 
2025-09-20 21:11:42.110,8.676374,-12.354143,0.87338024,0.8518509,-0.24709481,-4.3993716,-48.131252,8.1,11.587501,-0.6668798,0.2029162,-0.68761706,998.75775, , , , 
2025-09-20 21:11:42.130,7.7240314,-12.047862,0.059820566,0.7535017,-0.4468476,-4.3566113,-47.381252,3.825,11.2875,-0.67505246,0.16934432,-0.69492644,998.75336, , , , 
2025-09-20 21:11:42.150,7.391429,-11.643475,-0.148355,0.56291187,-0.42485645,-4.258262,-47.5875,-0.80625004,12.0375,-0.68315667,0.13680914,-0.69968694,998.75336, , , , 
2025-09-20 21:11:42.170,6.647261,-11.361122,0.13399807,0.33933538,-0.18417573,-4.1134872,-43.068752,-6.1687503,9.8625,-0.69096845,0.09908052,-0.70442414,998.74286, , , , 
2025-09-20 21:11:42.190,6.1854467,-10.983056,0.5168497,0.22327107,0.028405212,-3.9222863,-44.925003,-10.106251,11.681251,-0.69436634,0.071651116,-0.70837545,998.74286, , , , 
2025-09-20 21:11:42.211,5.2953167,-10.451849,0.62452674,0.20250167,0.15546508,-3.711538,-44.34375,-13.031251,11.325001,-0.6955053,0.0461244,-0.7124399,998.7404, , , , 
2025-09-20 21:11:42.230,4.319045,-10.030712,0.2105684,0.21532984,0.07055488,-3.531333,-42.768753,-17.587502,11.26875,-0.69549483,0.021918263,-0.71577877,998.7404, , , , 
2025-09-20 21:11:42.251,2.6799614,-9.650253,-0.12203395,0.19456044,-0.09498947,-3.1532075,-42.46875,-18.825,13.931251,-0.6957883,-7.141308E-4,-0.7172205,998.7309, , , , 
2025-09-20 21:11:42.271,1.3447664,-9.233903,-0.22492532,0.15302163,-0.12492185,-2.6468008,-41.100002,-23.1375,10.931251,-0.6962306,-0.020515196,-0.71723515,998.7309, , , , 
2025-09-20 21:11:42.291,0.7369894,-8.566305,-0.38285163,0.07666353,-0.10476331,-1.9748495,-39.768753,-23.643751,12.843751,-0.6965282,-0.039690908,-0.7164257,998.71893, , , , 
2025-09-20 21:11:42.311,0.8446664,-8.834301,-0.28235307,0.0070249448,-0.052839804,-1.4415646,-41.287502,-26.79375,13.33125,0.6964743,0.050075907,0.7157924,998.71893, , , , 
2025-09-20 21:11:42.330,-0.016749758,-8.970692,-0.3278167,0.024129158,-0.16829325,-0.9095013,-36.975002,-26.587502,11.625,0.69666797,0.056712516,0.7150039,998.7087, , , , 
2025-09-20 21:11:42.351,-1.1222339,-9.0951185,-1.2514462,-0.01924224,-0.13652828,-0.27603453,-36.956253,-28.06875,10.78125,0.69780564,0.05955076,0.7135996,998.7087, , , , 
2025-09-20 21:11:42.371,-2.0841484,-9.533006,-2.120041,-0.32833982,0.1310305,0.58772826,-39.28125,-28.44375,13.05,0.6985546,0.056730904,0.71312237,998.69867, , , , 
2025-09-20 21:11:42.390,-1.8831514,-9.226724,-1.0648061,-0.64293516,0.3149008,1.4295,-38.90625,-27.937502,15.150001,0.6980106,0.04630571,0.7144973,998.69867, , , , 
2025-09-20 21:11:42.411,-0.040677983,-8.827123,0.67477596,-0.69180435,0.30390522,2.116112,-39.375,-25.35,13.200001,0.6965067,0.028815906,0.71696615,998.6916, , , , 
2025-09-20 21:11:42.431,2.5148566,-8.992228,1.7898313,-0.40958482,0.09987639,2.5510476,-39.956253,-24.54375,12.900001,-0.6947335,-0.0021210501,-0.71912235,998.6916, , , , 
2025-09-20 21:11:42.451,3.8644085,-10.052248,0.69152576,-0.09682207,-0.15974113,2.761796,-39.9,-22.3875,9.69375,-0.6943358,0.019109268,-0.7186604,998.6877, , , , 
2025-09-20 21:11:42.471,4.249653,-11.114661,-0.8781659,-0.008857539,-0.39370236,3.109378,-43.36875,-19.78125,12.225,-0.6953058,0.04057786,-0.71551275,998.6877, , , , 
2025-09-20 21:11:42.490,5.690132,-11.722438,-1.672583,-0.16646065,-0.37781987,3.4899468,-45.225002,-18.112501,12.168751,-0.69663566,0.06478931,-0.71015984,998.6784, , , , 
2025-09-20 21:11:42.511,7.448857,-11.882757,-1.6390835,-0.45112363,-0.04612029,3.719021,-44.325,-12.056251,13.89375,-0.6960821,0.09253684,-0.70444083,998.6784, , , , 
2025-09-20 21:11:42.530,8.080562,-11.708081,-0.94277215,-0.6374374,0.03451386,3.8222573,-47.71875,-9.4125,12.543751,-0.6927435,0.12295264,-0.6992218,998.64594, , , , 
2025-09-20 21:11:42.551,8.834301,-11.30848,-0.19621146,-0.6875283,-0.11270455,3.8967829,-47.60625,-7.2937503,13.500001,-0.6884673,0.15445231,-0.69265264,998.64594, , , , 
2025-09-20 21:11:42.570,9.303294,-10.884951,0.27996024,-0.63010705,-0.0772744,3.92305,-48.506252,-2.4,12.39375,-0.6836116,0.1857008,-0.6844481,998.64154, , , , 
2025-09-20 21:11:42.592,9.363115,-10.844273,-0.11006984,-0.6692024,0.15057817,3.98658,-47.1375,0.84375006,14.212501,-0.6749226,0.22415072,-0.6738329,998.64154, , , , 
2025-09-20 21:11:42.611,10.267602,-10.9375925,0.11006984,-0.80847955,0.4896081,4.035449,-46.18125,4.59375,9.731251,-0.6650821,0.2559069,-0.6656505,998.6337, , , , 
2025-09-20 21:11:42.631,10.9017,-11.047662,0.7298109,-0.86895514,0.84452057,4.021399,-50.193752,8.137501,12.431251,-0.6519567,0.28864807,-0.6586761,998.6337, , , , 
2025-09-20 21:11:42.651,11.696117,-11.059627,0.35653058,-0.788321,0.80725783,3.9609237,-48.075,12.712501,11.475,-0.63658625,0.32082784,-0.65212536,998.6225, , , , 
2025-09-20 21:11:42.671,12.413964,-10.193424,-0.23449662,-0.8054252,0.607505,3.7849946,-47.60625,16.893751,7.9500003,-0.62130517,0.3510865,-0.64431727,998.6225, , , , 
2025-09-20 21:11:42.690,12.387643,-9.016156,0.7609176,-0.7816015,0.16951497,3.4942229,-45.43125,18.35625,8.868751,-0.6078747,0.37866208,-0.63460475,998.61346, , , , 
2025-09-20 21:11:42.711,11.947364,-8.551949,1.7802601,-0.5861248,-0.17623448,3.3072982,-45.037502,20.38125,9.4875,-0.59971076,0.39652202,-0.6259695,998.61346, , , , 
2025-09-20 21:11:42.730,12.792029,-7.972885,1.6749759,-0.07299834,-0.32895067,3.1258714,-41.0625,25.518751,8.925,-0.5877636,0.42034,-0.61079663,998.623, , , , 
2025-09-20 21:11:42.750,14.639289,-6.867401,0.13878371,0.100487255,-0.0980438,2.8008914,-41.86875,28.050001,9.637501,-0.5748465,0.43882033,-0.59801996,998.623, , , , 
2025-09-20 21:11:42.770,14.976677,-6.465407,-1.1916257,0.032681264,0.085215636,2.346408,-39.80625,30.243752,9.3,-0.5645404,0.45103627,-0.5906761,998.6232,37.88829208,127.73969009,143.90447998046875,1.04
2025-09-20 21:11:42.791,14.938392,-6.151947,-0.930808,-0.09071342,-0.0058032153,2.0134866,-38.025,31.06875,8.137501,-0.5562048,0.46161565,-0.5842367,998.6232, , , , 
2025-09-20 21:11:42.811,16.840685,-6.2883377,-0.083748795,-0.062613636,-0.054061532,1.5449533,-36.825,32.68125,8.55,-0.55025184,0.4699151,-0.5781278,998.6086, , , , 
2025-09-20 21:11:42.830,16.902899,-6.4677997,-1.3998013,-0.15302163,0.25503606,1.0709224,-35.006252,33.61875,7.51875,-0.54560477,0.47581533,-0.57437277,998.6086, , , , 
2025-09-20 21:11:42.850,16.18266,-6.1208405,-1.4907285,-0.5659662,0.7486148,0.68668836,-33.693752,32.775,6.0375004,-0.54178965,0.48202065,-0.5730784,998.60077, , , , 
2025-09-20 21:11:42.870,15.656239,-5.704489,1.3830515,-0.7449496,0.98685205,0.28229588,-32.943752,32.850002,5.9625,-0.537699,0.49201018,-0.5742178,998.60077, , , , 
2025-09-20 21:11:42.890,15.634703,-6.314659,3.306881,-0.4065305,0.5525272,0.022678355,-33.0,32.475002,5.3812504,-0.53607595,0.4963395,-0.57612926,998.6049, , , , 
2025-09-20 21:11:42.910,16.910078,-6.5682983,3.0939198,0.44073895,-0.63132876,-0.2729802,-29.175001,34.612503,3.7687502,-0.5375799,0.49400216,-0.57920057,998.6049, , , , 
2025-09-20 21:11:42.931,18.81955,-6.302695,0.3062813,0.80970126,-1.2770128,-0.9052252,-35.943752,33.375,8.868751,-0.54435694,0.48207998,-0.580889,998.6215, , , , 
2025-09-20 21:11:42.951,18.391235,-6.9320073,-0.31106696,0.64660037,-1.0949751,-1.706069,-36.318752,33.7125,9.056251,-0.55568135,0.46495765,-0.58353686,998.6215, , , , 
2025-09-20 21:11:42.971,15.926627,-8.420342,0.3589234,0.45784315,-0.63927,-2.374966,-37.55625,31.968752,9.431251,-0.56902254,0.44582596,-0.58924097,998.622, , , , 
2025-09-20 21:11:42.990,13.529019,-10.042677,1.3543376,0.48716468,-0.539699,-2.784856,-36.600002,31.575,8.587501,-0.58238226,0.42558688,-0.5978088,998.622, , , , 
2025-09-20 21:11:43.011,12.14836,-11.229517,1.5529419,0.6869174,-0.8213077,-2.983998,-38.9625,27.975,9.65625,-0.5960446,0.40282202,-0.6069956,998.63226, , , , 
2025-09-20 21:11:43.030,12.14836,-11.983255,1.0336994,0.82069683,-1.2702934,-3.1409903,-40.237503,26.718752,9.543751,-0.6149242,0.36982623,-0.61621535,998.63226, , , , 
2025-09-20 21:11:43.051,12.646068,-12.004791,0.89013004,0.797484,-1.3747512,-3.3199737,-42.24375,25.518751,9.975,-0.6274108,0.34809637,-0.62016934,998.6408, , , , 
