Time,Accel_X,Accel_Y,Accel_Z,Gyro_X,Gyro_Y,Gyro_Z,Mag_X,Mag_Y,Mag_Z,Orient_X,Orient_Y,Orient_Z,Pressure,Latitude,Longitude,Altitude,Speed
2025-03-23 17:38:27.160,0.36370903,4.7282176,8.405986,0.0108428495,0.07956514,-0.027488915,-37.068752,-7.8562503,-29.925001,0.18114457,0.16414791,0.68991745,992.2082,37.88722916,127.73981055,139.6097412109375,0.16
2025-03-23 17:38:27.179,0.3469593,4.733003,8.224132,-0.026419902,0.047189303,-0.059253883,-36.99375,-7.9687505,-30.375002,0.18139772,0.16479187,0.689737,992.1999,37.88722916,127.73981055,139.6097412109375,0.16
2025-03-23 17:38:27.199,0.15792629,4.6612186,8.374879,-0.102778,0.12293654,-0.0537561,-37.0125,-8.25,-30.206251,0.18108396,0.16538753,0.68945533,992.1999,37.88722916,127.73981055,139.6097412109375,0.16
2025-03-23 17:38:27.219,0.23688944,4.601398,8.532805,-0.14553854,0.15897755,-0.06780599,-37.0125,-8.3625,-30.375002,0.17940538,0.16594844,0.689449,992.18207,37.88722916,127.73981055,139.6097412109375,0.16
2025-03-23 17:38:27.240,0.021535404,4.3812585,8.980264,-0.13820815,0.17119485,-0.08918626,-37.03125,-8.400001,-29.775002,0.17653862,0.1660284,0.6894882,992.18207,37.88722916,127.73981055,139.6097412109375,0.16
2025-03-23 17:38:27.259,-0.36370903,4.304688,9.128618,-0.07345649,0.17486005,-0.041538805,-37.10625,-8.38125,-29.23125,0.17337078,0.16634615,0.68956524,992.1762,37.88722916,127.73981055,139.6097412109375,0.16
2025-03-23 17:38:27.279,-0.2943172,4.453043,8.956335,-0.0025961753,-0.0016798781,0.027488915,-36.84375,-8.043751,-29.325,0.17099862,0.16694357,0.6897256,992.1762,37.88722916,127.73981055,139.6097412109375,0.16
2025-03-23 17:38:27.299,0.011964113,4.465007,8.91805,0.046883874,-0.2283107,0.07024945,-37.068752,-7.9500003,-29.5125,0.17117622,0.16640617,0.68980277,992.18475,37.88722916,127.73981055,139.6097412109375,0.16
2025-03-23 17:38:27.319,0.74895346,4.4578285,9.186047,0.063377224,-0.23075417,0.08185588,-37.21875,-7.93125,-29.362501,0.17315495,0.16446356,0.6899375,992.18475,37.88722916,127.73981055,139.6097412109375,0.16
2025-03-23 17:38:27.340,0.997807,4.5248275,8.915657,0.027336199,-0.059712034,0.022601997,-37.256252,-7.89375,-29.456251,0.1754297,0.16218935,0.6902751,992.1838,37.88722916,127.73981055,139.6097412109375,0.16
2025-03-23 17:38:27.360,0.79441714,4.642076,8.810373,-0.033139415,0.16508621,-0.035430156,-37.59375,-7.89375,-29.325,0.17623402,0.16116877,0.69066304,992.1838,37.88722916,127.73981055,139.6097412109375,0.16
2025-03-23 17:38:27.379,0.16749759,4.7808595,8.779266,-0.038026333,0.1999055,-0.06780599,-37.725002,-7.89375,-29.156252,0.17515084,0.16193081,0.6907932,992.186,37.88722916,127.73981055,139.6097412109375,0.16
2025-03-23 17:38:27.399,-0.33738798,4.8358946,8.602198,-0.003817905,0.099723674,-0.06291907,-37.7625,-8.19375,-29.437502,0.17384319,0.1634618,0.69052386,992.186,37.88722916,127.73981055,139.6097412109375,0.16
2025-03-23 17:38:27.421,-0.4426722,4.7425747,8.484949,0.0035124724,0.003817905,-0.017104214,-37.93125,-8.306251,-29.531252,0.17308508,0.16514336,0.68993914,992.1877,37.88722916,127.73981055,139.6097412109375,0.16
2025-03-23 17:38:27.439,-0.2321038,4.699504,8.520842,-0.009315688,-0.0065667965,0.007941242,-37.5,-8.53125,-29.812502,0.17283088,0.16581503,0.68975645,992.1877,37.88722916,127.73981055,139.6097412109375,0.16
2025-03-23 17:38:27.459,0.33260235,4.65404,8.95155,-0.024587307,-0.016951498,-0.037262753,-37.275,-8.4375,-29.98125,0.17281707,0.1658829,0.68967813,992.1877,37.88722916,127.73981055,139.6097412109375,0.16
2025-03-23 17:38:27.479,-0.12203395,4.5822554,8.956335,-0.014202606,0.07589995,-0.059253883,-37.125,-8.2875,-30.187502,0.17257749,0.1656719,0.6894417,992.1877,37.88722916,127.73981055,139.6097412109375,0.16
2025-03-23 17:38:27.499,-0.22971097,4.5678983,8.855837,-0.021532983,0.14737113,-0.028710645,-36.487503,-8.212501,-30.45,0.17127754,0.1665349,0.68927103,992.18695,37.88722916,127.73981055,139.6097412109375,0.16
2025-03-23 17:38:27.519,-0.20817557,4.421936,8.812766,-0.03008509,0.102778,-0.011606431,-36.16875,-8.1,-30.675001,0.16935343,0.16781385,0.689351,992.18695,37.88722916,127.73981055,139.6097412109375,0.16
2025-03-23 17:38:27.539,-0.19621146,4.3262234,9.020942,-0.025809037,0.04963276,0.018936807,-35.943752,-8.306251,-31.06875,0.16813804,0.16815269,0.68950427,992.18475,37.88722916,127.73981055,139.6097412109375,0.16
2025-03-23 17:38:27.560,-0.15074782,4.35733,9.205189,0.004123337,0.054519683,0.056810424,-35.68125,-8.418751,-31.331251,0.16710055,0.16818525,0.68989795,992.18475,37.88722916,127.73981055,139.6097412109375,0.16
2025-03-23 17:38:27.579,-0.16271193,4.2448673,9.030513,0.06520981,-0.00962112,0.089797124,-35.71875,-8.118751,-31.237501,0.16663961,0.1681962,0.69042456,992.1811,37.88722916,127.73981055,139.6097412109375,0.16
2025-03-23 17:38:27.600,0.17228323,4.23051,8.796016,0.09025527,-0.084757484,0.14538582,-35.86875,-7.9687505,-31.031252,0.16711397,0.16795844,0.6910565,992.1811,37.88722916,127.73981055,139.6097412109375,0.16
2025-03-23 17:38:27.619,0.4211368,4.412365,8.623733,0.101250835,-0.08536835,0.1404989,-35.850002,-7.7250004,-30.54375,0.16852395,0.16721587,0.6918558,992.1794,37.88722916,127.73981055,139.6097412109375,0.16
2025-03-23 17:38:27.641,0.41635114,4.725825,7.9298143,0.02489274,7.6358096E-4,0.10262528,-36.075,-7.6312504,-30.187502,0.1706056,0.1668432,0.6927125,992.1794,37.88722916,127.73981055,139.6097412109375,0.16
2025-03-23 17:38:27.660,0.29192436,4.718646,8.1738825,-0.10827578,0.066126116,0.07208204,-36.43125,-7.9125004,-30.187502,0.17119034,0.16697091,0.69333035,992.17645,37.88722916,127.73981055,139.6097412109375,0.16
2025-03-23 17:38:27.679,0.46899325,4.5966125,8.889337,-0.110108376,0.04657844,0.039095346,-36.487503,-7.9125004,-29.85,0.17062256,0.16647431,0.69402826,992.17645,37.88722916,127.73981055,139.6097412109375,0.16
2025-03-23 17:38:27.700,0.22971097,4.536792,9.006584,-0.04291325,-0.027947064,0.02687805,-36.768753,-7.89375,-29.7,0.17026658,0.1655884,0.6944727,992.1694,37.88722916,127.73981055,139.6097412109375,0.16
2025-03-23 17:38:27.719,0.31345975,4.5894337,9.107083,0.005345067,-0.11713332,0.049480047,-36.693752,-7.74375,-29.56875,0.17066462,0.16466558,0.6946854,992.1694,37.88722916,127.73981055,139.6097412109375,0.16
2025-03-23 17:38:27.739,0.67477596,4.7018967,8.82473,0.04016436,-0.08536835,0.037262753,-36.73125,-7.7250004,-29.19375,0.17187615,0.16362315,0.694876,992.17303,37.88722916,127.73981055,139.6097412109375,0.16
2025-03-23 17:38:27.759,0.57427746,4.802395,8.580662,-0.017867794,-0.016951498,-0.008552107,-37.2,-8.08125,-29.456251,0.17322472,0.1629865,0.6949609,992.17303,37.88722916,127.73981055,139.6097412109375,0.16
2025-03-23 17:38:27.779,0.33260235,4.761717,8.879765,-0.060017463,0.037415467,-0.036651887,-37.59375,-7.9875,-29.306252,0.17365788,0.16266346,0.6949051,992.1706,37.88722916,127.73981055,139.6097412109375,0.16
2025-03-23 17:38:27.799,0.22013968,4.706682,9.035298,-0.031917684,0.066126116,-0.032375835,-37.706253,-7.9500003,-29.343752,0.17302798,0.1626994,0.6948294,992.1706,37.88722916,127.73981055,139.6097412109375,0.16
2025-03-23 17:38:27.820,0.26799613,4.761717,9.071191,0.010231985,0.04657844,-0.03054324,-37.725002,-7.8375,-29.56875,0.17255832,0.16303053,0.6947696,992.1684,37.88722916,127.73981055,139.6097412109375,0.16
2025-03-23 17:38:27.840,0.078963146,4.694718,8.882157,0.03161225,0.012370012,-0.039095346,-37.48125,-7.5000005,-29.41875,0.17255047,0.163442,0.6945422,992.1684,37.88722916,127.73981055,139.6097412109375,0.16
2025-03-23 17:38:27.860,-0.20817557,4.570291,8.71466,0.020616686,0.044745844,-0.0036651888,-36.956253,-7.425,-29.531252,0.17242517,0.16405231,0.69426775,992.16693,37.88722916,127.73981055,139.6097412109375,0.16
2025-03-23 17:38:27.880,0.062213387,4.4841495,8.82473,-0.01970039,0.075289086,0.012217295,-36.75,-7.2562504,-29.23125,0.17164509,0.16488254,0.6943629,992.16693,37.88722916,127.73981055,139.6097412109375,0.16
2025-03-23 17:38:27.900,0.12921242,4.371687,9.2075815,-0.0013744457,0.054519683,0.0097738365,-36.787502,-7.2937503,-28.95,0.17102492,0.16503043,0.6945557,992.16425,37.88722916,127.73981055,139.6097412109375,0.16
2025-03-23 17:38:27.920,0.12203395,4.4171505,9.123833,0.09697478,0.0386372,0.0140498895,-36.412502,-7.1625004,-29.23125,0.17039955,0.16513738,0.6948126,992.16425,37.88722916,127.73981055,139.6097412109375,0.16
2025-03-23 17:38:27.939,0.09810573,4.5798626,8.640483,0.10063997,0.035582874,0.015882485,-36.46875,-7.5375004,-29.00625,0.1705849,0.16563882,0.69484425,992.1691,37.88722916,127.73981055,139.6097412109375,0.16
2025-03-23 17:38:27.959,0.17467605,4.685147,8.209774,0.043218683,0.042302385,0.0042760535,-36.54375,-7.6875005,-29.38125,0.17115904,0.16690308,0.69481117,992.1691,37.88722916,127.73981055,139.6097412109375,0.16
2025-03-23 17:38:27.979,0.1698904,4.615755,8.420342,0.0029016077,0.0129808765,-0.03848448,-36.075,-7.6125,-29.8875,0.17154802,0.16744867,0.6946821,992.1628,37.88722916,127.73981055,139.6097412109375,0.16
2025-03-23 17:38:27.999,-0.2009971,4.508078,8.439486,-0.009315688,-0.0016798781,-0.01527162,-36.112503,-7.9687505,-30.0375,0.17149417,0.16779537,0.69440734,992.1628,37.88722916,127.73981055,139.6097412109375,0.16
2025-03-23 17:38:28.019,-0.05742774,4.5224347,8.523234,-0.03619374,-0.0151189035,0.03604102,-35.625,-7.5937505,-30.525002,0.17117864,0.167993,0.69437987,992.16644,37.88722916,127.73981055,139.6097412109375,0.16
2025-03-23 17:38:28.039,0.33020952,4.587041,8.889337,-0.04657844,0.008093959,0.02443459,-35.475002,-7.65,-30.69375,0.17102055,0.16759993,0.6946854,992.16644,37.88722916,127.73981055,139.6097412109375,0.16
2025-03-23 17:38:28.060,0.19381863,4.57747,9.0233345,-0.0386372,0.038026333,0.005497783,-35.7,-7.8,-30.618752,0.17070825,0.16710755,0.6949806,992.1706,37.88722916,127.73981055,139.6097412109375,0.16
2025-03-23 17:38:28.081,-0.038285162,4.496114,8.930014,-0.021532983,0.0056504994,0.01527162,-35.60625,-7.5000005,-30.69375,0.17009524,0.16682565,0.695188,992.1706,37.88722916,127.73981055,139.6097412109375,0.16
2025-03-23 17:38:28.100,0.11724831,4.4817567,8.9826565,-0.009926553,0.028252495,0.055588696,-35.737503,-7.5750003,-30.956251,0.16964686,0.16669494,0.69546616,992.17377,37.88722916,127.73981055,139.6097412109375,0.16
2025-03-23 17:38:28.120,0.28235307,4.6468616,8.961121,0.027947064,0.003817905,0.042760536,-35.8875,-7.8375,-30.88125,0.16952322,0.16653842,0.6959207,992.17377,37.88722916,127.73981055,139.6097412109375,0.16
2025-03-23 17:38:28.140,0.36131623,4.7162533,8.626125,0.024281874,-0.066431545,0.02443459,-35.775,-7.8187504,-31.0125,0.17025124,0.16637704,0.6960793,992.174,37.88722916,127.73981055,139.6097412109375,0.16
2025-03-23 17:38:28.160,0.39481574,4.692325,8.930014,-0.031306818,0.01847866,0.0024434591,-35.8875,-7.9875,-30.843752,0.17106228,0.16593264,0.69611853,992.174,37.88722916,127.73981055,139.6097412109375,0.16
2025-03-23 17:38:28.179,0.22253251,4.651647,9.174082,-0.006261364,0.062460925,-0.0073303776,-36.037502,-7.9125004,-30.768751,0.17088932,0.16568466,0.69629294,992.1723,37.88722916,127.73981055,139.6097412109375,0.16
2025-03-23 17:38:28.201,0.15792629,4.642076,8.822337,0.06093376,-0.025503604,0.005497783,-35.850002,-7.4625,-30.993752,0.17073305,0.1659726,0.6963524,992.1723,37.88722916,127.73981055,139.6097412109375,0.16
2025-03-23 17:38:28.219,0.22253251,4.682754,8.681161,0.061544627,-0.08170316,0.007941242,-36.16875,-7.5000005,-31.050001,0.17137177,0.1660847,0.69624656,992.1757,37.88722916,127.73981055,139.6097412109375,0.16
2025-03-23 17:38:28.241,0.33020952,4.601398,8.578269,0.061544627,-0.09453133,-0.005497783,-36.2625,-7.2937503,-30.7875,0.1729276,0.16582496,0.6959724,992.1757,37.88722916,127.73981055,139.6097412109375,0.16
2025-03-23 17:38:28.261,0.4426722,4.627719,8.374879,0.021227552,-0.099418245,-0.023823727,-36.225002,-7.4625,-30.487501,0.17428344,0.16544262,0.6956468,992.1723,37.88722916,127.73981055,139.6097412109375,0.16
2025-03-23 17:38:28.281,0.4331009,4.6564326,8.441878,-0.0490219,0.0056504994,-0.05497783,-36.73125,-7.8,-30.31875,0.17513345,0.16499397,0.69533145,992.1723,37.88722916,127.73981055,139.6097412109375,0.16
2025-03-23 17:38:28.301,0.23928227,4.627719,8.740981,-0.090560704,0.05329795,-0.07269291,-36.54375,-7.5375004,-29.962502,0.17483598,0.16482008,0.69508135,992.163,37.88722916,127.73981055,139.6097412109375,0.16
2025-03-23 17:38:28.320,0.13399807,4.5559344,9.123833,-0.05818487,0.016646065,-0.076358095,-36.65625,-7.8562503,-30.075,0.17386793,0.16460735,0.69480985,992.163,37.88722916,127.73981055,139.6097412109375,0.16
2025-03-23 17:38:28.339,-0.06460621,4.508078,9.042477,-0.0019853106,-0.030390523,-0.060475614,-36.61875,-7.6312504,-30.375002,0.17319614,0.16427667,0.69442344,992.16766,37.88722916,127.73981055,139.6097412109375,0.16
2025-03-23 17:38:28.359,-0.033499517,4.584648,8.827123,0.0059559317,-0.013286309,-0.018325943,-36.375,-7.425,-30.206251,0.17282704,0.16430375,0.6940491,992.16766,37.88722916,127.73981055,139.6097412109375,0.16
2025-03-23 17:38:28.380,0.12203395,4.6325045,8.831908,0.007177661,-0.004734202,-0.01527162,-36.693752,-7.6125,-30.487501,0.17263564,0.16453657,0.69388276,992.17206,37.88722916,127.73981055,139.6097412109375,0.16
2025-03-23 17:38:28.401,0.09092726,4.587041,8.879765,0.015729768,-0.04444041,-0.027488915,-36.862503,-7.51875,-30.54375,0.17283592,0.1645059,0.6936708,992.17206,37.88722916,127.73981055,139.6097412109375,0.16
2025-03-23 17:38:28.422,-0.0741775,4.5487556,8.860622,0.038331766,-0.0035124724,-0.0042760535,-37.162502,-7.65,-29.831251,0.17298084,0.16453649,0.6934138,992.1628,37.88722916,127.73981055,139.6097412109375,0.16
2025-03-23 17:38:28.440,0.014356935,4.5415773,8.602198,0.034666575,0.0013744457,0.023212861,-37.162502,-7.6875005,-29.6625,0.17290781,0.16503495,0.69334304,992.1628,37.88722916,127.73981055,139.6097412109375,0.16
2025-03-23 17:38:28.460,0.22731815,4.615755,8.480164,-0.009315688,-0.040775225,0.011606431,-37.237503,-7.89375,-29.156252,0.17314062,0.16528988,0.69338226,992.1574,37.88722916,127.73981055,139.6097412109375,0.16
2025-03-23 17:38:28.480,0.086141616,4.5487556,8.76491,-0.044134982,0.0056504994,0.0048869182,-37.0125,-7.6125,-29.00625,0.1733624,0.16494912,0.6933764,992.1574,37.88722916,127.73981055,139.6097412109375,0.16
2025-03-23 17:38:28.500,0.23449662,4.5678983,8.817552,-0.027641632,0.06368265,0.0073303776,-36.825,-7.6875005,-29.250002,0.17281604,0.16482733,0.69354934,992.1535,37.88722916,127.73981055,139.6097412109375,0.16
2025-03-23 17:38:28.520,0.11485548,4.625326,8.676374,0.019394957,0.024587307,-0.009162972,-36.7125,-7.65,-29.175001,0.17239715,0.16502579,0.69372123,992.1535,37.88722916,127.73981055,139.6097412109375,0.16
2025-03-23 17:38:28.540,0.09810573,4.6971107,8.535198,-0.013591741,-0.0016798781,-6.108648E-4,-36.5625,-7.4062505,-29.025002,0.17247586,0.16540846,0.6936378,992.16034,37.88722916,127.73981055,139.6097412109375,0.16
2025-03-23 17:38:28.560,0.12921242,4.658826,8.738588,-0.05146536,7.6358096E-4,-0.0042760535,-36.54375,-7.55625,-28.931252,0.17241585,0.16543561,0.693636,992.16034,37.88722916,127.73981055,139.6097412109375,0.16
2025-03-23 17:38:28.579,0.2009971,4.520042,9.075976,-0.04046979,-0.03161225,-0.0097738365,-36.600002,-7.70625,-29.19375,0.17220172,0.16492844,0.6936607,992.1569,37.88722916,127.73981055,139.6097412109375,0.16
2025-03-23 17:38:28.600,0.22492532,4.584648,9.0951185,-0.014813471,0.025809037,-0.0024434591,-36.54375,-7.6875005,-29.531252,0.17195383,0.16435966,0.69369256,992.1569,37.88722916,127.73981055,139.6097412109375,0.16
2025-03-23 17:38:28.620,0.17467605,4.709075,8.987442,0.002290743,0.091782436,-0.0048869182,-36.43125,-7.65,-29.75625,0.17145185,0.1644686,0.69383013,992.1696,37.88722916,127.73981055,139.6097412109375,0.16
2025-03-23 17:38:28.640,-0.031106694,4.7401814,8.738588,0.02489274,0.043524116,-0.005497783,-36.54375,-7.6875005,-29.98125,0.17098239,0.16517676,0.6938859,992.1696,37.88722916,127.73981055,139.6097412109375,0.16
2025-03-23 17:38:28.660,0.15314065,4.733003,8.585447,0.028557928,-0.029779658,0.0012217296,-36.768753,-7.8750005,-29.60625,0.17112768,0.16595739,0.69375056,992.1728,37.88722916,127.73981055,139.6097412109375,0.16
2025-03-23 17:38:28.680,0.2847459,4.6205406,8.573483,-0.009315688,-0.023060145,-0.028099779,-36.693752,-7.8187504,-29.5125,0.17192028,0.16593659,0.6935209,992.1728,37.88722916,127.73981055,139.6097412109375,0.16
2025-03-23 17:38:28.700,0.076570325,4.5152564,8.712267,-0.04535671,0.028252495,-0.02687805,-36.881252,-7.8750005,-29.75625,0.17190199,0.1658056,0.69341016,992.17694,37.88722916,127.73981055,139.6097412109375,0.16
2025-03-23 17:38:28.720,0.16510476,4.505685,9.008977,-0.042302385,0.029474225,-0.011606431,-36.7125,-7.9125004,-29.85,0.17103285,0.16576158,0.69348025,992.17694,37.88722916,127.73981055,139.6097412109375,0.16
2025-03-23 17:38:28.741,-0.0047856453,4.4458647,9.040084,0.002290743,-0.02367101,-0.017104214,-36.600002,-7.7625003,-30.187502,0.17056355,0.16536102,0.693498,992.1779,37.88722916,127.73981055,139.6097412109375,0.16
2025-03-23 17:38:28.760,-0.069391854,4.4602213,8.831908,0.0108428495,0.006261364,0.017104214,-36.825,-7.8750005,-30.187502,0.17027031,0.1652547,0.6934252,992.1779,37.88722916,127.73981055,139.6097412109375,0.16
2025-03-23 17:38:28.779,0.15074782,4.6061835,8.664411,0.004123337,-0.021227552,0.01527162,-35.943752,-7.8,-30.206251,0.17010827,0.16538684,0.6935245,992.17645,37.88722916,127.73981055,139.6097412109375,0.16
2025-03-23 17:38:28.801,0.124426775,4.5655055,8.729017,-0.016035201,-0.049327333,0.0012217296,-35.9625,-7.65,-29.79375,0.17059848,0.16511624,0.69349396,992.17645,37.88722916,127.73981055,139.6097412109375,0.16
2025-03-23 17:38:28.819,0.050249275,4.558327,8.9108715,-0.023365578,0.006872229,0.010995566,-36.16875,-7.51875,-29.831251,0.1706528,0.16479489,0.6934944,992.17035,37.88722916,127.73981055,139.6097412109375,0.16
2025-03-23 17:38:28.839,0.16510476,4.618148,8.956335,-0.014813471,0.039858926,0.020158539,-36.24375,-7.8187504,-29.906252,0.17021054,0.16482112,0.69369566,992.17035,37.88722916,127.73981055,139.6097412109375,0.16
2025-03-23 17:38:28.859,0.11964113,4.685147,8.85823,0.012675445,0.012370012,0.0036651888,-36.6375,-7.7625003,-29.868752,0.17007247,0.16493358,0.6938362,992.17255,37.88722916,127.73981055,139.6097412109375,0.16
2025-03-23 17:38:28.880,0.15792629,4.7282176,8.7673025,-0.023365578,0.04535671,-0.017715078,-36.487503,-7.74375,-30.31875,0.17018119,0.16519465,0.6937973,992.17255,37.88722916,127.73981055,139.6097412109375,0.16
2025-03-23 17:38:28.900,-0.069391854,4.5966125,8.987442,-0.03619374,0.08078687,-0.014660755,-35.9625,-7.5375004,-30.431252,0.16968016,0.16553998,0.6937922,992.1696,37.88722916,127.73981055,139.6097412109375,0.16
2025-03-23 17:38:28.921,-0.069391854,4.4554358,9.099904,0.039553493,-0.03527744,0.035430156,-35.8875,-7.2937503,-30.45,0.1688324,0.1659255,0.69388086,992.1696,37.88722916,127.73981055,139.6097412109375,0.16
2025-03-23 17:38:28.939,0.36370903,4.520042,9.025727,0.09758565,-0.08353576,0.03848448,-35.9625,-7.3500004,-30.50625,0.16923465,0.16573307,0.6939985,992.16986,37.88722916,127.73981055,139.6097412109375,0.16
2025-03-23 17:38:28.960,0.12921242,4.6325045,8.329415,0.076816246,0.011148282,0.023823727,-36.131252,-7.4812503,-30.2625,0.17072658,0.1657511,0.6940298,992.16986,37.88722916,127.73981055,139.6097412109375,0.16
2025-03-23 17:38:28.981,0.23928227,4.6731825,8.243274,-0.01725693,0.012370012,0.02443459,-36.5625,-7.51875,-30.206251,0.1712177,0.16645728,0.6940994,992.1662,37.88722916,127.73981055,139.6097412109375,0.16
2025-03-23 17:38:28.999,0.42592242,4.6205406,8.738588,-0.07589995,0.014202606,-0.018936807,-36.43125,-7.51875,-30.056252,0.17141351,0.16634096,0.69422746,992.1662,37.88722916,127.73981055,139.6097412109375,0.16
2025-03-23 17:38:29.020,0.11724831,4.613362,9.001799,-0.0697913,0.048411034,-0.043371398,-36.693752,-7.51875,-29.962502,0.17098342,0.16579518,0.6942616,992.16425,37.88722916,127.73981055,139.6097412109375,0.16
2025-03-23 17:38:29.040,-0.15792629,4.6779685,9.171689,-0.011148282,0.006261364,-0.010384701,-36.65625,-7.6125,-29.906252,0.17007177,0.16586295,0.69418406,992.16425,37.88722916,127.73981055,139.6097412109375,0.16
2025-03-23 17:38:29.060,0.038285162,4.7042894,8.997013,0.07192933,-0.0481056,0.011606431,-36.45,-7.7812505,-29.493752,0.1700288,0.1660489,0.69407827,992.17035,37.88722916,127.73981055,139.6097412109375,0.16
2025-03-23 17:38:29.079,0.011964113,4.706682,8.559127,0.052381653,0.003817905,0.014660755,-36.206253,-7.5750003,-29.493752,0.17072204,0.16646978,0.6939559,992.17035,37.88722916,127.73981055,139.6097412109375,0.16
2025-03-23 17:38:29.100,-0.011964113,4.618148,8.642876,0.0059559317,0.027641632,0.009162972,-35.775,-7.4625,-29.5125,0.1709269,0.16708021,0.693954,992.17816,37.88722916,127.73981055,139.6097412109375,0.16
2025-03-23 17:38:29.119,0.069391854,4.5128636,8.815159,-1.527162E-4,0.015424335,6.108648E-4,-35.775,-7.2375,-29.587502,0.17071651,0.16733755,0.6940117,992.17816,37.88722916,127.73981055,139.6097412109375,0.16
2025-03-23 17:38:29.140,0.03589234,4.479364,8.872586,-0.013591741,0.023976443,-0.0036651888,-35.86875,-7.2000003,-29.531252,0.17044161,0.16732754,0.6940337,992.17914,37.88722916,127.73981055,139.6097412109375,0.16
2025-03-23 17:38:29.160,-0.059820566,4.493721,9.107083,-0.010537418,0.044134982,0.011606431,-36.412502,-7.2937503,-29.6625,0.16987361,0.16729972,0.6941379,992.17914,37.88722829,127.73979846,137.6226806640625,0.0
2025-03-23 17:38:29.181,0.0071784677,4.503292,9.224331,0.054825112,0.043524116,0.046425723,-36.675003,-7.51875,-29.7,0.1691902,0.16743614,0.69439405,992.18036,37.88722829,127.73979846,137.6226806640625,0.0
2025-03-23 17:38:29.202,0.2416751,4.7210393,8.681161,0.09269873,0.008093959,0.037262753,-36.54375,-7.51875,-29.60625,0.16943784,0.16803777,0.69474995,992.18036,37.88722829,127.73979846,137.6226806640625,0.0
2025-03-23 17:38:29.219,0.2943172,4.718646,8.365308,0.043218683,0.025198173,0.009162972,-36.525,-7.425,-29.868752,0.17016347,0.16845891,0.69479537,992.1789,37.88722829,127.73979846,137.6226806640625,0.0
2025-03-23 17:38:29.239,0.033499517,4.6205406,8.556734,-0.01970039,0.11194097,0.013439025,-36.16875,-7.5000005,-29.79375,0.17023328,0.16926299,0.6949278,992.1789,37.88722829,127.73979846,137.6226806640625,0.0
2025-03-23 17:38:29.259,-0.043070808,4.5798626,8.817552,0.008399391,0.027641632,0.034208428,-35.8125,-7.2937503,-29.643751,0.16955763,0.16981937,0.69520867,992.18256,37.88722829,127.73979846,137.6226806640625,0.0
2025-03-23 17:38:29.279,0.15074782,4.5535417,8.702696,0.046273008,-0.11957678,0.048258316,-35.8875,-7.36875,-29.493752,0.16994168,0.1697045,0.6953736,992.18256,37.88722829,127.73979846,137.6226806640625,0.0
2025-03-23 17:38:29.301,0.45702913,4.587041,8.683554,0.030390523,-0.08720095,0.019547673,-35.71875,-7.4437504,-29.175001,0.17128429,0.1688853,0.6954391,992.1767,37.88722829,127.73979846,137.6226806640625,0.0
2025-03-23 17:38:29.321,0.25603202,4.6731825,8.611769,-0.008704823,0.066126116,-0.012217295,-35.831253,-7.33125,-29.343752,0.17194828,0.16849796,0.69552475,992.1767,37.88722829,127.73979846,137.6226806640625,0.0
2025-03-23 17:38:29.341,-0.0047856453,4.625326,8.484949,-0.029474225,0.06429352,-0.017104214,-36.24375,-7.4812503,-29.400002,0.17164582,0.1688436,0.69554776,992.1674,37.88722829,127.73979846,137.6226806640625,0.0
2025-03-23 17:38:29.360,0.1268196,4.5296135,8.7577305,-0.0594066,-0.029779658,-0.0048869182,-36.225002,-7.4062505,-29.681252,0.17097741,0.16900478,0.69554853,992.1674,37.88722829,127.73979846,137.6226806640625,0.0
2025-03-23 17:38:29.380,0.25124636,4.486542,9.145369,-0.038026333,-0.04138609,-0.009162972,-36.15,-7.4625,-30.225,0.17084818,0.16834353,0.6955717,992.1623,37.88722829,127.73979846,137.6226806640625,0.0
2025-03-23 17:38:29.400,-0.0023928226,4.599005,8.779266,0.0010690134,0.010537418,-0.007941242,-36.24375,-7.4812503,-30.018751,0.17068586,0.16758594,0.6955915,992.1623,37.88722829,127.73979846,137.6226806640625,0.0
2025-03-23 17:38:29.422,-0.040677983,4.6636114,8.6548395,-0.031306818,0.031306818,0.020158539,-36.3375,-7.5375004,-30.31875,0.17041583,0.16787352,0.69559985,992.15985,37.88722829,127.73979846,137.6226806640625,0.0
2025-03-23 17:38:29.439,0.1698904,4.6229334,8.879765,-0.042302385,0.05146536,0.017715078,-36.375,-7.6312504,-30.4125,0.16990954,0.16806264,0.69581366,992.15985,37.88722829,127.73979846,137.6226806640625,0.0
2025-03-23 17:38:29.460,0.22971097,4.6731825,8.829515,-0.031306818,0.039858926,-0.027488915,-36.7125,-7.6312504,-30.13125,0.16943847,0.16796559,0.6960065,992.15717,37.88722829,127.73979846,137.6226806640625,0.0
2025-03-23 17:38:29.480,-0.17228323,4.5966125,8.843872,-0.060017463,0.050854493,-0.026267186,-36.600002,-7.5750003,-29.962502,0.16899425,0.16799109,0.69592,992.15717,37.88722829,127.73979846,137.6226806640625,0.0
2025-03-23 17:38:29.499,-0.2847459,4.5320063,9.18126,-0.011148282,0.041080657,0.03848448,-36.506252,-7.4625,-29.41875,0.16785565,0.16829282,0.6959724,992.1523,37.88722829,127.73979846,137.6226806640625,0.0
2025-03-23 17:38:29.520,0.086141616,4.5559344,8.88455,0.08659008,-0.063377224,0.05864302,-36.075,-7.3125005,-29.56875,0.1675844,0.16848867,0.6963453,992.1523,37.88722829,127.73979846,137.6226806640625,0.0
2025-03-23 17:38:29.539,0.086141616,4.5942197,8.228917,0.06276636,-0.08659008,0.0537561,-35.850002,-7.1250005,-29.362501,0.16891496,0.16842765,0.69642,992.1579,37.88722829,127.73979846,137.6226806640625,0.0
2025-03-23 17:38:29.559,0.32303107,4.7162533,8.286345,-0.067958705,0.00320704,0.04703659,-36.075,-7.3875003,-29.7,0.16983603,0.16832928,0.69660705,992.1579,37.88722829,127.73979846,137.6226806640625,0.0
2025-03-23 17:38:29.579,0.34456646,4.666004,9.030513,-0.10949751,0.06062833,0.0097738365,-35.98125,-7.275,-30.16875,0.16953997,0.16779327,0.69704217,992.1525,37.88722829,127.73979846,137.6226806640625,0.0
2025-03-23 17:38:29.599,-0.014356935,4.5535417,9.401401,-0.016646065,0.039858926,0.0097738365,-36.35625,-7.2000003,-29.868752,0.1686083,0.16724211,0.6973762,992.1525,37.88722829,127.73979846,137.6226806640625,0.0
2025-03-23 17:38:29.621,-0.023928227,4.625326,8.9826565,0.05665771,-0.03527744,0.03604102,-36.3375,-7.2375,-30.31875,0.16813248,0.16726582,0.69755185,992.1496,37.88722829,127.73979846,137.6226806640625,0.0
2025-03-23 17:38:29.641,0.19142582,4.658826,8.755338,0.057268575,-0.07192933,0.027488915,-35.831253,-6.8812504,-30.487501,0.16919683,0.16724043,0.69757134,992.1496,37.88722829,127.73979846,137.6226806640625,0.0
2025-03-23 17:38:29.659,0.29910284,4.6492543,8.640483,0.035888307,-0.013286309,0.013439025,-35.86875,-7.0687504,-30.337502,0.16991277,0.16720931,0.6975618,992.14813,37.88722829,127.73979846,137.6226806640625,0.0
2025-03-23 17:38:29.680,0.26081768,4.6707897,8.580662,-0.01725693,0.025809037,-0.022601997,-35.850002,-7.0312505,-30.4125,0.17047666,0.16739148,0.6975423,992.14813,37.88722829,127.73979846,137.6226806640625,0.0
2025-03-23 17:38:29.701,0.033499517,4.587041,8.882157,-0.033139415,0.04535671,-0.02932151,-35.925003,-7.2000003,-30.281252,0.17021203,0.16748568,0.6974472,992.15155,37.88722829,127.73979846,137.6226806640625,0.0
2025-03-23 17:38:29.720,-0.18424734,4.5678983,8.932407,0.0016798781,0.027030766,-0.0012217296,-36.525,-7.4625,-29.906252,0.16945988,0.1677579,0.69741064,992.15155,37.88722829,127.73979846,137.6226806640625,0.0
2025-03-23 17:38:29.739,0.04546363,4.5942197,8.956335,0.029168794,-0.026725333,0.012217295,-36.375,-7.4625,-29.8875,0.16916534,0.16799992,0.69740057,992.14984,37.88722829,127.73979846,137.6226806640625,0.0
2025-03-23 17:38:29.761,0.021535404,4.6301117,8.733803,0.042607818,-0.014508039,0.0018325944,-36.412502,-7.6875005,-29.925001,0.1696023,0.16799943,0.69732475,992.14984,37.88722829,127.73979846,137.6226806640625,0.0
2025-03-23 17:38:29.780,-0.050249275,4.6229334,8.724232,0.0029016077,0.008704823,0.014660755,-36.45,-7.5937505,-29.75625,0.16987029,0.16832024,0.6972479,992.153,37.88722829,127.73979846,137.6226806640625,0.0
2025-03-23 17:38:29.800,0.08135597,4.5655055,8.992228,0.004734202,0.05329795,0.023212861,-36.018753,-7.6687503,-30.000002,0.16947249,0.16860688,0.697457,992.153,37.88722829,127.73979846,137.6226806640625,0.0
2025-03-23 17:38:29.819,0.021535404,4.575077,8.839087,0.03894263,0.013591741,0.020769402,-35.90625,-7.74375,-29.85,0.1691936,0.16885638,0.69767433,992.1584,37.88722829,127.73979846,137.6226806640625,0.0
2025-03-23 17:38:29.839,0.023928227,4.644469,8.539984,0.048716467,-0.029779658,0.03970621,-35.8875,-7.6687503,-29.531252,0.16948971,0.16917183,0.69775033,992.1584,37.88722829,127.73979846,137.6226806640625,0.0
2025-03-23 17:38:29.860,0.24885355,4.7018967,8.585447,0.008399391,-0.04444041,0.02565632,-35.925003,-7.9125004,-29.56875,0.17027645,0.16919023,0.69782233,992.1628,37.88722829,127.73979846,137.6226806640625,0.0
2025-03-23 17:38:29.880,0.18903299,4.65404,8.796016,-0.03497201,0.0056504994,0.01282816,-35.98125,-7.8375,-29.587502,0.17074004,0.16892251,0.6979241,992.1628,37.88722829,127.73979846,137.6226806640625,0.0
2025-03-23 17:38:29.899,0.24646074,4.6301117,9.056833,-0.006872229,0.014813471,0.0097738365,-36.43125,-7.74375,-29.56875,0.17058769,0.16866605,0.6980987,992.1589,37.88722829,127.73979846,137.6226806640625,0.0
2025-03-23 17:38:29.922,0.016749758,4.668397,8.774481,0.03894263,0.0025961753,0.0048869182,-36.61875,-8.08125,-29.7,0.17071354,0.16856197,0.698153,992.1589,37.88722829,127.73979846,137.6226806640625,0.0
2025-03-23 17:38:29.940,0.10767702,4.692325,8.695518,0.018784093,0.009926553,0.0097738365,-36.675003,-7.7812505,-29.625002,0.17090268,0.16894682,0.6981284,992.16156,37.88722829,127.73979846,137.6226806640625,0.0
2025-03-23 17:38:29.960,0.20578274,4.6325045,8.788837,0.002290743,0.0025961753,-0.011606431,-36.9,-7.6875005,-29.625002,0.17110817,0.16910665,0.6981494,992.16156,37.88722829,127.73979846,137.6226806640625,0.0
2025-03-23 17:38:29.980,0.062213387,4.6492543,8.752945,0.0065667965,0.022754714,-0.010995566,-36.581253,-7.55625,-30.000002,0.17103976,0.16915892,0.6980899,992.1657,37.88722829,127.73979846,137.6226806640625,0.0
2025-03-23 17:38:30.000,0.16031912,4.6803613,8.776874,0.013286309,0.008704823,-0.0067195124,-36.318752,-7.2937503,-30.13125,0.17094174,0.16939682,0.69804513,992.1657,37.88722829,127.73979846,137.6226806640625,0.0
2025-03-23 17:38:30.020,0.2009971,4.6636114,8.709874,0.024281874,-0.040775225,-0.03176497,-35.98125,-7.2562504,-30.562502,0.17130922,0.1694016,0.6978884,992.1684,37.88722829,127.73979846,137.6226806640625,0.0
2025-03-23 17:38:30.040,0.086141616,4.6085763,8.7266245,-0.01725693,-0.007177661,-0.010384701,-35.5875,-7.2937503,-30.487501,0.17164396,0.16931409,0.69758177,992.1684,37.88722829,127.73979846,137.6226806640625,0.0
2025-03-23 17:38:30.059,0.17706887,4.5678983,8.906086,-0.025809037,0.027641632,-0.012217295,-35.850002,-7.2187505,-30.45,0.17145926,0.16919945,0.69758785,992.1662,37.88722829,127.73979846,137.6226806640625,0.0
2025-03-23 17:38:30.081,0.014356935,4.5918264,8.898908,-0.016035201,0.025809037,-0.0097738365,-35.943752,-7.2187505,-30.45,0.17101797,0.16909777,0.69762874,992.1662,37.88722829,127.73979846,137.6226806640625,0.0
2025-03-23 17:38:30.101,0.043070808,4.644469,9.040084,-0.0056504994,1.527162E-4,6.108648E-4,-36.05625,-7.3125005,-30.337502,0.17055064,0.16914757,0.6976353,992.16473,37.88722829,127.73979846,137.6226806640625,0.0
2025-03-23 17:38:30.121,0.0023928226,4.610969,9.068798,0.046883874,1.527162E-4,-0.0018325944,-36.206253,-7.0312505,-30.187502,0.17042425,0.1691267,0.6976315,992.16473,37.88722829,127.73979846,137.6226806640625,0.0
2025-03-23 17:38:30.140,-0.04546363,4.6707897,8.408379,0.06582068,-0.02611447,-0.0067195124,-36.412502,-7.18125,-29.8875,0.17073674,0.1695862,0.697474,992.174,37.88722829,127.73979846,137.6226806640625,0.0
2025-03-23 17:38:30.160,-0.019142581,4.599005,8.396415,-0.0050396346,-0.004734202,0.0012217296,-36.225002,-7.1062503,-30.225,0.17130172,0.17013334,0.69721615,992.174,37.88722829,127.73979846,137.6226806640625,0.0
2025-03-23 17:38:30.181,0.05742774,4.587041,8.781659,-0.025198173,0.06185006,0.008552107,-36.225002,-7.2000003,-30.525002,0.17106563,0.17038289,0.6972503,992.1735,37.88722829,127.73979846,137.6226806640625,0.0
2025-03-23 17:38:30.200,0.03589234,4.6396832,8.7577305,-7.6358096E-4,-0.0151189035,0.0073303776,-36.46875,-7.70625,-30.675001,0.17058004,0.17052373,0.6974198,992.1735,37.88722829,127.73979846,137.6226806640625,0.0
2025-03-23 17:38:30.221,0.038285162,4.6636114,8.774481,0.005345067,-0.085979216,0.023212861,-36.112503,-7.8562503,-30.675001,0.17084639,0.1702992,0.6973895,992.17523,37.88722829,127.73979846,137.6226806640625,0.0
2025-03-23 17:38:30.240,0.18664017,4.666004,8.9826565,0.018173227,-0.0029016077,0.033597562,-36.018753,-7.8187504,-29.94375,0.17141585,0.16975431,0.69749093,992.17523,37.88722829,127.73979846,137.6226806640625,0.0
2025-03-23 17:38:30.259,0.16271193,4.699504,8.855837,0.028557928,0.035582874,0.032986697,-36.15,-7.89375,-29.737501,0.17147538,0.1697689,0.6976146,992.17523,37.88722829,127.73979846,137.6226806640625,0.0
2025-03-23 17:38:30.279,0.20578274,4.6779685,8.46102,0.013286309,-0.012064579,0.005497783,-35.625,-7.6312504,-29.98125,0.17182592,0.17028593,0.697833,992.1713,37.88722829,127.73979846,137.6226806640625,0.0
2025-03-23 17:38:30.299,0.23688944,4.5726843,8.681161,-0.026419902,-0.021227552,-0.010995566,-35.100002,-7.8187504,-31.0125,0.17220564,0.17007747,0.69779515,992.15936,37.88722829,127.73979846,137.6226806640625,0.0
2025-03-23 17:38:30.319,0.086141616,4.5296135,9.006584,-0.022143848,0.043524116,0.0018325944,-35.0625,-8.0625,-31.556252,0.1719139,0.16969804,0.69786,992.15936,37.88722829,127.73979846,137.6226806640625,0.0
2025-03-23 17:38:30.339,0.09092726,4.6492543,8.827123,0.031001387,0.013591741,0.0036651888,-34.85625,-8.26875,-31.800001,0.17144744,0.16976172,0.69800913,992.1586,37.88722829,127.73979846,137.6226806640625,0.0
2025-03-23 17:38:30.359,0.32303107,4.6779685,8.453842,0.0059559317,-0.08170316,-0.01527162,-34.78125,-8.45625,-32.175003,0.1719231,0.169866,0.6978864,992.1586,37.88722829,127.73979846,137.6226806640625,0.0
2025-03-23 17:38:30.380,0.3589234,4.5535417,8.855837,-0.07040217,0.021532983,-0.05742129,-34.55625,-8.400001,-32.2125,0.1725864,0.16919479,0.6976605,992.16425,37.88722829,127.73979846,137.6226806640625,0.0
2025-03-23 17:38:30.399,-0.078963146,4.4554358,9.176475,-0.056352276,0.123547405,-0.043371398,-33.693752,-8.53125,-33.075,0.17156102,0.16887277,0.69759786,992.16425,37.88722829,127.73979846,137.6226806640625,0.0
2025-03-23 17:38:30.419,0.14596218,4.5726843,9.080762,0.040775225,-0.028557928,-0.032375835,-33.46875,-8.64375,-33.54375,0.17013308,0.16918534,0.6976188,992.1635,37.88722829,127.73979846,137.6226806640625,0.0
2025-03-23 17:38:30.439,0.13399807,4.5655055,8.559127,0.09269873,-0.17027856,-0.074525505,-33.393753,-8.56875,-33.037502,0.17148314,0.16875574,0.6968869,992.1635,37.88722829,127.73979846,137.6226806640625,0.0
2025-03-23 17:38:30.459,-0.11964113,4.5415773,8.413164,0.021227552,-0.029779658,-0.036651887,-33.43125,-8.38125,-32.381252,0.17258322,0.16866289,0.6961311,992.16644,37.88722829,127.73979846,137.6226806640625,0.0
2025-03-23 17:38:30.479,-0.059820566,4.570291,8.69791,-0.037415467,0.117438756,0.016493348,-34.5,-8.325001,-31.66875,0.17196186,0.16922235,0.6960537,992.16644,37.88722829,127.73979846,137.6226806640625,0.0
2025-03-23 17:38:30.499,0.10049855,4.6564326,8.71466,-0.015424335,0.05329795,0.010384701,-34.66875,-8.26875,-31.556252,0.17091617,0.16979468,0.6963867,992.1728,37.88722829,127.73979846,137.6226806640625,0.0
2025-03-23 17:38:30.519,0.10289137,4.7401814,8.652447,-0.03619374,-0.035888307,-0.007941242,-35.04375,-8.212501,-31.312502,0.17077556,0.16987115,0.6964704,992.1728,37.88722829,127.73979846,137.6226806640625,0.0
2025-03-23 17:38:30.541,0.038285162,4.627719,9.114262,-0.041691523,-0.019394957,0.010995566,-35.68125,-8.15625,-31.125002,0.17077732,0.1692913,0.69644535,992.17377,37.88722829,127.73979846,137.6226806640625,0.0
2025-03-23 17:38:30.560,0.3900301,4.7162533,9.315259,0.017562363,0.006872229,0.01527162,-35.662502,-8.00625,-30.993752,0.17048739,0.16892481,0.69665664,992.17377,37.88722829,127.73979846,137.6226806640625,0.0
2025-03-23 17:38:30.580,0.1794617,4.7832522,9.020942,0.08353576,-0.02611447,-0.020769402,-35.925003,-7.6875005,-30.581251,0.171044,0.16877596,0.6966354,992.17914,37.88722829,127.73979846,137.6226806640625,0.0
2025-03-23 17:38:30.599,0.124426775,4.7688956,8.597412,0.075594515,-0.013897174,-0.018325943,-36.05625,-7.7250004,-30.618752,0.17183402,0.16933648,0.69629914,992.17914,37.88722829,127.73979846,137.6226806640625,0.0
2025-03-23 17:38:30.620,0.17228323,4.7425747,8.281559,0.034666575,-0.018784093,-0.04214967,-36.09375,-7.9687505,-30.50625,0.1726435,0.16990262,0.6959518,992.18695,37.88722829,127.73979846,137.6226806640625,0.0
2025-03-23 17:38:30.639,-0.0526421,4.6755753,8.226524,-0.060017463,0.07223476,-0.029932374,-36.24375,-7.8,-30.2625,0.17287546,0.17033428,0.6956009,992.18695,37.88722829,127.73979846,137.6226806640625,0.0
2025-03-23 17:38:30.661,0.11485548,4.517649,8.611769,-0.18280129,0.24266604,-0.02687805,-36.112503,-7.8750005,-30.075,0.17113796,0.17096442,0.6957978,992.1789,37.88722829,127.73979846,137.6226806640625,0.0
2025-03-23 17:38:30.679,-0.043070808,4.476971,9.104691,-0.14309508,0.2328922,-0.0537561,-36.15,-7.7625003,-29.925001,0.16747102,0.17128387,0.6964207,992.1789,37.88722829,127.73979846,137.6226806640625,0.0
2025-03-23 17:38:30.700,-0.44027936,4.4817567,8.937193,-0.07284562,0.14920372,-0.0140498895,-36.318752,-7.8375,-29.962502,0.1648294,0.17187226,0.6966569,992.1801,37.88722829,127.73979846,137.6226806640625,0.0
2025-03-23 17:38:30.719,-0.12203395,4.503292,8.882157,-0.0050396346,-0.004734202,0.021380268,-35.98125,-7.8,-30.243752,0.16346005,0.17234233,0.69686246,992.1801,37.88722829,127.73979846,137.6226806640625,0.0
2025-03-23 17:38:30.739,0.02871387,4.5152564,8.6141615,0.016340632,-0.089033544,0.018325943,-35.662502,-7.6125,-30.6375,0.16385016,0.17198208,0.6968971,992.1838,37.88722829,127.73979846,137.6226806640625,0.0
2025-03-23 17:38:30.759,0.2727818,4.601398,8.76491,-0.0368046,-0.043218683,-0.0140498895,-34.987503,-7.6125,-31.593752,0.16462658,0.17128173,0.69687915,992.1838,37.88722829,127.73979846,137.6226806640625,0.0
2025-03-23 17:38:30.779,-0.078963146,4.551149,8.95155,-0.044745844,0.0820086,-0.026267186,-34.40625,-7.4625,-31.875002,0.16460982,0.17073815,0.6968705,992.18353,37.88722829,127.73979846,137.6226806640625,0.0
2025-03-23 17:38:30.801,-0.2321038,4.5655055,8.970692,-0.0044287695,0.08811724,0.008552107,-34.518753,-7.6875005,-31.781252,0.16345757,0.1711574,0.69698024,992.18353,37.88722829,127.73979846,137.6226806640625,0.0
2025-03-23 17:38:30.821,-0.014356935,4.584648,8.853444,0.035888307,-0.06520981,0.017715078,-34.65,-7.8562503,-31.63125,0.16315651,0.1715594,0.69710374,992.18427,37.88722829,127.73979846,137.6226806640625,0.0
2025-03-23 17:38:30.839,0.11724831,4.6301117,8.779266,0.018784093,-0.06887501,0.013439025,-35.15625,-7.9500003,-30.750002,0.16404189,0.17118041,0.6970335,992.18427,37.88722829,127.73979846,137.6226806640625,0.0
2025-03-23 17:38:30.859,0.059820566,4.6037908,8.915657,-0.022143848,0.05146536,-6.108648E-4,-35.550003,-7.8187504,-30.6375,0.16442446,0.17090511,0.69707215,992.1779,37.88722829,127.73979846,137.6226806640625,0.0
2025-03-23 17:38:30.879,0.05742774,4.599005,9.042477,0.007788526,0.11560616,-0.0073303776,-35.268753,-7.8375,-30.712502,0.16375344,0.1712161,0.6972803,992.1779,37.88722829,127.73979846,137.6226806640625,0.0
2025-03-23 17:38:30.899,-0.12921242,4.625326,8.815159,0.05177079,0.020922119,-0.010995566,-34.893753,-8.212501,-31.3875,0.16339399,0.17186303,0.69731164,992.18524,37.88722829,127.73979846,137.6226806640625,0.0
2025-03-23 17:38:30.919,-0.033499517,4.6707897,8.776874,0.048716467,-0.048716467,0.0024434591,-34.3875,-8.400001,-32.287502,0.1638642,0.17223948,0.6971163,992.18524,37.88722829,127.73979846,137.6226806640625,0.0
2025-03-23 17:38:30.940,0.04546363,4.5942197,8.760123,0.029779658,-0.022449281,-0.0048869182,-33.80625,-8.418751,-32.5875,0.16454609,0.17234208,0.69696933,992.1867,37.88722829,127.73979846,137.6226806640625,0.0
2025-03-23 17:38:30.960,0.014356935,4.520042,8.906086,0.04382955,-0.021838415,-0.0073303776,-33.54375,-8.306251,-33.206253,0.16496898,0.1723447,0.69685656,992.1867,37.88722829,127.73979846,137.6226806640625,0.0
2025-03-23 17:38:30.980,-0.10049855,4.5008993,8.836694,0.07987057,-0.007177661,-0.0061086477,-33.6375,-8.08125,-33.1875,0.16535227,0.1723802,0.6967258,992.18475,37.88722829,127.73979846,137.6226806640625,0.0
2025-03-23 17:38:30.999,-0.3062813,4.587041,8.379665,0.063377224,0.0019853106,0.02565632,-33.65625,-8.212501,-33.018753,0.16569953,0.17317249,0.69657767,992.18475,37.88722829,127.73979846,137.6226806640625,0.0
2025-03-23 17:38:31.019,0.069391854,4.6205406,8.295917,-0.014813471,-0.012675445,0.023212861,-33.15,-8.19375,-33.487503,0.16606484,0.17371042,0.6966032,992.19696,37.88722829,127.73979846,137.6226806640625,0.0
2025-03-23 17:38:31.040,0.12203395,4.584648,8.595019,-0.07040217,0.03619374,-0.02932151,-33.037502,-8.493751,-33.787502,0.16614005,0.17344293,0.6966951,992.19696,37.88722829,127.73979846,137.6226806640625,0.0
2025-03-23 17:38:31.059,-0.34217364,4.517649,8.906086,-0.083230324,0.054519683,-0.014660755,-33.037502,-8.606251,-33.975002,0.16518775,0.17328861,0.69671506,992.1921,37.88722829,127.73979846,137.6226806640625,0.0
2025-03-23 17:38:31.079,-0.22253251,4.5224347,9.126225,-0.009315688,-0.016951498,0.023212861,-33.581253,-8.212501,-33.61875,0.16413374,0.17315842,0.69685733,992.1921,37.88722829,127.73979846,137.6226806640625,0.0
2025-03-23 17:38:31.101,-0.15314065,4.5942197,8.860622,0.0481056,-0.02489274,0.053145237,-34.350002,-8.25,-32.7,0.16406573,0.17295861,0.69702214,992.19135,37.88722829,127.73979846,137.6226806640625,0.0
2025-03-23 17:38:31.122,0.3589234,4.8215375,8.609376,-0.0074830935,-0.0010690134,0.032375835,-35.2125,-8.00625,-31.500002,0.16467707,0.17313376,0.6973833,992.19135,37.88722829,127.73979846,137.6226806640625,0.0
2025-03-23 17:38:31.140,0.076570325,4.7545385,8.788837,-0.048411034,0.0368046,-0.0140498895,-35.8125,-7.6125,-30.618752,0.16515486,0.17290999,0.69755757,992.1879,37.88722829,127.73979846,137.6226806640625,0.0
2025-03-23 17:38:31.162,-0.22013968,4.642076,8.874979,-0.023976443,0.03619374,0.005497783,-36.018753,-7.6687503,-30.281252,0.16442259,0.17309842,0.69764787,992.1879,37.88722829,127.73979846,137.6226806640625,0.0
2025-03-23 17:38:31.180,-0.12203395,4.584648,8.841479,0.004734202,-0.0377209,0.028099779,-36.018753,-7.6125,-30.487501,0.16419797,0.17323002,0.69769967,992.1911,37.88722829,127.73979846,137.6226806640625,0.0
2025-03-23 17:38:31.200,0.21535404,4.601398,8.872586,0.002290743,-0.04016436,0.025045456,-35.831253,-7.4062505,-30.862501,0.16456336,0.17293805,0.6978106,992.1911,37.88722829,127.73979846,137.6226806640625,0.0
2025-03-23 17:38:31.220,0.25603202,4.65404,9.12144,-0.0056504994,0.044745844,-0.017104214,-35.60625,-7.5000005,-30.750002,0.16489327,0.17229687,0.6980249,992.1967,37.88722829,127.73979846,137.6226806640625,0.0
2025-03-23 17:38:31.239,-0.21774685,4.6468616,8.8701935,0.031001387,0.05329795,-0.020769402,-35.2125,-7.33125,-30.656252,0.16463985,0.17250408,0.69800186,992.1967,37.88722829,127.73979846,137.6226806640625,0.0
2025-03-23 17:38:31.260,-0.19142582,4.65404,8.678768,0.046883874,-0.0108428495,0.0036651888,-35.568752,-7.4062505,-30.431252,0.1645172,0.17305456,0.6978941,992.1899,37.88722829,127.73979846,137.6226806640625,0.0
2025-03-23 17:38:31.281,-0.031106694,4.599005,8.396415,0.045662142,-0.03161225,0.010995566,-35.68125,-7.36875,-30.243752,0.1651291,0.17356493,0.69773173,992.1899,37.88722829,127.73979846,137.6226806640625,0.0
2025-03-23 17:38:31.299,-0.09571291,4.5655055,8.262417,-0.023976443,-0.008399391,0.0097738365,-36.018753,-7.3875003,-30.281252,0.16564073,0.173744,0.6976662,992.18207,37.88722829,127.73979846,137.6226806640625,0.0
2025-03-23 17:38:31.320,0.059820566,4.587041,8.776874,-0.06368265,0.011759147,0.010384701,-35.98125,-7.4062505,-30.487501,0.16539244,0.17360325,0.69780207,992.18207,37.88722829,127.73979846,137.6226806640625,0.0
2025-03-23 17:38:31.340,-0.016749758,4.625326,8.927621,-0.026419902,-0.004123337,-0.017104214,-35.662502,-7.2375,-30.50625,0.16508906,0.17298782,0.69793886,992.1872,37.88722829,127.73979846,137.6226806640625,0.0
2025-03-23 17:38:31.359,-0.19142582,4.599005,8.853444,-0.028863361,0.024587307,0.0018325944,-35.4,-7.2375,-30.581251,0.16484416,0.17291947,0.6979055,992.1872,37.88722829,127.73979846,137.6226806640625,0.0
2025-03-23 17:38:31.379,-0.148355,4.599005,8.977871,-0.025198173,0.044745844,0.025045456,-35.193752,-7.3875003,-30.675001,0.16415031,0.17305547,0.6980557,992.1884,37.88722829,127.73979846,137.6226806640625,0.0
2025-03-23 17:38:31.399,-0.08135597,4.6325045,9.056833,0.009010255,-0.016951498,0.019547673,-35.362503,-7.3500004,-30.73125,0.16374408,0.1729773,0.6983281,992.1884,37.88722829,127.73979846,137.6226806640625,0.0
2025-03-23 17:38:31.420,0.0071784677,4.618148,8.939586,0.019394957,-0.002290743,0.018325943,-35.456253,-7.3875003,-31.087502,0.16390254,0.17288503,0.6984212,992.19183,37.88722829,127.73979846,137.6226806640625,0.0
2025-03-23 17:38:31.439,-0.10049855,4.658826,8.781659,0.021227552,0.047189303,0.02687805,-35.381252,-7.4437504,-31.331251,0.16387531,0.17315675,0.6985613,992.19183,37.88722829,127.73979846,137.6226806640625,0.0
2025-03-23 17:38:31.460,-0.06699903,4.658826,8.796016,0.016340632,0.015424335,0.03176497,-35.081253,-7.2187505,-31.462502,0.16380353,0.17361587,0.69875747,992.1894,37.88722829,127.73979846,137.6226806640625,0.0
2025-03-23 17:38:31.480,0.1794617,4.6372905,9.099904,0.04138609,-0.030390523,-0.0048869182,-35.1375,-7.4437504,-31.3875,0.16417126,0.17353603,0.69888556,992.1894,37.88722829,127.73979846,137.6226806640625,0.0
2025-03-23 17:38:31.500,-0.22013968,4.599005,8.762517,0.063377224,0.022143848,0.005497783,-34.631252,-7.4062505,-31.518751,0.16463797,0.17353733,0.6987961,992.1828,37.88722829,127.73979846,137.6226806640625,0.0
2025-03-23 17:38:31.519,-0.09810573,4.644469,8.578269,0.040775225,0.0129808765,0.032986697,-34.8375,-7.51875,-31.518751,0.16475683,0.17427683,0.6987864,992.1828,37.88722829,127.73979846,137.6226806640625,0.0
2025-03-23 17:38:31.539,0.11964113,4.644469,8.73141,0.02367101,-0.00962112,0.014660755,-34.95,-7.51875,-31.1625,0.16514508,0.1746102,0.69891214,992.1799,37.88722829,127.73979846,137.6226806640625,0.0
2025-03-23 17:38:31.560,0.0047856453,4.599005,8.800801,0.027336199,-0.02611447,0.012217295,-34.800003,-7.425,-31.44375,0.1656681,0.17449735,0.6989555,992.1799,37.88722829,127.73979846,137.6226806640625,0.0
2025-03-23 17:38:31.579,0.02871387,4.625326,8.666803,0.025503604,-0.010231985,0.020158539,-35.25,-7.3125005,-31.462502,0.16592528,0.1744743,0.6989845,992.1801,37.88722829,127.73979846,137.6226806640625,0.0
2025-03-23 17:38:31.599,0.16749759,4.6971107,8.702696,0.0151189035,0.01847866,0.005497783,-35.0625,-7.2187505,-31.406252,0.16637583,0.17449367,0.6990818,992.1801,37.88722829,127.73979846,137.6226806640625,0.0
2025-03-23 17:38:31.620,0.09571291,4.725825,8.626125,-7.6358096E-4,0.053908817,-0.0097738365,-35.006252,-7.0687504,-31.800001,0.1664677,0.1746746,0.6991185,992.18134,37.88722829,127.73979846,137.6226806640625,0.0
2025-03-23 17:38:31.641,0.0071784677,4.615755,8.882157,0.0059559317,0.006872229,-0.01282816,-34.818752,-7.36875,-32.625,0.16609107,0.17499422,0.699109,992.18134,37.88722829,127.73979846,137.6226806640625,0.0
2025-03-23 17:38:31.660,-0.009571291,4.642076,8.640483,0.04138609,-0.032833982,-0.019547673,-34.78125,-7.65,-32.2125,0.16620995,0.17495689,0.6990249,992.184,37.88722829,127.73979846,137.6226806640625,0.0
2025-03-23 17:38:31.680,-0.08853444,4.6492543,8.240881,-0.0056504994,-0.051159926,-0.020158539,-35.175003,-7.8,-32.100002,0.16680416,0.17504102,0.69874066,992.184,37.88722829,127.73979846,137.6226806640625,0.0
2025-03-23 17:38:31.701,0.050249275,4.575077,8.793623,-0.08261946,0.030695954,-0.017104214,-35.25,-7.8750005,-31.66875,0.16687894,0.17473531,0.6985683,992.17865,37.88722829,127.73979846,137.6226806640625,0.0
2025-03-23 17:38:31.719,0.09332009,4.613362,9.24826,-0.06062833,0.055130545,-0.031154104,-35.175003,-7.8187504,-31.575,0.165947,0.17427357,0.69871694,992.17865,37.88722829,127.73979846,137.6226806640625,0.0
2025-03-23 17:38:31.739,-0.086141616,4.699504,9.253045,0.02367101,-0.017562363,-0.037873615,-35.11875,-7.65,-32.006252,0.16536649,0.17399806,0.6986527,992.1779,37.88722829,127.73979846,137.6226806640625,0.0
2025-03-23 17:38:31.759,-0.21535404,4.74736,8.745767,0.072540194,-0.04444041,-0.013439025,-34.7625,-7.6875005,-32.175003,0.16568084,0.17420001,0.69831854,992.1779,37.88722829,127.73979846,137.6226806640625,0.0
2025-03-23 17:38:31.779,-0.016749758,4.7449675,8.26481,0.032223117,-0.026725333,-0.0097738365,-34.631252,-7.4437504,-32.49375,0.1664299,0.17473939,0.6980126,992.1757,37.88722829,127.73979846,137.6226806640625,0.0
2025-03-23 17:38:31.799,0.18903299,4.65404,8.288737,-0.048411034,-0.040775225,-0.041538805,-34.612503,-7.4625,-32.456253,0.1670584,0.17493346,0.69777304,992.1757,37.88722829,127.73979846,137.6226806640625,0.0
2025-03-23 17:38:31.819,0.26799613,4.5726843,8.784052,-0.07956514,-0.0108428495,-0.09346231,-34.36875,-7.6687503,-32.86875,0.16726176,0.17426524,0.69747615,992.1801,37.88722829,127.73979846,137.6226806640625,0.0
2025-03-23 17:38:31.839,-0.35653058,4.4985065,8.925228,-0.06918044,0.067958705,-0.07147118,-34.2,-7.6312504,-32.850002,0.16621032,0.17373636,0.69700843,992.1801,37.88722829,127.73979846,137.6226806640625,0.0
2025-03-23 17:38:31.861,-0.22013968,4.587041,9.102298,-0.028252495,0.044134982,0.0042760535,-34.74375,-7.74375,-32.625,0.16466337,0.17407855,0.69698924,992.18134,37.88722829,127.73979846,137.6226806640625,0.0
2025-03-23 17:38:31.880,-0.0047856453,4.6564326,9.08794,0.034666575,-0.054825112,-0.0073303776,-34.893753,-7.6125,-32.0625,0.1644346,0.1739115,0.69703144,992.18134,37.88722829,127.73979846,137.6226806640625,0.0
2025-03-23 17:38:31.900,-0.11246266,4.6492543,8.719446,0.02611447,0.0019853106,-0.0048869182,-35.0625,-7.5375004,-31.368752,0.1649313,0.17380036,0.69686,992.18475,37.88722829,127.73979846,137.6226806640625,0.0
2025-03-23 17:38:31.920,-0.023928227,4.692325,8.719446,-0.025809037,0.064904384,6.108648E-4,-35.34375,-7.3125005,-31.031252,0.1648067,0.17420866,0.6968485,992.18475,37.88722829,127.73979846,137.6226806640625,0.0
2025-03-23 17:38:31.940,-0.16271193,4.642076,9.071191,-0.026419902,0.06062833,-0.015882485,-34.893753,-7.3500004,-30.900002,0.16429545,0.17444201,0.69696105,992.1845,37.88722829,127.73979846,137.6226806640625,0.0
2025-03-23 17:38:31.959,-0.21535404,4.5678983,8.977871,0.021838415,0.062460925,-0.0067195124,-34.59375,-7.2375,-31.3875,0.16353585,0.17477936,0.69701433,992.1845,37.88722829,127.73979846,137.6226806640625,0.0
2025-03-23 17:38:31.979,-0.21774685,4.587041,8.743374,0.05177079,-0.031001387,0.0018325944,-34.48125,-7.14375,-31.7625,0.1632323,0.17527395,0.69698447,992.1867,37.88722829,127.73979846,137.6226806640625,0.0
2025-03-23 17:38:32.000,-0.20817557,4.56072,8.583055,0.04382955,-0.043218683,0.033597562,-34.21875,-7.14375,-31.743752,0.1638541,0.17551173,0.69682807,992.1867,37.88722829,127.73979846,137.6226806640625,0.0
2025-03-23 17:38:32.020,-0.038285162,4.6061835,8.427522,0.012064579,-0.020005822,0.048258316,-34.40625,-7.275,-31.800001,0.16432296,0.1755943,0.69696647,992.1828,37.88722829,127.73979846,137.6226806640625,0.0
2025-03-23 17:38:32.040,0.33020952,4.7114677,8.76491,-0.014813471,-0.07131846,0.021380268,-34.4625,-7.4062505,-31.593752,0.16495615,0.17523588,0.6971852,992.1828,37.88722829,127.73979846,137.6226806640625,0.0
2025-03-23 17:38:32.060,0.44027936,4.749753,8.76491,-1.527162E-4,-0.04444041,-0.037873615,-34.93125,-7.6875005,-31.275002,0.16589959,0.17432593,0.69722193,992.1818,37.88722829,127.73979846,137.6226806640625,0.0
2025-03-23 17:38:32.079,0.14596218,4.790431,8.472985,-0.027641632,-0.012675445,-0.07147118,-34.95,-7.8375,-31.44375,0.16662793,0.17387351,0.6969209,992.1818,37.88722829,127.73979846,137.6226806640625,0.0
2025-03-23 17:38:32.099,0.011964113,4.6971107,8.702696,-0.05574141,0.0056504994,-0.07269291,-34.875,-7.8750005,-31.575,0.16672227,0.17380865,0.69646525,992.1755,37.88722829,127.73979846,137.6226806640625,0.0
2025-03-23 17:38:32.120,-0.22971097,4.584648,8.968299,-0.041080657,0.031917684,-0.04886918,-34.875,-7.8187504,-31.63125,0.16600895,0.1737116,0.69606006,992.1755,37.88722829,127.73979846,137.6226806640625,0.0
2025-03-23 17:38:32.139,-0.22731815,4.54397,9.01137,-0.0074830935,-0.022449281,-0.022601997,-34.40625,-7.8375,-32.0625,0.16528875,0.17370759,0.6958914,992.1784,37.88722829,127.73979846,137.6226806640625,0.0
2025-03-23 17:38:32.161,-0.06699903,4.4817567,9.131011,0.019394957,-0.07192933,-0.010995566,-34.65,-7.9125004,-32.625,0.1652983,0.17330103,0.69570553,992.1784,37.88722829,127.73979846,137.6226806640625,0.0
2025-03-23 17:38:32.181,-0.050249275,4.479364,8.953942,0.047494736,-0.022449281,-0.011606431,-34.518753,-7.6875005,-32.30625,0.16553475,0.17287895,0.69556564,992.17694,37.88722829,127.73979846,137.6226806640625,0.0
2025-03-23 17:38:32.199,-0.13399807,4.5966125,8.693125,0.014508039,-0.025503604,-0.010995566,-34.59375,-7.6687503,-32.0625,0.1657013,0.17297971,0.6954122,992.17694,37.88722829,127.73979846,137.6226806640625,0.0
2025-03-23 17:38:32.219,-0.15314065,4.6205406,8.908479,0.018173227,-0.004734202,-0.007941242,-34.987503,-7.6125,-31.556252,0.16577254,0.1730231,0.6952657,992.1728,37.88722829,127.73979846,137.6226806640625,0.0
2025-03-23 17:38:32.239,-0.31345975,4.6707897,8.709874,0.034666575,-0.007788526,-0.005497783,-34.65,-7.6125,-31.2,0.1657823,0.17327814,0.69514304,992.1728,37.88722829,127.73979846,137.6226806640625,0.0
2025-03-23 17:38:32.260,-0.19621146,4.6899323,8.585447,0.031001387,-0.059712034,0.018325943,-34.537502,-7.8750005,-31.331251,0.16606128,0.17386363,0.6949231,992.1772,37.88722829,127.73979846,137.6226806640625,0.0
2025-03-23 17:38:32.280,-0.009571291,4.6707897,8.573483,0.013897174,-0.021838415,0.0067195124,-34.518753,-8.25,-31.44375,0.16662113,0.17388614,0.6948483,992.1772,37.88722829,127.73979846,137.6226806640625,0.0
2025-03-23 17:38:32.299,-0.10767702,4.584648,8.441878,-0.04657844,0.027030766,0.0018325944,-34.275,-8.025001,-31.29375,0.16663063,0.17401259,0.6948447,992.17377,37.88722829,127.73979846,137.6226806640625,0.0
2025-03-23 17:38:32.319,0.09092726,4.4889355,8.956335,-0.0820086,0.014813471,-0.010995566,-34.48125,-7.9687505,-31.331251,0.16609478,0.17371209,0.6949696,992.17377,37.88722829,127.73979846,137.6226806640625,0.0
2025-03-23 17:38:32.339,-0.14596218,4.4554358,9.276974,-0.022143848,0.05574141,-0.0140498895,-34.706253,-7.9500003,-31.575,0.16524416,0.17311995,0.6951155,992.1806,37.88722829,127.73979846,137.6226806640625,0.0
2025-03-23 17:38:32.361,-0.2632105,4.584648,8.673982,0.055435978,0.029474225,0.02565632,-34.725002,-7.70625,-31.743752,0.16438521,0.17348349,0.6952185,992.1806,37.88722829,127.73979846,137.6226806640625,0.0
2025-03-23 17:38:32.381,0.014356935,4.694718,8.403593,0.021227552,-0.052381653,0.0042760535,-35.11875,-7.6125,-31.650002,0.16468602,0.17400464,0.6952195,992.18134,37.88722829,127.73979846,137.6226806640625,0.0
2025-03-23 17:38:32.400,0.023928227,4.6301117,8.506484,-0.052687086,-0.0029016077,-0.021991132,-35.381252,-7.5937505,-31.125002,0.16529807,0.17383887,0.6950568,992.18134,37.88722829,127.73979846,137.6226806640625,0.0
2025-03-23 17:38:32.421,-0.27756742,4.5655055,8.834301,-0.087506376,0.0386372,-0.011606431,-35.568752,-7.3125005,-30.825,0.16472438,0.17359748,0.69503546,992.1755,37.88722829,127.73979846,137.6226806640625,0.0
2025-03-23 17:38:32.439,-0.22492532,4.56072,9.241081,-0.027641632,0.009315688,0.034208428,-36.018753,-7.36875,-30.45,0.16365737,0.17343669,0.69523734,992.1755,37.88722829,127.73979846,137.6226806640625,0.0
2025-03-23 17:38:32.459,0.038285162,4.6492543,8.968299,0.054825112,-0.0481056,0.032375835,-35.8125,-7.51875,-30.675001,0.16369754,0.17314412,0.6954681,992.1823,37.88722829,127.73979846,137.6226806640625,0.0
2025-03-23 17:38:32.480,0.09810573,4.7425747,8.551949,0.023060145,-0.046273008,0.0024434591,-35.737503,-7.4062505,-30.54375,0.16466542,0.17301351,0.6954683,992.1823,37.88722829,127.73979846,137.6226806640625,0.0
2025-03-23 17:38:32.502,-0.07178468,4.699504,8.800801,-0.050854493,0.031306818,0.0030543238,-35.550003,-7.51875,-30.16875,0.16516112,0.17297572,0.69542515,992.1779,37.88722829,127.73979846,137.6226806640625,0.0
2025-03-23 17:38:32.520,0.031106694,4.625326,9.135797,-0.0386372,0.044134982,0.0030543238,-35.2125,-7.05,-30.13125,0.16460757,0.17288378,0.6956133,992.1779,37.88722829,127.73979846,137.6226806640625,0.0
2025-03-23 17:38:32.540,0.047856454,4.6301117,9.126225,0.03161225,-0.012064579,-0.0061086477,-35.362503,-6.99375,-29.868752,0.16436686,0.17271931,0.6957131,992.174,37.88722829,127.73979846,137.6226806640625,0.0
2025-03-23 17:38:32.560,-0.11724831,4.6037908,8.867801,0.05665771,-0.055435978,0.0067195124,-35.456253,-7.2375,-30.075,0.16497552,0.172613,0.69554496,992.174,37.88722829,127.73979846,137.6226806640625,0.0
2025-03-23 17:38:32.580,-0.076570325,4.6229334,8.695518,0.05665771,-0.0010690134,0.026267186,-35.90625,-7.2937503,-29.962502,0.1654455,0.17285337,0.69548553,992.1691,37.88722829,127.73979846,137.6226806640625,0.0
2025-03-23 17:38:32.600,-0.07178468,4.6325045,8.518449,0.015729768,0.028252495,0.021380268,-35.8875,-7.70625,-30.206251,0.16579789,0.1733111,0.6955501,992.1691,37.88722829,127.73979846,137.6226806640625,0.0
2025-03-23 17:38:32.619,0.02632105,4.634897,8.752945,-0.012370012,0.021532983,0.0061086477,-35.850002,-7.6687503,-30.468752,0.1658105,0.17358288,0.69567025,992.1657,37.88722829,127.73979846,137.6226806640625,0.0
2025-03-23 17:38:32.642,0.0071784677,4.625326,8.810373,0.0151189035,-0.00962112,-0.014660755,-35.925003,-7.4437504,-30.31875,0.16574924,0.17356625,0.69570106,992.1657,37.88722829,127.73979846,137.6226806640625,0.0
2025-03-23 17:38:32.660,-0.148355,4.584648,8.532805,-0.0044287695,-4.581486E-4,-0.019547673,-35.662502,-7.425,-30.375002,0.1659618,0.17359444,0.69553936,992.1635,37.88722829,127.73979846,137.6226806640625,0.0
2025-03-23 17:38:32.680,-0.11246266,4.510471,8.932407,-0.025809037,0.06062833,0.007941242,-35.831253,-7.55625,-30.000002,0.1656255,0.17378591,0.69549716,992.1635,37.88722829,127.73979846,137.6226806640625,0.0
2025-03-23 17:38:32.700,-0.16749759,4.584648,8.977871,0.029779658,0.03252855,0.019547673,-35.925003,-7.6687503,-29.625002,0.16490035,0.17398569,0.6957077,992.16595,37.88722829,127.73979846,137.6226806640625,0.0
2025-03-23 17:38:32.719,-0.06460621,4.7042894,8.504091,0.045662142,-0.067653276,0.0061086477,-35.625,-7.8750005,-29.79375,0.16540812,0.17419507,0.6956966,992.16595,37.88722829,127.73979846,137.6226806640625,0.0
2025-03-23 17:38:32.740,-0.019142581,4.6468616,8.628518,-0.013591741,0.020922119,0.009162972,-35.737503,-7.9875,-29.831251,0.16600125,0.17428498,0.69557494,992.1772,37.88722829,127.73979846,137.6226806640625,0.0
2025-03-23 17:38:32.759,-0.14117654,4.57747,8.769695,-0.014813471,0.052076224,0.0097738365,-35.943752,-7.8375,-29.85,0.16562706,0.17446503,0.69572496,992.1772,37.88722829,127.73979846,137.6226806640625,0.0
2025-03-23 17:38:32.780,0.040677983,4.613362,8.762517,0.0016798781,-0.025503604,0.01527162,-35.737503,-7.7250004,-30.187502,0.16531639,0.1745899,0.6958743,992.18427,37.88722829,127.73979846,137.6226806640625,0.0
2025-03-23 17:38:32.800,0.05503492,4.634897,8.685946,-0.01725693,-0.007177661,-0.01282816,-35.943752,-7.70625,-30.187502,0.16566275,0.17425476,0.6959106,992.18427,37.88722829,127.73979846,137.6226806640625,0.0
2025-03-23 17:38:32.820,-0.12921242,4.599005,8.946764,-0.04963276,0.031917684,-0.0067195124,-35.98125,-7.7812505,-30.31875,0.16547821,0.1740708,0.69591796,992.17303,37.88722829,127.73979846,137.6226806640625,0.0
2025-03-23 17:38:32.840,-0.24885355,4.5415773,9.071191,0.00962112,0.0129808765,0.025045456,-35.756252,-7.8562503,-30.431252,0.16462886,0.17398769,0.69606453,992.17303,37.88722829,127.73979846,137.6226806640625,0.0
2025-03-23 17:38:32.860,-0.0741775,4.57747,8.707481,0.055435978,-0.00962112,0.043371398,-35.850002,-7.9875,-30.31875,0.16457766,0.17412779,0.6962489,992.1806,37.88722829,127.73979846,137.6226806640625,0.0
2025-03-23 17:38:32.880,0.0526421,4.642076,8.379665,0.016340632,0.0025961753,0.032986697,-35.943752,-7.6875005,-30.31875,0.16505198,0.17441587,0.6964086,992.1806,37.88722829,127.73979846,137.6226806640625,0.0
2025-03-23 17:38:32.900,-0.05742774,4.651647,8.5016985,-0.04780017,0.058795735,-0.007941242,-35.943752,-7.4437504,-30.337502,0.16520101,0.1745424,0.696538,992.17645,37.88722829,127.73979846,137.6226806640625,0.0
2025-03-23 17:38:32.920,-0.28235307,4.6636114,8.841479,-0.066736974,0.075289086,0.010384701,-36.075,-7.2562504,-30.13125,0.16415706,0.17489289,0.6967062,992.17645,37.88722829,127.73979846,137.6226806640625,0.0
2025-03-23 17:38:32.941,-0.16749759,4.6085763,9.013762,-0.020922119,0.003817905,0.028099779,-36.05625,-7.18125,-30.300001,0.16343601,0.17501178,0.6969006,992.1679,37.88722829,127.73979846,137.6226806640625,0.0
2025-03-23 17:38:32.961,0.06460621,4.587041,8.99462,0.029168794,-0.07437278,0.028099779,-35.831253,-7.3125005,-30.375002,0.1636153,0.17452848,0.69710153,992.1679,37.88722829,127.73979846,137.6226806640625,0.0
2025-03-23 17:38:32.980,0.04546363,4.6325045,8.79123,0.020616686,-0.0065667965,0.02565632,-35.625,-7.2000003,-30.525002,0.16424604,0.17409535,0.69719297,992.16156,37.88722829,127.73979846,137.6226806640625,0.0
2025-03-23 17:38:33.000,0.033499517,4.65404,8.733803,0.0059559317,0.050243627,0.01282816,-35.831253,-7.4437504,-30.7875,0.1643764,0.17417783,0.6973814,992.16156,37.88722829,127.73979846,137.6226806640625,0.0
2025-03-23 17:38:33.020,-0.10049855,4.65404,8.659625,-0.006261364,0.041691523,0.010384701,-35.943752,-7.275,-30.50625,0.16425437,0.17445742,0.6974813,992.16254,37.88722829,127.73979846,137.6226806640625,0.0
2025-03-23 17:38:33.040,-0.13878371,4.6468616,8.662018,-0.0050396346,0.01725693,0.016493348,-36.225002,-7.2562504,-30.4125,0.16398725,0.17488764,0.69759876,992.16254,37.88722829,127.73979846,137.6226806640625,0.0
2025-03-23 17:38:33.060,0.076570325,4.6468616,8.719446,-0.009315688,-0.037110034,0.0024434591,-36.2625,-7.4437504,-30.16875,0.16411057,0.1748934,0.6976598,992.1662,37.88722829,127.73979846,137.6226806640625,0.0
2025-03-23 17:38:33.080,0.10289137,4.57747,8.822337,-0.016646065,1.527162E-4,-0.021380268,-35.943752,-7.2187505,-29.94375,0.16445084,0.17443295,0.69762284,992.1662,37.88722829,127.73979846,137.6226806640625,0.0
2025-03-23 17:38:33.100,-0.11246266,4.587041,8.788837,-0.021532983,0.010537418,-0.010995566,-35.7,-7.4062505,-29.868752,0.16419888,0.17426908,0.69755226,992.1718,37.88722829,127.73979846,137.6226806640625,0.0
2025-03-23 17:38:33.120,-0.16749759,4.5894337,8.793623,-0.019089524,0.020311253,0.0012217296,-35.775,-7.4437504,-29.737501,0.1639517,0.17425606,0.6975515,992.1718,37.88722829,127.73979846,137.6226806640625,0.0
2025-03-23 17:38:33.140,-0.08853444,4.5678983,8.9108715,-0.043524116,0.033139415,0.018936807,-35.643753,-7.4625,-29.493752,0.16338918,0.1742487,0.6977153,992.1694,37.88722829,127.73979846,137.6226806640625,0.0
2025-03-23 17:38:33.160,0.09092726,4.601398,9.193225,-0.0025961753,-0.021227552,0.009162972,-35.925003,-7.6875005,-29.643751,0.16303536,0.17389588,0.69797117,992.1694,37.88722829,127.73979846,137.6226806640625,0.0
2025-03-23 17:38:33.181,-0.019142581,4.651647,8.963513,0.05177079,-0.045051277,-0.0042760535,-35.8875,-7.8187504,-29.94375,0.16342187,0.17341085,0.69799256,992.1674,37.88722829,127.73979846,137.6226806640625,0.0
2025-03-23 17:38:33.202,0.11006984,4.7114677,8.666803,0.040775225,0.0056504994,0.010384701,-35.662502,-8.025001,-30.243752,0.16402069,0.17353927,0.6978767,992.1674,37.88722829,127.73979846,137.6226806640625,0.0
2025-03-23 17:38:33.220,0.15553348,4.761717,8.688339,0.012064579,0.028863361,-0.017104214,-35.625,-8.025001,-30.6375,0.16447659,0.17380765,0.6978919,992.15936,37.88722829,127.73979846,137.6226806640625,0.0
2025-03-23 17:38:33.240,0.009571291,4.699504,8.7673025,-0.011759147,0.008093959,-0.035430156,-35.456253,-8.00625,-30.562502,0.1647656,0.17403488,0.69771856,992.15936,37.88722829,127.73979846,137.6226806640625,0.0
2025-03-23 17:38:33.259,-0.08853444,4.6085763,8.745767,-0.0056504994,0.017867794,-0.02932151,-35.325,-7.93125,-30.206251,0.16466397,0.17411697,0.69757724,992.1584,37.88722829,127.73979846,137.6226806640625,0.0
2025-03-23 17:38:33.281,-0.21296121,4.551149,8.707481,0.02489274,-0.019394957,-0.007941242,-35.475002,-7.4625,-29.98125,0.16445045,0.1743586,0.6973639,992.1584,37.88722829,127.73979846,137.6226806640625,0.0
2025-03-23 17:38:33.301,0.0,4.618148,8.456235,0.03894263,-0.089033544,-0.0024434591,-35.5875,-7.425,-29.831251,0.16472718,0.17443463,0.6972328,992.15204,37.88722829,127.73979846,137.6226806640625,0.0
2025-03-23 17:38:33.320,0.4354937,4.7138605,8.465807,0.008399391,-0.11835505,-0.034819294,-35.568752,-7.275,-29.8875,0.16620222,0.17394376,0.6969003,992.15204,37.88722829,127.73979846,137.6226806640625,0.0
2025-03-23 17:38:33.340,0.27996024,4.7856455,8.5423765,-0.033139415,-0.092087865,-0.10384701,-35.98125,-7.3125005,-30.150002,0.16749476,0.17300165,0.69637865,992.1308,37.88722829,127.73979846,137.6226806640625,0.0
2025-03-23 17:38:33.359,0.41156548,4.9698925,8.920443,0.021838415,-0.41034842,-0.07208204,-35.662502,-7.6312504,-30.225,0.1688819,0.17186122,0.6954685,992.1308,37.88722829,127.73979846,137.6226806640625,0.0
2025-03-23 17:38:33.380,1.268196,5.2307105,8.4705925,0.23014331,-0.95951587,-0.07208204,-35.943752,-7.5937505,-30.2625,0.1741279,0.16845301,0.6940053,992.12054,37.88722829,127.73979846,137.6226806640625,0.0
2025-03-23 17:38:33.400,2.3425734,4.883751,6.6305118,0.20693044,-1.2069161,-0.15332706,-36.206253,-7.5750003,-30.2625,0.18796483,0.1608735,0.69052655,992.12054,37.88722829,127.73979846,137.6226806640625,0.0
2025-03-23 17:38:33.419,3.1082766,4.1443686,5.8217373,0.04016436,-1.4023929,-0.3329213,-36.768753,-7.51875,-29.831251,0.1975947,0.1548222,0.68782026,992.0844,37.88722829,127.73979846,137.6226806640625,0.0
2025-03-23 17:38:33.440,1.538585,3.3762727,6.013163,0.08048143,-2.0034838,-0.433714,-37.66875,-7.4437504,-29.306252,0.21091053,0.14271736,0.6807928,992.0844,37.88722829,127.73979846,137.6226806640625,0.0
2025-03-23 17:38:33.459,0.55513483,2.6105695,5.9246287,0.33887723,-2.5098906,-0.26267186,-38.5125,-7.8,-28.331251,0.22206989,0.13311255,0.6752995,992.0556,37.88722829,127.73979846,137.6226806640625,0.0
2025-03-23 17:38:33.480,1.0217353,2.1750758,3.735196,0.72005683,-3.249037,0.06963859,-39.80625,-8.2875,-27.0375,0.24823737,0.11429197,0.6655365,992.0556,37.88722829,127.73979846,137.6226806640625,0.0
2025-03-23 17:38:33.501,1.5720844,1.9046868,1.5361922,0.76220655,-3.755444,0.2516763,-40.912502,-8.55,-25.5375,0.27525726,0.09591734,0.6570083,992.009,37.88722829,127.73979846,137.6226806640625,0.0
2025-03-23 17:38:33.520,1.8831514,1.7108682,-0.30867413,0.42684177,-4.1763296,0.5229002,-43.0125,-9.13125,-23.325,0.3049097,0.073224284,0.6477389,992.009,37.88722829,127.73979846,137.6226806640625,0.0
2025-03-23 17:38:33.539,3.5126636,1.2753744,0.33499518,-0.24083345,-4.3718066,0.8124502,-45.112503,-9.65625,-21.225,0.33402246,0.04372343,0.6383378,991.93744,37.88722829,127.73979846,137.6226806640625,0.0
2025-03-23 17:38:33.559,4.1898327,0.5982057,1.7515461,-0.8486439,-3.443903,1.0965023,-47.41875,-9.375,-18.50625,0.361612,0.0018558453,0.629066,991.93744,37.88722829,127.73979846,137.6226806640625,0.0
2025-03-23 17:38:33.580,5.1182475,0.34217364,2.3976083,-1.1730131,-3.0920448,1.269377,-49.74375,-9.13125,-15.58125,0.37455216,-0.030484583,0.6254297,991.91473,37.88722829,127.73979846,137.6226806640625,0.0
2025-03-23 17:38:33.601,5.5920267,-0.2105684,2.8426733,-1.3837614,-3.1940591,1.4117085,-51.393753,-8.175,-12.4875,0.38463917,-0.06440046,0.6221796,991.91473,37.88722829,127.73979846,137.6226806640625,0.0
2025-03-23 17:38:33.619,7.4943204,-0.8925229,2.3832514,-1.760665,-2.9655957,1.5650356,-53.081253,-6.80625,-8.925,0.39258027,-0.10079912,0.61899656,991.9135,37.88722829,127.73979846,137.6226806640625,0.0
2025-03-23 17:38:33.639,7.487142,-0.30149564,4.4721856,-2.4765985,-2.5648685,1.6517783,-54.037502,-5.1937504,-6.1687503,0.39325243,-0.13764855,0.617046,991.9135,37.88722829,127.73979846,137.6226806640625,0.0
2025-03-23 17:38:33.659,8.195417,-1.8592232,6.862615,-2.3959644,-2.580751,1.8167119,-54.768753,-3.61875,-3.54375,0.3897009,-0.17623807,0.6150259,991.95404,37.88722829,127.73979846,137.6226806640625,0.0
2025-03-23 17:38:33.679,8.829515,-2.1487548,6.1328044,-2.1284056,-2.2319472,1.8325944,-55.18125,-2.04375,-1.3312501,0.38598818,-0.21373343,0.61312413,991.95404,37.88722829,127.73979846,137.6226806640625,0.0
2025-03-23 17:38:33.700,8.023134,-2.009971,4.9579287,-2.216981,-1.6424627,1.8808527,-55.725002,-0.24375,0.5625,0.3777926,-0.25472853,0.6126938,992.00775,37.88722829,127.73979846,137.6226806640625,0.0
2025-03-23 17:38:33.720,6.5252275,-3.1274192,5.369494,-2.1051927,-2.2893684,2.1978915,-56.1375,1.4250001,2.6625001,0.3695807,-0.2868357,0.61277354,992.00775,37.88722829,127.73979846,137.6226806640625,0.0
2025-03-23 17:38:33.739,7.513463,-3.7615173,6.431907,-1.9989023,-2.8721335,2.6444337,-56.718754,3.5625002,5.175,0.36405963,-0.32336572,0.6125445,992.04974,37.88722829,127.73979846,137.6226806640625,0.0
2025-03-23 17:38:33.759,10.372886,-4.426722,6.597012,-1.8290819,-2.7597344,2.8893905,-57.093754,5.8875003,7.2375,0.35971513,-0.3621139,0.61304855,992.04974,37.88722829,127.73979846,137.6226806640625,0.0
2025-03-23 17:38:33.780,12.165111,-4.5966125,5.235496,-1.7899865,-2.1671956,2.7207918,-56.925003,8.4375,9.712501,0.3530546,-0.39733025,0.6146057,992.07196,37.88722829,127.73979846,137.6226806640625,0.0
2025-03-23 17:38:33.800,11.172089,-4.7880383,3.802195,-2.0208933,-1.6406301,2.453233,-56.60625,10.9875,12.712501,0.34339452,-0.42853272,0.61522377,992.07196,37.88722829,127.73979846,137.6226806640625,0.0
2025-03-23 17:38:33.820,10.849058,-5.76431,3.615555,-2.4399467,-1.7255403,2.5234823,-55.781254,13.1625,15.39375,0.3271886,-0.46611392,0.6136559,992.0549,37.88722829,127.73979846,137.6226806640625,0.0
2025-03-23 17:38:33.840,12.016755,-6.506085,6.8817577,-2.542572,-1.5025747,2.6090035,-54.825,15.375001,18.337502,0.3157167,-0.4902872,0.6111126,992.0549,37.88722829,127.73979846,137.6226806640625,0.0
2025-03-23 17:38:33.860,12.014362,-6.690332,8.216953,-2.1027493,-0.9173662,2.551582,-53.381252,17.23125,20.90625,0.2927652,-0.5251516,0.60903984,992.08514,37.88722829,127.73979846,137.6226806640625,0.0
2025-03-23 17:38:33.880,12.390036,-6.166304,6.690332,-1.6592615,-1.1220059,2.4153593,-51.843754,18.862501,22.9125,0.27537265,-0.547271,0.60962725,992.08514,37.88722829,127.73979846,137.6226806640625,0.0
2025-03-23 17:38:33.900,14.167903,-5.804988,5.625526,-1.358716,-1.8941389,2.0390666,-50.49375,20.737501,24.281252,0.26414415,-0.5684358,0.60890883,992.10077,37.88722829,127.73979846,137.6226806640625,0.0
2025-03-23 17:38:33.920,14.601004,-5.8360944,5.879165,-1.1852304,-2.4396412,1.5467097,-48.750004,22.2,25.968752,0.2610329,-0.5902168,0.6047151,992.10077,37.88722829,127.73979846,137.6226806640625,0.0
2025-03-23 17:38:33.940,12.545569,-5.5704913,5.056034,-0.97020596,-1.9955425,1.6090178,-47.550003,23.681252,27.35625,0.2606347,-0.6099759,0.5995025,992.12616,37.88722829,127.73979846,137.6226806640625,0.0
2025-03-23 17:38:33.960,11.854043,-5.369494,3.048456,-1.1742349,-0.6882919,1.76601,-46.425003,24.656252,29.04375,0.25570312,-0.62597436,0.59663296,992.12616,37.88722829,127.73979846,137.6226806640625,0.0
2025-03-23 17:38:33.980,12.023933,-4.369294,2.7996025,-1.4094177,-0.056046844,1.7128649,-45.206253,25.368752,31.087502,0.24264279,-0.6388325,0.59519166,992.12836,37.88722829,127.73979846,137.6226806640625,0.0
2025-03-23 17:38:34.000,11.471191,-3.897908,4.005585,-1.3758202,-0.093309596,1.531438,-44.1375,26.118752,32.643753,0.22331971,-0.653047,0.5923198,992.12836,37.88722829,127.73979846,137.6226806640625,0.0
2025-03-23 17:38:34.020,11.069198,-3.6993039,4.3334017,-1.0367903,-0.47693267,1.309694,-43.162502,26.456251,34.068752,0.21119057,-0.6632905,0.5897802,992.1215,37.88722829,127.73979846,137.6226806640625,0.0
2025-03-23 17:38:34.040,10.001999,-3.7423747,3.2949169,-0.7154754,-0.7768673,1.2003493,-42.112503,27.000002,35.23125,0.2036767,-0.672412,0.5878539,992.1215,37.88722829,127.73979846,137.6226806640625,0.0
2025-03-23 17:38:34.059,8.9108715,-3.7543387,2.4382863,-0.61346096,-0.7310524,1.2938116,-40.65,27.7875,36.28125,0.19791676,-0.68087846,0.5867969,992.10443,37.88722829,127.73979846,137.6226806640625,0.0
2025-03-23 17:38:34.080,9.970892,-4.0366917,2.440679,-0.6696605,-0.5441278,1.4868449,-39.7125,28.10625,37.59375,0.19055112,-0.68890595,0.58661443,992.10443,37.88722829,127.73979846,137.6226806640625,0.0
2025-03-23 17:38:34.100,12.277573,-3.8907297,3.6634114,-0.65988666,-0.24969098,1.3787218,-38.287502,28.706251,38.100002,0.18140315,-0.6963944,0.5866842,992.10223,37.88722829,127.73979846,137.6226806640625,0.0
2025-03-23 17:38:34.119,11.346765,-3.8644085,3.8907297,-0.40576693,-0.105526894,1.0097594,-37.050003,29.19375,38.831253,0.17073901,-0.7025068,0.58713454,992.10223,37.88722829,127.73979846,137.6226806640625,0.0
2025-03-23 17:38:34.140,10.454242,-3.9984066,3.7471602,-0.24083345,-0.18310672,0.92057323,-36.3375,29.175001,39.28125,0.1660129,-0.7047778,0.5879062,992.10785,37.88722829,127.73979846,137.6226806640625,0.0
2025-03-23 17:38:34.160,10.255638,-4.486542,4.0366917,-0.033139415,-0.25579962,0.99998564,-35.49375,29.56875,39.3375,0.15960647,-0.7075917,0.5904304,992.10785,37.88722829,127.73979846,137.6226806640625,0.0
2025-03-23 17:38:34.179,10.559526,-4.9196434,4.486542,0.12202024,-0.28512114,1.0867285,-34.21875,29.6625,39.393753,0.15474291,-0.7090009,0.5939807,992.1149,37.88722829,127.73979846,137.6226806640625,0.0
2025-03-23 17:38:34.202,11.700903,-4.5918264,5.1996036,0.40790495,-0.4091267,1.1239913,-33.1875,30.093752,39.09375,0.15029639,-0.7093527,0.5991302,992.1149,37.88722829,127.73979846,137.6226806640625,0.0
2025-03-23 17:38:34.219,13.409378,-4.24726,5.690132,0.7493784,-0.61132294,0.93523395,-31.612501,30.750002,38.662502,0.14824407,-0.708125,0.6059085,992.13153,37.88722829,127.73979846,137.6226806640625,0.0
2025-03-23 17:38:34.239,15.450456,-4.237689,5.2929235,1.2802199,-1.0322088,0.35491243,-30.393751,31.462502,38.456253,0.15206991,-0.7046592,0.613959,992.13153,37.88722829,127.73979846,137.6226806640625,0.0
2025-03-23 17:38:34.260,14.277973,-4.4889355,3.818945,1.5282309,-1.2173008,-0.19792019,-29.812502,32.53125,38.49375,0.16307889,-0.69875187,0.62230265,992.1547,37.88722829,127.73979846,137.6226806640625,0.0
2025-03-23 17:38:34.279,12.713067,-4.7856455,2.213361,1.4726423,-1.1366667,-0.51434815,-29.23125,33.28125,38.41875,0.1782348,-0.69157183,0.62969404,992.1547,37.88722829,127.73979846,137.6226806640625,0.0
2025-03-23 17:38:34.301,12.265609,-5.032106,2.469393,1.2405137,-0.8984294,-0.6243038,-29.156252,33.80625,38.568752,0.19715412,-0.682729,0.6365523,992.1401,37.88722829,127.73979846,137.6226806640625,0.0
2025-03-23 17:38:34.320,15.101104,-5.058427,4.3764725,1.3413063,-0.7041744,-0.9456187,-28.875002,34.3875,38.30625,0.2114878,-0.675102,0.64109147,992.1401,37.88722829,127.73979846,137.6226806640625,0.0
2025-03-23 17:38:34.341,14.639289,-5.505885,4.206582,1.7670791,-0.56123203,-1.6303982,-29.156252,34.85625,38.081253,0.22865944,-0.6637365,0.64614284,992.1513,37.88722829,127.73979846,137.6226806640625,0.0
2025-03-23 17:38:34.361,12.256038,-6.3314085,1.7252251,1.8593197,-0.38652468,-1.9230024,-29.79375,35.0625,37.575,0.24905273,-0.6488366,0.6515653,992.1513,37.88722829,127.73979846,137.6226806640625,0.0
2025-03-23 17:38:34.379,11.643475,-6.826723,0.8470592,1.6748385,-0.26740605,-1.9682063,-30.525002,35.662502,36.375,0.26912212,-0.63323826,0.65597063,992.133,37.88722829,127.73979846,137.6226806640625,0.0
2025-03-23 17:38:34.400,12.169896,-7.34118,1.2346965,1.4934117,-0.17211115,-2.109316,-31.462502,36.075,35.15625,0.2879701,-0.6182731,0.65866923,992.133,37.88722829,127.73979846,137.6226806640625,0.0
2025-03-23 17:38:34.419,11.739188,-7.24786,1.2729816,1.4616467,-0.15439607,-2.3194535,-32.193752,36.09375,34.18125,0.3066282,-0.60290104,0.6601081,992.1274,37.88722829,127.73979846,137.6226806640625,0.0
2025-03-23 17:38:34.439,11.643475,-7.3459654,0.98584294,1.4311035,-0.37308568,-2.548528,-32.5875,36.2625,32.98125,0.33177242,-0.5829217,0.65981615,992.1274,37.88722829,127.73979846,137.6226806640625,0.0
2025-03-23 17:38:34.459,11.423335,-7.594819,0.65324056,1.2899936,-0.4989238,-2.7733262,-33.600002,35.662502,32.325,0.3538683,-0.56697863,0.6571487,992.12665,37.88722829,127.73979846,137.6226806640625,0.0
2025-03-23 17:38:34.480,10.279566,-7.726424,0.6987042,1.1507165,-0.4744892,-2.9174902,-34.893753,34.74375,31.781252,0.37641227,-0.5511397,0.6522802,992.12665,37.88722829,127.73979846,137.6226806640625,0.0
2025-03-23 17:38:34.499,8.666803,-7.594819,0.4881358,1.0761911,-0.4555524,-2.8661776,-36.16875,33.600002,31.031252,0.39811772,-0.5352607,0.64631176,992.1225,37.88722829,127.73979846,137.6226806640625,0.0
2025-03-23 17:38:34.520,7.9346,-6.9942207,-0.23928227,0.9320269,-0.4243983,-2.7305655,-37.893753,32.1375,30.750002,0.41864702,-0.5200261,0.6397143,992.1225,37.88722829,127.73979846,137.6226806640625,0.0
2025-03-23 17:38:34.539,7.5254273,-6.7429743,-0.8350951,0.6620247,-0.21914774,-2.6175556,-39.46875,30.7875,30.375002,0.4369796,-0.50565785,0.63256675,992.11273,37.88722829,127.73979846,137.6226806640625,0.0
2025-03-23 17:38:34.559,6.9894347,-7.0085773,-0.56470615,0.40057456,-0.091477,-2.4770567,-40.706253,29.41875,29.962502,0.45226982,-0.49256763,0.6248147,992.11273,37.88722829,127.73979846,137.6226806640625,0.0
2025-03-23 17:38:34.580,6.0490556,-6.707082,0.10289137,0.3016145,-0.063377224,-2.227213,-42.3375,28.050001,30.16875,0.467857,-0.47808197,0.6149893,992.1049,37.88722829,127.73979846,137.6226806640625,0.0
2025-03-23 17:38:34.600,5.1756754,-6.195018,0.050249275,0.34926194,-0.116522454,-1.9266676,-43.66875,26.19375,29.98125,0.47857913,-0.46769568,0.6079479,992.1049,37.88722829,127.73979846,137.6226806640625,0.0
2025-03-23 17:38:34.620,4.4075794,-6.0825553,-0.89013004,0.3346012,-0.19776747,-1.5931354,-44.90625,24.69375,29.98125,0.48843545,-0.45879927,0.60171366,992.09906,37.88722829,127.73979846,137.6226806640625,0.0
2025-03-23 17:38:34.640,3.4576287,-6.161518,-1.7060826,0.15806127,-0.18493931,-1.1893537,-46.162502,23.23125,30.281252,0.49649844,-0.4522978,0.59624285,992.09906,37.88722829,127.73979846,137.6226806640625,0.0
2025-03-23 17:38:34.660,2.5004997,-6.0490556,-2.1343977,-0.11438443,-0.114079,-0.66523176,-46.96875,22.087502,30.281252,0.5012779,-0.44907483,0.5919182,992.0903,37.88722829,127.73979846,137.6226806640625,0.0
2025-03-23 17:38:34.680,1.3663018,-6.166304,-2.3976083,-0.3923279,-0.07192933,0.08735366,-47.662502,21.2625,30.675001,0.50160956,-0.45083645,0.5887535,992.0903,37.88722829,127.73979846,137.6226806640625,0.0
2025-03-23 17:38:34.700,1.8376877,-5.852844,-1.6271194,-0.6378955,-0.063377224,0.849102,-48.16875,20.625,30.993752,0.4974103,-0.4577264,0.58811724,992.08,37.88722829,127.73979846,137.6226806640625,0.0
2025-03-23 17:38:34.720,2.361716,-7.1449685,-1.698904,-0.69653857,-0.16844596,1.3988804,-48.506252,20.025002,31.275002,0.49179885,-0.465359,0.58923596,992.08,37.88722829,127.73979846,137.6226806640625,0.0
2025-03-23 17:38:34.741,3.2015967,-6.695118,-1.0863415,-0.8016073,-0.14217877,2.0543382,-48.45,19.725,31.331251,0.4787661,-0.4827115,0.59333354,992.07196,37.88722829,127.73979846,137.6226806640625,0.0
2025-03-23 17:38:34.760,4.4482574,-6.111269,0.08853444,-0.8333723,-0.052381653,2.4514003,-47.943752,20.456251,31.743752,0.46476552,-0.49901906,0.5984967,992.07196,37.88722829,127.73979846,137.6226806640625,0.0
2025-03-23 17:38:34.780,5.022535,-6.1064835,0.18185452,-0.7973313,-0.02611447,2.5754058,-47.287502,21.056252,32.081253,0.44874662,-0.5156128,0.60479414,992.0776,37.88722829,127.73979846,137.6226806640625,0.0
2025-03-23 17:38:34.800,5.123033,-6.623333,0.4139583,-0.7631228,-0.25763223,2.6865833,-46.40625,22.06875,32.737503,0.43233445,-0.53230566,0.6109803,992.0776,37.88722829,127.73979846,137.6226806640625,0.0
2025-03-23 17:38:34.820,6.209375,-7.3172517,0.68195444,-0.5933024,-0.5093085,2.728122,-45.46875,23.587502,33.075,0.41684738,-0.5494394,0.61641526,992.0883,37.88722829,127.73979846,137.6226806640625,0.0
2025-03-23 17:38:34.840,6.5635123,-8.30788,0.18903299,-0.48395762,-0.63025975,2.7904303,-44.381252,24.7875,33.45,0.39932525,-0.5701233,0.6227217,992.0883,37.88722829,127.73979846,137.6226806640625,0.0
2025-03-23 17:38:34.860,7.066005,-8.973084,-0.031106694,-0.48456848,-0.70906126,2.900997,-42.881252,26.19375,34.2,0.38525522,-0.5865044,0.62741107,992.1066,37.88722829,127.73979846,137.6226806640625,0.0
2025-03-23 17:38:34.880,8.420342,-9.372686,-0.6939186,-0.62567824,-0.5710059,2.891223,-40.3875,28.462502,34.65,0.3703425,-0.6029517,0.6313902,992.1066,37.88722829,127.73979846,137.6226806640625,0.0
2025-03-23 17:38:34.900,8.597412,-9.805787,-1.1270195,-0.9805907,-0.18371758,2.7855434,-37.5,30.150002,35.325,0.35336867,-0.6192743,0.633974,992.1132,37.88722829,127.73979846,137.6226806640625,0.0
2025-03-23 17:38:34.920,7.664211,-10.150353,-0.39960137,-1.3275619,0.22800528,2.801426,-35.0625,31.931252,35.550003,0.33292803,-0.6358236,0.6349743,992.1132,37.88722829,127.73979846,137.6226806640625,0.0
2025-03-23 17:38:34.939,6.9009004,-10.267602,0.3493521,-1.5352559,0.51327914,2.9565856,-32.943752,33.2625,35.60625,0.30850545,-0.65261906,0.6352254,992.1193,37.88722829,127.73979846,137.6226806640625,0.0
2025-03-23 17:38:34.959,6.8458657,-10.234102,1.1222339,-1.6256639,0.5780308,3.2552984,-31.81875,33.73125,36.54375,0.2807754,-0.6696542,0.6350712,992.1193,37.88722829,127.73979846,137.6226806640625,0.0
2025-03-23 17:38:34.980,7.91785,-9.731609,1.6677973,-1.5523602,0.47723812,3.4055712,-30.581251,34.18125,38.025,0.24388151,-0.69054145,0.63450223,992.1457,37.88722829,127.73979846,137.6226806640625,0.0
2025-03-23 17:38:34.999,8.896515,-9.391829,1.6677973,-1.4814998,0.536492,3.266294,-29.062502,34.612503,39.037502,0.21467482,-0.70562637,0.6336206,992.1457,37.88722829,127.73979846,137.6226806640625,0.0
2025-03-23 17:38:35.020,8.671589,-8.987442,2.012364,-1.4234676,0.65499973,3.1166322,-26.906252,35.34375,40.331253,0.1931351,-0.7156953,0.6325721,992.165,37.88722829,127.73979846,137.6226806640625,0.0
2025-03-23 17:38:35.040,8.482556,-8.760123,2.4095724,-1.218828,0.6519454,2.937038,-24.750002,35.49375,40.6875,0.15827477,-0.73001534,0.63065124,992.165,37.88722829,127.73979846,137.6226806640625,0.0
2025-03-23 17:38:35.060,8.283952,-8.685946,2.672783,-0.9616539,0.6336195,2.8209736,-22.875,35.568752,40.575,0.13193882,-0.7390088,0.6296907,992.1933,37.88722829,127.73979846,137.6226806640625,0.0
2025-03-23 17:38:35.080,8.480164,-8.382058,2.5603201,-0.62201303,0.51083565,2.801426,-20.643751,35.193752,40.96875,0.10691804,-0.74553776,0.63009673,992.1933,37.88722829,127.73979846,137.6226806640625,0.0
2025-03-23 17:38:35.099,9.734002,-7.812566,1.7395821,-0.32574365,0.33796093,2.674366,-18.900002,34.818752,40.875,0.08402577,-0.74965316,0.63217586,992.2094,37.88722829,127.73979846,137.6226806640625,0.0
2025-03-23 17:38:35.120,10.607383,-6.9152575,0.863809,-0.057574004,0.19013166,2.3695445,-16.837502,34.612503,40.85625,0.06451857,-0.7517679,0.63525224,992.2094,37.88722829,127.73979846,137.6226806640625,0.0
2025-03-23 17:38:35.139,11.538191,-6.2715883,-0.32303107,0.053603385,0.23167047,1.9981387,-15.093751,34.85625,40.96875,0.048177794,-0.7523094,0.6387853,992.21063,37.88722829,127.73979846,137.6226806640625,0.0
2025-03-23 17:38:35.159,11.653047,-6.3481584,-0.997807,-0.06856957,0.3733911,1.4715732,-13.9875,35.5125,41.4375,0.031725697,-0.75230664,0.64194477,992.21063,37.88723142,127.7398108,136.998779296875,0.82
2025-03-23 17:38:35.181,10.872986,-6.7573314,-0.9906286,-0.20967934,0.56459177,1.1038326,-12.750001,35.71875,41.943752,0.020894699,-0.7527048,0.64259124,992.1999,37.88723142,127.7398108,136.998779296875,0.82
2025-03-23 17:38:35.201,10.4159565,-7.865208,-0.87338024,-0.3978257,0.72280574,0.8509346,-12.168751,36.24375,42.318752,0.0108252745,-0.7536916,0.6416503,992.1999,37.88723142,127.7398108,136.998779296875,0.82
2025-03-23 17:38:35.221,10.509277,-8.260024,-0.016749758,-0.47968158,0.7600685,0.69088805,-11.587501,36.318752,42.393753,0.0012201961,-0.7552724,0.6394214,992.205,37.88723142,127.7398108,136.998779296875,0.82
2025-03-23 17:38:35.239,11.100305,-8.276773,1.0001999,-0.3904953,0.6861539,0.46853328,-11.4375,36.037502,42.581253,-0.0071963724,-0.7567828,0.6368589,992.205,37.88723142,127.7398108,136.998779296875,0.82
2025-03-23 17:38:35.259,11.397015,-8.671589,1.39023,-0.20906848,0.38683012,0.16920954,-11.4375,36.075,42.768753,-0.012636918,-0.75752467,0.6349729,992.2194,37.88723142,127.7398108,136.998779296875,0.82
2025-03-23 17:38:35.282,11.4903345,-9.265009,1.2586247,0.021838415,-0.03894263,-0.1404989,-11.38125,35.850002,43.050003,-0.012912216,-0.7573913,0.6341919,992.2194,37.88723142,127.7398108,136.998779296875,0.82
2025-03-23 17:38:35.301,11.404193,-10.200603,1.0432707,0.092087865,-0.24602579,-0.32314748,-11.587501,35.53125,43.36875,-0.008756891,-0.75678456,0.6344543,992.23285,37.88723142,127.7398108,136.998779296875,0.82
2025-03-23 17:38:35.319,11.315659,-9.877572,2.024328,0.1556178,-0.33032513,-0.45020735,-11.34375,35.4,43.237503,-0.0025784294,-0.75609124,0.63485247,992.23285,37.88723142,127.7398108,136.998779296875,0.82
2025-03-23 17:38:35.339,11.4496565,-8.855837,3.0675986,0.3413207,-0.38224864,-0.57482374,-11.15625,35.30625,43.068752,0.0030746683,-0.7549599,0.6357666,992.2365,37.88723142,127.7398108,136.998779296875,0.82
2025-03-23 17:38:35.359,12.330215,-7.941778,3.6131623,0.77931076,-0.66080296,-1.0922263,-11.26875,35.006252,42.73125,0.016853774,-0.75069606,0.6396109,992.2365,37.88723142,127.7398108,136.998779296875,0.82
2025-03-23 17:38:35.379,11.751152,-8.549556,2.7086751,1.134834,-1.0560325,-1.698204,-11.625,35.41875,42.506252,0.03461277,-0.7450167,0.6444411,992.259,37.88723142,127.7398108,136.998779296875,0.82
2025-03-23 17:38:35.399,10.968699,-9.499506,1.4811572,1.2087487,-1.3333651,-2.1294746,-11.85,35.756252,42.28125,0.058311585,-0.73802006,0.6495974,992.259,37.88723142,127.7398108,136.998779296875,0.82
2025-03-23 17:38:35.421,10.595419,-10.660025,1.3495519,1.0969604,-1.464701,-2.476446,-12.525001,36.318752,41.775,0.08600942,-0.73084044,0.6533299,992.2631,37.88723142,127.7398108,136.998779296875,0.82
2025-03-23 17:38:35.441,10.655239,-12.232109,1.8592232,0.9980003,-1.6223041,-2.8796165,-13.125001,37.0125,41.456253,0.12425687,-0.721753,0.6551948,992.2631,37.88723142,127.7398108,136.998779296875,0.82
2025-03-23 17:38:35.460,11.298908,-12.904492,2.481357,1.0151045,-1.8556545,-3.1612253,-13.931251,37.331253,41.2125,0.14928839,-0.7159128,0.65498453,992.259,37.88723142,127.7398108,136.998779296875,0.82
2025-03-23 17:38:35.480,12.02872,-13.375878,2.321038,1.0951278,-2.0828962,-3.5839436,-14.83125,37.66875,40.350002,0.19608128,-0.70436704,0.65282935,992.259,37.88723142,127.7398108,136.998779296875,0.82
2025-03-23 17:38:35.500,11.406586,-13.306487,1.9094725,0.9790635,-1.7127122,-3.9645123,-15.843751,37.987503,40.4625,0.23621742,-0.6931011,0.64900035,992.26263,37.88723142,127.7398108,136.998779296875,0.82
2025-03-23 17:38:35.519,10.834701,-13.103097,1.7108682,0.7958041,-1.0236566,-4.224741,-17.175001,38.11875,40.162502,0.27424598,-0.6799171,0.6436082,992.26263,37.88723142,127.7398108,136.998779296875,0.82
2025-03-23 17:38:35.540,10.025927,-12.729816,1.8305093,0.73899364,-0.49464774,-4.453815,-19.06875,38.081253,40.10625,0.30861947,-0.66450655,0.6373467,992.2641,37.88723142,127.7398108,136.998779296875,0.82
2025-03-23 17:38:35.560,9.229117,-12.461821,1.6821543,0.8171843,-0.32360563,-4.663953,-21.618752,37.85625,39.768753,0.34102538,-0.6464542,0.6287966,992.2641,37.88723142,127.7398108,136.998779296875,0.82
2025-03-23 17:38:35.580,8.126026,-12.282358,1.2011969,0.9674571,-0.30100363,-4.7769628,-24.0,37.256252,38.8875,0.3813604,-0.62032497,0.6211271,992.2636,37.88723142,127.7398108,136.998779296875,0.82
2025-03-23 17:38:35.601,6.5922265,-12.095718,0.18185452,1.0438151,-0.1574504,-4.6450157,-26.400002,36.3375,38.193752,0.4125206,-0.5972165,0.61318976,992.2636,37.88723142,127.7398108,136.998779296875,0.82
2025-03-23 17:38:35.620,5.6757755,-11.641082,-0.79441714,0.93935734,-0.05054906,-4.389674,-28.9125,34.95,37.275,0.4408607,-0.5736181,0.6050786,992.25287,37.88723142,127.7398108,136.998779296875,0.82
2025-03-23 17:38:35.640,5.197211,-10.861022,-0.81834537,0.7518218,0.023976443,-4.083631,-31.462502,33.300003,37.5,0.46589744,-0.55097395,0.59627163,992.25287,37.88723142,127.7398108,136.998779296875,0.82
2025-03-23 17:38:35.659,4.6971107,-10.250853,-1.119841,0.5978839,0.11133011,-3.8918195,-34.125,31.462502,37.443752,0.4879568,-0.52931356,0.5868908,992.2382,37.88723142,127.7398108,136.998779296875,0.82
2025-03-23 17:38:35.679,3.5772698,-9.801002,-1.3040884,0.36147922,0.23533566,-3.568061,-36.99375,29.325,37.425003,0.5069486,-0.5089226,0.5770063,992.2382,37.88723142,127.7398108,136.998779296875,0.82
2025-03-23 17:38:35.700,2.5459633,-9.444471,-1.0313065,0.19288056,0.36178467,-3.1569493,-39.5625,26.85,37.425003,0.52225673,-0.49029222,0.5673757,992.2265,37.88723142,127.7398108,136.998779296875,0.82
2025-03-23 17:38:35.720,1.5529419,-9.090333,-0.9068798,0.08842268,0.41920596,-2.6083927,-41.71875,24.35625,36.91875,0.53622496,-0.47000012,0.5570224,992.2265,37.88723142,127.7398108,136.998779296875,0.82
2025-03-23 17:38:35.739,1.2993027,-8.707481,-0.66759753,0.07009673,0.29397866,-2.1710134,-43.6875,21.88125,36.80625,0.5424964,-0.45986584,0.5517647,992.2148,37.88723142,127.7398108,136.998779296875,0.82
2025-03-23 17:38:35.760,1.1365907,-8.439486,-0.5168497,0.14217877,0.06185006,-1.6169591,-45.318752,19.556252,36.225002,0.5513265,-0.44682157,0.5442236,992.2148,37.88723142,127.7398108,136.998779296875,0.82
2025-03-23 17:38:35.780,0.8805587,-8.4682,-0.8422736,0.20631959,-0.07315106,-1.0372484,-46.3125,18.018751,35.925003,0.5572087,-0.43968913,0.5397406,992.2067,37.88723142,127.7398108,136.998779296875,0.82
2025-03-23 17:38:35.799,0.35413775,-8.590233,-1.8568304,0.1262963,-0.07315106,-0.44837475,-47.287502,16.800001,35.756252,0.5613762,-0.43572986,0.5371459,992.2067,37.88723142,127.7398108,136.998779296875,0.82
2025-03-23 17:38:35.820,-0.40917268,-8.666803,-2.3545375,-0.100945406,0.07467822,0.26572618,-47.79375,15.918751,35.456253,0.5621387,-0.4357125,0.53690815,992.196,37.88723142,127.7398108,136.998779296875,0.82
2025-03-23 17:38:35.840,-0.7369894,-9.2075815,-2.629712,-0.4027126,0.25060728,1.1032218,-48.018753,15.431251,35.4,0.5577648,-0.4404623,0.5397842,992.196,37.88723142,127.7398108,136.998779296875,0.82
2025-03-23 17:38:35.859,-0.8422736,-8.925228,-2.4454648,-0.7447969,0.2603811,2.0207407,-47.943752,15.4875,35.550003,0.5475011,-0.4509407,0.54572856,992.186,37.88723142,127.7398108,136.998779296875,0.82
2025-03-23 17:38:35.880,1.0025927,-8.750552,-1.1078769,-1.0374011,0.22250749,2.9260423,-47.550003,16.143751,35.325,0.5269175,-0.47287205,0.5560509,992.186,37.88723142,127.7398108,136.998779296875,0.82
2025-03-23 17:38:35.900,3.1872396,-8.839087,0.10049855,-1.1259766,0.36606073,3.451386,-47.006252,17.081251,35.04375,0.5050604,-0.49474072,0.56634814,992.18524,37.88723142,127.7398108,136.998779296875,0.82
2025-03-23 17:38:35.920,5.151747,-9.628718,0.715454,-1.0319034,0.58108515,3.686569,-46.237503,18.50625,34.96875,0.47949812,-0.5170012,0.5784691,992.18524,37.88723142,127.7398108,136.998779296875,0.82
2025-03-23 17:38:35.940,5.666204,-10.7844515,0.3589234,-0.89079356,0.6714931,3.7934704,-45.35625,19.96875,34.78125,0.45181462,-0.53771305,0.5918865,992.1999,37.88723142,127.7398108,136.998779296875,0.82
2025-03-23 17:38:35.959,5.95095,-12.581462,-0.9284152,-0.80466163,0.40698865,4.0494227,-44.34375,21.7875,35.2125,0.4234005,-0.5578095,0.6053435,992.1999,37.88723142,127.7398108,136.998779296875,0.82
2025-03-23 17:38:35.979,6.218946,-13.557734,-1.5122639,-0.90667605,0.13698642,4.2925467,-42.80625,24.187502,35.5125,0.39456636,-0.5793366,0.61731464,992.1916,37.88723142,127.7398108,136.998779296875,0.82
2025-03-23 17:38:36.001,8.015956,-14.189438,-1.1724831,-1.1168135,-0.35903576,4.6254683,-40.7625,26.718752,35.86875,0.36501652,-0.60322976,0.62662584,992.1916,37.88723142,127.7398108,136.998779296875,0.82
2025-03-23 17:38:36.020,9.305687,-14.0697975,-0.94755775,-1.2719731,-0.5233584,4.678613,-38.68125,29.531252,35.30625,0.3353636,-0.62817025,0.6329554,992.18427,37.88723142,127.7398108,136.998779296875,0.82
2025-03-23 17:38:36.040,9.590433,-13.550554,0.083748795,-1.4277437,-0.38530296,4.6480703,-36.5625,31.612501,35.8125,0.29723147,-0.65849656,0.6371919,992.18427,37.88723142,127.7398108,136.998779296875,0.82
2025-03-23 17:38:36.061,9.35833,-13.07199,1.079163,-1.4668391,-0.10919208,4.5961466,-33.787502,33.35625,37.10625,0.26489532,-0.6806622,0.6388166,992.1894,37.88723142,127.7398108,136.998779296875,0.82
2025-03-23 17:38:36.079,8.700303,-12.710674,1.9621146,-1.3654355,0.22311836,4.6462374,-30.487501,34.631252,37.818752,0.23047777,-0.70012176,0.640056,992.1894,37.88723142,127.7398108,136.998779296875,0.82
2025-03-23 17:38:36.100,9.238688,-12.2584305,2.5627131,-1.1943934,0.5920807,4.7061024,-26.94375,35.568752,39.375,0.1933349,-0.7164486,0.64180183,992.20233,37.88723142,127.7398108,136.998779296875,0.82
2025-03-23 17:38:36.121,10.837093,-11.322837,2.5196424,-0.90606517,0.8492548,4.482526,-23.1,36.2625,40.162502,0.14524731,-0.7319897,0.6445065,992.20233,37.88723142,127.7398108,136.998779296875,0.82
2025-03-23 17:38:36.140,10.968699,-10.772488,2.0554347,-0.77656186,0.9787581,4.2717776,-20.306252,36.46875,40.29375,0.117078096,-0.7386126,0.6462074,992.21893,37.88723142,127.7398108,136.998779296875,0.82
2025-03-23 17:38:36.159,11.334801,-10.212567,1.5122639,-0.672104,1.0569488,3.9901688,-17.6625,36.84375,40.725002,0.071881555,-0.746387,0.6484272,992.21893,37.88723752,127.739833,137.6282958984375,2.12
2025-03-23 17:38:36.181,12.6987095,-8.903693,1.3136597,-0.5383246,0.8999565,3.7030623,-15.13125,36.84375,41.381252,0.038371753,-0.7504665,0.6494513,992.21234,37.88723752,127.739833,137.6282958984375,2.12
2025-03-23 17:38:36.199,14.079369,-8.439486,1.3016955,-0.4094321,0.7411317,3.27057,-12.731251,37.050003,41.925003,0.008943999,-0.75292015,0.6500068,992.21234,37.88723752,127.739833,137.6282958984375,2.12
2025-03-23 17:38:36.221,15.172889,-8.1020975,1.0336994,-0.30130905,0.56214833,2.6688683,-10.44375,36.99375,42.225002,-0.015550075,-0.7540411,0.65033716,992.2216,37.88723752,127.739833,137.6282958984375,2.12
2025-03-23 17:38:36.240,16.051054,-7.554141,1.0648061,-0.27259842,0.44302967,2.0897684,-8.53125,36.84375,42.825,-0.0345518,-0.7545383,0.6502278,992.2216,37.88723752,127.739833,137.6282958984375,2.12
2025-03-23 17:38:36.259,16.780865,-7.1569324,0.90448695,-0.27198756,0.50961393,1.346346,-7.0125003,36.73125,43.21875,-0.047875572,-0.7549261,0.64953107,992.2292,37.88723752,127.739833,137.6282958984375,2.12
2025-03-23 17:38:36.279,16.622938,-7.4033933,1.0767702,-0.33124143,0.6421716,0.45326167,-5.64375,36.45,42.862503,-0.056215525,-0.7557138,0.64783317,992.2292,37.88723752,127.739833,137.6282958984375,2.12
2025-03-23 17:38:36.301,15.680167,-8.657232,1.4189439,-0.33735007,0.617737,-0.3848448,-4.78125,36.075,43.21875,-0.05922208,-0.75738674,0.6445205,992.2421,37.88723752,127.739833,137.6282958984375,2.12
2025-03-23 17:38:36.319,14.354543,-9.600004,1.9573289,-0.31352636,0.5853612,-0.88941914,-4.51875,35.643753,43.537502,-0.05718134,-0.7585741,0.6421794,992.2421,37.88723752,127.739833,137.6282958984375,2.12
2025-03-23 17:38:36.340,13.210773,-11.346765,2.1750758,-0.22739442,0.64705855,-1.359785,-4.33125,35.30625,43.5,-0.049520914,-0.76010454,0.6382704,992.2546,37.88723752,127.739833,137.6282958984375,2.12
2025-03-23 17:38:36.359,11.66501,-10.992627,3.0556345,-0.038026333,0.66233015,-1.6242894,-4.6875,35.1375,43.987503,-0.040972438,-0.76035476,0.63553613,992.2546,37.88723752,127.739833,137.6282958984375,2.12
2025-03-23 17:38:36.380,10.734202,-9.506684,3.9673,0.40118545,0.36056295,-1.8955134,-5.625,35.4,43.987503,-0.030171806,-0.7586974,0.63452274,992.2675,37.88723752,127.739833,137.6282958984375,2.12
2025-03-23 17:38:36.400,10.286744,-9.341579,3.9361932,0.8874338,-0.101250835,-2.2571454,-7.05,35.362503,44.1375,-0.014620555,-0.75452894,0.6362388,992.2675,37.88723752,127.739833,137.6282958984375,2.12
2025-03-23 17:38:36.419,9.786645,-10.097712,3.199204,1.2680025,-0.59605134,-2.65604,-8.887501,35.268753,44.362503,0.0071622,-0.7479085,0.6403594,992.288,37.88723752,127.739833,137.6282958984375,2.12
2025-03-23 17:38:36.440,9.4229355,-11.66501,2.0817556,1.5184572,-1.166599,-3.0891433,-10.575001,35.475002,43.8375,0.043148972,-0.73719895,0.6468137,992.288,37.88723752,127.739833,137.6282958984375,2.12
2025-03-23 17:38:36.459,9.284152,-12.957134,1.4452649,1.5587742,-1.6308563,-3.3719735,-12.262501,35.8875,43.3875,0.06914775,-0.7301103,0.65018517,992.2819,37.88723752,127.739833,137.6282958984375,2.12
2025-03-23 17:38:36.480,9.164511,-14.608182,1.052842,1.4848596,-1.9588907,-3.5808892,-13.725,36.43125,42.318752,0.10784803,-0.72041905,0.6529903,992.2819,37.88723752,127.739833,137.6282958984375,2.12
2025-03-23 17:38:36.501,8.626125,-14.751752,1.3040884,1.360854,-2.1293218,-3.54607,-14.625001,37.331253,41.4,0.15851355,-0.7080586,0.653347,992.2641,37.88723752,127.739833,137.6282958984375,2.12
2025-03-23 17:38:36.521,9.664611,-14.29233,1.6271194,1.2515092,-2.2227843,-3.568672,-16.25625,38.0625,40.631252,0.19888732,-0.69790566,0.6506882,992.2641,37.88723752,127.739833,137.6282958984375,2.12
2025-03-23 17:38:36.539,10.700703,-13.18206,2.0386848,1.2325724,-2.0639594,-3.7824748,-17.7,38.4375,40.03125,0.23938286,-0.68678945,0.6477678,992.2563,37.88723752,127.739833,137.6282958984375,2.12
2025-03-23 17:38:36.560,10.810773,-12.526426,1.5696917,1.1800381,-1.6070325,-4.1172285,-19.368752,38.53125,39.862503,0.27947363,-0.67325747,0.64143443,992.2563,37.88723752,127.739833,137.6282958984375,2.12
2025-03-23 17:38:36.580,10.466207,-12.435499,0.9212367,1.0541999,-1.0951278,-4.453204,-21.712502,38.362503,39.43125,0.31786314,-0.65703744,0.63669294,992.2502,37.88723752,127.739833,137.6282958984375,2.12
2025-03-23 17:38:36.600,9.209974,-12.725031,0.5623133,0.8965968,-0.6235402,-4.733591,-23.925001,37.612503,39.0,0.36267155,-0.6334532,0.6270773,992.2502,37.88723752,127.739833,137.6282958984375,2.12
2025-03-23 17:38:36.620,7.91785,-12.559926,0.4977071,0.8532254,-0.5074759,-4.79651,-25.9125,36.787502,38.475002,0.3962703,-0.6125386,0.6179393,992.23895,37.88723752,127.739833,137.6282958984375,2.12
2025-03-23 17:38:36.640,6.518049,-12.509677,-0.031106694,0.74082625,-0.3413207,-4.751306,-28.331251,35.475002,37.912502,0.42805454,-0.5904668,0.6076008,992.23895,37.88723752,127.739833,137.6282958984375,2.12
2025-03-23 17:38:36.661,4.84068,-11.947364,-0.04546363,0.6333141,-0.09636392,-4.4916887,-30.7875,33.6375,37.537502,0.45650414,-0.5680001,0.59668493,992.22235,37.88723752,127.739833,137.6282958984375,2.12
2025-03-23 17:38:36.679,3.7471602,-11.351551,-0.09332009,0.6333141,-0.0377209,-4.1025677,-33.300003,31.743752,37.631252,0.48133668,-0.5458322,0.5859771,992.22235,37.88723752,127.739833,137.6282958984375,2.12
2025-03-23 17:38:36.699,3.2398818,-10.191031,-0.89730847,0.5722276,0.009926553,-3.699397,-36.300003,29.2875,37.818752,0.50299025,-0.52458304,0.5760366,992.20795,37.88723752,127.739833,137.6282958984375,2.12
2025-03-23 17:38:36.720,2.804388,-9.396614,-1.1318051,0.42745262,0.012370012,-3.3127196,-38.550003,27.337502,37.7625,0.52168447,-0.5051016,0.5662988,992.20795,37.88723752,127.739833,137.6282958984375,2.12
2025-03-23 17:38:36.740,2.251646,-9.044869,-1.2394822,0.31322092,-0.045051277,-2.8783948,-40.631252,25.181252,38.025,0.53747594,-0.48786345,0.55682695,992.2011,37.88723752,127.739833,137.6282958984375,2.12
2025-03-23 17:38:36.761,2.3904297,-9.209974,-1.430908,0.123852834,-0.20204352,-2.4220788,-42.225002,23.2875,38.006252,0.5540345,-0.47041968,0.54509515,992.2011,37.88723752,127.739833,137.6282958984375,2.12
2025-03-23 17:38:36.780,1.6630118,-9.253045,-1.1844472,0.05177079,-0.18799363,-2.0500622,-43.36875,21.768751,37.8375,0.56493026,-0.45967293,0.53591454,992.19257,37.88723752,127.739833,137.6282958984375,2.12
2025-03-23 17:38:36.800,0.74177504,-9.731609,-1.4548361,-0.025809037,-0.12202024,-1.4929535,-44.662502,20.00625,37.8375,0.57306814,-0.45165253,0.52840424,992.19257,37.88723752,127.739833,137.6282958984375,2.12
2025-03-23 17:38:36.819,-0.36610186,-9.212367,-1.9405792,-0.18157956,0.026419902,-0.7458659,-45.581253,18.487501,37.818752,0.5773635,-0.44723126,0.52364045,992.1818,37.88723752,127.739833,137.6282958984375,2.12
2025-03-23 17:38:36.840,-0.24646074,-9.090333,-1.9142581,-0.47968158,0.3074177,0.10445788,-46.3875,16.96875,37.93125,0.576493,-0.4480685,0.5223234,992.1818,37.88723752,127.739833,137.6282958984375,2.12
2025-03-23 17:38:36.859,-0.6029913,-9.322437,-1.5194423,-0.66049755,0.56459177,0.8503238,-46.66875,15.975,37.875,0.5700286,-0.45172533,0.5242107,992.17865,37.88723752,127.739833,137.6282958984375,2.12
2025-03-23 17:38:36.882,-0.79920274,-8.973084,-0.94277215,-0.8492548,0.7234166,1.9095633,-46.78125,15.731251,37.631252,0.55429876,-0.463034,0.5321294,992.17865,37.88723752,127.739833,137.6282958984375,2.12
2025-03-23 17:38:36.900,-0.18424734,-8.965906,-0.38285163,-0.9182825,0.77411836,2.5173738,-46.65,15.825001,37.48125,0.5409718,-0.47326267,0.53937334,992.1867,37.88723752,127.739833,137.6282958984375,2.12
2025-03-23 17:38:36.919,1.6941184,-9.552148,0.29910284,-0.9231694,0.802829,3.2473571,-46.3125,16.59375,37.0875,0.51292783,-0.49474025,0.55506206,992.1867,37.88723752,127.739833,137.6282958984375,2.12
2025-03-23 17:38:36.939,3.7686956,-10.4566345,0.5096712,-0.7832814,0.6091849,3.6126542,-46.40625,17.38125,36.862503,0.48734272,-0.514186,0.569498,992.1894,37.88723752,127.739833,137.6282958984375,2.12
2025-03-23 17:38:36.960,4.996214,-11.4496565,0.09332009,-0.5560397,0.23838998,3.7867508,-45.693752,18.768751,36.80625,0.46202064,-0.5342818,0.58379793,992.1894,37.88723752,127.739833,137.6282958984375,2.12
2025-03-23 17:38:36.979,5.6614184,-12.390036,-0.94277215,-0.4149299,-0.05177079,3.9296932,-44.90625,20.6625,36.412502,0.438043,-0.55453354,0.5971531,992.19257,37.88723752,127.739833,137.6282958984375,2.12
2025-03-23 17:38:37.006,5.493921,-12.847065,-2.1918256,-0.57497644,0.052076224,4.3212576,-43.425003,22.893751,36.43125,0.40704393,-0.5803349,0.6126216,992.19257,37.88723752,127.739833,137.6282958984375,2.12
2025-03-23 17:38:37.019,5.7930236,-12.818351,-2.2660031,-0.8498656,0.20784675,4.5998116,-41.025,25.575,36.318752,0.38546318,-0.59651905,0.62130576,992.185,37.88723752,127.739833,137.6282958984375,2.12
2025-03-23 17:38:37.041,6.867401,-12.5551405,-0.93559366,-1.2078323,0.32757625,4.9284573,-38.90625,28.3875,35.737503,0.34338316,-0.6252168,0.6335057,992.185,37.88723752,127.739833,137.6282958984375,2.12
2025-03-23 17:38:37.061,8.23131,-12.253645,0.11006984,-1.3428335,0.32024586,5.0158105,-37.143753,30.656252,35.475002,0.30629954,-0.64829767,0.6408348,992.1733,37.88723752,127.739833,137.6282958984375,2.12
2025-03-23 17:38:37.081,9.7196455,-11.9306135,1.1772687,-1.3348923,0.34651303,4.8478227,-34.48125,32.943752,36.46875,0.26880237,-0.669707,0.64600384,992.1733,37.88723752,127.739833,137.6282958984375,2.12
2025-03-23 17:38:37.100,10.303494,-11.5621195,1.5960127,-1.2628102,0.34956738,4.649903,-31.63125,34.78125,37.0125,0.23211162,-0.6883334,0.6495414,992.1899,37.88723752,127.739833,137.6282958984375,2.12
2025-03-23 17:38:37.119,10.530812,-11.475977,1.6031911,-1.1571306,0.37766716,4.3982263,-28.612501,35.662502,38.100002,0.19705226,-0.7041514,0.65177006,992.1899,37.88723752,127.739833,137.6282958984375,2.12
2025-03-23 17:38:37.141,10.777273,-11.770294,1.3663018,-1.1522437,0.5071705,4.2296276,-24.843752,36.975002,39.24375,0.16284338,-0.71756583,0.6529336,992.19745,37.88723752,127.739833,137.6282958984375,2.12
2025-03-23 17:38:37.161,11.155339,-11.863615,2.024328,-1.0703878,0.4650208,4.079355,-22.050001,37.0875,38.98125,0.12095805,-0.7318251,0.65266824,992.19745,37.88724291,127.73984514,137.59716796875,1.83
2025-03-23 17:38:37.181,12.014362,-11.0811615,1.9597218,-0.87185675,0.33246315,3.921752,-19.462502,37.350002,39.581253,0.08949388,-0.74075,0.6521019,992.2111,37.88724291,127.73984514,137.59716796875,1.83
2025-03-23 17:38:37.200,13.375878,-9.805787,1.5194423,-0.7411317,0.38683012,3.6260934,-16.837502,37.48125,40.4625,0.06042867,-0.747433,0.65148145,992.2111,37.88724291,127.73984514,137.59716796875,1.83
2025-03-23 17:38:37.220,14.421542,-8.822337,1.2753744,-0.72280574,0.68309957,3.130682,-14.19375,37.10625,41.23125,0.033574317,-0.75243396,0.65019363,992.22186,37.88724291,127.73984514,137.59716796875,1.83
2025-03-23 17:38:37.241,14.756537,-7.8484583,1.7515461,-0.7191406,0.95493436,2.4611742,-11.8125,36.881252,42.131252,0.008989921,-0.7563291,0.6478649,992.22186,37.88724291,127.73984514,137.59716796875,1.83
2025-03-23 17:38:37.260,14.490934,-7.594819,2.2851455,-0.5658135,0.9976949,1.8729115,-9.65625,36.393753,42.9,-0.012082237,-0.7591908,0.64505386,992.22626,37.88724291,127.73984514,137.59716796875,1.83
2025-03-23 17:38:37.280,14.536398,-7.635497,2.5579274,-0.2310596,0.7496838,1.265101,-7.89375,35.7,43.350002,-0.031785674,-0.76058626,0.6428807,992.22626,37.88724291,127.73984514,137.59716796875,1.83
2025-03-23 17:38:37.299,14.8378935,-8.372486,1.847259,-0.0050396346,0.5743656,0.8173371,-6.3562503,35.5875,43.7625,-0.039429866,-0.76013947,0.64289534,992.23505,37.88724291,127.73984514,137.59716796875,1.83
2025-03-23 17:38:37.319,15.299708,-9.233903,1.0863415,0.105526894,0.41370818,0.29260424,-5.3812504,35.550003,44.100002,-0.045072913,-0.7587954,0.6437605,992.23505,37.88724291,127.73984514,137.59716796875,1.83
2025-03-23 17:38:37.339,15.507884,-10.5690975,0.91884387,0.073761925,0.2780962,-0.33719736,-5.1375003,35.325,44.15625,-0.045083404,-0.7572577,0.6446531,992.23676,37.88724291,127.73984514,137.59716796875,1.83
2025-03-23 17:38:37.360,14.761323,-10.813166,1.6582261,0.075594515,0.2829831,-0.8759801,-4.96875,35.568752,43.912502,-0.04009667,-0.7564914,0.64459664,992.23676,37.88724291,127.73984514,137.59716796875,1.83
2025-03-23 17:38:37.381,13.471592,-10.12164,2.6225336,0.22647811,0.18463388,-1.382387,-5.5125003,35.381252,43.537502,-0.03138002,-0.75528586,0.64457834,992.237,37.88724291,127.73984514,137.59716796875,1.83
2025-03-23 17:38:37.399,12.203396,-9.992428,3.17049,0.5532908,-0.14767656,-1.9627086,-6.01875,35.362503,43.518753,-0.01773386,-0.75276005,0.64563733,992.237,37.88724291,127.73984514,137.59716796875,1.83
2025-03-23 17:38:37.419,11.423335,-10.593026,2.969493,0.8116866,-0.36514443,-2.389703,-6.7875004,35.41875,43.237503,0.001549679,-0.7484019,0.64810884,992.24896,37.88724291,127.73984514,137.59716796875,1.83
2025-03-23 17:38:37.440,10.875379,-12.100504,2.5004997,1.1012365,-0.60765773,-2.873508,-8.38125,35.662502,43.18125,0.025793549,-0.74213195,0.651499,992.24896,37.88724291,127.73984514,137.59716796875,1.83
2025-03-23 17:38:37.461,10.411171,-13.438092,2.3712873,1.3351977,-0.913701,-3.2223117,-9.918751,36.24375,43.143753,0.05443551,-0.7339636,0.6552741,992.25555,37.88724291,127.73984514,137.59716796875,1.83
2025-03-23 17:38:37.480,9.937392,-14.179867,1.7084754,1.5496112,-1.5037963,-3.4941466,-11.775001,36.825,42.787502,0.09664445,-0.72119457,0.6600771,992.25555,37.88724291,127.73984514,137.59716796875,1.83
2025-03-23 17:38:37.499,9.882358,-14.19901,1.1676974,1.5575525,-2.119548,-3.6792386,-13.293751,37.612503,42.05625,0.13607755,-0.7099879,0.6625442,992.2536,37.88724291,127.73984514,137.59716796875,1.83
2025-03-23 17:38:37.519,9.851251,-13.672588,1.564906,1.4463751,-2.453691,-3.8472264,-14.812501,38.41875,41.23125,0.17941923,-0.6986361,0.6623476,992.2536,37.88724291,127.73984514,137.59716796875,1.83
2025-03-23 17:38:37.540,10.205389,-13.138989,1.7467605,1.302211,-2.3284638,-4.1111197,-16.2,38.8875,40.3125,0.22423388,-0.6865059,0.65943396,992.23114,37.88724291,127.73984514,137.59716796875,1.83
2025-03-23 17:38:37.559,9.767502,-12.614961,1.8376877,1.1995857,-1.9656101,-4.426937,-17.737501,39.3375,39.65625,0.26845416,-0.67260844,0.65423375,992.23114,37.88724291,127.73984514,137.59716796875,1.83
2025-03-23 17:38:37.579,8.997013,-12.284752,1.012164,1.1000148,-1.514181,-4.710378,-20.475,39.581253,40.10625,0.31108436,-0.65618795,0.64742583,992.22406,37.88724291,127.73984514,137.59716796875,1.83
2025-03-23 17:38:37.599,8.243274,-12.241681,0.16031912,0.86971873,-1.1152864,-4.889362,-22.931252,39.45,39.318752,0.35133794,-0.6376794,0.6388756,992.22406,37.88724291,127.73984514,137.59716796875,1.83
2025-03-23 17:38:37.620,6.465407,-12.031113,0.3469593,0.64003354,-0.7225003,-4.8771443,-24.956251,39.018753,38.30625,0.39706776,-0.61297345,0.6255989,992.2187,37.88724291,127.73984514,137.59716796875,1.83
2025-03-23 17:38:37.640,5.15414,-11.468799,0.35174492,0.547793,-0.46227193,-4.6376853,-27.093752,37.85625,37.5,0.4291644,-0.5923786,0.61423206,992.2187,37.88724291,127.73984514,137.59716796875,1.83
2025-03-23 17:38:37.659,4.9674997,-10.983056,0.3182454,0.48792824,-0.3517054,-4.4153304,-28.9125,36.16875,36.80625,0.4576576,-0.5717008,0.60269755,992.205,37.88724291,127.73984514,137.59716796875,1.83
2025-03-23 17:38:37.679,5.032106,-10.514063,0.0,0.44455683,-0.34865108,-4.23146,-31.2,33.73125,37.36875,0.48346224,-0.55110794,0.5908672,992.205,37.88724291,127.73984514,137.59716796875,1.83
2025-03-23 17:38:37.701,4.1204405,-10.224531,-0.51445687,0.34620762,-0.39080074,-4.038427,-33.881252,31.462502,38.15625,0.50760823,-0.5308889,0.578202,992.1894,37.88724291,127.73984514,137.59716796875,1.83
2025-03-23 17:38:37.719,3.3284163,-10.102497,-0.72023964,0.20387612,-0.3724748,-3.6792386,-37.068752,28.9125,38.4375,0.5296344,-0.51198393,0.5647814,992.1894,37.88724291,127.73984514,137.59716796875,1.83
2025-03-23 17:38:37.741,2.9455647,-9.868001,-0.6891329,0.06276636,-0.2997819,-3.2491899,-38.943752,26.75625,38.625,0.5483416,-0.49508813,0.551643,992.1806,37.88724291,127.73984514,137.59716796875,1.83
2025-03-23 17:38:37.760,2.9048867,-10.296316,-0.53359944,-0.042302385,-0.14767656,-2.751335,-40.575,24.487501,38.53125,0.56665784,-0.47712517,0.53679264,992.1806,37.88724291,127.73984514,137.59716796875,1.83
2025-03-23 17:38:37.780,2.7948167,-9.923036,-0.7728817,-0.100945406,-0.017562363,-2.3206754,-42.112503,22.050001,38.53125,0.57748467,-0.46497774,0.5269844,992.1723,37.88724291,127.73984514,137.59716796875,1.83
2025-03-23 17:38:37.800,2.5674987,-10.12164,-1.4141582,-0.2780962,0.15225805,-1.9401065,-42.99375,19.9125,38.79375,0.5851773,-0.45490375,0.5188358,992.1723,37.88724291,127.73984514,137.59716796875,1.83
2025-03-23 17:38:37.821,1.1318051,-10.061819,-1.564906,-0.56337005,0.39599308,-1.4141519,-44.100002,18.075,38.71875,0.58912766,-0.44739965,0.5122205,992.16815,37.88724291,127.73984514,137.59716796875,1.83
2025-03-23 17:38:37.841,-0.83748794,-10.291531,-1.4548361,-0.811992,0.7118102,-0.67561644,-44.90625,16.85625,38.86875,0.5883077,-0.44315135,0.50812644,992.16815,37.88724291,127.73984514,137.59716796875,1.83
2025-03-23 17:38:37.859,-2.6919255,-10.109675,-0.8446664,-0.9634865,0.8645264,0.32864526,-45.9,15.450001,39.16875,0.5814684,-0.44343445,0.5082063,992.1696,37.88724291,127.73984514,137.59716796875,1.83
2025-03-23 17:38:37.879,-3.3810585,-9.468399,-0.16031912,-1.0141883,0.77472925,1.5760311,-46.59375,14.400001,38.9625,0.56896824,-0.4499553,0.51285523,992.1696,37.88724291,127.73984514,137.59716796875,1.83
2025-03-23 17:38:37.899,-1.7922242,-9.092726,0.5910272,-0.99158627,0.7447969,2.773937,-47.34375,13.481251,38.456253,0.5510032,-0.4636353,0.52230346,992.1777,37.88724291,127.73984514,137.59716796875,1.83
2025-03-23 17:38:37.921,1.6701902,-9.415757,0.91884387,-0.87246764,0.7527381,3.8099637,-47.550003,13.387501,38.04375,0.5212506,-0.48772892,0.54047394,992.1777,37.88724291,127.73984514,137.59716796875,1.83
2025-03-23 17:38:37.941,4.718646,-10.100104,1.1916257,-0.68309957,0.7166971,4.0952373,-47.550003,14.26875,37.74375,0.49356723,-0.5092833,0.5580652,992.19525,37.88724291,127.73984514,137.59716796875,1.83
2025-03-23 17:38:37.960,6.32423,-11.131411,0.87338024,-0.3159698,0.6201805,4.0989027,-46.93125,16.050001,37.237503,0.46546242,-0.5294548,0.57652867,992.19525,37.88724291,127.73984514,137.59716796875,1.83
2025-03-23 17:38:37.979,5.8887367,-11.818151,-0.0741775,-0.047189303,0.31352636,4.138609,-45.84375,18.431252,37.068752,0.4389656,-0.5475654,0.5947082,992.19525,37.88724291,127.73984514,137.59716796875,1.83
2025-03-23 17:38:38.003,4.733003,-12.363714,-1.9334008,-0.04291325,-0.039553493,4.5246754,-44.5125,21.056252,36.975002,0.40743887,-0.5702671,0.61583745,992.19525,37.88724291,127.73984514,137.59716796875,1.83
2025-03-23 17:38:38.021,5.5465627,-12.57189,-2.5148566,-0.34956738,-0.07009673,4.941896,-42.3375,24.225,36.43125,0.37980795,-0.59071195,0.63075686,992.1762,37.88724291,127.73984514,137.59716796875,1.83
2025-03-23 17:38:38.040,7.3603225,-12.533605,-2.3784657,-0.7961095,0.18585561,5.137984,-40.162502,27.73125,35.7,0.34775597,-0.612831,0.64321446,992.1762,37.88724291,127.73984514,137.59716796875,1.83
2025-03-23 17:38:38.059,8.812766,-12.497713,-1.3686945,-1.155298,0.39354962,5.103775,-38.2125,30.900002,34.21875,0.32089928,-0.62974054,0.6504055,992.15375,37.88724291,127.73984514,137.59716796875,1.83
2025-03-23 17:38:38.079,9.461221,-12.713067,0.09092726,-1.3709333,0.42897978,4.9852676,-35.756252,33.84375,35.25,0.28330493,-0.65168434,0.6569664,992.15375,37.88724291,127.73984514,137.59716796875,1.83
2025-03-23 17:38:38.099,10.423136,-12.940385,1.6486548,-1.2713623,0.310472,4.8539314,-32.53125,35.8125,35.475002,0.23640086,-0.6767578,0.6616636,992.15814,37.88724291,127.73984514,137.59716796875,1.83
2025-03-23 17:38:38.119,11.739188,-12.839887,1.727618,-1.0661118,0.260992,4.6718936,-29.38125,36.956253,36.112503,0.20074458,-0.6933428,0.66437346,992.15814,37.88724291,127.73984514,137.59716796875,1.83
2025-03-23 17:38:38.139,13.361522,-11.796616,1.4979069,-1.0086905,0.35323256,4.2705555,-25.275002,37.8375,37.93125,0.16726767,-0.7068781,0.6660574,992.1772,37.88724291,127.73984514,137.59716796875,1.83
2025-03-23 17:38:38.159,13.153346,-10.246066,1.4452649,-1.1583524,0.85841775,3.6688538,-21.431252,38.15625,37.537502,0.13570043,-0.7180712,0.6659159,992.1772,37.88725222,127.73985951,137.43487548828125,1.76
2025-03-23 17:38:38.179,12.44507,-9.2793665,2.2348964,-1.2988513,1.3043491,3.2491899,-18.6375,38.30625,38.11875,0.1042872,-0.7278778,0.66363835,992.1994,37.88725222,127.73985951,137.43487548828125,1.76
2025-03-23 17:38:38.199,11.923435,-8.563912,3.4049866,-1.1412481,1.4521782,2.86801,-15.76875,38.34375,39.506252,0.06558071,-0.73794055,0.65925443,992.1994,37.88725222,127.73985951,137.43487548828125,1.76
2025-03-23 17:38:38.221,11.349157,-8.391629,3.9577286,-0.7368556,1.2768601,2.6480987,-13.575001,37.893753,40.537502,0.037099596,-0.74290675,0.65685064,992.23944,37.88725222,127.73985951,137.43487548828125,1.76
2025-03-23 17:38:38.241,13.160524,-8.343773,2.952743,-0.13026692,0.72769266,2.4605634,-12.13125,37.537502,41.53125,0.01279605,-0.7445654,0.65711874,992.23944,37.88725222,127.73985951,137.43487548828125,1.76
2025-03-23 17:38:38.259,14.663218,-7.9034934,0.7178468,0.14767656,0.6323978,2.1673481,-10.875,37.256252,42.112503,-0.006401415,-0.7433479,0.6599476,992.26483,37.88725222,127.73985951,137.43487548828125,1.76
2025-03-23 17:38:38.280,15.567704,-7.298109,-1.8783658,-0.20540328,0.86819154,1.608407,-9.5625,37.143753,42.45,-0.026444105,-0.74155515,0.6623427,992.26483,37.88725222,127.73985951,137.43487548828125,1.76
2025-03-23 17:38:38.300,16.608582,-7.8987074,-1.2658032,-0.6372847,0.8431461,1.1423172,-8.793751,37.143753,42.28125,-0.036877964,-0.74252045,0.66079885,992.2502,37.88725222,127.73985951,137.43487548828125,1.76
2025-03-23 17:38:38.321,17.300108,-8.475378,1.6223338,-0.81993324,0.43631017,0.23029602,-7.5375004,37.256252,42.225002,-0.047543786,-0.74720126,0.6543413,992.2502,37.88725222,127.73985951,137.43487548828125,1.76
2025-03-23 17:38:38.340,16.9364,-9.530613,3.182454,-0.6385064,0.08261946,-0.49296787,-6.95625,37.0125,42.65625,-0.046989985,-0.751285,0.6488668,992.2465,37.88725222,127.73985951,137.43487548828125,1.76
2025-03-23 17:38:38.359,15.18246,-11.004591,3.952943,-0.31413722,0.15958843,-1.1349868,-6.8437505,36.73125,42.881252,-0.039548464,-0.753998,0.64471924,992.2465,37.88725222,127.73985951,137.43487548828125,1.76
2025-03-23 17:38:38.381,12.47857,-9.879965,4.7952166,0.16294818,0.40882125,-1.4404192,-6.8250003,36.412502,43.706253,-0.029912956,-0.75391334,0.6428789,992.2651,37.88725222,127.73985951,137.43487548828125,1.76
2025-03-23 17:38:38.401,11.693725,-9.236296,4.6061835,0.76220655,0.12232567,-1.8179336,-8.00625,35.850002,44.15625,-0.018495396,-0.7503517,0.64430064,992.2651,37.88725222,127.73985951,137.43487548828125,1.76
2025-03-23 17:38:38.419,11.346765,-10.124033,3.859623,1.2191334,-0.5093085,-2.245539,-8.887501,36.09375,43.987503,-7.649735E-4,-0.74391425,0.6487462,992.2895,37.88725222,127.73985951,137.43487548828125,1.76
2025-03-23 17:38:38.441,10.595419,-12.157932,2.5028925,1.6241367,-1.5984805,-2.8081453,-10.106251,35.90625,43.85625,0.03417876,-0.73317575,0.65681124,992.2895,37.88725222,127.73985951,137.43487548828125,1.76
2025-03-23 17:38:38.459,10.1288185,-13.447663,2.0003998,1.6888884,-2.1445935,-3.0952518,-11.3625,36.487503,42.693752,0.061080277,-0.72604126,0.6614991,992.29047,37.88725222,127.73985951,137.43487548828125,1.76
2025-03-23 17:38:38.479,9.705289,-14.687145,2.024328,1.6748385,-2.5996878,-3.2601852,-11.94375,37.237503,41.4,0.101408266,-0.7161449,0.6662802,992.29047,37.88725222,127.73985951,137.43487548828125,1.76
2025-03-23 17:38:38.499,10.332209,-15.3691,2.8594232,1.650404,-3.1268642,-3.3652542,-13.125001,37.4625,40.4625,0.15636995,-0.703158,0.6693046,992.268,37.88725222,127.73985951,137.43487548828125,1.76
2025-03-23 17:38:38.520,11.162518,-14.579469,2.9048867,1.6894993,-3.2924085,-3.6841254,-13.968751,38.5125,39.24375,0.20365582,-0.69126856,0.6694756,992.268,37.88725222,127.73985951,137.43487548828125,1.76
2025-03-23 17:38:38.541,10.602597,-13.6199465,2.5196424,1.6161954,-3.0120215,-4.1349435,-14.700001,39.300003,38.5125,0.25278443,-0.67696875,0.66733384,992.2619,37.88725222,127.73985951,137.43487548828125,1.76
2025-03-23 17:38:38.560,9.439685,-12.861422,2.0338993,1.5178462,-2.4817908,-4.5185666,-15.7875,40.068752,37.95,0.301149,-0.65984076,0.66306645,992.2619,37.88725222,127.73985951,137.43487548828125,1.76
2025-03-23 17:38:38.579,8.02792,-12.516855,1.5984055,1.3920081,-2.0328052,-4.692663,-17.475,40.706253,38.325,0.3469909,-0.64001274,0.65724057,992.2526,37.88725222,127.73985951,137.43487548828125,1.76
2025-03-23 17:38:38.600,6.580262,-11.909079,0.9164511,1.2362376,-1.3871212,-4.621192,-19.987501,40.8375,38.006252,0.38866287,-0.6183745,0.6504948,992.2526,37.88725222,127.73985951,137.43487548828125,1.76
2025-03-23 17:38:38.620,5.790631,-10.947164,0.050249275,0.9802852,-0.77259123,-4.4440413,-22.425001,40.48125,36.881252,0.4326811,-0.590184,0.64196306,992.2397,37.88725222,127.73985951,137.43487548828125,1.76
2025-03-23 17:38:38.640,5.24746,-10.145568,-0.17228323,0.7371611,-0.42745262,-4.29499,-24.956251,39.5625,36.28125,0.46199474,-0.5677927,0.63468874,992.2397,37.88725222,127.73985951,137.43487548828125,1.76
2025-03-23 17:38:38.660,4.6085763,-9.757931,-0.13399807,0.55023646,-0.34559676,-4.1318893,-26.962502,38.456253,35.2125,0.48779455,-0.5460199,0.6264618,992.21967,37.88725222,127.73985951,137.43487548828125,1.76
2025-03-23 17:38:38.681,4.0701914,-9.363115,-0.1794617,0.3914116,-0.37003133,-3.8851,-28.837502,36.91875,34.987503,0.51117176,-0.52530456,0.6170675,992.21967,37.88725222,127.73985951,137.43487548828125,1.76
2025-03-23 17:38:38.701,3.5605202,-9.533006,-0.41156548,0.24602579,-0.37125307,-3.5986044,-31.312502,35.25,35.850002,0.5373448,-0.5014932,0.60401326,992.19794,37.88725222,127.73985951,137.43487548828125,1.76
2025-03-23 17:38:38.719,2.9862428,-9.4229355,-0.38285163,0.11835505,-0.22525638,-3.2760677,-33.956253,33.393753,36.018753,0.55072397,-0.4886104,0.59615743,992.19794,37.88725222,127.73985951,137.43487548828125,1.76
