Time,Accel_X,Accel_Y,Accel_Z,Gyro_X,Gyro_Y,Gyro_Z,Mag_X,Mag_Y,Mag_Z,Orient_X,Orient_Y,Orient_Z,Pressure,Lat,Lng,Alt,Speed
2025-09-28 19:55:21.928,0.39481574,4.843073,7.9968133,-0.027870705,0.16898046,-0.052839804,25.687502,-28.331251,-37.331253,0.25329807,0.033903986,0.2267538,995.72675,37.88836888,127.73984359,144.758544921875,0.28
2025-09-28 19:55:21.948,0.16749759,4.4889355,8.606983,-0.07979421,0.34674212,-0.021074835,24.487501,-26.868752,-35.287502,0.2511916,0.03890296,0.22719175,995.6857, , , , 
2025-09-28 19:55:21.968,0.27996024,4.4985065,8.882157,-0.010766491,0.3003164,-0.031459536,25.087502,-29.025002,-36.0,0.24988098,0.041224323,0.22762965,995.6857, , , , 
2025-09-28 19:55:21.988,0.16510476,4.584648,9.073584,0.0570395,0.2606102,-0.044287696,26.1,-28.95,-33.956253,0.24849968,0.044525474,0.22805433,995.6318, , , , 
2025-09-28 19:55:22.008,0.16510476,4.749753,8.740981,0.043600474,0.20807582,-0.041844238,26.831251,-29.1,-36.6375,0.24794193,0.04685728,0.22817796,995.6318, , , , 
2025-09-28 19:55:22.028,0.3397808,4.84068,8.822337,0.008781182,0.19830199,-0.03573559,26.775002,-27.243752,-36.581253,0.24761474,0.048429694,0.22827841,995.55927, , , , 
2025-09-28 19:55:22.048,0.20817557,5.0368915,8.300702,-0.030314164,0.11950042,-0.0650571,25.1625,-28.5375,-34.95,0.24726443,0.050152678,0.22833182,995.55927, , , , 
2025-09-28 19:55:22.068,0.21535404,4.883751,8.090134,-0.057192214,0.018707734,-0.08643737,27.468752,-28.1625,-37.068752,0.24719675,0.05097135,0.2278034,995.5041, , , , 
2025-09-28 19:55:22.088,0.72502524,4.759324,8.161918,-0.14088069,-0.11446079,-0.11942407,27.750002,-27.393751,-35.60625,0.24703048,0.050645515,0.22705986,995.5041, , , , 
2025-09-28 19:55:22.108,-0.20578274,4.642076,8.975478,-0.20746495,-0.23785548,-0.25320345,26.437502,-27.300001,-34.0875,0.2456055,0.047131907,0.2250311,995.4626, , , , 
2025-09-28 19:55:22.128,-0.38524446,4.8263235,9.8632145,-0.021151192,-0.20364705,-0.19883649,27.0375,-28.2,-37.800003,0.24412872,0.046341192,0.22244538,995.4626, , , , 
2025-09-28 19:55:22.148,0.02632105,4.7162533,9.554541,0.22075126,-0.086361006,-0.097432934,24.937502,-28.931252,-34.29375,0.24374369,0.046243254,0.2196833,995.43256, , , , 
2025-09-28 19:55:22.168,0.014356935,4.8598228,9.437292,0.33192864,-0.1523344,-0.08704823,26.325,-29.2875,-34.256252,0.2451789,0.046205934,0.21874253,995.43256, , , , 
2025-09-28 19:55:22.188,0.1052842,4.9196434,8.721839,0.44310603,-0.29405504,-0.021685699,27.993752,-28.368752,-36.037502,0.25004494,0.0450032,0.2171364,995.4184, , , , 
2025-09-28 19:55:22.208,0.083748795,5.178068,8.26481,0.37713265,-0.36186102,0.032681264,24.88125,-29.306252,-36.112503,0.25462854,0.043132015,0.21609688,995.4184, , , , 
2025-09-28 19:55:22.228,0.34217364,5.163711,7.795816,0.24396412,-0.31360272,0.055283263,26.681252,-29.85,-36.9,0.25877175,0.04086407,0.21538413,995.4128, , , , 
2025-09-28 19:55:22.248,0.50009996,5.1206403,7.6809607,-0.065744326,0.06269,0.0650571,24.300001,-29.1375,-34.068752,0.2604515,0.039534207,0.21552813,995.4128, , , , 
2025-09-28 19:55:22.269,0.35413775,5.206782,7.757531,-0.22334744,0.31314456,0.0736092,26.643751,-28.500002,-35.568752,0.2587331,0.04097071,0.21671584,995.42084, , , , 
2025-09-28 19:55:22.288,0.30867413,5.1756754,7.7479596,-0.25999933,0.36995497,0.083383046,28.85625,-27.0375,-36.05625,0.25802112,0.041601777,0.21714453,995.42084, , , , 
2025-09-28 19:55:22.308,0.28235307,5.0679984,8.523234,-0.33391395,0.4237111,0.10720677,25.593752,-27.862501,-35.04375,0.2533268,0.04564578,0.21984002,995.42084, , , , 
2025-09-28 19:55:22.328,0.31106696,4.9579287,8.851051,-0.20502149,0.17325652,0.07666353,23.00625,-29.75625,-34.350002,0.24873243,0.04857024,0.22251868,995.42914, , , , 
2025-09-28 19:55:22.348,0.12921242,4.723432,8.961121,-0.13232858,0.03581195,0.052839804,25.331251,-27.656252,-34.256252,0.24693574,0.048818644,0.22350268,995.4489, , , , 
2025-09-28 19:55:22.368,0.11964113,4.7210393,9.12144,-0.087124586,-2.290743E-4,0.053450666,26.38125,-27.54375,-34.6875,0.2462097,0.048720434,0.22380236,995.4489, , , , 
2025-09-28 19:55:22.388,0.2536392,4.7688956,9.052048,0.06498074,-0.07231112,0.060781047,26.98125,-28.237501,-34.237503,0.24538203,0.047715984,0.22467987,995.4743, , , , 
2025-09-28 19:55:22.408,0.2943172,4.8047876,8.953942,0.12179117,-0.07536544,0.053450666,24.6375,-27.487501,-33.881252,0.24617508,0.046984255,0.22505946,995.4743, , , , 
2025-09-28 19:55:22.428,0.2656033,4.8382874,8.894122,0.17554727,-0.14989094,0.042455103,24.843752,-27.31875,-35.456253,0.24761492,0.04609975,0.22520256,995.4965, , , , 
2025-09-28 19:55:22.448,0.3684947,4.9268217,8.415557,0.15355614,-0.07353285,0.03940078,24.993752,-28.687502,-34.612503,0.24951884,0.045109753,0.22515537,995.4965, , , , 
2025-09-28 19:55:22.468,0.16271193,4.7210393,8.410771,0.07658717,0.022983788,0.00641408,26.325,-28.781252,-36.600002,0.2508983,0.045036275,0.22527757,995.52216, , , , 
2025-09-28 19:55:22.488,0.45702913,5.0105705,8.463413,0.04054615,0.09812015,0.01924224,26.5125,-28.63125,-37.875,0.25108308,0.045611933,0.22548287,995.52216, , , , 
2025-09-28 19:55:22.509,0.29910284,5.029713,8.585447,0.027107125,0.040088,0.03084867,25.800001,-29.19375,-37.612503,0.25155237,0.04615681,0.22586298,995.52216, , , , 
2025-09-28 19:55:22.528,0.29192436,5.003392,8.312666,0.030161448,0.055970486,0.057726722,25.593752,-28.612501,-35.456253,0.25213346,0.046693582,0.22649609,995.5346, , , , 
2025-09-28 19:55:22.548,0.2632105,4.8191447,8.396415,0.0063377223,0.060857404,0.052839804,25.500002,-27.50625,-34.125,0.2525316,0.04722212,0.22726658,995.5417, , , , 
2025-09-28 19:55:22.568,0.3469593,4.8646083,8.243274,-0.033979353,0.19158247,0.07849612,24.112501,-28.650002,-34.068752,0.2523814,0.04781001,0.2279117,995.5417, , , , 
2025-09-28 19:55:22.588,0.55752766,4.8502517,8.276773,-0.102396205,0.34674212,0.08949169,24.281252,-28.500002,-34.256252,0.25148004,0.049758628,0.22946988,995.53656, , , , 
2025-09-28 19:55:22.608,0.19860429,4.9603214,8.508878,-0.09628756,0.3229184,0.051618073,25.462502,-28.500002,-34.518753,0.25040403,0.05149998,0.23073402,995.53656, , , , 
2025-09-28 19:55:22.628,0.2727818,4.601398,9.35833,-0.01809687,-0.23113596,-0.076052666,24.675001,-28.612501,-31.968752,0.24909045,0.0522054,0.23136656,995.5507, , , , 
2025-09-28 19:55:22.648,0.086141616,4.7162533,8.805588,0.06864593,-0.32459828,-0.088269964,25.518751,-28.875002,-34.050003,0.24921013,0.049463175,0.2298557,995.5507, , , , 
2025-09-28 19:55:22.668,0.12203395,4.965107,8.422736,0.030161448,-0.12056944,-0.054061532,24.281252,-29.1375,-33.28125,0.2502566,0.04743605,0.22827467,995.57855, , , , 
2025-09-28 19:55:22.688,0.08135597,4.883751,8.465807,0.017944153,-0.055817768,-0.04612029,25.5375,-27.50625,-35.5125,0.25040415,0.047366105,0.22809781,995.57855, , , , 
2025-09-28 19:55:22.708,0.25124636,4.924429,8.997013,0.10957387,0.33696827,0.066889696,25.63125,-27.618752,-34.59375,0.24995786,0.05114346,0.22909857,995.6308, , , , 
2025-09-28 19:55:22.728,0.25842485,4.9579287,9.24826,0.23907721,0.07979421,0.060781047,23.550001,-29.212502,-33.975002,0.25054646,0.05268729,0.2299543,995.6308, , , , 
2025-09-28 19:55:22.748,0.30867413,4.9603214,8.090134,0.28183773,-0.019776747,0.082161315,26.268751,-29.550001,-34.55625,0.25378376,0.05273257,0.23053122,995.6894, , , , 
2025-09-28 19:55:22.768,0.39481574,4.9866424,7.5996046,0.08269582,0.2777144,0.15241076,24.13125,-28.406252,-33.0,0.25584552,0.053917132,0.23175858,995.6894, , , , 
2025-09-28 19:55:22.788,0.61016977,5.139783,9.162118,-0.23373213,-0.31787875,0.12675445,23.868752,-29.79375,-33.975002,0.25549996,0.05319325,0.23372315,995.7358, , , , 
2025-09-28 19:55:22.808,-0.16749759,4.599005,9.233903,-0.21968225,-0.7039453,-0.06933315,25.087502,-28.800001,-33.393753,0.25483522,0.048410013,0.23270315,995.7358, , , , 
2025-09-28 19:55:22.828,0.27756742,4.9866424,8.819944,-0.29542947,-0.9586759,-0.07177661,24.487501,-27.6,-35.4,0.25340173,0.040976685,0.23002271,995.7729, , , , 
2025-09-28 19:55:22.848,0.124426775,4.9986067,8.049456,-0.33574656,-0.87804174,-0.08888082,26.60625,-28.125002,-37.29375,0.25289586,0.03413706,0.2276523,995.7729, , , , 
2025-09-28 19:55:22.869,0.3182454,5.1421757,7.9537425,-0.26488623,0.19158247,0.02046397,25.031252,-29.062502,-33.05625,0.2507571,0.02910416,0.22542438,995.8278, , , , 
2025-09-28 19:55:22.888,0.7920243,4.8646083,9.090333,8.3993905E-4,0.41699156,0.018631376,23.643751,-28.181252,-36.05625,0.24924058,0.03208206,0.22639292,995.8278, , , , 
2025-09-28 19:55:22.908,0.7537391,4.599005,9.3200445,0.34597853,0.28565565,-0.051007207,22.612501,-28.050001,-34.40625,0.24959607,0.03526435,0.2273083,995.8791, , , , 
2025-09-28 19:55:22.928,0.85902333,4.723432,8.446664,0.46692976,0.28932083,-0.08155045,23.75625,-29.681252,-34.443752,0.25212708,0.03821098,0.22746159,995.8791,37.88836888,127.73984359,144.758544921875,0.28
2025-09-28 19:55:22.948,0.2943172,5.2139606,7.6570325,0.3673588,0.5965858,-0.12247839,24.806252,-30.31875,-34.350002,0.2564624,0.0443799,0.22734869,995.8881, , , , 
2025-09-28 19:55:22.968,0.2440679,5.3479586,8.32463,0.32704175,0.68088514,-0.09315688,24.093752,-28.875002,-36.525,0.25834787,0.049796816,0.22769782,995.8881, , , , 
2025-09-28 19:55:22.988,-0.021535404,5.3383875,8.88455,0.40339983,0.47135854,-0.076052666,24.618752,-29.081251,-35.175003,0.2600875,0.05465854,0.22810587,995.8869, , , , 
2025-09-28 19:55:23.008,-0.28713873,5.601598,8.970692,0.6086504,0.09689843,0.08277218,26.437502,-28.893751,-36.46875,0.26368505,0.059015244,0.22823955,995.8869, , , , 
2025-09-28 19:55:23.028,0.71306115,5.3479586,7.520642,0.3899608,-0.3172679,0.1310305,26.306252,-29.306252,-33.1875,0.27288425,0.06044535,0.22957283,995.88495, , , , 
2025-09-28 19:55:23.048,-0.047856454,5.1732826,8.781659,0.11446079,-0.53962266,-0.051007207,27.4125,-28.2,-33.206253,0.27660984,0.056534126,0.22871326,995.88495, , , , 
2025-09-28 19:55:23.068,-0.24646074,5.2426744,8.669196,0.105908684,-0.63552845,-0.026572619,25.968752,-30.31875,-34.0125,0.27804255,0.051732026,0.22650017,995.86395, , , , 
2025-09-28 19:55:23.088,0.19381863,5.3336015,7.3435726,-0.027870705,-0.3172679,-0.017409647,25.143751,-30.900002,-35.5875,0.2789812,0.04905856,0.22518419,995.86395, , , , 
2025-09-28 19:55:23.108,0.5096712,5.3383875,7.776674,-0.211741,0.04741838,-0.04734202,21.75,-29.2875,-32.081253,0.27882263,0.047541562,0.22433014,995.8559, , , , 
2025-09-28 19:55:23.128,0.4642076,5.2689953,8.0614195,-0.2410625,0.1512654,-0.065667965,26.775002,-28.612501,-35.737503,0.277508,0.04780878,0.2242553,995.8559, , , , 
2025-09-28 19:55:23.148,0.41874397,5.0823555,8.580662,-0.2325104,0.16042836,-0.10537417,27.562502,-29.025002,-35.325,0.27503935,0.04876869,0.2241002,995.8354, , , , 
2025-09-28 19:55:23.168,0.8350951,3.9984066,8.975478,-0.15737404,0.16103923,-0.24953826,26.38125,-29.6625,-33.6375,0.2719417,0.049214948,0.22360222,995.8354, , , , 
2025-09-28 19:55:23.188,0.050249275,4.386044,9.284152,0.09491312,0.011988222,-0.5183188,24.4125,-30.000002,-33.24375,0.26919582,0.04959006,0.22017747,995.8068, , , , 
2025-09-28 19:55:23.208,-0.16031912,5.6470613,8.327023,0.23968807,-0.10468695,-0.29596397,25.5375,-29.38125,-32.325,0.27081683,0.05090391,0.21480875,995.8068, , , , 
2025-09-28 19:55:23.228,-0.0741775,5.7284174,7.8173513,0.1663843,0.08590286,-0.21471897,27.187502,-28.593752,-33.61875,0.2718179,0.05137721,0.21348776,995.8068, , , , 
2025-09-28 19:55:23.248,0.040677983,5.8193445,7.63789,-0.14576761,0.46952593,-0.011300999,27.300001,-29.04375,-37.0125,0.2716639,0.054972485,0.21294352,995.77826, , , , 
2025-09-28 19:55:23.268,-0.17467605,5.3910294,8.970692,-0.29420775,0.5342776,0.07666353,24.656252,-28.612501,-31.2,0.266804,0.06138842,0.2157241,995.74945, , , , 
2025-09-28 19:55:23.288,-0.26081768,5.151747,9.107083,-0.18180864,0.41943502,0.109650224,25.9125,-27.6,-33.54375,0.26360792,0.065019175,0.21795402,995.74945, , , , 
2025-09-28 19:55:23.308,-0.19381863,5.2139606,8.762517,-0.082848534,0.32169667,0.12797616,25.687502,-28.743752,-33.91875,0.26262027,0.06641653,0.21899459,995.74945, , , , 
2025-09-28 19:55:23.328,0.09092726,5.2283173,8.078169,-0.046807513,0.36690065,0.14752385,26.2875,-29.94375,-31.593752,0.26134235,0.06948079,0.22169092,995.7443, , , , 
2025-09-28 19:55:23.348,0.031106694,5.1493545,8.269595,-0.0816268,0.39805475,0.1065959,27.375002,-28.425001,-34.893753,0.2600667,0.07249212,0.2238962,995.7443, , , , 
2025-09-28 19:55:23.368,-0.44506502,5.06082,8.5112705,-0.087124586,0.3192532,0.076052666,27.937502,-30.618752,-33.43125,0.25815436,0.07606748,0.22601433,995.7209, , , , 
2025-09-28 19:55:23.388,-0.37806597,5.123033,8.547162,-0.045585785,0.1909716,0.110871956,28.7625,-28.687502,-32.381252,0.25669476,0.07856743,0.2278817,995.6872, , , , 
2025-09-28 19:55:23.408,-0.31106696,5.1206403,8.228917,-0.031535894,0.16714787,0.12370012,26.325,-28.331251,-31.237501,0.2560807,0.07979998,0.22941568,995.6872, , , , 
2025-09-28 19:55:23.428,-0.2009971,5.0392847,8.286345,-0.056581352,0.16165009,0.113926284,28.9125,-31.125002,-35.98125,0.25578296,0.08035074,0.23019688,995.66034, , , , 
2025-09-28 19:55:23.448,-0.2943172,4.9316072,8.695518,-0.05780308,0.12438734,0.08643737,27.6375,-28.650002,-35.362503,0.25511298,0.08118317,0.23162907,995.66034, , , , 
2025-09-28 19:55:23.469,-0.31585258,5.087141,8.398808,-0.005268709,0.08773545,0.07177661,26.268751,-29.325,-31.781252,0.2538681,0.08202709,0.23312089,995.63275, , , , 
2025-09-28 19:55:23.488,-0.21535404,5.194818,8.233703,-0.04130973,0.117056966,0.07666353,28.35,-30.093752,-33.1875,0.25369588,0.08262486,0.23405333,995.63275, , , , 
2025-09-28 19:55:23.508,-0.19621146,5.0775695,8.350951,-0.067576915,0.11827869,0.06139191,26.625002,-29.6625,-30.88125,0.2533656,0.083256386,0.23510247,995.60565, , , , 
2025-09-28 19:55:23.528,-0.32063824,5.0656056,8.379665,-0.06513346,0.08468113,0.037568185,27.31875,-29.212502,-31.125002,0.25290844,0.08360657,0.23573472,995.60565, , , , 
2025-09-28 19:55:23.548,-0.2727818,5.096712,8.420342,-0.07002038,0.07063124,0.023518294,27.2625,-29.475,-31.10625,0.25228104,0.083993904,0.23627536,995.58954, , , , 
2025-09-28 19:55:23.568,-0.3804588,5.111069,8.640483,-0.06207913,0.022983788,0.012522728,28.781252,-29.19375,-30.825,0.25154006,0.08414834,0.23671146,995.58954, , , , 
2025-09-28 19:55:23.588,-0.35174492,5.0656056,8.508878,-0.03886627,0.009544762,0.024740024,28.81875,-29.906252,-33.7125,0.2510687,0.08410846,0.23695816,995.5761, , , , 
2025-09-28 19:55:23.608,-0.33020952,5.127819,8.389236,-0.044364054,0.024205517,0.03329213,27.806252,-27.54375,-32.193752,0.25084653,0.08408671,0.23722544,995.5761, , , , 
2025-09-28 19:55:23.628,-0.4019942,5.0536413,8.422736,-0.06024654,-0.036270097,0.03573559,26.531252,-28.1625,-33.581253,0.25049835,0.08377719,0.23775256,995.5656, , , , 
2025-09-28 19:55:23.648,-0.3684947,5.0656056,8.26481,-0.03092503,-0.07903063,0.04978548,27.206251,-28.35,-31.931252,0.25038,0.08314347,0.23798351,995.5656, , , , 
2025-09-28 19:55:23.668,-0.3804588,5.020142,8.066205,-0.030314164,-0.013668099,0.07238748,26.175001,-29.831251,-31.275002,0.25059566,0.082571246,0.23836005,995.57245, , , , 
2025-09-28 19:55:23.688,-0.16510476,5.0847483,8.147561,-0.03092503,-0.028939718,0.07666353,26.437502,-28.44375,-30.768751,0.2506953,0.08240624,0.23885672,995.57245, , , , 
2025-09-28 19:55:23.708,-0.023928227,4.9340005,7.9920278,-0.008933897,-0.22930336,-0.0027488915,28.3875,-28.35,-32.53125,0.2516543,0.079743706,0.23905355,995.5861, , , , 
2025-09-28 19:55:23.729,-0.25842485,4.8119664,7.908279,-0.041920595,-0.18837543,-0.009468404,28.575,-29.175001,-36.05625,0.25194326,0.07866225,0.23880522,995.5861, , , , 
2025-09-28 19:55:23.748,-0.33020952,4.706682,8.23131,-0.0193186,-0.25068364,0.066889696,28.687502,-28.5375,-35.79375,0.2514707,0.07674436,0.23861896,995.6208, , , , 
2025-09-28 19:55:23.768,0.22731815,4.5248275,8.166703,0.09185879,-0.6135373,0.10109812,25.218752,-28.9125,-33.54375,0.2525729,0.072749,0.23835588,995.6208, , , , 
2025-09-28 19:55:23.788,1.8520447,4.254439,6.62094,0.17432554,-1.0295362,0.10537417,28.706251,-26.925001,-34.5,0.25494102,0.066510305,0.23773466,995.65106, , , , 
2025-09-28 19:55:23.808,1.9190438,4.314259,4.941179,0.21708608,-1.504789,0.15424335,25.125002,-28.050001,-34.66875,0.26307005,0.049732413,0.2357295,995.65106, , , , 
2025-09-28 19:55:23.828,2.1894326,4.208975,3.495914,0.13767365,-1.8285474,0.20066908,23.98125,-29.925001,-32.737503,0.26941562,0.033904597,0.23324051,995.66425, , , , 
2025-09-28 19:55:23.848,2.5746772,3.8261235,1.5002998,-0.13293944,-2.448575,0.22021675,23.98125,-30.13125,-36.28125,0.27630892,0.008375417,0.22864272,995.66425, , , , 
2025-09-28 19:55:23.868,2.7732813,3.0987053,1.1892328,-0.4237111,-2.715523,0.205556,21.806252,-30.000002,-35.90625,0.27921388,-0.010519491,0.2248786,995.654, , , , 
2025-09-28 19:55:23.890,2.5339992,2.1224337,1.1485549,-0.7731257,-3.221319,0.3234529,19.5,-29.456251,-39.862503,0.28095886,-0.046095666,0.21778113,995.654, , , , 
2025-09-28 19:55:23.908,2.9742785,1.3064811,2.4933212,-0.9820415,-4.0814166,0.44440413,17.53125,-29.775002,-39.80625,0.28068054,-0.081800774,0.21088822,995.65765, , , , 
2025-09-28 19:55:23.928,2.7469604,0.60059845,4.723432,-0.9893719,-4.5878234,0.66065025,14.6625,-29.681252,-42.600002,0.27958843,-0.12466435,0.203011,995.65765,37.88836888,127.73984359,144.758544921875,0.28
2025-09-28 19:55:23.948,1.942972,-0.011964113,2.7708886,-1.0357976,-4.404564,1.1230749,8.306251,-29.212502,-41.943752,0.27808124,-0.1699489,0.19707285,995.6777, , , , 
2025-09-28 19:55:23.968,3.3690944,-0.49052864,1.8448663,-1.3619994,-4.234133,1.5525129,6.5625005,-27.862501,-45.09375,0.27287012,-0.21413392,0.19547608,995.6777, , , , 
2025-09-28 19:55:23.988,3.9577286,-1.0648061,2.0315065,-1.5422045,-4.7417617,1.7767003,3.24375,-27.712502,-45.825,0.26656574,-0.24897934,0.1955167,995.69354, , , , 
2025-09-28 19:55:24.008,5.2977095,-2.1176481,2.2636101,-1.6882012,-5.466858,2.1951425,0.4875,-25.500002,-46.912502,0.25667518,-0.30243373,0.19565088,995.69354, , , , 
2025-09-28 19:55:24.028,7.2095747,-3.1513474,4.7306104,-1.8598542,-5.0630765,2.5928156,-10.743751,-23.04375,-46.0125,0.23925403,-0.37189305,0.1984063,995.7126, , , , 
2025-09-28 19:55:24.048,7.771888,-3.5772698,5.6877394,-1.3656646,-4.6195884,2.8915284,-15.4875,-20.925001,-43.95,0.21899767,-0.43466637,0.2059763,995.7126, , , , 
2025-09-28 19:55:24.068,8.499306,-4.15394,3.37388,-1.3247366,-4.337369,3.2354453,-20.118752,-19.9125,-43.518753,0.20283426,-0.4801063,0.21651201,995.747, , , , 
2025-09-28 19:55:24.088,10.877771,-4.7784667,2.9479575,-1.5831324,-3.704513,3.4865108,-24.50625,-17.00625,-43.21875,0.18277605,-0.5221023,0.22929455,995.747, , , , 
2025-09-28 19:55:24.108,10.444671,-5.534599,3.318845,-1.7407355,-3.2707992,3.6221228,-30.375002,-13.89375,-40.612503,0.15859401,-0.5586941,0.24252874,995.7636, , , , 
2025-09-28 19:55:24.128,11.284552,-6.218946,3.8165522,-1.7303509,-2.905502,3.7931647,-32.025,-9.712501,-40.36875,0.13157718,-0.59136575,0.2566811,995.7636, , , , 
2025-09-28 19:55:24.148,14.395221,-6.410372,5.0368915,-1.5703043,-2.1382558,3.6642723,-34.74375,-7.0312505,-37.162502,0.0957965,-0.62414175,0.27557924,995.7863, , , , 
2025-09-28 19:55:24.168,13.30888,-6.506085,5.0129633,-1.2996912,-1.8853577,3.3655596,-37.162502,-2.1937501,-35.79375,0.07580736,-0.6391818,0.2863503,995.7863, , , , 
2025-09-28 19:55:24.188,12.007184,-7.1186476,4.8765726,-0.9563852,-2.1620796,3.335627,-35.9625,-0.24375,-31.556252,0.052361913,-0.6573876,0.30113623,995.8129, , , , 
2025-09-28 19:55:24.208,11.229517,-7.5589266,4.316652,-0.55565786,-2.4821727,3.4895651,-35.943752,3.2625,-33.91875,0.037111957,-0.6713124,0.31397828,995.8129, , , , 
2025-09-28 19:55:24.228,13.339986,-7.728817,1.4093726,-0.37728536,-1.7589087,3.5097237,-39.075,6.0375004,-31.893751,0.008118383,-0.69493526,0.34364682,995.8195, , , , 
2025-09-28 19:55:24.248,11.99522,-8.094919,0.9810573,-0.5764273,-1.1229986,3.3429575,-37.10625,10.087501,-30.7875,-0.01839583,-0.70711464,0.3652028,995.8195, , , , 
2025-09-28 19:55:24.268,11.547762,-8.56152,1.1653047,-0.60330534,-1.0454187,3.2763731,-37.78125,11.75625,-31.425001,-0.040843043,-0.7141898,0.3805005,995.8183, , , , 
2025-09-28 19:55:24.288,11.205588,-8.915657,0.9906286,-0.5635991,-1.0051017,3.2152867,-38.775,16.368752,-29.718752,-0.062642924,-0.7201929,0.39511943,995.8183, , , , 
2025-09-28 19:55:24.309,11.3371935,-9.267402,0.30149564,-0.5464949,-0.9208023,3.1890197,-36.506252,19.087502,-28.275002,-0.08410791,-0.72499204,0.40930244,995.81757, , , , 
2025-09-28 19:55:24.329,11.523834,-9.298509,0.11006984,-0.5519927,-0.88048524,3.16092,-37.425003,18.112501,-28.425001,-0.08944779,-0.726012,0.4127183,995.81757, , , , 
2025-09-28 19:55:24.348,11.356337,-9.217153,-0.81834537,-0.6784417,-0.520075,2.8225007,-33.787502,25.218752,-28.743752,-0.12077874,-0.7304459,0.4301058,995.8051, , , , 
2025-09-28 19:55:24.368,10.679168,-9.446864,-0.5096712,-0.87697273,-0.22197299,2.6313,-34.818752,27.581251,-26.775002,-0.14735329,-0.7322336,0.43994755,995.8051, , , , 
2025-09-28 19:55:24.388,11.066805,-9.387043,0.0071784677,-0.88247055,-0.115071654,2.460258,-32.98125,27.2625,-25.706251,-0.16317342,-0.73273945,0.44440058,995.80414, , , , 
2025-09-28 19:55:24.408,10.734202,-9.51147,0.33020952,-0.8268818,-0.08269582,2.25684,-32.100002,28.837502,-25.125002,-0.18278241,-0.7327528,0.44913027,995.80414, , , , 
2025-09-28 19:55:24.428,10.987842,-9.162118,0.71306115,-0.713261,-0.09430225,2.0369287,-31.5375,30.150002,-25.406252,-0.19603369,-0.7324949,0.45231178,995.80414, , , , 
2025-09-28 19:55:24.448,9.68136,-8.700303,0.038285162,-0.6020836,0.11217005,1.619708,-28.050001,33.487503,-26.268751,-0.22207583,-0.7306481,0.45790586,995.8107, , , , 
2025-09-28 19:55:24.468,9.245867,-8.377272,0.44027936,-0.53672105,0.1494328,1.4114031,-28.06875,33.487503,-25.800001,-0.23198059,-0.72950727,0.45929813,995.80414, , , , 
2025-09-28 19:55:24.488,9.233903,-8.032705,0.85902333,-0.39622217,0.16226095,1.2379174,-28.368752,35.175003,-22.0125,-0.24336527,-0.72772366,0.4610675,995.80414, , , , 
2025-09-28 19:55:24.508,8.597412,-7.692925,0.023928227,-0.22701262,0.3174206,0.8872811,-23.4375,35.325,-26.250002,-0.25459585,-0.7246409,0.4630226,995.8056, , , , 
2025-09-28 19:55:24.529,7.925029,-7.7120676,0.13878371,-0.13477205,0.2691623,0.6496547,-24.956251,36.018753,-23.643751,-0.26306635,-0.7215967,0.46401018,995.8056, , , , 
2025-09-28 19:55:24.548,7.578069,-7.6713896,0.05742774,-0.04497492,0.15554145,0.5513055,-23.71875,35.53125,-24.375002,-0.26544943,-0.7205453,0.46455002,995.7824, , , , 
2025-09-28 19:55:24.568,7.245467,-7.456035,-0.33738798,0.034437504,0.055970486,0.4566214,-23.681252,35.79375,-23.775002,-0.26875713,-0.7187468,0.46612674,995.7824, , , , 
2025-09-28 19:55:24.588,7.183254,-7.3459654,-1.174876,0.055817768,0.1512654,0.15790854,-25.706251,35.943752,-23.56875,-0.2712066,-0.7166354,0.46781623,995.7597, , , , 
2025-09-28 19:55:24.608,6.276374,-7.635497,-1.3280165,-0.067576915,0.14271328,0.059559315,-23.8125,37.5,-21.69375,-0.27207685,-0.71588016,0.46730506,995.7597, , , , 
2025-09-28 19:55:24.628,6.4343,-7.611569,-1.0217353,-0.0816268,0.11033745,0.03451386,-21.375,37.65,-25.66875,-0.2722939,-0.71580786,0.46706095,995.7597, , , , 
2025-09-28 19:55:24.648,5.9724855,-7.8436728,-0.02632105,0.04176788,0.00160352,-0.068722285,-23.90625,36.881252,-23.34375,-0.2720398,-0.71583,0.4656758,995.7482, , , , 
2025-09-28 19:55:24.668,5.6853466,-7.9944205,-0.24885355,0.19142975,-0.023441937,-0.08949169,-23.56875,36.412502,-23.04375,-0.27049917,-0.7154215,0.4660809,995.73505, , , , 
2025-09-28 19:55:24.688,4.8909297,-7.984849,-0.5599205,0.25068364,-0.118125975,-0.08949169,-19.7625,38.2125,-27.093752,-0.2688025,-0.71497136,0.46693358,995.73505, , , , 
2025-09-28 19:55:24.708,5.6877394,-8.135597,0.22492532,0.5310706,-0.5451205,0.023518294,-24.2625,35.2125,-21.825,-0.2645433,-0.71431416,0.47143963,995.71234, , , , 
2025-09-28 19:55:24.728,4.7976093,-8.17149,-1.0097711,0.5756637,-0.7430406,0.00641408,-23.550001,37.162502,-23.25,-0.2613509,-0.7145972,0.4743287,995.71234, , , , 
2025-09-28 19:55:24.748,4.974678,-8.176275,-2.1008983,0.4406626,-0.3832413,0.1640172,-24.712502,37.18125,-24.056252,-0.2543534,-0.71445036,0.48235872,995.68085, , , , 
2025-09-28 19:55:24.768,5.8360944,-7.9800634,-1.8735801,0.3331504,-0.082084954,0.14569125,-23.325,36.825,-23.71875,-0.25255328,-0.7134206,0.48598853,995.68085, , , , 
2025-09-28 19:55:24.788,6.2380886,-7.6019974,-1.3878372,0.32520914,0.13660464,-0.024129158,-24.956251,36.018753,-23.643751,-0.2516294,-0.7117271,0.48790944,995.6503, , , , 
2025-09-28 19:55:24.808,5.879165,-7.539784,-1.4237294,0.3362047,0.2880991,-0.19578215,-24.618752,36.075,-25.85625,-0.25004435,-0.70973074,0.4888584,995.6503, , , , 
2025-09-28 19:55:24.828,6.2237315,-7.1808605,-1.6319051,0.38018698,0.05780308,-0.34666577,-25.1625,34.78125,-25.725,-0.24720834,-0.7080087,0.4893437,995.623, , , , 
2025-09-28 19:55:24.848,7.379465,-6.7645097,-2.2061825,0.3759109,-0.33009607,-0.6197223,-25.050001,34.66875,-25.875002,-0.24270575,-0.7081313,0.4896817,995.623, , , , 
2025-09-28 19:55:24.868,7.025327,-6.991828,-2.603391,0.14317143,-0.9238566,-1.063821,-25.593752,35.71875,-23.71875,-0.22630483,-0.71408,0.48811662,995.60834, , , , 
2025-09-28 19:55:24.888,7.04447,-6.948757,-1.174876,-0.057192214,-0.68745196,-1.0448842,-25.275002,37.03125,-27.843752,-0.21448454,-0.72019273,0.4849181,995.60834, , , , 
2025-09-28 19:55:24.908,7.9346,-6.6855464,-0.21535404,-0.12866339,-0.12667808,-1.0430516,-28.612501,35.0625,-26.456251,-0.2047502,-0.7248655,0.48027554,995.6213, , , , 
2025-09-28 19:55:24.928,7.783852,-6.151947,0.47377887,-0.15248711,0.33696827,-0.94042635,-30.018751,31.9125,-24.900002,-0.1997045,-0.72653335,0.47586736,995.6213,37.88836888,127.73984359,144.758544921875,0.28
2025-09-28 19:55:24.948,9.317652,-5.994021,1.2107682,-0.1042288,0.5141191,-0.833525,-27.6,32.175003,-26.250002,-0.19554597,-0.7266869,0.4698501,995.6442, , , , 
2025-09-28 19:55:24.968,11.787045,-6.1806607,2.091327,0.1297324,0.20563236,-0.9972367,-28.781252,32.90625,-25.087502,-0.19154228,-0.7264471,0.46594742,995.6442, , , , 
2025-09-28 19:55:24.989,13.091133,-7.420143,1.875973,0.91652626,-0.90064377,-1.4443898,-30.656252,32.34375,-25.1625,-0.1669045,-0.72863233,0.4626897,995.66156, , , , 
2025-09-28 19:55:25.008,13.940585,-7.350751,0.27517462,1.1297181,-1.025871,-1.5775583,-29.625002,30.843752,-25.95,-0.1454368,-0.7306458,0.4641524,995.66156, , , , 
2025-09-28 19:55:25.028,14.971891,-7.4847493,-0.8566305,1.0270928,-0.71677345,-1.750433,-29.775002,29.23125,-27.69375,-0.1294835,-0.7314943,0.4645033,995.6718, , , , 
2025-09-28 19:55:25.048,14.373686,-6.8219376,-0.91884387,0.3917934,0.7126501,-1.9660683,-33.112503,27.487501,-24.0,-0.10892825,-0.7297449,0.45875397,995.6718, , , , 
2025-09-28 19:55:25.068,13.46202,-6.5228343,-0.30388847,0.4486038,0.010155627,-2.2183554,-33.99375,25.275002,-24.562502,-0.09213731,-0.7288096,0.45050657,995.67694, , , , 
2025-09-28 19:55:25.088,12.914063,-6.6568327,0.971486,0.49502954,0.050472703,-2.5408921,-33.9375,24.675001,-26.85,-0.072757155,-0.7283883,0.44121447,995.67694, , , , 
2025-09-28 19:55:25.108,11.770294,-6.6017976,0.17228323,0.7754165,-0.21586435,-2.635576,-37.050003,21.618752,-26.493752,-0.05032669,-0.72729087,0.43225026,995.68085, , , , 
2025-09-28 19:55:25.128,11.904293,-6.721439,-1.0313065,0.6941715,-0.2824486,-2.7858489,-37.03125,18.88125,-24.806252,-0.019818066,-0.7261271,0.42101735,995.68085, , , , 
2025-09-28 19:55:25.148,11.85165,-7.0085773,-1.2969099,0.48831004,-0.11323906,-2.978882,-38.943752,16.6875,-24.7875,0.0049641933,-0.72530997,0.40949634,995.67426, , , , 
2025-09-28 19:55:25.168,11.590833,-7.233503,-1.1557333,0.22747077,0.2758818,-3.024697,-40.96875,14.493751,-26.306252,0.027180277,-0.72270477,0.3954159,995.67426, , , , 
2025-09-28 19:55:25.188,12.014362,-7.5900335,-0.86859465,0.13584106,-0.04848739,-3.2085671,-41.9625,12.525001,-25.931252,0.04960281,-0.72056293,0.37935847,995.65814, , , , 
2025-09-28 19:55:25.208,12.672389,-7.726424,-0.30388847,0.11995857,-0.16332997,-3.3539531,-42.16875,8.887501,-22.931252,0.06142134,-0.71974206,0.37062067,995.65814, , , , 
2025-09-28 19:55:25.228,10.372886,-8.087741,-0.148355,0.07841977,-0.41134107,-3.4791803,-41.5875,4.9875,-26.00625,0.09321738,-0.718303,0.34731027,995.64716, , , , 
2025-09-28 19:55:25.248,9.468399,-7.422536,-0.89730847,-0.10483967,0.033368487,-3.4437501,-42.581253,1.5187501,-25.3875,0.12347321,-0.7153788,0.32288998,995.64716, , , , 
2025-09-28 19:55:25.268,8.618947,-7.099505,-0.485743,-0.3907244,0.2135736,-3.3789985,-45.300003,-2.3812501,-24.2625,0.14957613,-0.71008664,0.29640037,995.6408, , , , 
2025-09-28 19:55:25.288,6.728617,-7.0372915,0.9451649,-0.3540725,0.3577377,-3.1529787,-45.15,-5.45625,-25.968752,0.16788207,-0.7045522,0.27520898,995.6408, , , , 
2025-09-28 19:55:25.308,5.8265233,-6.2548385,1.119841,-0.084070265,0.6118574,-2.7803512,-44.04375,-6.99375,-22.893751,0.18422307,-0.6968657,0.25770178,995.6442, , , , 
2025-09-28 19:55:25.328,5.17089,-5.532206,0.60777694,0.083306685,0.39805475,-2.4944663,-44.60625,-10.63125,-24.956251,0.19577949,-0.6906673,0.24685875,995.6442, , , , 
2025-09-28 19:55:25.348,4.7042894,-5.070391,0.45942193,0.21403174,-0.17066035,-2.1755948,-41.41875,-11.6625,-27.075,0.21493992,-0.6835161,0.23118582,995.6579, , , , 
2025-09-28 19:55:25.368,3.306881,-4.4913282,-0.44985065,0.25923574,-0.3184896,-1.7773111,-42.2625,-12.88125,-25.5375,0.22944173,-0.6807018,0.22030088,995.6579, , , , 
2025-09-28 19:55:25.388,3.3427732,-4.017549,-1.0600204,0.17554727,-0.074143715,-1.2654064,-42.45,-13.762501,-25.7625,0.24078484,-0.67805773,0.21244848,995.67255, , , , 
2025-09-28 19:55:25.409,3.3643086,-4.5296135,-1.6606189,-0.14515674,-0.12240203,-0.86529,-41.325,-14.775001,-26.1375,0.24926032,-0.67600304,0.20468393,995.67255, , , , 
2025-09-28 19:55:25.428,3.1130621,-3.6370904,-1.4141582,-0.53855366,-0.6294198,-0.59284425,-40.93125,-17.212502,-26.6625,0.25085548,-0.67872274,0.19872823,995.68646, , , , 
2025-09-28 19:55:25.448,3.7328033,-4.3812585,0.37806597,0.005726857,0.07246383,0.08093958,-39.862503,-17.831251,-27.975,0.2502388,-0.68045485,0.19530894,995.68646, , , , 
2025-09-28 19:55:25.468,3.37388,-5.7116675,-0.5982057,0.20059273,0.2691623,0.53236866,-41.737503,-15.431251,-26.831251,0.24776703,-0.6800572,0.19973396,995.7082, , , , 
2025-09-28 19:55:25.488,3.845266,-5.852844,-0.6795616,0.18043418,0.1928042,0.92271125,-39.112503,-14.043751,-26.868752,0.24386704,-0.6802614,0.20559716,995.7082, , , , 
2025-09-28 19:55:25.508,4.15394,-5.879165,0.078963146,0.05337431,-0.18226677,1.4553853,-40.74375,-16.3125,-27.0375,0.23386535,-0.684047,0.21699359,995.7277, , , , 
2025-09-28 19:55:25.528,4.3118663,-5.9270215,1.1724831,0.21219915,-0.08758274,1.8713843,-43.800003,-13.05,-23.8125,0.22288217,-0.6886226,0.22906807,995.7277, , , , 
2025-09-28 19:55:25.548,5.8600225,-5.9246287,2.3401806,0.57322025,-0.31360272,2.1083999,-45.15,-13.200001,-23.362501,0.21393438,-0.6919018,0.24105428,995.7802, , , , 
2025-09-28 19:55:25.568,5.503492,-5.615955,0.30388847,1.2219586,-0.4901426,2.0882413,-44.4,-10.89375,-22.181252,0.20338322,-0.6976363,0.26485723,995.7802, , , , 
2025-09-28 19:55:25.588,5.65424,-5.733203,-2.5938199,1.1333833,-0.16332997,2.324646,-44.0625,-9.1125,-21.54375,0.19431981,-0.701687,0.29222387,995.84393, , , , 
2025-09-28 19:55:25.608,5.2905307,-6.029913,-3.182454,0.5481748,-0.052763447,2.6062546,-45.09375,-7.8375,-23.362501,0.18197684,-0.70464176,0.3129701,995.84393, , , , 
2025-09-28 19:55:25.628,6.4677997,-6.814759,-2.644069,0.12728895,-0.072921984,2.825555,-46.143753,-6.4687505,-22.556252,0.16908625,-0.70831066,0.3269499,995.9145, , , , 
2025-09-28 19:55:25.648,6.300302,-8.216953,-2.5339992,-0.2618319,-0.041157015,3.028362,-42.862503,-4.6312504,-21.768751,0.14819074,-0.71392757,0.3438161,995.9145, , , , 
2025-09-28 19:55:25.668,6.7405815,-8.977871,-2.6536403,-0.5587122,0.04925097,3.2928667,-44.68125,0.76875,-22.03125,0.12917161,-0.7184048,0.35583544,995.9145, , , , 
2025-09-28 19:55:25.688,8.642876,-9.501899,-1.9477576,-1.0278563,-0.2183078,3.4003787,-44.081253,5.83125,-23.325,0.07893566,-0.73080206,0.37960523,995.97406, , , , 
2025-09-28 19:55:25.708,7.726424,-9.803394,-1.2083755,-1.0522909,-0.4058433,3.4773479,-43.0875,9.39375,-22.5375,0.049504142,-0.73885065,0.39095864,995.987, , , , 
2025-09-28 19:55:25.728,8.573483,-10.849058,-0.16749759,-0.9679916,-0.4473821,3.6844308,-43.5,12.468751,-21.900002,0.026921159,-0.74469525,0.39993408,995.987, , , , 
2025-09-28 19:55:25.748,9.066405,-11.260623,-0.3493521,-0.9160681,0.13355032,3.8096583,-42.525,16.03125,-20.04375,-0.012594889,-0.75046045,0.41597167,995.9687, , , , 
2025-09-28 19:55:25.769,8.700303,-11.253445,-0.2943172,-0.93011796,0.71814793,3.9996371,-40.2,18.54375,-23.362501,-0.047772765,-0.75048596,0.42881924,995.9687, , , , 
2025-09-28 19:55:25.788,9.241081,-11.246266,-0.52163535,-0.95272,0.81283194,4.107149,-39.506252,20.362501,-25.406252,-0.075881004,-0.7485797,0.43828622,995.904, , , , 
2025-09-28 19:55:25.808,10.348958,-11.059627,0.28235307,-0.96005034,0.8500947,4.0649996,-37.987503,22.143751,-25.050001,-0.11354284,-0.74482524,0.44991085,995.904, , , , 
2025-09-28 19:55:25.828,12.021541,-13.409378,1.2705889,-0.82810354,0.8928552,3.8004951,-36.09375,25.800001,-23.4375,-0.15888053,-0.73766303,0.463154,995.83636, , , , 
2025-09-28 19:55:25.848,10.834701,-10.169497,0.6125626,-0.6069705,0.7774018,3.8988445,-31.368752,31.031252,-24.862501,-0.20097566,-0.72788835,0.476442,995.83636, , , , 
2025-09-28 19:55:25.868,10.987842,-9.487542,0.4977071,-0.49334967,0.88919,3.4877324,-30.093752,33.881252,-22.837502,-0.22405186,-0.7215681,0.48396233,995.7692, , , , 
2025-09-28 19:55:25.888,11.46162,-8.700303,0.5240282,-0.42615455,0.9820415,3.1725261,-29.925001,34.0125,-21.46875,-0.25263858,-0.71192706,0.4920291,995.7692, , , , 
2025-09-28 19:55:25.908,10.325029,-8.23131,-0.078963146,-0.3363574,0.86109024,2.8231115,-24.300001,37.5,-27.0375,-0.27152967,-0.7047405,0.4970974,995.7692, , , , 
2025-09-28 19:55:25.928,10.24846,-7.5637126,-0.37088752,-0.2777144,0.51106477,2.6013677,-21.975,37.706253,-23.2875,-0.2987562,-0.6940519,0.5050393,995.717,37.88836888,127.73984359,144.758544921875,0.28
2025-09-28 19:55:25.948,10.535598,-6.800402,-1.2059826,-0.36262462,0.19830199,2.1841471,-18.581251,39.693752,-27.150002,-0.32069567,-0.68569994,0.5120066,995.6818, , , , 
2025-09-28 19:55:25.968,10.84188,-6.7764735,-0.7513463,-0.38767007,0.13355032,2.0454807,-18.337502,40.331253,-25.2,-0.3282604,-0.68325096,0.51413435,995.6818, , , , 
2025-09-28 19:55:25.988,11.806187,-6.9056864,0.18424734,0.131565,0.2758818,1.6362013,-16.7625,40.237503,-24.750002,-0.34959042,-0.67398417,0.5214982,995.6535, , , , 
2025-09-28 19:55:26.008,12.179467,-7.32443,-1.8687944,0.33376125,0.39316785,1.4303399,-12.58125,41.4,-24.337502,-0.35853374,-0.66682404,0.5266454,995.6535, , , , 
2025-09-28 19:55:26.028,13.720445,-7.8723865,-3.6059837,0.19753839,0.3345248,1.2104286,-12.900001,42.112503,-22.63125,-0.36442575,-0.66193396,0.5296855,995.6401, , , , 
2025-09-28 19:55:26.048,15.163317,-8.405986,-4.2831526,-0.17753258,0.17814344,0.87262034,-12.525001,39.54375,-23.60625,-0.37064585,-0.6585684,0.5309612,995.6401, , , , 
2025-09-28 19:55:26.068,17.266607,-9.762716,-1.4644074,-0.5599339,0.037644543,0.15424335,-8.90625,41.925003,-27.056252,-0.3745934,-0.6606432,0.52693385,995.63153, , , , 
2025-09-28 19:55:26.088,17.618353,-10.284351,0.38763726,-0.47929978,0.12316561,-0.29962918,-9.84375,40.8375,-27.825,-0.37402457,-0.663627,0.52257353,995.63153, , , , 
2025-09-28 19:55:26.108,17.821743,-9.446864,0.6221339,-0.1928042,0.3088685,-1.1749984,-8.85,43.66875,-26.85,-0.36791906,-0.66890484,0.5139506,995.654, , , , 
2025-09-28 19:55:26.128,14.608182,-8.4012,0.99302137,-0.14210242,0.55749047,-1.9874486,-10.2375,41.4,-24.2625,-0.3554213,-0.67584515,0.5011821,995.654, , , , 
2025-09-28 19:55:26.149,10.707881,-8.26481,1.8592232,0.1419497,0.5782599,-2.3887868,-13.51875,41.175003,-22.987501,-0.3417132,-0.6814706,0.48918504,995.6696, , , , 
2025-09-28 19:55:26.168,8.678768,-8.437093,1.1365907,0.61659163,0.28870997,-2.4926338,-14.231251,40.5,-24.2625,-0.3289818,-0.6847043,0.48191497,995.6696, , , , 
2025-09-28 19:55:26.188,8.047063,-8.676374,-0.79441714,0.95928675,-0.2738965,-2.5103488,-16.837502,40.725002,-23.53125,-0.30801886,-0.6886575,0.47604224,995.70404, , , , 
2025-09-28 19:55:26.208,8.003992,-8.769695,-2.0027926,1.0374775,-0.9605085,-2.5280638,-19.556252,38.7,-24.825,-0.28940794,-0.69281536,0.47373694,995.70404, , , , 
2025-09-28 19:55:26.228,10.004392,-9.932607,-1.4668003,0.840779,-1.6996549,-2.7070472,-22.29375,36.693752,-25.968752,-0.24632251,-0.70606244,0.47050363,995.7165, , , , 
2025-09-28 19:55:26.248,11.60519,-10.846665,-0.1363909,0.7057779,-1.7766238,-2.961167,-25.500002,36.09375,-24.525002,-0.21477784,-0.71694535,0.4664692,995.7165, , , , 
2025-09-28 19:55:26.268,12.232109,-11.514262,0.701097,0.61598074,-1.4999021,-3.303862,-28.987501,34.7625,-25.63125,-0.18162955,-0.72751933,0.45979762,995.7338, , , , 
2025-09-28 19:55:26.288,12.378072,-11.904293,0.59581286,0.50480336,-1.1071161,-3.5659232,-27.712502,35.775,-27.675001,-0.15655382,-0.73421884,0.45259613,995.7338, , , , 
2025-09-28 19:55:26.308,11.803794,-12.854243,1.457229,0.26290092,-0.1419497,-3.9532113,-32.8875,30.862501,-23.1375,-0.108859785,-0.74297935,0.43096492,995.75214, , , , 
2025-09-28 19:55:26.328,11.770294,-13.299308,1.6007984,0.3343721,0.25450155,-4.1554074,-35.006252,26.268751,-22.2,-0.08615947,-0.7441921,0.41792277,995.75214, , , , 
2025-09-28 19:55:26.348,11.255837,-13.634303,0.80159557,0.44249517,0.40843946,-4.352717,-37.8375,26.1,-20.962502,-0.05516233,-0.7432016,0.39964464,995.7653, , , , 
2025-09-28 19:55:26.369,10.466207,-13.799408,-0.34456646,0.45532334,0.4805215,-4.444347,-38.831253,22.425001,-24.0375,-0.03135804,-0.7411886,0.38529932,995.7653, , , , 
2025-09-28 19:55:26.388,10.006784,-13.550554,-0.36131623,0.40950847,0.4145481,-4.5268135,-39.46875,16.275002,-25.331251,0.0082711335,-0.7365296,0.35984442,995.78046, , , , 
2025-09-28 19:55:26.408,8.616554,-13.411771,-0.3493521,0.39973465,0.19830199,-4.568352,-40.443752,14.531251,-22.35,0.040656086,-0.73229706,0.33837107,995.78046, , , , 
2025-09-28 19:55:26.428,6.74776,-12.430714,0.22971097,0.41134107,-0.3087158,-4.3918123,-42.15,8.6625,-26.156252,0.089654356,-0.72698736,0.30570078,995.80096, , , , 
2025-09-28 19:55:26.448,6.407979,-11.827723,0.2943172,0.44249517,-0.44127345,-4.311178,-43.143753,4.6687503,-23.5125,0.10591707,-0.7254641,0.29500133,995.80096, , , , 
2025-09-28 19:55:26.468,4.1587257,-10.899307,-0.47377887,0.4021781,-0.49808386,-4.022239,-43.7625,-2.1000001,-24.281252,0.15337197,-0.7205354,0.26366454,995.8044, , , , 
2025-09-28 19:55:26.488,2.4478576,-10.167104,-0.9762716,0.19876012,-0.15111268,-3.5909686,-45.9,-5.30625,-23.41875,0.18102607,-0.7161195,0.24383737,995.8044, , , , 
2025-09-28 19:55:26.508,0.90448695,-9.920643,-1.3208381,0.020998476,0.15248711,-3.0857835,-43.29375,-7.65,-23.56875,0.20352563,-0.71008784,0.22568482,995.7985, , , , 
2025-09-28 19:55:26.528,-0.35413775,-9.91825,-0.83748794,-0.04130973,0.08834632,-2.4498732,-43.875,-10.575001,-23.94375,0.2207827,-0.7040323,0.21015692,995.7985, , , , 
2025-09-28 19:55:26.548,-0.8805587,-9.363115,-0.7800602,0.0240528,-0.11262819,-1.7394375,-44.04375,-12.825001,-23.8125,0.23372357,-0.7000956,0.19843152,995.80975, , , , 
2025-09-28 19:55:26.568,-1.038485,-8.733803,-1.2634103,-0.015042545,-0.0032833982,-1.1053598,-42.300003,-13.650001,-23.79375,0.24241851,-0.69795877,0.19086859,995.80975, , , , 
2025-09-28 19:55:26.588,-2.4502504,-8.664411,-1.2442678,-0.1476002,0.2709949,-0.38820457,-41.30625,-14.55,-23.681252,0.24624099,-0.69567925,0.1865057,995.8129, , , , 
2025-09-28 19:55:26.609,-2.955136,-9.298509,-0.7920243,-0.1512654,0.32169667,0.3924806,-41.53125,-14.306251,-25.518751,0.24303375,-0.69477654,0.18797164,995.8129, , , , 
2025-09-28 19:55:26.628,-2.4670002,-10.533205,-1.6079768,-0.11950042,0.18730642,1.1847723,-42.5625,-17.268751,-25.25625,0.23469567,-0.6960696,0.1946965,995.8227, , , , 
2025-09-28 19:55:26.648,-1.7850457,-10.676775,-1.9094725,-0.31986406,-0.010002911,2.1096215,-43.631252,-13.781251,-24.4125,0.2205436,-0.70046824,0.2057043,995.8227, , , , 
2025-09-28 19:55:26.668,0.13878371,-10.657632,-0.22971097,-0.46586075,-0.0570395,2.8194463,-43.875,-12.69375,-23.0625,0.19986044,-0.7073301,0.21992278,995.8151, , , , 
2025-09-28 19:55:26.688,2.132005,-10.925629,0.96430755,-0.3491856,-0.089415334,3.3380706,-42.84375,-10.70625,-25.9125,0.17451514,-0.7146511,0.23766342,995.8151, , , , 
2025-09-28 19:55:26.708,4.17069,-11.440085,0.81595254,-0.08956805,-0.25068364,3.6624398,-43.29375,-7.65,-23.56875,0.14732295,-0.7217402,0.25904232,995.81976, , , , 
2025-09-28 19:55:26.728,5.2977095,-12.287145,-0.5072784,0.09735657,-0.49991646,3.9018989,-44.775,-1.95,-23.8875,0.113335036,-0.7305844,0.28918242,995.81976, , , , 
2025-09-28 19:55:26.748,6.3696938,-13.138989,-1.4835501,0.09308052,-0.60254174,4.1291404,-43.85625,-0.26250002,-22.837502,0.08534747,-0.7376915,0.314549,995.809, , , , 
2025-09-28 19:55:26.768,7.0612197,-13.873586,-1.7826529,-0.033368487,-0.42233664,4.331948,-43.631252,3.6375,-24.31875,0.055190057,-0.7436397,0.33987033,995.809, , , , 
2025-09-28 19:55:26.788,7.60439,-13.749159,-1.5361922,-0.21418446,-0.066813335,4.560411,-44.2125,8.2875,-21.75,0.021888306,-0.74722457,0.36459675,995.7734, , , , 
2025-09-28 19:55:26.808,8.707481,-13.083954,-1.3423735,-0.37239844,0.28687736,4.5854564,-43.0125,14.137501,-22.66875,-0.014252116,-0.74789786,0.38794652,995.7734, , , , 
2025-09-28 19:55:26.828,9.102298,-12.981063,-1.3016955,-0.57092947,0.519006,4.485275,-40.40625,18.375,-21.6375,-0.05169014,-0.7460405,0.40857676,995.759, , , , 
2025-09-28 19:55:26.848,9.202796,-13.155739,-0.38285163,-0.7230348,0.49212793,4.386925,-37.7625,22.5375,-24.618752,-0.09885502,-0.7418541,0.43030074,995.759, , , , 
2025-09-28 19:55:26.868,9.303294,-13.426127,0.19381863,-0.713261,0.33391395,4.3679886,-37.706253,25.650002,-25.125002,-0.12638076,-0.73884517,0.44218865,995.7441, , , , 
2025-09-28 19:55:26.888,9.769895,-13.627125,0.9667004,-0.5916989,0.14332415,4.363713,-35.34375,28.63125,-26.00625,-0.17027938,-0.73270917,0.4616228,995.7441, , , , 
2025-09-28 19:55:26.908,10.679168,-13.789837,1.3208381,-0.29909468,-0.108963005,4.4138036,-32.175003,29.94375,-24.562502,-0.20286284,-0.72621906,0.47825515,995.7414, , , , 
2025-09-28 19:55:26.928,12.875778,-13.050455,0.2321038,-0.022983788,-0.2861138,4.267807,-29.081251,32.98125,-23.04375,-0.23203519,-0.7183194,0.4962068,995.7414,37.88836522,127.73982304,144.7945556640625,1.18
2025-09-28 19:55:26.948,13.854444,-11.150554,-0.9523434,-0.07063124,-0.008781182,3.941605,-24.243752,35.850002,-24.187502,-0.25838983,-0.7094372,0.5126021,995.7358, , , , 
2025-09-28 19:55:26.968,14.376079,-9.346365,-0.35653058,-0.24594943,0.3210858,3.5457647,-23.362501,37.3125,-24.50625,-0.28387704,-0.7001756,0.5246307,995.7358, , , , 
2025-09-28 19:55:26.988,14.964713,-7.6666036,0.9882358,-0.11155918,0.37972882,3.055851,-19.0125,38.625,-23.643751,-0.307087,-0.6909452,0.53336877,995.72186, , , , 
2025-09-28 19:55:27.008,14.943177,-6.9726853,-0.31345975,0.31971136,0.4408153,2.5311182,-16.03125,39.5625,-23.868752,-0.3295551,-0.6784184,0.5438418,995.72186, , , , 
2025-09-28 19:55:27.028,15.058033,-6.503692,-3.2638102,0.29894194,0.6619483,2.165821,-14.6625,39.7125,-24.7875,-0.34435478,-0.66805816,0.5510068,995.72015, , , , 
2025-09-28 19:55:27.048,15.527026,-6.393622,-4.113262,-0.11766783,0.9405027,1.7223332,-11.493751,40.800003,-26.718752,-0.35890272,-0.6597915,0.55341846,995.72015, , , , 
2025-09-28 19:55:27.069,15.689738,-6.1998034,-2.6009982,-0.47746718,1.0083086,1.1401792,-10.181251,41.662502,-24.6,-0.3725753,-0.6545924,0.5507678,995.706, , , , 
2025-09-28 19:55:27.088,15.225531,-6.9296145,-1.2394822,-0.5306124,0.89835304,0.59528774,-8.94375,41.90625,-25.2,-0.38308436,-0.65215844,0.5452436,995.706, , , , 
2025-09-28 19:55:27.108,15.299708,-8.482556,-0.18903299,-0.31558803,0.57031864,0.15668681,-7.05,40.48125,-24.075,-0.39017713,-0.6515654,0.5379018,995.7021, , , , 
2025-09-28 19:55:27.128,16.64926,-8.7266245,-0.2321038,-0.012599086,0.099341884,-0.23609924,-7.1625004,42.825,-24.206251,-0.3897361,-0.6524889,0.53417534,995.7021, , , , 
2025-09-28 19:55:27.148,18.120846,-8.85823,-0.9068798,0.12667808,-0.32154396,-0.93615025,-8.0625,42.6375,-25.800001,-0.38236478,-0.6560731,0.531477,995.7177, , , , 
2025-09-28 19:55:27.168,16.70908,-9.485149,-0.49292147,0.099800035,-0.39301512,-1.8762711,-8.1,43.237503,-24.900002,-0.3683798,-0.6633298,0.5267131,995.7177, , , , 
2025-09-28 19:55:27.188,14.512469,-10.561919,-0.1698904,0.12545635,-0.25923574,-2.43338,-11.175,42.54375,-23.925001,-0.3500374,-0.67250633,0.5189335,995.7199, , , , 
2025-09-28 19:55:27.208,12.131611,-11.492727,-0.083748795,0.25923574,-0.20181446,-2.8243332,-12.825001,40.893753,-24.73125,-0.32909468,-0.68168706,0.5094175,995.7199, , , , 
2025-09-28 19:55:27.228,11.916257,-12.059826,-0.2105684,0.42172578,-0.36430448,-3.0564618,-14.85,42.43125,-25.06875,-0.3056597,-0.6904027,0.49988934,995.7326, , , , 
2025-09-28 19:55:27.248,12.521641,-12.758531,-0.74177504,0.4993056,-0.50358164,-3.3869398,-20.04375,38.53125,-24.618752,-0.27886206,-0.6992238,0.49028537,995.7326, , , , 
2025-09-28 19:55:27.268,12.768102,-13.7324095,-0.80877405,0.43455392,-0.533514,-3.7852237,-21.525002,38.775,-28.650002,-0.249004,-0.70849806,0.47883368,995.74286, , , , 
2025-09-28 19:55:27.288,12.29193,-14.289937,-0.25842485,0.40523243,-0.48464483,-4.1468554,-26.625002,35.625,-24.69375,-0.20830771,-0.7200768,0.46099296,995.74286, , , , 
2025-09-28 19:55:27.308,12.191431,-14.455042,-0.98584294,0.38568476,-0.21097742,-4.4003644,-30.300001,34.125,-24.525002,-0.1743717,-0.7276322,0.4443401,995.74286, , , , 
2025-09-28 19:55:27.328,11.662618,-14.311472,-1.1150553,0.112017326,0.008323032,-4.710684,-29.306252,31.518751,-28.650002,-0.14039795,-0.73381096,0.4239668,995.74286, , , , 
2025-09-28 19:55:27.348,10.6408825,-14.68236,1.1078769,0.025885396,0.040698867,-4.9953465,-31.81875,30.750002,-27.581251,-0.10605117,-0.7389572,0.3999317,995.7431, , , , 
2025-09-28 19:55:27.368,9.355937,-15.050855,2.3856442,0.2757291,-0.12545635,-5.108968,-34.95,26.306252,-24.675001,-0.069573686,-0.7422906,0.3754321,995.7431, , , , 
2025-09-28 19:55:27.388,7.891529,-14.97907,2.3952155,0.7076105,-0.48769918,-5.043605,-37.93125,20.90625,-25.29375,-0.030332671,-0.74389446,0.35315827,995.75946, , , , 
2025-09-28 19:55:27.409,7.159325,-14.5100765,1.4380864,0.91163933,-0.7577014,-4.9232645,-40.425003,15.918751,-24.281252,0.02102066,-0.7444473,0.32822385,995.75946, , , , 
2025-09-28 19:55:27.428,6.1830535,-13.978869,0.31585258,0.88231784,-0.80046195,-4.7931504,-40.518753,12.656251,-23.15625,0.061918553,-0.74391997,0.30884036,995.77216, , , , 
2025-09-28 19:55:27.448,5.099105,-13.162917,-0.4833502,0.6587413,-0.6098721,-4.5707955,-42.75,6.6937504,-22.575,0.10011731,-0.7420693,0.2889227,995.77216, , , , 
2025-09-28 19:55:27.468,3.9577286,-12.638889,-0.8207382,0.3520872,-0.24457498,-4.2995715,-45.28125,4.4437504,-21.112501,0.13390619,-0.73836744,0.2682,995.7712, , , , 
2025-09-28 19:55:27.488,2.3928227,-12.311072,-0.6723832,0.041157015,0.22151484,-3.9361072,-46.21875,-2.3812501,-20.775002,0.16244769,-0.7324212,0.2472786,995.7712, , , , 
2025-09-28 19:55:27.508,-0.1268196,-11.73201,-0.2727818,-0.109726585,0.52083856,-3.5311038,-46.275,-5.6062503,-22.275002,0.18609248,-0.7244019,0.22713697,995.7724, , , , 
2025-09-28 19:55:27.528,-1.5720844,-11.624332,0.10049855,-0.130496,0.5813142,-3.159698,-43.10625,-6.525,-21.487501,0.20077284,-0.71775,0.21354923,995.7724, , , , 
2025-09-28 19:55:27.548,-2.5794628,-11.483156,0.23688944,-0.023594651,0.39805475,-2.2073598,-44.456253,-11.137501,-22.1625,0.21965384,-0.7078502,0.19613214,995.77655, , , , 
2025-09-28 19:55:27.568,-3.290131,-10.968699,0.0071784677,-0.023594651,0.29909468,-1.5763366,-43.537502,-11.15625,-24.562502,0.23033072,-0.7021745,0.1867518,995.77655, , , , 
2025-09-28 19:55:27.588,-4.208975,-10.222138,0.25842485,-0.03581195,0.4652499,-1.0149518,-42.84375,-11.85,-22.59375,0.23529966,-0.6986877,0.18228783,995.77704, , , , 
2025-09-28 19:55:27.608,-3.2973096,-10.815558,-0.7369894,0.047265664,0.43470666,0.014355322,-42.16875,-13.743751,-24.712502,0.23655324,-0.6932893,0.18206307,995.77704, , , , 
2025-09-28 19:55:27.628,-3.5006995,-11.162518,-2.510071,0.024663666,0.09995275,0.7003565,-41.11875,-14.400001,-24.337502,0.23347616,-0.6930224,0.18588366,995.77264, , , , 
2025-09-28 19:55:27.648,-1.4979069,-11.227124,-3.0652058,-0.3278053,-0.46143198,1.818239,-44.15625,-11.962501,-24.300001,0.22071996,-0.69947517,0.19626136,995.77264, , , , 
2025-09-28 19:55:27.668,0.5192425,-11.284552,-1.8233309,-0.52328205,-0.42905614,2.4889686,-44.98125,-13.05,-23.23125,0.20253783,-0.70877296,0.20776041,995.7563, , , , 
2025-09-28 19:55:27.688,2.2277179,-11.313266,-1.0815558,-0.5959749,-0.08758274,2.9501715,-44.15625,-11.231251,-23.737501,0.18464729,-0.7152348,0.21883127,995.7563, , , , 
2025-09-28 19:55:27.708,3.9864426,-11.643475,-0.26081768,-0.5758164,0.4664716,3.507891,-44.625,-6.1875005,-22.575,0.14876878,-0.72217596,0.24143639,995.7392, , , , 
2025-09-28 19:55:27.728,5.0009995,-12.256038,-0.32542387,-0.4096612,0.37545276,3.806604,-43.275,-4.6687503,-23.118752,0.1172518,-0.7256094,0.26254725,995.7392, , , , 
2025-09-28 19:55:27.748,5.8360944,-12.751352,-0.83988076,-0.2777144,0.12560907,3.9654288,-42.975002,-1.7812501,-23.775002,0.093339704,-0.72815967,0.27982628,995.7287, , , , 
2025-09-28 19:55:27.768,6.6424756,-12.713067,-1.5601203,-0.10300707,-0.3759109,4.170679,-45.075,4.8187504,-20.23125,0.046710607,-0.7345423,0.3163585,995.7287, , , , 
2025-09-28 19:55:27.788,6.7908306,-12.538391,-1.6223338,-0.07735075,-0.42722356,4.272083,-45.018753,6.3562503,-23.25,0.023733951,-0.7377937,0.33501017,995.7138, , , , 
2025-09-28 19:55:27.808,7.0229344,-12.574283,-1.442872,-0.1512654,-0.061926417,4.49627,-45.018753,12.825001,-23.456251,-0.016479347,-0.74041826,0.36591506,995.7138, , , , 
2025-09-28 19:55:27.828,7.496713,-12.729816,-0.9834501,-0.20074543,0.10483967,4.60928,-39.73125,20.19375,-22.893751,-0.051141955,-0.73934424,0.38999745,995.71014, , , , 
2025-09-28 19:55:27.848,8.097312,-12.935599,-0.5096712,-0.15493058,0.008933897,4.6440997,-36.956253,22.875,-25.35,-0.07745085,-0.7372871,0.4076645,995.71014, , , , 
2025-09-28 19:55:27.868,8.609376,-13.703695,-0.44506502,0.027717989,-0.3417025,4.6880817,-38.98125,25.143751,-25.425001,-0.11904656,-0.7328001,0.43715632,995.70746, , , , 
2025-09-28 19:55:27.888,9.501899,-13.945371,-0.50009996,0.154167,-0.5933788,4.7119055,-34.85625,27.562502,-24.6,-0.14235784,-0.7295455,0.45527768,995.70746, , , , 
2025-09-28 19:55:27.908,11.404193,-14.086547,-0.9236295,0.28550294,-0.8102358,4.5817914,-32.850002,30.13125,-25.10625,-0.18449698,-0.72160435,0.49126232,995.7067, , , , 
2025-09-28 19:55:27.928,12.390036,-13.964513,-1.174876,0.24640758,-0.68378675,4.438238,-31.368752,32.625,-22.931252,-0.20383067,-0.71671957,0.50790846,995.7067,37.88835914,127.73981016,144.5142822265625,1.19
2025-09-28 19:55:27.948,13.696517,-13.387843,-0.782453,0.14256057,-0.267177,4.167625,-26.812502,35.475002,-24.0375,-0.23544589,-0.7067828,0.5317123,995.707, , , , 
2025-09-28 19:55:27.968,14.995819,-12.58864,-0.39481574,0.023441937,0.22701262,3.7864454,-24.431252,38.568752,-23.85,-0.26052862,-0.69722784,0.5463134,995.707, , , , 
2025-09-28 19:55:27.988,15.0221405,-11.085947,0.12921242,-0.05902481,0.76946056,3.3667812,-21.0375,37.93125,-24.6375,-0.27909872,-0.68936276,0.5542242,995.6962, , , , 
2025-09-28 19:55:28.008,14.277973,-8.712267,0.0071784677,-0.12194388,1.5434263,2.753473,-16.29375,39.54375,-25.687502,-0.31649652,-0.67157847,0.5625687,995.6962, , , , 
2025-09-28 19:55:28.028,13.926228,-7.944171,0.26799613,0.021609342,1.4707333,2.41933,-16.650002,40.85625,-23.71875,-0.334029,-0.66228545,0.564393,995.71063, , , , 
2025-09-28 19:55:28.048,14.122439,-7.4392858,0.12921242,0.36125016,0.96554816,2.212247,-15.900001,40.2,-23.90625,-0.34852052,-0.65314806,0.56712306,995.71063, , , , 
2025-09-28 19:55:28.068,15.653846,-6.3960147,-3.37388,0.82978344,-0.21097742,1.7314962,-10.33125,40.03125,-26.025002,-0.36360863,-0.6373018,0.5795151,995.7077, , , , 
2025-09-28 19:55:28.088,16.414762,-5.953343,-5.0751767,0.69600403,-0.5823832,1.3796381,-9.543751,41.850002,-25.593752,-0.36523196,-0.632518,0.5866425,995.7077, , , , 
2025-09-28 19:55:28.108,18.470198,-7.367501,-4.9842496,0.0026725335,-0.48586658,0.6050616,-9.1125,40.800003,-28.368752,-0.36439326,-0.63088185,0.5932082,995.6857, , , , 
2025-09-28 19:55:28.128,19.771894,-8.618947,-3.2279177,-0.23373213,-0.25495967,0.07971785,-9.618751,41.98125,-27.91875,-0.36235964,-0.63390595,0.5923878,995.6857, , , , 
2025-09-28 19:55:28.148,21.025732,-8.544769,-2.4119651,-0.32230753,-0.022220206,-0.5922334,-10.33125,40.03125,-26.025002,-0.35928142,-0.63757,0.5892363,995.6733, , , , 
2025-09-28 19:55:28.168,18.821943,-9.202796,-1.1270195,-0.56421,0.37239844,-2.0992367,-9.95625,41.831253,-27.712502,-0.3489838,-0.647594,0.57750994,995.6733, , , , 
2025-09-28 19:55:28.188,14.833108,-10.944771,-0.43070808,-0.55749047,0.50434524,-2.8078399,-11.512501,41.287502,-27.675001,-0.33566195,-0.6585307,0.56234324,995.684, , , , 
2025-09-28 19:55:28.208,10.269995,-12.318251,-0.078963146,-0.2984838,0.38033968,-3.151146,-15.000001,40.18125,-25.556252,-0.31437117,-0.67213047,0.54148257,995.684, , , , 
2025-09-28 19:55:28.228,9.016156,-12.143575,-0.42592242,-0.09506583,0.19830199,-3.182911,-15.39375,39.862503,-23.79375,-0.2997375,-0.67934006,0.530079,995.7067, , , , 
2025-09-28 19:55:28.248,8.597412,-11.784652,-1.5266209,0.053985175,-0.2323577,-3.2672102,-18.1875,38.11875,-26.175001,-0.27221543,-0.6906733,0.51302296,995.7067, , , , 
2025-09-28 19:55:28.268,9.241081,-11.940185,-1.2490535,0.033826638,-0.7491493,-3.3625052,-19.78125,38.193752,-26.79375,-0.24700066,-0.7008922,0.49997738,995.71674, , , , 
2025-09-28 19:55:28.288,10.243673,-12.083755,-0.65084773,0.032604907,-1.1981349,-3.5280495,-26.23125,36.037502,-25.837502,-0.21805035,-0.7128611,0.48705572,995.71674, , , , 
2025-09-28 19:55:28.308,11.777473,-12.815958,0.7920243,0.03565923,-1.4382048,-3.8450882,-27.000002,34.575,-23.962502,-0.17681713,-0.7290136,0.46980405,995.71967, , , , 
2025-09-28 19:55:28.328,12.279965,-13.289737,1.2969099,0.053985175,-1.2140174,-4.069276,-31.2,33.16875,-25.9125,-0.15060097,-0.73779166,0.45818582,995.71967, , , , 
2025-09-28 19:55:28.348,11.91865,-13.947763,0.8853444,0.014278964,-0.510912,-4.505433,-33.0,31.725,-23.94375,-0.10669781,-0.74829197,0.43541518,995.73627, , , , 
2025-09-28 19:55:28.368,10.767702,-14.892928,1.2490535,-0.057192214,-0.027717989,-4.8072004,-35.643753,28.837502,-23.19375,-0.07207103,-0.75301903,0.413334,995.73627, , , , 
2025-09-28 19:55:28.388,9.760324,-15.122639,1.0169497,0.022220206,0.1494328,-4.8927217,-36.99375,27.31875,-21.431252,-0.046253853,-0.7543051,0.3958585,995.75604, , , , 
2025-09-28 19:55:28.408,8.834301,-14.727823,0.3804588,0.1663843,0.15370885,-4.8786716,-40.725002,20.56875,-19.575,-0.0031323407,-0.75351334,0.36678404,995.75604, , , , 
2025-09-28 19:55:28.428,8.384451,-14.143974,-0.083748795,0.1749364,0.05291616,-4.867065,-40.443752,17.38125,-22.5,0.031571914,-0.7513184,0.34347433,995.7568, , , , 
2025-09-28 19:55:28.448,7.7790666,-13.938192,-0.0071784677,0.15783219,-0.008781182,-4.8615675,-41.15625,14.56875,-22.425001,0.05757332,-0.7491591,0.32548153,995.7568, , , , 
2025-09-28 19:55:28.468,6.0011992,-13.371093,-0.48095736,0.1004109,-0.025885396,-4.7002993,-44.475002,7.1250005,-19.5,0.09998723,-0.7442,0.29509085,995.75385, , , , 
2025-09-28 19:55:28.488,4.8454657,-12.9643135,-0.89491564,0.0075594517,0.05902481,-4.501768,-43.800003,4.4812503,-21.88125,0.123797745,-0.7404247,0.27692342,995.75385, , , , 
2025-09-28 19:55:28.508,3.3020952,-12.5958185,-0.8566305,-0.23556472,0.3577377,-4.0252934,-46.893753,-1.21875,-19.21875,0.16466913,-0.7306719,0.24141149,995.7514, , , , 
2025-09-28 19:55:28.528,1.5864414,-12.162718,-0.5766702,-0.26671883,0.4548652,-3.6587746,-46.537502,-6.15,-20.98125,0.18168806,-0.7247591,0.22478414,995.7514, , , , 
2025-09-28 19:55:28.548,-1.2179468,-10.872986,-0.083748795,-0.19585852,0.37789622,-2.8732026,-45.24375,-6.24375,-21.73125,0.20535971,-0.7149981,0.20079164,995.7497, , , , 
2025-09-28 19:55:28.569,-2.5268207,-9.851251,-0.13878371,-0.08895718,0.28932083,-2.075413,-43.800003,-11.45625,-21.75,0.21953066,-0.70853925,0.186696,995.7497, , , , 
2025-09-28 19:55:28.588,-3.0149565,-9.24826,-0.4546363,-0.025427246,0.18180864,-1.5079197,-45.43125,-12.243751,-21.075,0.22717388,-0.7048664,0.1795167,995.7519, , , , 
2025-09-28 19:55:28.608,-3.940979,-8.9826565,-1.1126626,0.042378742,-0.23113596,-0.57818353,-43.85625,-14.681251,-22.48125,0.2358893,-0.7024413,0.17225036,995.7519, , , , 
2025-09-28 19:55:28.628,-4.395615,-10.042677,-1.4691931,0.009392046,-0.5457313,0.062613636,-43.78125,-14.418751,-23.587502,0.23689553,-0.70433974,0.17162706,995.75653, , , , 
2025-09-28 19:55:28.648,-4.7401814,-10.908878,-1.5218352,-0.05291616,-0.76869696,0.7553343,-42.768753,-12.337501,-23.493752,0.23326941,-0.7105108,0.17452578,995.75653, , , , 
2025-09-28 19:55:28.668,-2.6895328,-10.746166,-0.37088752,-0.14210242,-0.71494085,2.2012513,-45.6375,-13.14375,-19.9125,0.21802795,-0.72242576,0.18615568,995.75287, , , , 
2025-09-28 19:55:28.688,-0.25603202,-10.686346,0.1698904,-0.100563616,-0.40339983,2.7705772,-43.725002,-11.8125,-21.581251,0.20350018,-0.72936755,0.1977933,995.75287, , , , 
2025-09-28 19:55:28.708,2.1224337,-10.861022,0.28713873,0.14011711,-0.15966478,3.35884,-48.075,-7.0687504,-18.768751,0.17443438,-0.738423,0.22296384,995.7514, , , , 
2025-09-28 19:55:28.728,3.1345978,-11.509477,0.033499517,0.3850739,-0.36247188,3.661829,-46.893753,-5.5687504,-19.44375,0.15585844,-0.7433315,0.24072108,995.7514, , , , 
2025-09-28 19:55:28.748,5.749953,-12.368501,-0.8039884,0.76503175,-0.78824466,4.0075784,-46.331253,-1.2750001,-19.125,0.11867139,-0.75388706,0.28168663,995.74066, , , , 
2025-09-28 19:55:28.768,8.195417,-12.985848,-2.1798615,0.917748,-0.7876338,4.07233,-48.018753,2.775,-18.2625,0.100557335,-0.75881284,0.30403918,995.74066, , , , 
2025-09-28 19:55:28.788,8.743374,-13.529019,-3.4432719,0.8102358,-0.40095636,3.9880307,-46.068752,5.71875,-19.706251,0.07617533,-0.7630326,0.3332896,995.71967, , , , 
2025-09-28 19:55:28.808,7.4273214,-14.127225,-4.1036906,0.16210824,0.47441286,4.141358,-45.075,10.25625,-15.900001,0.040807493,-0.76398563,0.36574298,995.71967, , , , 
2025-09-28 19:55:28.828,7.645068,-13.808979,-2.8689942,-0.16042836,0.8952987,4.360658,-45.412502,14.118751,-19.48125,0.014753298,-0.762523,0.38291836,995.69476, , , , 
2025-09-28 19:55:28.848,9.114262,-12.973885,-1.012164,-0.3937787,1.3198497,4.474279,-41.15625,19.275002,-18.993752,-0.03431596,-0.7565003,0.40886435,995.69476, , , , 
2025-09-28 19:55:28.868,9.379865,-12.586247,-0.25842485,-0.42798713,1.4707333,4.3563824,-40.59375,22.575,-20.775002,-0.074637346,-0.748769,0.42733684,995.68744, , , , 
2025-09-28 19:55:28.888,9.29133,-12.591033,0.09810573,-0.42554367,1.5153265,4.2519245,-38.5125,24.806252,-22.987501,-0.10434326,-0.74166894,0.4399341,995.68744, , , , 
2025-09-28 19:55:28.908,8.779266,-13.119846,0.9451649,-0.26671883,1.0779473,4.204888,-34.912502,28.66875,-24.975,-0.16066302,-0.725786,0.46370023,995.6901, , , , 
2025-09-28 19:55:28.928,9.454042,-13.203595,1.3160524,-0.012599086,0.5648208,4.240318,-32.362503,31.1625,-24.300001,-0.18593779,-0.71781456,0.47670308,995.6901,37.88835383,127.7397953,144.9034423828125,1.34
2025-09-28 19:55:28.948,10.578669,-12.435499,0.63888365,0.30566147,0.090178914,4.1596837,-29.925001,33.787502,-24.69375,-0.22245118,-0.7043938,0.50074697,995.7006, , , , 
2025-09-28 19:55:28.968,11.160125,-11.784652,-0.13399807,0.36369362,0.077961616,4.0423975,-26.718752,34.36875,-25.837502,-0.24811167,-0.6930294,0.52001655,995.7006, , , , 
2025-09-28 19:55:28.988,12.452249,-10.942378,-0.40917268,0.22808164,0.12988512,3.7931647,-25.29375,36.487503,-23.94375,-0.27235729,-0.68143564,0.5370976,995.7028, , , , 
2025-09-28 19:55:29.008,13.143775,-9.595219,0.8255238,0.21708608,0.13782637,3.4889543,-21.956251,36.975002,-25.25625,-0.2946401,-0.6703283,0.5514373,995.7028, , , , 
2025-09-28 19:55:29.028,14.787644,-8.32463,0.83988076,0.49502954,0.14576761,3.201237,-17.775002,37.912502,-26.98125,-0.3139747,-0.658628,0.5648777,995.7004, , , , 
2025-09-28 19:55:29.048,17.297714,-7.463214,-1.4907285,0.7424298,0.20196716,2.671617,-15.900001,39.975002,-27.45,-0.3325818,-0.6431643,0.5809805,995.7004, , , , 
2025-09-28 19:55:29.068,18.52284,-6.948757,-3.8404803,0.64896744,0.39988735,2.12978,-12.731251,41.287502,-25.85625,-0.34121308,-0.63461906,0.58861387,995.7011, , , , 
2025-09-28 19:55:29.088,18.865013,-6.4414787,-4.8095737,0.2183078,0.6057488,1.4138465,-12.187501,39.487503,-27.50625,-0.351023,-0.6261902,0.5938897,995.7011, , , , 
2025-09-28 19:55:29.108,18.202202,-7.223932,-3.6873398,-0.22273657,0.60452706,0.5079341,-9.356251,41.025,-28.81875,-0.36016336,-0.6219725,0.5923938,995.684, , , , 
2025-09-28 19:55:29.128,17.733208,-8.532805,-2.7182465,-0.30825764,0.3351357,0.043065965,-9.806251,38.98125,-27.112501,-0.3627292,-0.6232181,0.5876948,995.684, , , , 
2025-09-28 19:55:29.148,17.079967,-8.886943,-1.6821543,-0.17753258,-0.33009607,-0.5726857,-10.5375,40.3875,-26.79375,-0.35905308,-0.62764657,0.58327425,995.68085, , , , 
2025-09-28 19:55:29.168,16.740187,-7.537391,-1.5074782,-0.16287182,-0.5842158,-1.1749984,-8.56875,41.362503,-28.9125,-0.34956676,-0.6346062,0.5791811,995.68085, , , , 
2025-09-28 19:55:29.188,15.92902,-7.891529,-1.105484,-0.22212571,-0.62086767,-1.7302744,-11.231251,40.575,-27.825,-0.33925724,-0.64166355,0.5746761,995.68744, , , , 
2025-09-28 19:55:29.208,13.057633,-10.102497,-0.5694918,-0.23678645,-0.7943533,-2.5127923,-14.64375,40.4625,-26.38125,-0.31139565,-0.65928555,0.5614503,995.68744, , , , 
2025-09-28 19:55:29.228,11.82533,-11.229517,-0.24646074,-0.23373213,-1.021595,-2.7803512,-14.56875,40.10625,-26.5125,-0.2942983,-0.6692088,0.55390894,995.69794, , , , 
2025-09-28 19:55:29.248,11.818151,-12.026326,0.28953153,-0.23006694,-1.1712569,-2.9953754,-16.63125,38.53125,-26.831251,-0.26902157,-0.6830372,0.54333764,995.69794, , , , 
2025-09-28 19:55:29.268,12.612568,-13.074383,0.76331043,-0.2135736,-1.1223876,-3.377166,-21.206251,37.050003,-25.650002,-0.23409799,-0.70021254,0.5284015,995.7153, , , , 
2025-09-28 19:55:29.288,12.827922,-13.514663,0.8422736,-0.22579089,-0.9434043,-3.6422813,-22.181252,37.3125,-25.25625,-0.21188556,-0.7098738,0.51777387,995.7153, , , , 
2025-09-28 19:55:29.308,12.224931,-14.079369,1.0360922,-0.27160576,-0.4767036,-4.1340275,-26.812502,35.475002,-24.50625,-0.17381647,-0.72397655,0.49637908,995.7348, , , , 
2025-09-28 19:55:29.328,11.344372,-13.983656,1.1389836,-0.29054257,-0.20853396,-4.4547315,-30.2625,33.506252,-25.425001,-0.14265783,-0.7329431,0.4762459,995.7348, , , , 
2025-09-28 19:55:29.348,9.949356,-14.373686,1.5816557,-0.20074543,0.0730747,-4.753444,-33.28125,33.91875,-23.268751,-0.102454856,-0.74091053,0.44796124,995.7414, , , , 
2025-09-28 19:55:29.369,8.9108715,-14.498113,1.2059826,-0.043753188,0.1683696,-4.843241,-36.131252,28.650002,-22.21875,-0.06942784,-0.744062,0.4245883,995.7414, , , , 
2025-09-28 19:55:29.388,8.733803,-14.464613,0.9451649,0.03810269,0.10911572,-4.875006,-36.375,26.75625,-21.46875,-0.044159126,-0.74510443,0.40705124,995.7531, , , , 
2025-09-28 19:55:29.408,8.3581295,-14.301901,0.72741807,0.14744748,-0.18226677,-5.012451,-40.725002,19.59375,-23.0625,-2.1811323E-4,-0.7455407,0.37733936,995.7531, , , , 
2025-09-28 19:55:29.428,7.810173,-14.294723,0.634098,0.17737986,-0.31971136,-5.0552115,-40.48125,17.1375,-23.268751,0.027368346,-0.7453633,0.3589825,995.75287, , , , 
2025-09-28 19:55:29.448,6.0658054,-13.8353,0.26081768,0.1749364,-0.38690647,-4.953197,-41.737503,13.275001,-21.825,0.06436982,-0.7443687,0.33415723,995.75287, , , , 
2025-09-28 19:55:29.468,4.6396832,-12.827922,-0.28235307,0.10651954,-0.08575014,-4.5188723,-44.53125,6.7500005,-20.23125,0.10716802,-0.74078226,0.30390695,995.748, , , , 
2025-09-28 19:55:29.488,4.06062,-12.000006,-1.1270195,-0.015042545,0.19585852,-4.17129,-47.475002,1.48125,-21.9375,0.12965715,-0.7369345,0.28676683,995.748, , , , 
2025-09-28 19:55:29.508,2.8881369,-11.471191,-1.6582261,-0.36690065,0.4652499,-3.6233444,-46.21875,-1.63125,-21.431252,0.16599528,-0.72681254,0.2538539,995.7358, , , , 
2025-09-28 19:55:29.528,2.2612174,-11.394622,-0.9379865,-0.53549933,0.4982366,-3.1719153,-45.487503,-4.65,-22.425001,0.17978182,-0.7215721,0.23801383,995.7358, , , , 
2025-09-28 19:55:29.548,0.8350951,-10.870593,0.58624154,-0.47258025,0.35468337,-2.5738788,-44.98125,-7.9500003,-22.743752,0.1978088,-0.7134492,0.21434683,995.73114, , , , 
2025-09-28 19:55:29.568,0.08853444,-9.698111,1.1174482,-0.21113014,0.109726585,-1.9666792,-45.80625,-10.650001,-22.96875,0.20915033,-0.70848066,0.19995236,995.73114, , , , 
2025-09-28 19:55:29.588,-0.08853444,-9.099904,0.5383851,-0.03581195,0.029092435,-1.5671736,-43.93125,-8.587501,-22.96875,0.2164567,-0.70581377,0.19231261,995.737, , , , 
2025-09-28 19:55:29.608,-0.73459655,-9.434899,-1.2083755,-0.03459022,0.11522437,-0.88850284,-43.78125,-11.45625,-22.21875,0.22668986,-0.70199424,0.18337516,995.737, , , , 
2025-09-28 19:55:29.628,-1.8855443,-10.205389,-1.8496519,-0.18608469,0.18486296,-0.37293294,-42.35625,-13.275001,-25.031252,0.22818306,-0.7008839,0.18132874,995.73285, , , , 
2025-09-28 19:55:29.648,-3.4432719,-10.243673,-1.995614,-0.37117672,0.18669555,0.22754712,-42.075,-13.25625,-23.681252,0.22627294,-0.7007551,0.18099009,995.73285, , , , 
2025-09-28 19:55:29.668,-3.1345978,-9.06162,-0.3493521,-0.59964013,0.26671883,1.5586215,-43.631252,-11.53125,-24.54375,0.20941645,-0.7041937,0.18751882,995.7326, , , , 
2025-09-28 19:55:29.688,-1.7300107,-8.82473,0.3278167,-0.51778424,0.42004588,2.11573,-42.9375,-11.71875,-24.300001,0.19548453,-0.70644,0.19536465,995.7326, , , , 
2025-09-28 19:55:29.708,1.0145568,-10.021141,-0.20817557,-0.22456917,0.43531752,2.8310528,-43.95,-8.83125,-24.806252,0.16800544,-0.7094258,0.21500205,995.74384, , , , 
2025-09-28 19:55:29.728,2.5196424,-11.107483,-1.0073783,-0.057192214,0.14332415,3.1884086,-43.575,-6.3,-25.143751,0.14411584,-0.7127972,0.23519629,995.74384, , , , 
2025-09-28 19:55:29.748,3.8811584,-12.12204,-1.9142581,0.0014508038,-0.14011711,3.5237734,-44.193752,-5.7375,-25.743752,0.12533848,-0.71651596,0.25216112,995.73456, , , , 
2025-09-28 19:55:29.769,5.505885,-13.385449,-2.0075781,-0.20013458,-0.2946659,3.9220574,-43.85625,1.125,-23.53125,0.08380967,-0.7255943,0.287816,995.73456, , , , 
2025-09-28 19:55:29.788,5.9318075,-13.53859,-0.7298109,-0.30153814,-0.2683987,4.140747,-45.45,6.3187504,-23.98125,0.060611214,-0.7298013,0.30557948,995.71893, , , , 
2025-09-28 19:55:29.808,6.7645097,-13.2514515,0.62452674,-0.1390481,-0.24640758,4.415025,-44.8125,8.7375,-23.25,0.019938562,-0.7347306,0.33625007,995.71893, , , , 
2025-09-28 19:55:29.828,7.7096744,-13.117454,0.14117654,0.039935283,-0.21464261,4.5207047,-42.206253,11.38125,-25.368752,-0.012673363,-0.7360338,0.36245877,995.71454, , , , 
2025-09-28 19:55:29.848,8.566305,-12.97867,-0.81595254,0.15477787,-0.26962045,4.5671306,-40.331253,17.268751,-22.050001,-0.044609055,-0.7353714,0.3890647,995.71454, , , , 
2025-09-28 19:55:29.868,9.190832,-12.935599,-1.1820544,0.22380558,-0.4406626,4.5769043,-39.318752,22.987501,-22.95,-0.07539322,-0.73366714,0.41523826,995.7087, , , , 
2025-09-28 19:55:29.888,10.0881405,-12.713067,-1.3328022,0.2861138,-0.5958222,4.578126,-37.95,24.50625,-25.031252,-0.10471844,-0.73113894,0.44093686,995.7087, , , , 
2025-09-28 19:55:29.908,11.660225,-12.102897,-2.053042,0.20731224,-0.47548187,4.3423324,-35.25,26.906252,-25.593752,-0.13904704,-0.72661066,0.47073767,995.6921, , , , 
2025-09-28 19:55:29.928,11.516655,-11.452049,-2.0219352,-0.04741838,-0.061926417,4.1279187,-35.49375,29.475,-23.868752,-0.15959057,-0.7228505,0.4855947,995.6921,37.88834713,127.73977994,144.93829345703125,1.42
2025-09-28 19:55:29.948,11.564512,-10.956735,-0.17467605,-0.3033707,0.36934412,3.89579,-31.66875,30.88125,-26.04375,-0.195752,-0.71471846,0.50467354,995.6828, , , , 
2025-09-28 19:55:29.968,12.234502,-10.535598,1.442872,-0.06330086,0.36201373,3.6966481,-28.9125,31.5375,-25.143751,-0.22372107,-0.7066015,0.51769793,995.6828, , , , 
2025-09-28 19:55:29.988,12.653246,-9.442079,0.94277215,0.28794637,0.33880088,3.5738645,-25.650002,35.456253,-24.0,-0.2423426,-0.6990155,0.52824265,995.6879, , , , 
2025-09-28 19:55:30.008,14.538791,-8.451449,-1.7300107,0.5322923,0.37728536,3.2036803,-22.03125,38.831253,-24.431252,-0.2691281,-0.68419313,0.54658157,995.6879, , , , 
2025-09-28 19:55:30.028,15.292529,-8.688339,-2.644069,0.46082112,0.22640176,2.7589707,-21.337502,37.162502,-24.712502,-0.2868384,-0.67311555,0.5589355,995.6833, , , , 
2025-09-28 19:55:30.048,15.897914,-9.564112,-2.2157538,0.4993056,-0.15111268,2.3955061,-17.643751,38.025,-24.69375,-0.3032165,-0.6620893,0.5722455,995.6833, , , , 
2025-09-28 19:55:30.068,17.022541,-9.19801,-1.5337993,0.6795107,-0.43027788,2.1285584,-18.393751,38.7,-24.018751,-0.31132028,-0.65459186,0.5833692,995.67255, , , , 
2025-09-28 19:55:30.088,18.202202,-8.556734,-1.5816557,0.83222693,-0.45226902,1.8640538,-17.025002,39.487503,-27.300001,-0.31488413,-0.64903265,0.5919288,995.67255, , , , 
2025-09-28 19:55:30.108,20.829521,-8.772088,-3.495914,0.84505504,-0.06314815,0.9996802,-14.718751,39.975002,-27.4125,-0.3171227,-0.6402522,0.60396093,995.6694, , , , 
2025-09-28 19:55:30.128,20.638096,-9.075976,-5.020142,0.578718,0.26610798,0.24220788,-11.962501,40.40625,-30.056252,-0.3162097,-0.63591075,0.60778564,995.6694, , , , 
2025-09-28 19:55:30.148,18.458235,-7.982456,-6.2141604,-0.10483967,0.5593231,-0.652709,-12.281251,40.256252,-30.618752,-0.31378937,-0.63590324,0.6048165,995.6652, , , , 
2025-09-28 19:55:30.168,16.228123,-7.6259255,-3.735196,-0.7926734,0.6448441,-1.4633266,-12.731251,38.0625,-28.9125,-0.31040284,-0.6415247,0.5941384,995.6652, , , , 
2025-09-28 19:55:30.189,13.667803,-9.444471,0.2943172,-0.9142355,0.3314705,-2.2824962,-12.918751,39.412502,-28.500002,-0.3012475,-0.6541594,0.5742653,995.6628, , , , 
2025-09-28 19:55:30.208,12.117254,-10.772488,1.3806586,-0.7163153,-0.060093824,-2.680169,-14.3625,37.275,-29.00625,-0.2873738,-0.6658442,0.55807424,995.6628, , , , 
2025-09-28 19:55:30.228,11.157732,-11.676974,1.8496519,-0.496404,-0.46204284,-2.938565,-15.468751,38.5125,-26.325,-0.2732042,-0.67496204,0.5468726,995.71136, , , , 
2025-09-28 19:55:30.248,11.004591,-12.643675,1.4596218,-0.36506808,-0.7314342,-3.16092,-18.16875,38.11875,-27.2625,-0.2503097,-0.6873544,0.53289866,995.71136, , , , 
2025-09-28 19:55:30.268,10.971092,-13.569697,1.6414764,-0.36201373,-0.6434697,-3.490176,-21.54375,36.768753,-26.362501,-0.21810848,-0.7028178,0.5143128,995.7465, , , , 
2025-09-28 19:55:30.288,10.707881,-13.622339,2.012364,-0.3296379,-0.19814926,-3.6789331,-25.706251,36.35625,-27.300001,-0.19206296,-0.7133043,0.49735436,995.7465, , , , 
2025-09-28 19:55:30.308,10.317851,-13.323236,1.7515461,-0.22212571,0.43409577,-3.941605,-29.175001,35.25,-25.95,-0.16060683,-0.72171164,0.47356904,995.7778, , , , 
2025-09-28 19:55:30.328,9.47797,-13.354343,1.2346965,-0.22640176,0.8952987,-4.196336,-31.725,31.25625,-26.212502,-0.14215049,-0.72417015,0.45749727,995.7778, , , , 
2025-09-28 19:55:30.348,8.30788,-13.636696,1.6941184,-0.010766491,0.9160681,-4.3631015,-32.79375,30.50625,-24.525002,-0.11085888,-0.724865,0.42894682,995.79535, , , , 
2025-09-28 19:55:30.368,8.078169,-13.744373,1.3974084,0.33070692,0.33269224,-4.4987135,-32.8125,26.775002,-24.300001,-0.082224146,-0.72441643,0.40728366,995.79535, , , , 
2025-09-28 19:55:30.388,7.4512496,-13.727624,0.78723866,0.48403397,-0.07170025,-4.5811806,-36.0,22.462502,-25.425001,-0.057871997,-0.7245991,0.3917334,995.8039, , , , 
2025-09-28 19:55:30.408,6.515656,-13.445271,0.062213387,0.47120583,-0.49869475,-4.6343255,-37.725002,20.550001,-24.525002,-0.01416056,-0.72596174,0.3656581,995.8039, , , , 
2025-09-28 19:55:30.428,5.879165,-12.983456,0.6628119,0.47120583,-0.9079741,-4.6123347,-40.875,15.1125,-24.487501,0.021770481,-0.7278268,0.34391737,995.80756, , , , 
2025-09-28 19:55:30.448,4.9435716,-12.208181,0.7968099,0.55183995,-1.4449242,-4.560411,-40.631252,9.918751,-23.60625,0.05914345,-0.7307951,0.3221124,995.80756, , , , 
2025-09-28 19:55:30.468,3.9816568,-11.55494,0.3182454,0.529238,-1.8016694,-4.3997536,-45.5625,7.3875003,-21.09375,0.097575836,-0.73514503,0.30041367,995.8061, , , , 
2025-09-28 19:55:30.488,3.0556345,-10.887343,0.078963146,0.36858055,-1.5866449,-4.126086,-46.36875,1.44375,-18.65625,0.13412905,-0.73927104,0.2786545,995.8061, , , , 
2025-09-28 19:55:30.508,1.0600204,-10.3848505,-0.37806597,0.10346522,-0.5683333,-3.557982,-45.84375,-1.10625,-19.96875,0.17254141,-0.7399166,0.25280944,995.8007, , , , 
2025-09-28 19:55:30.528,0.31585258,-10.49492,-0.7704889,-0.021762058,0.043753188,-3.0271404,-45.506252,-8.15625,-20.0625,0.19523907,-0.73573756,0.23530707,995.8007, , , , 
2025-09-28 19:55:30.548,-0.37806597,-10.411171,-0.96430755,-0.0712421,0.15676318,-2.5402813,-43.40625,-8.175,-23.0625,0.20818032,-0.7315906,0.22451693,995.7922, , , , 
2025-09-28 19:55:30.568,0.0071784677,-9.456435,-0.5982057,-0.05291616,-0.303218,-1.6783509,-46.256252,-10.9875,-17.493752,0.22427633,-0.7274369,0.21055332,995.7922, , , , 
2025-09-28 19:55:30.588,0.3469593,-9.284152,-0.74416786,-0.06024654,-0.36369362,-1.2843432,-45.2625,-11.3625,-20.04375,0.23367438,-0.72697043,0.20234188,995.7863, , , , 
2025-09-28 19:55:30.608,-0.715454,-10.140782,-1.2729816,-0.19524765,0.026648976,-0.6411026,-46.875,-14.156251,-18.6375,0.2397453,-0.726583,0.19582866,995.7863, , , , 
2025-09-28 19:55:30.628,-1.9525433,-11.200803,-1.9405792,-0.32169667,0.2325104,0.008246674,-47.325,-13.462501,-18.487501,0.2390607,-0.7262856,0.19465362,995.77216, , , , 
2025-09-28 19:55:30.648,-3.2135608,-10.724631,-1.7180467,-0.6130792,0.35162905,1.1414008,-45.487503,-11.64375,-19.3875,0.22810522,-0.72794324,0.19804172,995.77216, , , , 
2025-09-28 19:55:30.668,-1.3878372,-9.760324,0.47377887,-0.73158693,0.6607266,2.0906847,-45.600002,-12.168751,-18.73125,0.20937228,-0.7306201,0.20615211,995.7651, , , , 
2025-09-28 19:55:30.688,0.3397808,-9.159725,1.6366907,-0.55626875,0.9997566,2.6838343,-46.125,-9.731251,-18.825,0.19120958,-0.73161805,0.21602212,995.7651, , , , 
2025-09-28 19:55:30.708,2.3306093,-9.817751,0.91884387,-0.20257804,1.1481967,3.2391105,-44.68125,-5.0625,-22.63125,0.15709093,-0.7305041,0.23927955,995.77435, , , , 
2025-09-28 19:55:30.728,3.842873,-11.02852,-0.2009971,0.034437504,0.817108,3.5561492,-46.631252,-2.2875001,-21.975,0.1285934,-0.729372,0.2621253,995.77435, , , , 
2025-09-28 19:55:30.748,4.9986067,-11.933006,-0.8757731,0.16943862,0.4408153,3.7534587,-46.612503,-2.2687502,-23.0625,0.10721592,-0.72946286,0.28081325,995.76215, , , , 
2025-09-28 19:55:30.768,7.4943204,-13.512269,-2.1559331,0.33742642,-0.2598466,3.968483,-41.86875,4.55625,-22.237501,0.06583283,-0.73301166,0.32035592,995.76215, , , , 
2025-09-28 19:55:30.788,8.032705,-13.667803,-2.9048867,0.30749404,-0.3050506,4.049728,-42.975002,7.7812505,-21.84375,0.045502376,-0.7354089,0.3402553,995.736, , , , 
2025-09-28 19:55:30.808,8.200203,-12.873385,-3.2925239,-0.0956767,0.3748419,4.253757,-41.775,11.418751,-24.0375,0.00817128,-0.73693806,0.37161672,995.736, , , , 
2025-09-28 19:55:30.828,8.023134,-12.710674,-2.4861426,-0.4652499,1.0321324,4.388758,-43.0125,15.50625,-23.0625,-0.027611492,-0.73416543,0.3935888,995.7133, , , , 
2025-09-28 19:55:30.848,8.145168,-12.88535,-0.3493521,-0.8055016,1.6051235,4.519483,-38.8875,18.431252,-24.281252,-0.06885618,-0.7274364,0.41245314,995.7133, , , , 
2025-09-28 19:55:30.868,9.439685,-12.610175,1.1916257,-0.75235635,1.1787399,4.4993243,-35.53125,24.768751,-26.38125,-0.111263245,-0.7188063,0.42969283,995.70087, , , , 
2025-09-28 19:55:30.888,10.336994,-12.040684,2.0195422,-0.46280643,0.46097383,4.360658,-35.550003,27.50625,-27.000002,-0.14858189,-0.7112059,0.44737992,995.70087, , , , 
2025-09-28 19:55:30.908,11.4496565,-11.117054,1.5409778,-0.023594651,-0.3502546,4.0656104,-33.487503,27.468752,-27.975,-0.18508083,-0.7034647,0.4716338,995.7082, , , , 
2025-09-28 19:55:30.928,11.992827,-10.600204,0.93320084,0.15844305,-0.60315263,3.79683,-31.7625,31.743752,-27.16875,-0.20240183,-0.6993332,0.48648202,995.7082,37.88834106,127.73976239,145.26202392578125,1.55
2025-09-28 19:55:30.948,12.1866455,-10.171889,-0.3469593,0.12606722,-0.29038984,3.481624,-28.368752,32.49375,-28.800001,-0.22757183,-0.69186056,0.50908005,995.7187, , , , 
2025-09-28 19:55:30.968,12.191431,-9.305687,-0.7322037,-0.17997603,0.53672105,3.2067347,-25.706251,34.237503,-27.018751,-0.24925776,-0.6841178,0.52234066,995.7187, , , , 
2025-09-28 19:55:30.988,12.016755,-8.82473,-0.2656033,-0.3540725,0.9124029,3.0094254,-23.15625,36.73125,-26.343752,-0.26722962,-0.67735183,0.52887833,995.71454, , , , 
2025-09-28 19:55:31.008,12.373286,-8.606983,0.7848458,-0.30703592,0.794506,2.6691737,-22.40625,37.55625,-26.325,-0.29646644,-0.66580606,0.5363609,995.71454, , , , 
2025-09-28 19:55:31.028,12.801601,-8.130812,0.37806597,-0.099341884,0.4701368,2.424217,-19.48125,38.23125,-26.04375,-0.31518352,-0.6572878,0.54256856,995.7221, , , , 
2025-09-28 19:55:31.048,13.306487,-7.475178,-1.5936198,-0.004657844,0.43715012,2.161545,-19.21875,37.3875,-26.025002,-0.33001778,-0.64945364,0.54887944,995.7221, , , , 
2025-09-28 19:55:31.068,13.529019,-7.3698936,-3.0819557,-0.39988735,0.65706146,1.7382157,-14.45625,39.131252,-27.093752,-0.34772888,-0.64156276,0.5522865,995.716, , , , 
2025-09-28 19:55:31.088,14.6225395,-7.769495,-1.8951155,-0.61979866,0.39561132,1.4376702,-12.69375,39.1875,-27.13125,-0.3576777,-0.63902587,0.5516931,995.716, , , , 
2025-09-28 19:55:31.108,16.189838,-8.437093,-0.62931234,-0.52267116,-0.22930336,0.87384206,-11.1,42.075,-25.593752,-0.3677755,-0.63893896,0.55033165,995.6955, , , , 
2025-09-28 19:55:31.128,17.178074,-9.432507,-0.73459655,-0.45853037,-0.38751733,0.4535671,-10.5,40.65,-26.5125,-0.3696749,-0.6416558,0.54931694,995.6955, , , , 
2025-09-28 19:55:31.148,18.161524,-9.8321085,-0.20817557,-0.36873326,-0.32826346,-0.0858265,-11.2875,43.40625,-24.431252,-0.3679671,-0.6459136,0.5469707,995.6984, , , , 
2025-09-28 19:55:31.168,18.82912,-8.465807,0.21774685,-0.25266895,-0.19814926,-0.7144064,-10.743751,40.125,-26.60625,-0.36291945,-0.6510673,0.5430282,995.6984, , , , 
2025-09-28 19:55:31.188,17.821743,-7.668997,0.61734825,-0.18364123,-0.0014508038,-1.4816525,-10.200001,41.41875,-26.737501,-0.35362825,-0.6575606,0.5361427,995.7177, , , , 
2025-09-28 19:55:31.208,13.47877,-8.664411,0.7465607,0.09491312,-0.09308052,-2.40528,-14.718751,40.95,-24.843752,-0.33471203,-0.66734403,0.52409637,995.7177, , , , 
2025-09-28 19:55:31.228,10.676775,-9.726824,0.25603202,0.35514152,-0.45104727,-2.7003279,-15.431251,40.256252,-25.050001,-0.3191142,-0.6737995,0.51737595,995.7297, , , , 
2025-09-28 19:55:31.248,9.23151,-10.667203,-1.0624132,0.45471248,-0.91225016,-2.771188,-18.28125,39.206253,-24.525002,-0.28879362,-0.68498653,0.50835025,995.7297, , , , 
2025-09-28 19:55:31.268,9.997213,-11.581262,-0.10289137,0.3728566,-1.4534764,-2.8683155,-20.00625,38.025,-24.13125,-0.26205003,-0.69542754,0.5015996,995.7341, , , , 
2025-09-28 19:55:31.288,10.794023,-12.179467,1.268196,0.43577567,-1.9403356,-3.002095,-24.375002,37.443752,-23.025002,-0.23911448,-0.704798,0.4969465,995.7341, , , , 
2025-09-28 19:55:31.308,12.29193,-12.579068,2.0410776,0.81573355,-2.779053,-3.4681847,-27.35625,36.525,-22.650002,-0.1922021,-0.7222618,0.4912805,995.73846, , , , 
2025-09-28 19:55:31.328,12.045469,-12.543177,-0.4881358,0.68561935,-2.3319,-3.8456993,-31.425001,35.11875,-23.85,-0.14954202,-0.7355719,0.48562473,995.73846, , , , 
2025-09-28 19:55:31.348,11.344372,-12.710674,-1.9166509,-0.13843723,-0.8065706,-4.1865616,-32.8125,31.85625,-23.831251,-0.10187722,-0.7485041,0.46864232,995.7475, , , , 
2025-09-28 19:55:31.370,10.387243,-13.4763775,-0.06699903,-0.577649,0.5141191,-4.410138,-33.9375,30.750002,-23.025002,-0.072339304,-0.75386995,0.44617042,995.7475, , , , 
2025-09-28 19:55:31.388,9.540184,-14.167903,1.0983056,-0.52022773,0.9576069,-4.546972,-39.1875,26.812502,-19.462502,-0.052653898,-0.7545204,0.4273354,995.74115, , , , 
2025-09-28 19:55:31.408,8.860622,-14.584254,1.5361922,-0.10789399,0.45364347,-4.6715884,-39.375,22.95,-19.6875,-0.017889041,-0.7524577,0.39675325,995.74115, , , , 
2025-09-28 19:55:31.428,8.360522,-14.340186,1.3878372,0.20364705,-0.26229006,-4.7760463,-40.331253,17.268751,-22.050001,0.015222334,-0.75127584,0.37409374,995.748, , , , 
2025-09-28 19:55:31.448,6.843473,-13.854444,0.42831525,0.38385215,-0.872544,-4.805979,-42.018753,13.2375,-22.575,0.05271651,-0.75147176,0.3522485,995.748, , , , 
2025-09-28 19:55:31.468,5.2929235,-13.213166,-0.6843473,0.20242532,-0.93240875,-4.601339,-45.318752,8.887501,-17.19375,0.099555455,-0.7519913,0.32445517,995.75165, , , , 
2025-09-28 19:55:31.488,4.3525443,-12.574283,-0.7680961,-0.0058795735,-0.74670583,-4.3905907,-45.881252,4.0875,-15.618751,0.1249725,-0.7517086,0.30711618,995.75165, , , , 
2025-09-28 19:55:31.508,3.0580273,-11.784652,-0.083748795,-0.23861906,-0.31360272,-3.9703157,-48.112503,-0.50625,-15.900001,0.16137718,-0.7488391,0.27824178,995.73676, , , , 
2025-09-28 19:55:31.528,2.1367905,-11.196017,-0.023928227,-0.24045165,-0.025885396,-3.5958555,-49.2,-3.825,-17.90625,0.18583381,-0.7442662,0.2569128,995.73676, , , , 
2025-09-28 19:55:31.548,0.21296121,-10.492527,-1.0097711,-0.23006694,0.15554145,-3.0589054,-47.2125,-7.1062503,-18.243752,0.2066976,-0.73828435,0.23826316,995.74066, , , , 
2025-09-28 19:55:31.568,-1.1676974,-9.781859,-1.2370893,-0.35468337,0.09873102,-2.4089453,-48.7125,-9.4875,-18.712502,0.22307217,-0.73294413,0.22221465,995.74066, , , , 
2025-09-28 19:55:31.588,-1.4883357,-9.288938,-0.64845496,-0.46830422,0.24411684,-1.786474,-43.95,-10.6125,-19.3125,0.23375621,-0.72894555,0.20903133,995.73334, , , , 
2025-09-28 19:55:31.608,-1.4811572,-9.104691,-0.3804588,-0.49579313,0.7651845,-0.9954042,-46.18125,-12.093751,-18.056252,0.2388331,-0.7231384,0.19841452,995.73334, , , , 
2025-09-28 19:55:31.628,-2.4502504,-9.219545,-0.9284152,-0.509843,0.9056834,-0.45601055,-47.25,-12.95625,-17.4375,0.23815838,-0.7191229,0.19525342,995.73773, , , , 
2025-09-28 19:55:31.648,-3.211168,-9.927821,-1.3950156,-0.5495492,0.75357807,0.30207264,-44.381252,-15.000001,-20.71875,0.23295243,-0.71525127,0.19439864,995.73773, , , , 
2025-09-28 19:55:31.668,-3.0915267,-9.968499,-0.6867401,-0.52022773,0.30581418,1.3399318,-44.456253,-10.9125,-19.5375,0.21858793,-0.7156674,0.1996736,995.74457, , , , 
2025-09-28 19:55:31.688,-1.0169497,-9.367901,-0.09332009,-0.39011353,0.1824195,2.1090107,-44.850002,-10.81875,-20.90625,0.2014609,-0.7195585,0.20970768,995.74457, , , , 
2025-09-28 19:55:31.708,0.7920243,-9.762716,-0.4211368,-0.30947936,0.28932083,2.7412558,-43.818752,-11.700001,-23.268751,0.18035631,-0.7236405,0.22439986,995.7387, , , , 
2025-09-28 19:55:31.728,2.9359934,-10.798809,0.19621146,-0.16226095,0.115835235,3.1688612,-45.018753,-7.2375,-20.475,0.15603524,-0.7279383,0.24254024,995.7387, , , , 
2025-09-28 19:55:31.748,4.6707897,-11.533405,0.25124636,0.04054615,-0.11018474,3.3759441,-45.506252,-3.2812502,-22.5,0.13708936,-0.7316253,0.2582162,995.7348, , , , 
2025-09-28 19:55:31.768,6.0323057,-12.368501,-1.308874,0.22991423,-0.15599959,3.5677557,-45.075,-1.2375001,-23.268751,0.10592165,-0.73757297,0.28720263,995.7348, , , , 
2025-09-28 19:55:31.788,6.4031935,-13.052848,-2.457429,0.10224349,0.060857404,3.7552912,-44.71875,2.8875,-21.225,0.07942391,-0.7410125,0.3111868,995.72406, , , , 
2025-09-28 19:55:31.808,7.379465,-12.997812,-2.2564318,-0.30581418,0.6173552,4.039954,-43.237503,6.4125004,-23.2875,0.040082283,-0.74214417,0.33984584,995.72406, , , , 
2025-09-28 19:55:31.828,8.26481,-12.268002,-0.8327023,-0.47319114,0.67722,4.0888233,-43.443752,12.093751,-21.431252,0.004935522,-0.740754,0.36067882,995.70624, , , , 
2025-09-28 19:55:31.848,8.630911,-11.607583,-0.2009971,-0.4334849,0.51778424,4.0344563,-41.04375,15.20625,-22.1625,-0.02093372,-0.7392544,0.37547234,995.70624, , , , 
2025-09-28 19:55:31.868,8.432307,-10.693524,0.3589234,-0.28565565,0.3363574,3.9025097,-38.60625,17.7,-23.643751,-0.061293367,-0.73593956,0.3992604,995.7006, , , , 
2025-09-28 19:55:31.888,8.551949,-10.928021,0.5910272,-0.1512654,0.279547,3.8902924,-38.850002,23.775002,-23.8125,-0.09160118,-0.7320037,0.41811693,995.7006, , , , 
2025-09-28 19:55:31.908,10.052248,-11.222338,0.64845496,0.14989094,0.032757625,3.8542514,-37.4625,24.69375,-25.556252,-0.12670703,-0.7253937,0.44275054,995.7038, , , , 
2025-09-28 19:55:31.928,10.959127,-11.176874,-0.6556334,0.3276526,-0.18287764,3.7271914,-34.5,28.35,-26.681252,-0.14516596,-0.7209629,0.45808044,995.7038,37.88833486,127.7397448,145.378173828125,1.47
2025-09-28 19:55:31.948,11.346765,-11.186446,-2.2899313,0.26656613,-0.17004949,3.5769186,-33.05625,27.50625,-27.2625,-0.16212088,-0.7164697,0.472817,995.7026, , , , 
2025-09-28 19:55:31.968,11.4496565,-11.227124,-1.1653047,-0.1928042,-0.11751511,3.3802202,-32.2125,30.45,-25.050001,-0.19586772,-0.70877373,0.4961307,995.7026, , , , 
2025-09-28 19:55:31.988,12.19861,-10.202995,1.0863415,-0.1042288,-0.118125975,3.267821,-28.406252,33.956253,-25.95,-0.21233493,-0.7050962,0.50591546,995.6823, , , , 
2025-09-28 19:55:32.008,12.870993,-9.071191,-0.715454,0.08147409,0.6448441,2.9556692,-26.737501,35.100002,-23.868752,-0.23806554,-0.6956553,0.52152467,995.6823, , , , 
2025-09-28 19:55:32.028,12.289537,-8.676374,-2.0961127,-0.16714787,1.2966368,2.7931793,-22.85625,35.268753,-27.225,-0.26096508,-0.68533546,0.5296708,995.6994, , , , 
2025-09-28 19:55:32.048,12.672389,-8.094919,-1.3208381,-0.39133525,1.3900992,2.6429064,-22.0125,35.9625,-25.35,-0.28616047,-0.67464036,0.53368324,995.6994, , , , 
2025-09-28 19:55:32.068,13.818551,-7.298109,-0.52163535,-0.18303037,0.7731257,2.328922,-18.46875,37.350002,-28.10625,-0.3129523,-0.66300225,0.53826934,995.69525, , , , 
2025-09-28 19:55:32.088,14.163117,-7.1545396,-1.2179468,-0.05780308,0.50801045,2.0998478,-14.85,36.35625,-28.125002,-0.32095423,-0.6590806,0.54069763,995.69525, , , , 
2025-09-28 19:55:32.108,14.263616,-7.7407813,-3.3786657,-0.22823435,0.46708247,1.6019928,-15.20625,39.05625,-27.618752,-0.33978444,-0.6501358,0.54618835,995.6921, , , , 
2025-09-28 19:55:32.128,13.560126,-8.489735,-2.9623144,-0.5342776,0.54099715,1.3313798,-13.125001,40.631252,-27.618752,-0.351511,-0.64683264,0.5455885,995.6921, , , , 
2025-09-28 19:55:32.148,13.864015,-9.15494,-1.2921243,-0.5477166,0.15737404,1.2153155,-11.418751,41.8125,-28.031252,-0.35917318,-0.64574224,0.5444405,995.68915, , , , 
2025-09-28 19:55:32.168,16.960327,-7.8580294,0.7082755,0.017944153,-1.0625229,0.7223476,-13.51875,40.443752,-23.868752,-0.3629189,-0.64667726,0.5473857,995.68915, , , , 
2025-09-28 19:55:32.188,17.982061,-6.6448684,0.24885355,0.21952952,-1.2848777,-0.0070249448,-14.681251,41.193752,-24.093752,-0.3556979,-0.6502936,0.55237377,995.7109, , , , 
2025-09-28 19:55:32.208,15.993627,-7.578069,-0.50488555,0.27267477,-0.9232457,-1.1646137,-11.8125,41.49375,-25.500002,-0.33875176,-0.65786886,0.5538857,995.7109, , , , 
2025-09-28 19:55:32.228,13.505091,-9.071191,-1.7754744,0.2323577,-0.82795084,-1.7675372,-13.968751,40.275,-25.050001,-0.32585496,-0.6635459,0.5519539,995.71844, , , , 
2025-09-28 19:55:32.248,10.990234,-10.430314,-2.6799614,0.023441937,-0.8927025,-2.0803,-13.687501,40.6875,-27.4125,-0.30652544,-0.6729542,0.54682165,995.71844, , , , 
2025-09-28 19:55:32.268,10.676775,-10.944771,-1.4380864,-0.31375542,-0.7888555,-2.2324054,-16.7625,40.237503,-25.06875,-0.28248233,-0.6868194,0.53681856,995.7204, , , , 
2025-09-28 19:55:32.288,11.413764,-11.093125,-0.31345975,-0.4096612,-0.610483,-2.4181082,-21.46875,38.643753,-25.556252,-0.2683242,-0.6952629,0.528876,995.7204, , , , 
2025-09-28 19:55:32.308,11.980863,-11.176874,0.75613195,-0.40233082,-0.34720027,-2.7510295,-21.16875,38.04375,-24.16875,-0.24870794,-0.70586115,0.5162938,995.7204, , , , 
2025-09-28 19:55:32.328,11.789437,-11.129018,1.6366907,-0.2691623,-0.028328855,-3.2745407,-27.91875,35.325,-20.681252,-0.22196683,-0.7173124,0.49782696,995.7231, , , , 
2025-09-28 19:55:32.348,11.657832,-11.274981,1.9262222,-0.12744166,0.06024654,-3.57081,-26.85,33.84375,-23.643751,-0.20413223,-0.72304976,0.4857009,995.7309, , , , 
2025-09-28 19:55:32.368,10.394422,-11.775081,1.1629118,0.13706279,0.18608469,-4.0656104,-31.218752,34.65,-24.150002,-0.16314304,-0.7316956,0.45993477,995.7309, , , , 
2025-09-28 19:55:32.388,10.217353,-12.019148,0.062213387,0.14866921,0.3491856,-4.3160653,-30.431252,31.368752,-24.206251,-0.14094603,-0.73453414,0.44596982,995.7509, , , , 
2025-09-28 19:55:32.408,9.442079,-12.9547415,0.12203395,0.086361006,0.48479757,-4.661204,-35.193752,29.737501,-21.45,-0.10261977,-0.7375967,0.41922995,995.7509, , , , 
2025-09-28 19:55:32.428,8.7577305,-13.459627,0.11724831,0.12362376,0.44142616,-4.7839875,-39.05625,25.10625,-21.54375,-0.0706792,-0.7384072,0.3959534,995.73334, , , , 
2025-09-28 19:55:32.448,8.02792,-13.584054,0.023928227,0.17615813,0.33819002,-4.8126984,-36.787502,23.75625,-24.806252,-0.046035126,-0.738238,0.37816712,995.73334, , , , 
2025-09-28 19:55:32.468,7.300502,-13.227524,-0.8063812,0.21097742,0.21723878,-4.7583313,-41.625,16.0125,-21.84375,-0.0044621313,-0.7367266,0.34851852,995.7297, , , , 
2025-09-28 19:55:32.488,6.862615,-12.8111725,-1.3040884,0.10651954,0.17142393,-4.6893034,-40.631252,16.5,-22.125,0.020053143,-0.7351362,0.33035192,995.7297, , , , 
2025-09-28 19:55:32.508,5.13739,-11.877972,-0.94755775,-0.06269,0.04925097,-4.507877,-42.54375,7.5937505,-23.737501,0.066560864,-0.7312868,0.292469,995.7248, , , , 
2025-09-28 19:55:32.528,4.007978,-11.413764,-0.39960137,-0.10545053,-0.028939718,-4.2775807,-45.975002,4.6312504,-21.825,0.08821047,-0.7291108,0.27348784,995.7248, , , , 
2025-09-28 19:55:32.548,3.0939198,-11.607583,-0.20578274,-0.07918335,-0.11262819,-3.959931,-45.80625,2.5125,-21.5625,0.115121655,-0.72592574,0.24950038,995.71576, , , , 
2025-09-28 19:55:32.568,1.5481563,-12.940385,-0.8470592,-0.048029244,-0.25251624,-3.3160794,-45.3375,-2.4,-21.487501,0.14465001,-0.72234124,0.22337505,995.71576, , , , 
2025-09-28 19:55:32.588,-0.08853444,-12.303894,-1.591227,-0.16470441,-0.16027565,-2.6966627,-45.65625,-6.2812505,-23.23125,0.15884076,-0.7206297,0.21027151,995.7265, , , , 
2025-09-28 19:55:32.608,-2.254039,-11.13859,-2.3042881,-0.5361102,0.10117448,-1.7724241,-44.98125,-7.9687505,-22.44375,0.1733939,-0.7181228,0.19235696,995.7265, , , , 
2025-09-28 19:55:32.628,-4.1036906,-10.595419,-1.0983056,-0.7242566,0.05902481,-0.82314026,-43.0125,-6.4875,-25.81875,0.17633702,-0.71712375,0.18165842,995.72406, , , , 
2025-09-28 19:55:32.648,-3.8787656,-11.270195,-0.047856454,-0.509843,-0.17982332,-0.17195843,-42.2625,-7.7812505,-25.050001,0.17487182,-0.7179262,0.17705089,995.72406, , , , 
2025-09-28 19:55:32.668,-3.0149565,-11.672189,-1.6749759,-0.14576761,-0.5487856,1.0198387,-44.15625,-9.95625,-25.800001,0.16609505,-0.72419626,0.18025334,995.73016, , , , 
2025-09-28 19:55:32.688,-1.375873,-11.08834,-1.7180467,-0.19341506,-0.4473821,1.7815871,-45.412502,-6.39375,-21.862501,0.1572369,-0.7290854,0.18692134,995.73016, , , , 
2025-09-28 19:55:32.708,1.0073783,-10.521241,-1.0097711,-0.24533857,-0.11751511,2.3350306,-45.6375,-6.0375004,-21.393751,0.139956,-0.7348851,0.19965412,995.7275, , , , 
2025-09-28 19:55:32.728,3.3882368,-10.578669,-0.1363909,-0.039477136,0.027870705,2.7430882,-43.4625,-1.95,-23.400002,0.113598675,-0.7394541,0.2202357,995.7275, , , , 
2025-09-28 19:55:32.748,4.165904,-10.939985,-0.3924229,0.21036656,-0.19692753,2.9269586,-44.625,-1.0875001,-22.556252,0.09770776,-0.74200606,0.23497656,995.72675, , , , 
2025-09-28 19:55:32.768,5.3790655,-11.464013,-1.6031911,0.49625129,-0.4822014,3.2568257,-43.8375,2.7375002,-23.175001,0.07184458,-0.746992,0.26311797,995.72675, , , , 
2025-09-28 19:55:32.788,6.2213387,-11.7463665,-2.457429,0.5011382,-0.49441868,3.408931,-45.693752,5.3812504,-20.6625,0.050509427,-0.7506925,0.28744465,995.7177, , , , 
2025-09-28 19:55:32.808,6.666404,-11.645867,-2.4239295,0.35391977,-0.3991238,3.53538,-44.362503,7.6312504,-19.5375,0.021916669,-0.7541346,0.31728736,995.7177, , , , 
2025-09-28 19:55:32.828,6.9678993,-11.19841,-1.6630118,0.3087158,-0.33925903,3.6196792,-41.4,12.675,-22.143751,0.0037103964,-0.7553238,0.3346201,995.6982, , , , 
2025-09-28 19:55:32.848,7.499106,-10.612168,-1.2323036,0.33376125,-0.20303617,3.661829,-41.98125,14.231251,-21.243752,-0.021144457,-0.7554086,0.35751304,995.6982, , , , 
2025-09-28 19:55:32.868,7.84128,-10.083355,-1.4093726,0.31971136,0.16898046,3.6325073,-41.756252,17.493752,-22.06875,-0.052837677,-0.7522346,0.38520226,995.6977, , , , 
2025-09-28 19:55:32.888,7.838887,-10.167104,-1.4117653,0.28367034,0.3088685,3.628842,-37.4625,21.525002,-19.650002,-0.072395384,-0.7487529,0.40090775,995.6977, , , , 
2025-09-28 19:55:32.908,8.62134,-10.566705,-1.591227,0.19692753,0.44325876,3.606851,-37.725002,26.38125,-23.925001,-0.11251327,-0.7393154,0.4302861,995.6877, , , , 
2025-09-28 19:55:32.928,8.8701935,-10.786844,-1.6941184,0.11018474,0.4426479,3.5640905,-35.943752,27.825,-25.743752,-0.13246067,-0.7340368,0.44375005,995.6877,37.88832994,127.73973076,144.50164794921875,1.19
2025-09-28 19:55:32.948,9.466006,-10.676775,-1.6175481,-0.040088,0.5672643,3.5237734,-35.41875,29.737501,-24.975,-0.16598976,-0.724598,0.46390736,995.68427, , , , 
2025-09-28 19:55:32.968,9.693324,-10.30828,-1.4668003,-0.1512654,0.74808025,3.4681847,-33.956253,28.1625,-27.206251,-0.1934015,-0.71605384,0.47767234,995.68427, , , , 
2025-09-28 19:55:32.988,9.882358,-9.68136,-1.2562319,-0.22823435,0.8213841,3.4229808,-31.63125,31.875002,-24.88125,-0.21417332,-0.70909166,0.48675078,995.68353, , , , 
2025-09-28 19:55:33.008,11.045269,-8.566305,-0.3589234,-0.14576761,0.6747765,3.3240206,-27.712502,35.268753,-25.63125,-0.24780664,-0.696927,0.5005012,995.68353, , , , 
2025-09-28 19:55:33.028,12.354143,-7.9776707,-0.7393822,0.09430225,0.45242172,3.1285439,-25.612501,36.225002,-25.7625,-0.27108952,-0.6868677,0.51188517,995.6862, , , , 
2025-09-28 19:55:33.048,13.024134,-7.355537,-2.4598217,0.20670137,0.3033707,2.8738134,-20.98125,35.850002,-27.300001,-0.28566974,-0.6794648,0.52059233,995.6862, , , , 
2025-09-28 19:55:33.068,13.940585,-7.025327,-3.8644085,-0.09506583,0.3681224,2.40528,-18.28125,39.956253,-24.4125,-0.31106243,-0.6671019,0.5338471,995.6911, , , , 
2025-09-28 19:55:33.088,14.170296,-6.853044,-3.5150564,-0.31864235,0.42248935,2.1138976,-17.325,38.081253,-26.118752,-0.32283264,-0.6626727,0.53711927,995.6911, , , , 
2025-09-28 19:55:33.108,15.002998,-7.176075,-2.1750758,-0.51961684,0.3278053,1.5702279,-16.612501,39.506252,-25.181252,-0.33992243,-0.65803,0.53863907,995.6789, , , , 
2025-09-28 19:55:33.128,15.452848,-7.7096744,-1.2658032,-0.5361102,0.15920663,1.1139119,-13.968751,40.275,-25.050001,-0.3492412,-0.6569324,0.53773105,995.6789, , , , 
2025-09-28 19:55:33.148,15.388243,-8.075776,-0.79920274,-0.5049561,0.08468113,0.6667589,-15.618751,41.5875,-23.71875,-0.35346943,-0.6574027,0.5361516,995.68134, , , , 
2025-09-28 19:55:33.168,15.567704,-9.925428,0.0071784677,-0.38950264,0.0022143847,0.040011644,-12.825001,41.625,-24.31875,-0.35615,-0.6599138,0.53194606,995.68134, , , , 
2025-09-28 19:55:33.188,15.357136,-9.592826,0.22971097,-0.18425208,-0.15905392,-0.28741187,-12.0,42.84375,-24.468752,-0.35391343,-0.6629686,0.52849543,995.69403, , , , 
2025-09-28 19:55:33.208,15.799808,-7.5996046,-0.47377887,-0.04741838,-0.39545858,-0.97341305,-13.031251,41.25,-25.500002,-0.3446367,-0.66859853,0.524468,995.69403, , , , 
2025-09-28 19:55:33.228,14.443077,-8.118847,-0.37567315,-0.108504854,-0.47426015,-1.6172645,-16.462502,40.36875,-22.78125,-0.33527333,-0.6740578,0.5202541,995.7116, , , , 
2025-09-28 19:55:33.248,12.622139,-9.49472,0.033499517,-0.10361794,-0.6263655,-2.0198245,-15.000001,41.8875,-22.40625,-0.32336172,-0.6808524,0.5147062,995.7116, , , , 
2025-09-28 19:55:33.268,10.990234,-11.676974,0.8063812,0.033215772,-1.2268455,-2.3490806,-21.618752,39.7125,-20.962502,-0.2925799,-0.6969438,0.5039808,995.72186, , , , 
2025-09-28 19:55:33.288,11.181661,-11.877972,1.2897314,0.12851068,-1.4626393,-2.501186,-21.618752,40.21875,-23.625,-0.27411017,-0.705737,0.49957636,995.72186, , , , 
2025-09-28 19:55:33.308,11.643475,-11.808579,1.6510476,0.1786016,-1.4314853,-2.713156,-22.7625,39.73125,-22.3875,-0.2473322,-0.71733135,0.49346456,995.7375, , , , 
2025-09-28 19:55:33.328,10.892129,-11.676974,2.321038,0.21464261,-1.0289254,-3.1242678,-26.718752,38.4375,-20.5125,-0.21196307,-0.73031753,0.48329008,995.7375, , , , 
2025-09-28 19:55:33.348,10.152746,-11.241481,3.034099,0.36247188,-0.78641206,-3.3582292,-29.175001,34.0875,-22.0125,-0.18284482,-0.73850274,0.47344893,995.7541, , , , 
2025-09-28 19:55:33.368,9.84168,-10.968699,2.8570302,0.56100297,-0.6868411,-3.7131417,-32.86875,33.956253,-21.9375,-0.14375778,-0.74581945,0.46037605,995.7541, , , , 
2025-09-28 19:55:33.388,9.343972,-11.126625,2.8881369,0.7069996,-0.6141482,-4.017963,-34.237503,32.193752,-21.993752,-0.118219845,-0.7490271,0.45172906,995.7729, , , , 
2025-09-28 19:55:33.408,8.772088,-12.009577,2.0673988,0.8395573,-0.52068585,-4.262309,-35.568752,28.687502,-20.118752,-0.07297006,-0.7519693,0.43636537,995.7729, , , , 
2025-09-28 19:55:33.428,8.216953,-12.378072,1.4835501,0.80168366,-0.39423686,-4.3233953,-37.987503,25.66875,-16.29375,-0.036175717,-0.75235045,0.4228407,995.78754, , , , 
2025-09-28 19:55:33.448,7.7814593,-12.44507,1.1892328,0.6709586,-0.17127122,-4.2867436,-40.4625,21.84375,-20.1375,-7.701334E-4,-0.75098884,0.40794668,995.78754, , , , 
2025-09-28 19:55:33.468,8.003992,-12.246467,1.5457634,0.61598074,-0.08697187,-4.2610874,-41.8125,17.25,-22.050001,0.032950185,-0.7480222,0.39194942,995.78876, , , , 
2025-09-28 19:55:33.488,8.315059,-12.174682,1.8544376,0.68256503,-0.12301289,-4.3075128,-43.74375,12.3,-18.7875,0.06647993,-0.7436704,0.37541768,995.78876, , , , 
2025-09-28 19:55:33.508,7.173682,-11.954542,1.39023,0.74853843,-0.24457498,-4.315454,-43.537502,8.71875,-21.075,0.10075435,-0.7380949,0.3586771,995.7941, , , , 
2025-09-28 19:55:33.528,6.2931237,-11.700903,1.5314065,0.74670583,-0.40278897,-4.198779,-45.825,4.33125,-15.95625,0.13485739,-0.73226935,0.34173343,995.7941, , , , 
2025-09-28 19:55:33.548,4.800002,-11.191232,1.4380864,0.7558688,-0.37224573,-3.927555,-48.468754,-1.5187501,-16.725,0.1756763,-0.72440773,0.32121548,995.79364, , , , 
2025-09-28 19:55:33.568,3.4193435,-10.966306,0.7609176,0.70272356,-0.1211803,-3.4596326,-47.850002,-4.425,-18.16875,0.20483887,-0.7168993,0.30658528,995.79364, , , , 
2025-09-28 19:55:33.588,2.3401806,-10.487741,0.33260235,0.6440806,0.017486004,-3.082729,-46.875,-8.306251,-18.35625,0.22375223,-0.7107403,0.2971128,995.8051, , , , 
2025-09-28 19:55:33.608,1.146162,-9.446864,-0.19142582,0.55611604,0.12255475,-2.459036,-46.443752,-11.137501,-16.5375,0.24980594,-0.70058453,0.28432235,995.8051, , , , 
2025-09-28 19:55:33.628,0.014356935,-9.013762,-0.83988076,0.4559342,0.16592614,-1.9202534,-44.268753,-12.0375,-18.112501,0.26607946,-0.69331104,0.27666342,995.79974, , , , 
2025-09-28 19:55:33.648,-1.5122639,-8.63809,-1.4548361,0.27939427,0.22640176,-1.2067634,-46.0125,-15.69375,-18.487501,0.27969912,-0.68633723,0.27058586,995.79974, , , , 
2025-09-28 19:55:33.668,-1.9573289,-9.049655,-1.3351951,0.12728895,0.19219333,-0.47800168,-44.5875,-14.531251,-20.25,0.28433,-0.6831294,0.26906908,995.78876, , , , 
2025-09-28 19:55:33.688,-1.6151553,-9.6071825,-1.1653047,0.11140647,0.085292,0.00641408,-46.78125,-15.76875,-17.625,0.28461823,-0.6826364,0.2696914,995.78876, , , , 
2025-09-28 19:55:33.708,-0.80159557,-9.293723,-1.1940185,0.09185879,-0.13217586,1.1902701,-45.7125,-14.156251,-18.618752,0.27810815,-0.6859379,0.2780083,995.78436, , , , 
2025-09-28 19:55:33.728,0.5599205,-8.846265,-1.1940185,0.050319985,-0.15599959,1.7620394,-45.375,-13.89375,-17.8875,0.26773643,-0.69127685,0.28837797,995.78436, , , , 
2025-09-28 19:55:33.748,2.2229323,-8.370093,-0.75613195,0.0112246405,-0.098578304,2.2941027,-45.43125,-13.51875,-18.525002,0.2531977,-0.6978144,0.3015983,995.7707, , , , 
2025-09-28 19:55:33.768,3.211168,-8.760123,-0.6771688,0.04421134,-0.016722424,2.5659375,-46.74375,-9.918751,-19.2,0.23585734,-0.7042769,0.31689724,995.7707, , , , 
2025-09-28 19:55:33.788,3.3810585,-9.52822,-0.8207382,0.105908684,-0.11018474,2.8420484,-46.0875,-7.36875,-18.487501,0.2167149,-0.71066177,0.3339307,995.76044, , , , 
2025-09-28 19:55:33.808,4.7569313,-10.628919,-1.0648061,0.25923574,-0.36796966,3.273319,-46.18125,-6.2625003,-17.925001,0.19073875,-0.71981597,0.35802612,995.76044, , , , 
2025-09-28 19:55:33.828,5.790631,-11.332408,-1.8544376,0.29894194,-0.38079783,3.4926193,-44.831253,-1.03125,-17.2875,0.17419618,-0.7253955,0.3737916,995.7453, , , , 
2025-09-28 19:55:33.848,6.206982,-11.810972,-2.5722845,0.17737986,-0.2323577,3.7015352,-45.412502,-1.7062501,-17.04375,0.15008095,-0.73221093,0.39516243,995.7453, , , , 
2025-09-28 19:55:33.869,6.9296145,-11.944971,-2.0171494,-0.12927426,0.064522594,3.9874198,-46.78125,5.25,-17.90625,0.11462697,-0.73931813,0.42083436,995.71893, , , , 
2025-09-28 19:55:33.888,7.7623167,-11.99522,-0.22492532,-0.1146135,-0.005726857,4.1065383,-47.5125,7.6312504,-14.868751,0.0835261,-0.743656,0.44053572,995.71893, , , , 
2025-09-28 19:55:33.908,8.645268,-12.270394,0.85902333,0.35269806,-0.610483,4.162127,-45.956253,13.1625,-15.825001,0.054455757,-0.7469942,0.46136862,995.7028, , , , 
2025-09-28 19:55:33.928,9.817751,-12.660424,0.21296121,0.9104176,-1.2903755,4.132195,-43.6875,16.25625,-16.85625,0.030714788,-0.74959475,0.4847488,995.7028,37.88832443,127.73971676,144.69256591796875,1.34
2025-09-28 19:55:33.948,10.801202,-12.4115715,-1.1940185,1.2011893,-1.617799,4.0240717,-43.0875,19.931252,-17.4375,0.016776433,-0.7508554,0.5035821,995.70184, , , , 
2025-09-28 19:55:33.968,11.243874,-11.897114,-3.5365918,1.1003965,-1.5286127,3.7754498,-44.8125,20.98125,-15.918751,-0.0058125323,-0.75163114,0.5391096,995.70184, , , , 
2025-09-28 19:55:33.988,11.729616,-11.143375,-3.4456646,0.8670462,-1.2537236,3.653277,-41.006252,25.987501,-16.612501,-0.017593145,-0.75135857,0.55396587,995.68524, , , , 
2025-09-28 19:55:34.008,11.983255,-9.449257,-2.07697,0.4993056,-0.5946005,3.2904232,-41.90625,26.75625,-14.55,-0.03913939,-0.7498112,0.5738109,995.68524, , , , 
2025-09-28 19:55:34.028,11.734403,-8.377272,-1.2346965,0.39423686,-0.13034327,2.9532259,-37.4625,27.581251,-15.825001,-0.057237275,-0.7471281,0.58603776,995.6672, , , , 
2025-09-28 19:55:34.048,11.1936245,-7.972885,-1.0600204,0.3398699,0.23984079,2.6807802,-37.631252,28.837502,-17.737501,-0.07101788,-0.74413145,0.59358144,995.6672, , , , 
2025-09-28 19:55:34.068,10.100104,-7.62114,-1.0432707,0.32826346,0.5141191,2.356411,-35.11875,32.0625,-15.093751,-0.09385578,-0.7379322,0.60403895,995.66547, , , , 
2025-09-28 19:55:34.088,10.193424,-7.432107,-0.93559366,0.39301512,0.41882417,2.2495096,-33.2625,33.24375,-15.20625,-0.10670701,-0.73384726,0.60981727,995.66547, , , , 
2025-09-28 19:55:34.108,11.29173,-7.233503,-2.120041,0.6281981,0.13660464,2.0057745,-32.475002,34.8375,-17.38125,-0.12781724,-0.72482985,0.62221897,995.65765, , , , 
2025-09-28 19:55:34.128,11.784652,-6.7812595,-3.562913,0.565279,-0.036880963,1.7388266,-29.625002,36.487503,-17.94375,-0.13789134,-0.7192428,0.6301433,995.65765, , , , 
2025-09-28 19:55:34.148,12.224931,-6.704689,-3.8548372,0.3777435,-0.14256057,1.5097523,-28.500002,36.35625,-17.587502,-0.14375445,-0.71631074,0.6346486,995.65106, , , , 
2025-09-28 19:55:34.168,12.966706,-7.3292155,-2.7996025,0.07353285,-0.50846857,1.0198387,-28.556252,38.2125,-17.38125,-0.14961204,-0.71450216,0.63910306,995.65106, , , , 
2025-09-28 19:55:34.188,13.820944,-7.8556366,-1.8783658,0.032604907,-0.86460274,0.6875283,-27.393751,38.2125,-17.025002,-0.14921871,-0.71532124,0.6412615,995.6391, , , , 
2025-09-28 19:55:34.208,14.94557,-9.865608,-1.3950156,0.018555017,-1.1700351,0.27580544,-25.462502,39.037502,-18.056252,-0.14405113,-0.7173027,0.6429644,995.6391, , , , 
2025-09-28 19:55:34.228,15.957734,-10.042677,-0.19381863,-0.03825541,-1.5396084,-0.022296565,-27.093752,38.25,-17.38125,-0.13466753,-0.7205171,0.64409375,995.6474, , , , 
2025-09-28 19:55:34.248,17.14936,-8.578269,1.3998013,-0.022983788,-1.6159664,-0.66065025,-25.425001,36.412502,-16.837502,-0.11610684,-0.72572994,0.64471006,995.6474, , , , 
2025-09-28 19:55:34.268,15.443277,-7.3459654,1.2897314,-0.09995275,-0.81206834,-1.466381,-28.687502,39.412502,-13.106251,-0.09828892,-0.72960114,0.6428771,995.6574, , , , 
2025-09-28 19:55:34.288,12.067004,-7.8221374,1.3639089,-0.24045165,-0.29894194,-1.9880594,-31.7625,37.237503,-12.975,-0.08536333,-0.73228335,0.6392072,995.6574, , , , 
2025-09-28 19:55:34.308,9.683753,-8.745767,2.507678,-0.14332415,-0.6086504,-2.1969752,-30.31875,35.643753,-13.33125,-0.06681864,-0.73575026,0.63326865,995.6828, , , , 
2025-09-28 19:55:34.328,9.382257,-10.095319,2.8977082,0.23846634,-1.7338634,-2.3735151,-32.362503,35.68125,-13.425,-0.035983674,-0.7393383,0.6283405,995.6828, , , , 
2025-09-28 19:55:34.348,11.057234,-10.939985,2.8426733,0.26778784,-2.0820563,-2.6032002,-34.143753,32.756252,-12.150001,-0.004952354,-0.74202985,0.625281,995.7126, , , , 
2025-09-28 19:55:34.368,11.569298,-11.511869,4.0845485,0.06253728,-1.9494985,-2.9239042,-36.9375,32.831253,-10.78125,0.028439663,-0.7446262,0.62029326,995.7126, , , , 
2025-09-28 19:55:34.388,11.263016,-11.586047,5.493921,0.0045051277,-1.6978223,-3.1584764,-37.800003,32.23125,-10.200001,0.05373185,-0.7461561,0.61493176,995.7348, , , , 
2025-09-28 19:55:34.408,10.047462,-11.710474,7.3459654,0.22319472,-1.3233622,-3.3796093,-41.90625,29.550001,-7.14375,0.08708295,-0.74590254,0.6074451,995.7348, , , , 
2025-09-28 19:55:34.428,8.678768,-11.669796,6.6017976,0.655687,-0.9892191,-3.5598145,-43.912502,26.85,-6.4687505,0.1361528,-0.73827255,0.59933585,995.77875, , , , 
2025-09-28 19:55:34.448,8.116454,-11.693725,6.5347986,0.8982003,-0.9849431,-3.6441138,-43.21875,23.8125,-5.7562504,0.16910477,-0.72986156,0.59484166,995.77875, , , , 
2025-09-28 19:55:34.468,9.075976,-11.696117,5.7786665,1.1315507,-1.0301471,-3.7186394,-46.85625,19.800001,-2.8125,0.20295979,-0.71919847,0.59099966,995.8132, , , , 
2025-09-28 19:55:34.488,9.899107,-12.014362,4.345366,1.1804198,-0.73815376,-3.8811293,-48.61875,14.775001,-2.6625001,0.23715843,-0.70612353,0.58709806,995.8132, , , , 
2025-09-28 19:55:34.508,9.74836,-12.940385,2.7421749,0.9550107,-0.131565,-4.063778,-48.2625,10.6875,-2.625,0.2767939,-0.6868506,0.58059204,995.8376, , , , 
2025-09-28 19:55:34.528,9.355937,-13.313665,3.1274192,0.8132901,0.03581195,-4.1383033,-49.818752,5.925,-1.8750001,0.2985476,-0.6744355,0.57542145,995.8376, , , , 
2025-09-28 19:55:34.548,8.712267,-13.2514515,3.845266,0.81695527,-0.010613776,-4.1859508,-47.850002,4.875,-1.40625,0.31978777,-0.66150415,0.5694843,995.8183, , , , 
2025-09-28 19:55:34.568,7.4010005,-12.937992,4.5152564,1.1541526,-0.061926417,-4.173123,-49.85625,-3.0187502,-3.3750002,0.36264142,-0.6331032,0.55716383,995.8183, , , , 
2025-09-28 19:55:34.588,6.6161547,-12.689138,3.5413775,1.3355795,-0.055206906,-4.094932,-47.737503,-6.9187503,-1.35,0.38399184,-0.6171113,0.5518161,995.8073, , , , 
2025-09-28 19:55:34.608,5.56092,-13.060026,1.7395821,1.4528655,-0.20914483,-3.928166,-48.6375,-13.500001,-0.73125005,0.41906276,-0.58932847,0.5432777,995.8073, , , , 
2025-09-28 19:55:34.628,3.7016966,-12.629318,0.39481574,1.3917791,-0.44127345,-3.6697702,-48.018753,-14.043751,-1.0875001,0.4464644,-0.56796217,0.53561944,995.80096, , , , 
2025-09-28 19:55:34.648,2.3688943,-12.222538,-0.2321038,1.2579997,-0.5646681,-3.335627,-48.2625,-19.331251,2.34375,0.47204074,-0.54907393,0.5270683,995.80096, , , , 
2025-09-28 19:55:34.668,0.74895346,-10.643275,-1.0049855,0.97822356,-0.48831004,-2.5555527,-45.075,-20.475,-0.8625,0.4986483,-0.5298151,0.51709527,995.7868, , , , 
2025-09-28 19:55:34.688,-0.6939186,-9.420543,-1.7611175,0.7302125,-0.19326234,-2.0601416,-44.23125,-21.900002,2.53125,0.5108009,-0.5202308,0.51238185,995.7868, , , , 
2025-09-28 19:55:34.708,-2.105684,-8.9013,-1.9549361,0.3850739,0.050472703,-1.2800671,-43.575,-25.312502,0.95625,0.5235834,-0.5081812,0.50741297,995.7675, , , , 
2025-09-28 19:55:34.728,-2.2301106,-9.573684,-1.7778672,0.21891867,0.07979421,-0.5610793,-43.78125,-26.19375,1.63125,0.527934,-0.50330335,0.50622815,995.7675, , , , 
2025-09-28 19:55:34.748,-2.9096723,-9.475577,-1.7922242,0.13950625,-0.020387612,0.14935644,-44.175003,-26.118752,0.75,0.5285382,-0.5026934,0.50708675,995.75385, , , , 
2025-09-28 19:55:34.768,-1.9190438,-7.8149586,-1.0360922,0.009392046,0.0028252497,1.1737766,-43.143753,-27.375002,1.8000001,0.5244909,-0.5081587,0.51181686,995.75385, , , , 
2025-09-28 19:55:34.788,-0.86141616,-7.3459654,-0.083748795,-0.011377357,0.23984079,1.7388266,-44.081253,-25.500002,2.25,0.515769,-0.51604015,0.519628,995.7424, , , , 
2025-09-28 19:55:34.808,1.3686945,-8.1020975,0.79920274,0.32948518,0.09750929,2.3301437,-46.18125,-24.337502,1.3312501,0.50067604,-0.5277598,0.5342561,995.7424, , , , 
2025-09-28 19:55:34.829,2.2612174,-9.052048,0.1363909,0.75098187,-0.4834231,2.613585,-45.975002,-21.09375,2.5125,0.49265012,-0.53564143,0.54417443,995.73627, , , , 
2025-09-28 19:55:34.848,3.5509489,-10.466207,-2.103291,1.1010075,-1.2042435,3.093114,-47.193752,-18.46875,2.025,0.48320818,-0.55135995,0.56026083,995.73627, , , , 
2025-09-28 19:55:34.868,4.7545385,-11.322837,-3.5796626,1.0301471,-1.21585,3.4248133,-49.331253,-16.706251,2.4562502,0.47529742,-0.5661796,0.5727676,995.72406, , , , 
2025-09-28 19:55:34.888,5.869594,-11.947364,-4.1515474,0.7161626,-0.97516924,3.7546804,-49.0125,-14.08125,6.4500003,0.46335933,-0.58263916,0.58485055,995.72406, , , , 
2025-09-28 19:55:34.908,7.446464,-12.08854,-2.7948167,0.35086545,-0.678289,4.027126,-49.050003,-8.493751,5.9625,0.44659916,-0.6004665,0.59601396,995.6945, , , , 
2025-09-28 19:55:34.928,8.281559,-11.971292,-1.6247265,0.3362047,-0.6123156,4.090656,-48.600002,-3.9750001,7.2187505,0.4265997,-0.6181727,0.6064129,995.6945,37.88831697,127.73970142,145.21234130859375,1.42
2025-09-28 19:55:34.948,9.059227,-11.96172,-1.4739788,0.45471248,-0.65813047,4.097986,-48.843754,-1.40625,9.5625,0.40573993,-0.6342449,0.6164219,995.6745, , , , 
2025-09-28 19:55:34.968,9.985249,-11.600404,-2.024328,0.6129264,-0.79924023,4.031402,-49.593754,3.61875,9.0375,0.38055438,-0.6515223,0.6279162,995.6745, , , , 
2025-09-28 19:55:34.988,10.54517,-10.889736,-2.4885356,0.60315263,-0.7448732,3.8884597,-48.0,9.262501,8.55,0.36601508,-0.66049314,0.63391995,995.66766, , , , 
2025-09-28 19:55:35.012,10.18146,-10.339387,-2.333002,0.35453063,-0.416228,3.5995207,-49.275,12.356251,8.6625,0.3365555,-0.6762432,0.64333874,995.66766, , , , 
2025-09-28 19:55:35.028,10.286744,-10.372886,-1.5170496,0.26473352,-0.36002842,3.4791803,-46.537502,16.5,9.075001,0.32139665,-0.683497,0.64676994,995.6557, , , , 
2025-09-28 19:55:35.048,10.762917,-10.514063,-0.6795616,0.30566147,-0.36247188,3.3386815,-46.987503,17.19375,8.925,0.30667463,-0.689944,0.6497537,995.6557, , , , 
2025-09-28 19:55:35.068,10.633704,-10.624132,-1.3399807,0.52435106,-0.13584106,3.0460773,-45.600002,21.4125,12.243751,0.28325865,-0.69762176,0.6553316,995.6562, , , , 
2025-09-28 19:55:35.088,10.064212,-10.724631,-2.28036,0.5133555,0.013820816,2.9856017,-43.66875,22.03125,8.606251,0.26418787,-0.70189226,0.660243,995.6562, , , , 
2025-09-28 19:55:35.108,11.382657,-9.408579,-2.6105695,0.43944085,0.19036074,2.889696,-40.125,27.225,9.01875,0.23982014,-0.70678663,0.66531336,995.6613, , , , 
2025-09-28 19:55:35.128,12.294323,-7.769495,-3.1920254,0.12056944,0.65095276,2.514014,-41.4375,29.456251,9.337501,0.2199052,-0.7108008,0.6681235,995.6613, , , , 
2025-09-28 19:55:35.148,11.3371935,-7.23111,-2.2779672,-0.1824195,0.94294614,2.1187844,-37.893753,30.093752,6.15,-0.2051344,0.71448636,-0.66889966,995.6628, , , , 
2025-09-28 19:55:35.168,10.2317095,-6.9152575,-0.21535404,-0.06879865,0.7633519,1.8451171,-36.412502,33.225002,7.36875,-0.18236765,0.72038454,-0.669134,995.6628, , , , 
2025-09-28 19:55:35.188,11.152946,-6.800402,-0.31345975,0.27817255,0.3033707,1.705229,-37.65,32.9625,9.20625,-0.16778451,0.7223413,-0.67074484,995.67303, , , , 
2025-09-28 19:55:35.208,12.631711,-6.652047,-1.7012969,0.5121338,-0.077198036,1.461494,-35.175003,32.850002,7.7250004,-0.16008337,0.72190905,-0.67293483,995.67303, , , , 
2025-09-28 19:55:35.228,14.141582,-7.5637126,-3.1322048,0.47548187,-0.407065,0.8799507,-33.581253,36.2625,6.7312503,-0.15344755,0.7197402,-0.67644227,995.6862, , , , 
2025-09-28 19:55:35.248,14.139189,-8.853444,-2.9048867,0.5359575,-1.3251948,0.47739083,-31.0125,34.425003,5.64375,-0.15681675,0.71662337,-0.6784556,995.6862, , , , 
2025-09-28 19:55:35.268,15.144175,-7.63789,-3.723232,0.623922,-1.8786383,0.15790854,-33.581253,34.875,7.5937505,-0.16782552,0.71220756,-0.6796383,995.6818, , , , 
2025-09-28 19:55:35.288,16.108482,-6.4031935,-4.979464,0.20609051,-1.2903755,-0.35521787,-34.518753,35.287502,7.2000003,-0.17800964,0.7091515,-0.6796964,995.6818, , , , 
2025-09-28 19:55:35.308,14.751752,-7.5589266,-2.2827528,-0.65645057,0.049861837,-1.3332124,-34.125,33.581253,6.95625,-0.19306679,0.708888,-0.6763007,995.67303, , , , 
2025-09-28 19:55:35.328,12.421143,-9.925428,1.227518,-0.5660426,-0.101632625,-1.9379685,-34.068752,33.206253,8.19375,-0.20586272,0.7097828,-0.672586,995.67303, , , , 
2025-09-28 19:55:35.348,10.676775,-11.191232,3.07717,0.010613776,-0.9330196,-2.2079709,-33.037502,32.34375,5.5125003,-0.2244222,0.70657045,-0.6706344,995.68085, , , , 
2025-09-28 19:55:35.368,10.279566,-11.236695,2.3018954,0.53290313,-1.3587923,-2.3277001,-35.04375,31.143751,6.2625003,-0.25440484,0.69593203,-0.6713312,995.68085, , , , 
2025-09-28 19:55:35.388,10.837093,-10.947164,1.1557333,0.57138765,-1.2329541,-2.432769,-36.825,29.062502,8.26875,-0.27318698,0.6877982,-0.6724304,995.72406, , , , 
2025-09-28 19:55:35.408,11.69851,-10.889736,0.9451649,0.4644863,-0.84688765,-2.8060074,-36.225002,28.500002,9.618751,0.30389827,-0.6734625,0.67386496,995.72406, , , , 
2025-09-28 19:55:35.428,10.442278,-10.971092,0.67477596,0.3514763,-0.62086767,-3.1963499,-37.425003,26.1375,9.1125,0.3288111,-0.6609205,0.67441154,995.74945, , , , 
2025-09-28 19:55:35.448,7.9944205,-11.538191,0.6197411,0.17615813,-0.5616138,-3.363116,-40.350002,25.462502,10.06875,0.355198,-0.64756685,0.67338234,995.74945, , , , 
2025-09-28 19:55:35.468,9.066405,-11.332408,2.9503503,0.11446079,-0.6868411,-3.4461937,-41.7,22.125,6.39375,0.38061723,-0.634693,0.6706678,995.76434, , , , 
2025-09-28 19:55:35.488,9.58804,-11.660225,3.2087753,0.23419029,-0.5493965,-3.5793622,-42.6375,20.118752,11.85,0.40591872,-0.6198837,0.66807497,995.76434, , , , 
2025-09-28 19:55:35.508,10.102497,-11.899507,2.7876384,0.26656613,-0.043600474,-3.8249297,-42.318752,16.03125,13.293751,0.42955065,-0.6030364,0.6662865,995.78485, , , , 
2025-09-28 19:55:35.528,9.394221,-12.143575,1.902294,0.27267477,0.25572327,-3.9935286,-43.95,12.993751,13.012501,0.45107973,-0.58422315,0.66517055,995.78485, , , , 
2025-09-28 19:55:35.548,8.609376,-12.234502,1.3351951,0.30932665,0.3033707,-4.0478954,-45.300003,7.7625003,13.462501,0.47595692,-0.5588099,0.6634438,995.79266, , , , 
2025-09-28 19:55:35.568,8.377272,-11.830115,0.9954142,0.34658942,0.065744326,-4.1065383,-44.456253,4.5,10.462501,0.49601036,-0.5375367,0.6604941,995.79266, , , , 
2025-09-28 19:55:35.588,7.8197446,-11.535798,0.74416786,0.34536767,-0.032604907,-4.1700683,-46.893753,1.3687501,14.137501,0.51158535,-0.5210411,0.6570214,995.7973, , , , 
2025-09-28 19:55:35.608,5.759524,-11.370693,0.35413775,0.24579671,0.077961616,-4.167014,-46.518753,-1.725,15.975,0.5369676,-0.49290812,0.6493729,995.7973, , , , 
2025-09-28 19:55:35.628,3.07717,-11.320444,0.14356937,0.16149737,0.3296379,-3.9306095,-46.36875,-6.9187503,13.931251,0.55420554,-0.47049755,0.64306396,995.79266, , , , 
2025-09-28 19:55:35.648,1.5457634,-11.236695,0.526421,0.2115883,0.15187626,-3.3484552,-46.518753,-10.5375,13.70625,0.571424,-0.44494754,0.6357018,995.79266, , , , 
2025-09-28 19:55:35.668,1.7515461,-11.021341,0.50488555,0.40156722,-0.2115883,-2.7980661,-44.8125,-13.837501,12.168751,0.5842962,-0.42749494,0.62958777,995.78973, , , , 
2025-09-28 19:55:35.688,1.6390835,-10.449456,-0.7585248,0.4473821,-0.3117701,-2.4339907,-44.362503,-15.900001,13.1625,0.5937213,-0.41589448,0.6250117,995.78973, , , , 
2025-09-28 19:55:35.708,0.19381863,-9.865608,-1.8233309,0.24518585,-0.20670137,-1.9239186,-45.131252,-18.0,16.612501,0.6068489,-0.4000163,0.6178746,995.78925, , , , 
2025-09-28 19:55:35.728,-0.36610186,-9.698111,-1.4189439,0.06436988,-0.13400847,-1.3625339,-43.162502,-20.025002,14.343751,0.61374575,-0.3917034,0.6132561,995.78925, , , , 
2025-09-28 19:55:35.748,-0.86859465,-9.5353985,-0.8925229,0.015500694,-0.12484549,-0.869566,-40.96875,-20.04375,13.968751,0.6170345,-0.3879381,0.6107595,995.7719, , , , 
2025-09-28 19:55:35.768,-1.2131611,-10.131211,-1.4261223,0.05337431,-0.16332997,-0.14385866,-45.075,-22.837502,15.4875,0.6198687,-0.38589215,0.6087012,995.7719, , , , 
2025-09-28 19:55:35.788,-1.7611175,-10.463814,-2.28036,-0.010766491,-0.27145302,0.49754936,-42.16875,-21.65625,14.025001,0.6199286,-0.38894,0.608661,995.76996, , , , 
2025-09-28 19:55:35.808,-0.83988076,-9.710074,-2.091327,-0.15920663,-0.2928333,1.1988221,-42.46875,-19.462502,14.250001,0.6182155,-0.3950893,0.6093264,995.76996, , , , 
2025-09-28 19:55:35.828,1.1820544,-9.205189,-1.1916257,-0.27221662,-0.0075594517,1.886045,-44.41875,-21.0375,15.618751,0.6104571,-0.41059032,0.6130624,995.75726, , , , 
2025-09-28 19:55:35.848,2.1248264,-9.1669035,-0.6149554,-0.2966512,0.03092503,2.2861614,-45.037502,-19.10625,15.262501,0.60042816,-0.42565227,0.6182653,995.75726, , , , 
2025-09-28 19:55:35.868,3.4600215,-9.911072,0.45224348,-0.08773545,-0.13767365,2.6557345,-45.6375,-16.931252,15.975,0.5858297,-0.44653526,0.6256301,995.7453, , , , 
2025-09-28 19:55:35.888,3.8620157,-10.743773,0.17706887,0.22380558,-0.40462157,2.9086328,-44.86875,-13.875001,15.88125,0.5743454,-0.4633563,0.63188696,995.7453, , , , 
2025-09-28 19:55:35.908,4.8095737,-11.655439,-1.0887343,0.5438987,-0.6868411,3.317912,-45.24375,-10.44375,17.8875,0.5636076,-0.48032975,0.6379352,995.7436, , , , 
2025-09-28 19:55:35.928,6.285945,-12.1866455,-2.5674987,0.5567269,-0.5438987,3.6428921,-46.6875,-8.231251,17.75625,0.55143887,-0.49784145,0.644152,995.7436,37.88830648,127.73969346,145.18670654296875,1.33
2025-09-28 19:55:35.948,7.4129643,-11.6339035,-3.3020952,0.3673588,-0.24029893,3.7803366,-48.187504,-4.7625003,17.400002,0.535778,-0.51617676,0.650496,995.7331, , , , 
2025-09-28 19:55:35.968,8.403593,-10.849058,-2.8809586,-0.008323032,0.13416117,3.7931647,-47.25,2.2875001,19.6875,0.51148134,-0.5401173,0.65739954,995.7331, , , , 
2025-09-28 19:55:35.988,9.06162,-10.336994,-2.036292,-0.14821106,0.16287182,3.666105,-45.600002,5.30625,19.650002,0.49558356,-0.5544547,0.6605759,995.715, , , , 
2025-09-28 19:55:36.008,9.238688,-10.100104,-1.4069797,-0.1579849,0.041920595,3.5109453,-46.8375,7.8,18.243752,0.4751927,-0.5723759,0.66332614,995.715, , , , 
2025-09-28 19:55:36.028,8.611769,-10.392029,-1.6366907,-0.19524765,-0.055817768,3.3075273,-44.71875,13.650001,14.606251,0.45172012,-0.5926239,0.66467476,995.6984, , , , 
2025-09-28 19:55:36.048,8.236095,-10.786844,-1.6845472,-0.35834855,0.20624322,3.3240206,-45.5625,12.95625,12.562501,0.4370061,-0.604586,0.6647857,995.6984, , , , 
2025-09-28 19:55:36.068,8.85823,-10.861022,-0.70348984,-0.58559024,0.6778308,3.3783877,-45.600002,16.03125,17.79375,0.40227515,-0.6295632,0.6645407,995.696, , , , 
2025-09-28 19:55:36.088,9.389436,-10.389636,0.043070808,-0.6057488,0.8250492,3.3570075,-44.49375,18.50625,16.1625,0.38301924,-0.64178026,0.6643785,995.696, , , , 
2025-09-28 19:55:36.108,10.322637,-9.810573,0.22492532,-0.49151707,0.8213841,3.254993,-42.0,19.1625,14.925,-0.36371782,0.6530434,-0.66423327,995.6916, , , , 
2025-09-28 19:55:36.128,11.150554,-8.989835,-1.7252251,-0.52083856,0.9863175,2.8774786,-40.875,24.0,14.681251,-0.3267477,0.6722521,-0.66390365,995.6916, , , , 
