Time,Accel_X,Accel_Y,Accel_Z,Gyro_X,Gyro_Y,Gyro_Z,Mag_X,Mag_Y,Mag_Z,Orient_X,Orient_Y,Orient_Z,Pressure,Lat,Lng,Alt,Speed
2025-09-28 19:32:05.653,0.27517462,4.4817567,8.9348,0.066813335,-0.060704686,0.03940078,24.375002,-29.081251,-38.4,0.17473975,0.15618865,0.7048536,995.4858,37.8883702,127.73982864,145.96112060546875,0.0
2025-09-28 19:32:05.673,0.5168497,4.508078,8.800801,0.049098257,-0.01244637,0.0051923506,25.35,-27.88125,-37.48125,0.1754824,0.15610582,0.70491666,995.4726, , , , 
2025-09-28 19:32:05.693,0.31345975,4.520042,8.554341,0.010613776,0.011988222,0.0033597562,23.56875,-27.825,-35.4375,0.1758257,0.15643032,0.7048707,995.4726, , , , 
2025-09-28 19:32:05.713,0.56470615,4.505685,8.62134,-0.01809687,0.0297033,-0.00641408,24.7875,-28.312502,-36.018753,0.17583464,0.1566289,0.7048654,995.46136, , , , 
2025-09-28 19:32:05.733,0.57427746,4.5248275,8.9108715,-0.029092435,0.09445497,-0.037568185,24.281252,-27.768751,-34.143753,0.17560862,0.15665212,0.7049075,995.46136, , , , 
2025-09-28 19:32:05.753,0.17706887,4.5966125,9.047262,0.006948587,0.087124586,-0.035124727,25.10625,-29.531252,-35.04375,0.17449382,0.15727,0.70487195,995.4526, , , , 
2025-09-28 19:32:05.773,0.26081768,4.6803613,9.071191,0.036270097,0.043753188,-0.01924224,25.5375,-28.237501,-36.412502,0.17384252,0.15810138,0.704735,995.4526, , , , 
2025-09-28 19:32:05.793,0.2440679,4.599005,8.896515,0.04054615,0.005268709,-0.032681264,23.41875,-28.462502,-34.3125,0.17392214,0.15862659,0.70453167,995.4382, , , , 
2025-09-28 19:32:05.813,0.09092726,4.4745784,8.46102,-0.023594651,0.013820816,-0.011300999,25.275002,-29.625002,-37.068752,0.17384094,0.15919709,0.7042451,995.4382, , , , 
2025-09-28 19:32:05.833,0.2416751,4.45065,8.518449,-0.07612903,0.013209951,-0.003970621,25.650002,-26.868752,-34.48125,0.1733806,0.15924123,0.70423836,995.4047, , , , 
2025-09-28 19:32:05.853,0.20817557,4.386044,8.556734,-0.092011504,0.050472703,0.0051923506,22.725,-29.550001,-32.643753,0.17268339,0.15894204,0.70436513,995.4047, , , , 
2025-09-28 19:32:05.873,0.23928227,4.465007,8.623733,-0.099341884,0.12011129,0.019853106,23.962502,-30.150002,-35.193752,0.17180662,0.1588887,0.7046112,995.38495, , , , 
2025-09-28 19:32:05.894,0.36131623,4.4578285,8.805588,-0.10300707,0.14454588,0.010690134,26.643751,-27.13125,-36.43125,0.1700034,0.15914892,0.70520425,995.38495, , , , 
2025-09-28 19:32:05.917,0.15792629,4.398008,9.133404,-0.100563616,-0.010613776,-0.09315688,23.8125,-28.050001,-35.15625,0.16847952,0.15849356,0.7056182,995.35345, , , , 
2025-09-28 19:32:05.933,-0.23449662,4.3501515,8.9826565,-0.06330086,-0.11751511,-0.09071342,26.025002,-29.550001,-37.7625,0.16787052,0.15793122,0.7052065,995.35345, , , , 
2025-09-28 19:32:05.953,0.1268196,4.2161536,9.233903,-0.022372922,-0.22502731,-0.066889696,24.0,-28.518751,-35.30625,0.16777445,0.15696415,0.70447505,995.3166, , , , 
2025-09-28 19:32:05.973,0.011964113,4.338187,9.145369,0.060704686,-0.27084216,-0.06627883,24.393751,-28.10625,-36.131252,0.16902944,0.1550928,0.7034062,995.3166, , , , 
2025-09-28 19:32:05.993,0.16510476,4.4554358,9.037691,0.11446079,-0.267177,-0.03451386,23.587502,-27.806252,-36.525,0.17087525,0.15411542,0.70246303,995.29047, , , , 
2025-09-28 19:32:06.015,0.17706887,4.426722,8.750552,0.11751511,-0.18165591,0.016187917,24.618752,-27.712502,-36.018753,0.17295998,0.15360703,0.7017293,995.29047, , , , 
2025-09-28 19:32:06.033,0.8662018,4.4458647,8.657232,0.086361006,-0.15111268,0.05589413,24.750002,-27.825,-36.1875,0.17475832,0.15339725,0.70145094,995.26556, , , , 
2025-09-28 19:32:06.053,0.29671,4.57747,8.630911,0.03810269,-0.010002911,0.0033597562,25.0125,-25.687502,-35.100002,0.17646436,0.15281513,0.7014003,995.26556, , , , 
2025-09-28 19:32:06.073,0.65084773,4.5415773,8.451449,-0.04619665,0.16348268,0.035124727,22.556252,-26.94375,-34.93125,0.17642295,0.1533271,0.70150065,995.26556, , , , 
2025-09-28 19:32:06.093,0.60059845,4.57747,8.630911,-0.10300707,0.24656029,0.01924224,21.956251,-27.750002,-35.287502,0.17559455,0.153899,0.7019683,995.2614, , , , 
2025-09-28 19:32:06.113,0.35413775,4.613362,8.953942,-0.1146135,0.21723878,0.014966187,22.800001,-27.16875,-34.48125,0.17248598,0.15507357,0.7029799,995.258, , , , 
2025-09-28 19:32:06.133,0.5814559,4.6803613,9.109476,-0.085292,0.124998204,-0.024129158,22.25625,-26.737501,-31.968752,0.17039794,0.15563548,0.7035451,995.258, , , , 
2025-09-28 19:32:06.154,0.43070808,4.4889355,9.169296,-0.053527027,0.04497492,-0.047952887,23.7,-27.712502,-33.15,0.16998018,0.15563737,0.7035988,995.258, , , , 
2025-09-28 19:32:06.173,0.29192436,4.465007,8.913264,-3.8179048E-4,0.008933897,-0.082161315,23.7,-28.44375,-33.2625,0.16945559,0.1552537,0.70290303,995.2631, , , , 
2025-09-28 19:32:06.193,0.26799613,4.4841495,8.762517,-0.013209951,0.117056966,-0.08277218,23.400002,-28.48125,-34.0125,0.16905569,0.15565786,0.7024341,995.26996, , , , 
2025-09-28 19:32:06.213,0.22253251,4.4721856,8.63809,-0.033979353,0.19769111,-0.062002774,25.143751,-28.031252,-36.225002,0.16794135,0.15672873,0.70218533,995.26996, , , , 
2025-09-28 19:32:06.233,0.09810573,4.570291,8.82473,-0.049861837,0.22212571,-0.054672398,25.406252,-27.393751,-35.662502,0.16669215,0.15776752,0.702173,995.26996, , , , 
2025-09-28 19:32:06.253,0.076570325,4.386044,9.15494,0.020998476,0.026648976,-0.011911863,24.54375,-27.975,-34.4625,0.16473182,0.15921314,0.7022362,995.2973, , , , 
2025-09-28 19:32:06.273,0.14117654,4.331009,8.56152,0.0063377223,0.07551816,0.03329213,26.343752,-25.556252,-34.78125,0.16452761,0.15946694,0.7022649,995.31635, , , , 
2025-09-28 19:32:06.293,0.08853444,4.4554358,8.480164,-0.12805253,0.3265836,0.07299834,26.250002,-26.062502,-34.443752,0.16314356,0.16043577,0.70296264,995.31635, , , , 
2025-09-28 19:32:06.313,0.14596218,4.412365,8.956335,-0.18608469,0.4597521,0.11636974,24.618752,-27.487501,-32.79375,0.16056502,0.16163813,0.70401394,995.33246, , , , 
2025-09-28 19:32:06.334,0.11485548,4.3357944,9.427721,-0.05902481,0.27466008,0.11209369,27.88125,-27.73125,-38.68125,0.15593201,0.16338117,0.70619524,995.33246, , , , 
2025-09-28 19:32:06.353,0.021535404,4.1778684,9.284152,0.077198036,-0.019165883,0.057726722,26.831251,-27.618752,-35.9625,0.15464784,0.16379856,0.707218,995.35565, , , , 
2025-09-28 19:32:06.373,-0.11006984,4.213761,8.788837,0.12301289,-0.05337431,0.03084867,26.250002,-26.062502,-34.443752,0.15511061,0.1637721,0.70736074,995.35565, , , , 
2025-09-28 19:32:06.393,-0.11246266,4.314259,8.374879,0.07536544,0.03459022,0.029626941,26.868752,-27.35625,-35.362503,0.15585,0.16440883,0.7073189,995.35565, , , , 
2025-09-28 19:32:06.414,0.18903299,4.4195433,8.843872,-0.022372922,0.015653409,-0.029016078,26.775002,-26.268751,-33.5625,0.15591875,0.16542275,0.7074431,995.3808, , , , 
2025-09-28 19:32:06.433,0.13399807,4.3405805,8.695518,-0.049861837,0.06696605,-0.07849612,24.900002,-27.69375,-35.287502,0.15577677,0.16523904,0.7072283,995.41205, , , , 
2025-09-28 19:32:06.453,0.31106696,4.3836513,8.671589,-0.10300707,0.15615231,-0.09315688,25.331251,-28.406252,-34.050003,0.15500334,0.16543964,0.7070398,995.41205, , , , 
2025-09-28 19:32:06.473,0.031106694,4.496114,8.882157,-0.12011129,0.16592614,-0.09193515,24.525002,-27.993752,-34.143753,0.15336165,0.16586158,0.7068694,995.4433, , , , 
2025-09-28 19:32:06.493,0.12921242,4.613362,9.02812,-0.035201084,0.03092503,-0.13286309,24.375002,-27.900002,-32.4375,0.15189056,0.16603409,0.70644325,995.4433, , , , 
2025-09-28 19:32:06.513,0.0741775,4.6468616,8.41795,-0.02481638,-0.07903063,-0.17195843,24.31875,-26.775002,-33.2625,0.15219584,0.1660599,0.70547587,995.4848, , , , 
2025-09-28 19:32:06.533,-0.15792629,4.587041,7.503892,-0.11827869,-0.099800035,-0.20799945,26.04375,-26.325,-34.875,0.15274692,0.16567837,0.70454955,995.4848, , , , 
2025-09-28 19:32:06.553,-0.5168497,4.0414777,8.260024,-0.27282748,-0.0063377223,-0.058337588,25.181252,-27.562502,-33.0,0.15151465,0.16540143,0.70327383,995.5234, , , , 
2025-09-28 19:32:06.573,-0.24646074,3.900301,9.032906,-0.18608469,-0.043600474,-0.046731155,26.5125,-27.656252,-34.8375,0.14883421,0.16362666,0.7032942,995.5234, , , , 
2025-09-28 19:32:06.593,-0.09810573,3.9625144,8.776874,-0.13355032,-0.07047852,-0.06750056,25.81875,-27.468752,-34.78125,0.14781272,0.1620406,0.70315474,995.5815, , , , 
2025-09-28 19:32:06.615,-0.6029913,3.993621,8.946764,-0.10728313,-0.14622575,-0.038789913,28.968752,-25.650002,-35.2125,0.14717239,0.16087662,0.7028751,995.5815, , , , 
2025-09-28 19:32:06.633,-0.3182454,4.017549,9.037691,-0.12744166,-0.17676899,-0.013744458,28.237501,-26.475,-36.018753,0.14696424,0.15896022,0.7024753,995.63275, , , , 
2025-09-28 19:32:06.653,-0.34217364,4.1347976,9.040084,-0.14576761,-0.1211803,-0.0033597562,29.343752,-27.487501,-35.756252,0.14672787,0.15716667,0.7023529,995.63275,37.8883702,127.73982864,145.96112060546875,0.0
2025-09-28 19:32:06.673,-0.40677986,4.2185464,9.169296,-0.19524765,-0.0240528,0.015577052,27.562502,-25.312502,-34.4625,0.1460625,0.15615425,0.7024102,995.63275, , , , 
2025-09-28 19:32:06.693,-0.4546363,4.211368,9.753145,-0.15004367,0.01687514,0.062613636,25.837502,-25.743752,-32.71875,0.1434911,0.15472321,0.703056,995.6596, , , , 
2025-09-28 19:32:06.713,-0.28953153,4.2281175,9.7196455,-0.037033677,-0.08697187,0.0772744,27.225,-27.075,-34.95,0.1425271,0.15389873,0.70361155,995.68524, , , , 
2025-09-28 19:32:06.734,-0.26081768,4.3118663,9.195618,-0.008323032,-0.14011711,0.08888082,28.312502,-26.60625,-32.925003,0.14310935,0.15313959,0.7039474,995.68524, , , , 
2025-09-28 19:32:06.753,-0.07178468,4.2687955,9.312865,-0.046807513,-0.10346522,0.09376775,27.843752,-26.156252,-34.7625,0.14393488,0.15236081,0.7043414,995.71136, , , , 
2025-09-28 19:32:06.773,0.019142581,4.0965123,9.726824,-0.013820816,-0.09308052,0.091324285,26.98125,-27.487501,-34.74375,0.14435303,0.15135425,0.7048754,995.71136, , , , 
2025-09-28 19:32:06.793,0.08135597,4.024728,9.521041,0.058872093,-0.108963005,0.09560034,27.91875,-27.993752,-35.8875,0.14498937,0.15033656,0.7053836,995.7155, , , , 
2025-09-28 19:32:06.813,0.28235307,4.0558343,9.21476,0.08086322,-0.09430225,0.092546016,29.56875,-26.56875,-37.6875,0.14622387,0.14966129,0.70582485,995.7155, , , , 
2025-09-28 19:32:06.833,0.46660042,4.074977,9.126225,0.077198036,-0.07903063,0.06994402,28.462502,-28.312502,-36.862503,0.14731817,0.14928728,0.7061172,995.7155, , , , 
2025-09-28 19:32:06.853,0.4642076,4.058227,8.946764,0.063759014,-0.10529782,0.0015271619,28.406252,-27.075,-35.381252,0.14971943,0.14836878,0.7062364,995.7177, , , , 
2025-09-28 19:32:06.873,0.59342,4.048656,8.99462,0.037491824,-0.047265664,-0.032681264,29.2875,-27.843752,-36.506252,0.15104339,0.14773396,0.70606285,995.6955, , , , 
2025-09-28 19:32:06.893,0.4977071,4.0366917,8.846265,0.0045051277,0.010155627,-0.0650571,28.1625,-27.69375,-38.25,0.15176268,0.1473476,0.70578665,995.6955, , , , 
2025-09-28 19:32:06.915,0.2727818,3.9338005,9.042477,-0.041920595,0.046807513,-0.07971785,28.650002,-27.4125,-36.9375,0.15155688,0.1470977,0.7053563,995.68524, , , , 
2025-09-28 19:32:06.933,0.24646074,3.8668015,9.150154,-0.022372922,0.03825541,-0.06750056,31.10625,-26.38125,-40.331253,0.15101588,0.14694965,0.70513743,995.68524, , , , 
2025-09-28 19:32:06.953,0.05742774,3.8835511,8.989835,0.0063377223,0.005268709,-0.04367683,30.843752,-28.29375,-38.9625,0.15049882,0.1468212,0.7048591,995.6828, , , , 
2025-09-28 19:32:06.973,0.22253251,4.022335,8.937193,-0.0028252497,-0.06131555,-0.008857539,28.125002,-28.48125,-35.8875,0.15054111,0.14659974,0.70462304,995.6828, , , , 
2025-09-28 19:32:06.993,0.31585258,4.048656,9.073584,0.003894263,-0.058872093,-0.016798781,27.993752,-27.618752,-35.30625,0.1509549,0.14615989,0.7045189,995.67426, , , , 
2025-09-28 19:32:07.013,0.2321038,4.125226,8.989835,0.0112246405,-0.0112246405,-0.022296565,28.125002,-28.706251,-38.8125,0.15140772,0.1457554,0.7043581,995.67426, , , , 
2025-09-28 19:32:07.033,0.2943172,4.2424746,8.729017,-0.010155627,0.027259842,-0.037568185,28.95,-28.125002,-37.537502,0.15157762,0.14584029,0.7042324,995.67426, , , , 
2025-09-28 19:32:07.053,0.16271193,4.2448673,8.707481,-0.046807513,-0.0032833982,-0.06933315,28.275002,-27.206251,-37.987503,0.15169469,0.1460723,0.70392233,995.66376, , , , 
2025-09-28 19:32:07.073,0.19381863,4.1635113,9.169296,-0.06146827,-0.04421134,-0.09926552,29.493752,-28.425001,-39.131252,0.15157549,0.14578682,0.70325893,995.66376, , , , 
2025-09-28 19:32:07.093,0.1268196,4.101298,9.190832,-0.049861837,-0.033826638,-0.09926552,28.143751,-27.712502,-37.162502,0.15139553,0.14537604,0.70279086,995.6557, , , , 
2025-09-28 19:32:07.113,0.059820566,4.091727,9.171689,-0.027870705,-0.022220206,-0.09193515,27.91875,-28.218752,-38.5125,0.1509399,0.14486612,0.70184875,995.6462, , , , 
2025-09-28 19:32:07.133,0.11724831,4.0390844,9.202796,0.010613776,-0.047265664,-0.091324285,28.06875,-27.35625,-36.412502,0.15081528,0.144699,0.70105886,995.6462, , , , 
2025-09-28 19:32:07.153,-0.02632105,3.9984066,9.037691,0.019776747,-0.051541716,-0.08155045,31.143751,-26.1375,-39.581253,0.15095311,0.1446283,0.7005381,995.63007, , , , 
2025-09-28 19:32:07.173,0.059820566,4.0151563,8.937193,0.006948587,-0.0240528,-0.066889696,27.862501,-27.73125,-37.59375,0.1510379,0.14469211,0.69993675,995.63007, , , , 
2025-09-28 19:32:07.194,-0.078963146,4.019942,9.116654,-0.033368487,0.016264275,-0.07666353,29.75625,-27.056252,-37.068752,0.15066512,0.14480248,0.69922644,995.62714, , , , 
2025-09-28 19:32:07.213,-0.18424734,3.9744785,9.267402,-0.013820816,0.011988222,-0.054672398,28.893751,-26.268751,-37.331253,0.14985389,0.1449952,0.6988086,995.62714, , , , 
2025-09-28 19:32:07.233,-0.20338993,3.95055,9.150154,0.01244637,-0.022831071,-0.03451386,28.425001,-28.556252,-37.612503,0.14939629,0.14516723,0.6985481,995.613, , , , 
2025-09-28 19:32:07.253,-0.08853444,4.007978,9.035298,0.014278964,-0.04421134,-0.013133593,28.95,-28.125002,-37.068752,0.14924175,0.14528193,0.69825304,995.613, , , , 
2025-09-28 19:32:07.273,-0.038285162,4.019942,9.006584,0.010613776,-0.008781182,-0.004581486,29.737501,-27.056252,-36.75,0.14929238,0.14532578,0.6981172,995.613, , , , 
2025-09-28 19:32:07.294,-0.076570325,4.0510488,8.729017,0.0014508038,-0.014889829,0.0051923506,27.075,-27.825,-35.9625,0.14918521,0.14574814,0.69803005,995.6115, , , , 
2025-09-28 19:32:07.314,0.09810573,4.0941195,8.745767,-0.035201084,-0.033826638,0.00763581,28.837502,-26.5125,-37.78125,0.14928567,0.14581177,0.69800586,995.59955, , , , 
2025-09-28 19:32:07.333,0.16749759,4.1276193,8.872586,-0.065744326,3.8179048E-4,-0.021685699,29.1375,-26.493752,-37.350002,0.14940014,0.14536841,0.69800764,995.59955, , , , 
2025-09-28 19:32:07.353,-0.021535404,4.106084,8.915657,-0.065744326,-0.015500694,-0.019853106,28.781252,-27.525002,-37.0875,0.14913867,0.14506799,0.6979148,995.5854, , , , 
2025-09-28 19:32:07.373,0.011964113,4.024728,9.056833,-0.03825541,-0.04176788,0.0051923506,28.2,-26.718752,-36.45,0.14893469,0.14472798,0.6978211,995.5854, , , , 
2025-09-28 19:32:07.393,-0.0741775,4.034299,8.937193,-0.02481638,0.00160352,0.033902995,28.10625,-27.112501,-35.9625,0.14881727,0.14446317,0.69788516,995.582, , , , 
2025-09-28 19:32:07.415,0.2009971,4.0845485,8.906086,-0.025427246,-0.058261227,0.054061532,29.962502,-26.8875,-38.79375,0.14868882,0.14437649,0.6982299,995.582, , , , 
2025-09-28 19:32:07.433,0.39960137,4.046263,8.779266,-0.032757625,-0.09063706,0.01924224,27.750002,-27.618752,-38.831253,0.14916402,0.14386447,0.6984157,995.5727, , , , 
2025-09-28 19:32:07.453,0.2656033,4.031906,8.662018,-0.064522594,-0.09063706,-3.054324E-4,29.925001,-26.906252,-37.256252,0.15002574,0.14283277,0.6984524,995.5727, , , , 
2025-09-28 19:32:07.474,0.64845496,4.115655,8.71466,-0.052305296,-0.12545635,0.041844238,29.268751,-25.968752,-38.925003,0.15073858,0.14149776,0.6984843,995.56366, , , , 
2025-09-28 19:32:07.495,1.2011969,4.1467614,8.248059,-0.029092435,-0.1297324,3.054324E-4,28.5375,-26.6625,-38.662502,0.1524641,0.13992,0.6986288,995.56366, , , , 
2025-09-28 19:32:07.513,1.1246266,4.1898327,7.647461,-0.03886627,-0.22075126,-0.055283263,27.768751,-27.6,-39.91875,0.15430629,0.13868871,0.6984968,995.5412, , , , 
2025-09-28 19:32:07.533,0.96430755,4.031906,7.4129643,-0.01687514,-0.43577567,-0.08032872,29.025002,-27.862501,-38.643753,0.1576257,0.136589,0.6977574,995.5412, , , , 
2025-09-28 19:32:07.553,0.5455636,3.574877,6.7022963,0.2323577,-1.1846958,0.011300999,26.268751,-26.04375,-36.300003,0.16557057,0.13145578,0.6957178,995.51166, , , , 
2025-09-28 19:32:07.573,0.7298109,3.37388,5.2666025,0.4541016,-1.8584797,0.16096286,28.25625,-26.681252,-39.7125,0.17808579,0.12451184,0.693255,995.51166, , , , 
2025-09-28 19:32:07.593,1.4093726,3.2087753,2.806781,0.44127345,-2.0606759,0.2941314,26.156252,-26.906252,-40.0875,0.19082038,0.11682611,0.6912386,995.51166, , , , 
2025-09-28 19:32:07.613,2.4502504,2.981457,-0.6029913,-0.47624546,-2.0081415,0.3924806,21.84375,-26.475,-39.35625,0.21338786,0.09749827,0.6887905,995.4709, , , , 
2025-09-28 19:32:07.633,1.861616,2.0721843,-0.39960137,-1.1317034,-2.6984189,0.44745845,21.88125,-27.206251,-41.643753,0.2247904,0.07754817,0.68722445,995.4113, , , , 
2025-09-28 19:32:07.653,1.8975084,0.79920274,0.7082755,-1.5360959,-3.3282204,0.64660037,20.23125,-26.00625,-41.850002,0.2366704,0.04836629,0.68480533,995.4113,37.8883702,127.73982864,145.96112060546875,0.0
2025-09-28 19:32:07.674,1.9525433,-0.33499518,2.6081767,-1.6759839,-4.02033,0.9098831,16.743752,-24.581251,-44.79375,0.24660856,0.021143872,0.6826753,995.3818, , , , 
2025-09-28 19:32:07.693,1.8664017,-1.0241281,3.938586,-1.445077,-5.122941,1.23975,13.406251,-26.56875,-43.40625,0.26460788,-0.021560468,0.6787498,995.3818, , , , 
2025-09-28 19:32:07.713,3.6466618,-2.7613173,2.2971098,-1.0083086,-6.61956,1.9776747,6.39375,-23.1375,-47.662502,0.3084883,-0.099064395,0.669064,995.37396, , , , 
2025-09-28 19:32:07.733,4.759324,-3.7950168,1.4189439,-1.0388519,-7.4796576,2.4138322,-3.5812502,-21.806252,-47.60625,0.34394726,-0.15806009,0.6598029,995.37396, , , , 
2025-09-28 19:32:07.753,5.1469617,-4.5152564,1.6390835,-1.043128,-7.8309045,2.6978843,-6.8250003,-21.993752,-48.80625,0.3626182,-0.19004531,0.65386385,995.37396, , , , 
2025-09-28 19:32:07.774,6.6759753,-6.0227346,1.0336994,-0.9056834,-7.33305,3.4968953,-18.2625,-19.706251,-46.350002,0.40679732,-0.27182448,0.6381559,995.36053, , , , 
2025-09-28 19:32:07.793,8.015956,-7.058827,-0.6939186,-1.0810016,-6.1889,4.000248,-22.3125,-18.6375,-45.825,0.42642906,-0.31772196,0.63095874,995.36053, , , , 
2025-09-28 19:32:07.813,11.322837,-8.422736,-0.1698904,-1.6203952,-4.716716,4.3508844,-32.15625,-13.106251,-38.15625,0.44402668,-0.40243533,0.62170476,995.3295, , , , 
2025-09-28 19:32:07.833,11.760723,-9.229117,1.0241281,-1.5696934,-4.3031607,4.328893,-37.8375,-10.481251,-34.162502,0.4445578,-0.466121,0.6146152,995.3144, , , , 
2025-09-28 19:32:07.853,12.059826,-10.403993,1.7515461,-1.2996912,-4.2726173,4.3588257,-39.112503,-5.0437503,-32.49375,0.44295385,-0.5010755,0.6098602,995.3144, , , , 
2025-09-28 19:32:07.874,13.617554,-10.6815605,2.2971098,-0.94844395,-3.929922,4.4260206,-41.568752,-0.8625,-26.906252,0.4394726,-0.5438295,0.6040389,995.31903, , , , 
2025-09-28 19:32:07.893,14.383257,-9.999606,1.5960127,-0.53916454,-2.3868778,4.0533934,-41.79375,6.1875005,-24.806252,0.4299626,-0.5865961,0.60094887,995.31903, , , , 
2025-09-28 19:32:07.913,13.3352,-9.889536,0.9762716,-0.46830422,-1.513952,3.8023279,-41.04375,6.9,-25.706251,0.42043498,-0.60603875,0.60178244,995.321, , , , 
2025-09-28 19:32:07.933,11.504691,-10.064212,-0.22492532,-0.52206033,-0.6935606,3.6190684,-40.612503,11.400001,-23.23125,0.40332624,-0.6268993,0.605275,995.321, , , , 
2025-09-28 19:32:07.953,9.889536,-10.633704,-0.9762716,-0.7083741,-0.27817255,3.6099055,-41.71875,13.275001,-22.9125,0.38754398,-0.640802,0.6084996,995.321, , , , 
2025-09-28 19:32:07.973,9.092726,-11.509477,-0.57188463,-0.9398918,-0.28061602,3.7681193,-41.71875,16.143751,-23.081251,0.3574361,-0.66398525,0.6125928,995.3215, , , , 
2025-09-28 19:32:07.993,10.112068,-11.959328,0.51445687,-0.8586468,-0.53473574,3.8493645,-40.74375,20.34375,-22.181252,0.319732,-0.6919671,0.61448056,995.33417, , , , 
2025-09-28 19:32:08.013,10.930414,-11.7463665,0.49052864,-0.658894,-0.48281226,3.6825984,-36.75,24.975,-21.018751,0.2956172,-0.7082552,0.61534774,995.33417, , , , 
2025-09-28 19:32:08.033,10.547563,-12.076576,-0.17228323,-0.58925545,-0.3398699,3.4724607,-34.59375,28.312502,-22.050001,0.27236968,-0.7218212,0.61634517,995.3405, , , , 
2025-09-28 19:32:08.053,9.939785,-12.330215,-0.5407779,-0.6387355,-0.21525347,3.390605,-34.7625,29.775002,-20.41875,0.2493285,-0.7339175,0.616707,995.3405, , , , 
2025-09-28 19:32:08.073,10.320244,-11.842079,0.36610186,-0.6436224,-0.13217586,3.2940884,-29.925001,32.006252,-19.650002,0.22582035,-0.74521613,0.61617625,995.3459, , , , 
2025-09-28 19:32:08.093,10.837093,-11.181661,0.9667004,-0.4579195,-0.08391755,3.0326383,-29.362501,34.162502,-18.13125,0.20300308,-0.7547677,0.61565125,995.3459, , , , 
2025-09-28 19:32:08.113,9.812965,-10.332209,0.5910272,-0.16531529,0.0022143847,2.6209154,-26.812502,36.43125,-20.7,0.17768037,-0.7628653,0.61637837,995.35516, , , , 
2025-09-28 19:32:08.133,8.7673025,-10.377672,-0.4833502,-0.07918335,0.13110685,2.3686283,-27.4125,36.487503,-19.40625,0.15954588,-0.76685834,0.61795723,995.35516, , , , 
2025-09-28 19:32:08.153,8.776874,-10.12164,-0.6412765,-0.093233235,0.1909716,2.220799,-25.44375,37.55625,-18.900002,0.14649893,-0.76934737,0.61897856,995.3649, , , , 
2025-09-28 19:32:08.173,9.025727,-9.695718,-0.7609176,-0.07185297,0.20990841,1.989892,-20.325,40.331253,-20.212502,0.1302203,-0.7721232,0.6200371,995.3649, , , , 
2025-09-28 19:32:08.193,8.989835,-9.542577,-1.134198,-0.112780906,0.26977316,1.7076725,-20.5125,37.95,-20.0625,0.11932938,-0.7737726,0.6206289,995.3649, , , , 
2025-09-28 19:32:08.213,8.5016985,-8.841479,-1.0743774,-0.17936517,0.36873326,1.4169009,-20.118752,40.706253,-19.0125,0.10653242,-0.7758591,0.62073225,995.3664, , , , 
2025-09-28 19:32:08.233,7.2646093,-8.91805,-0.26081768,-0.17264566,0.33024877,0.9483676,-18.45,40.275,-19.48125,0.09091355,-0.7787801,0.6197988,995.373, , , , 
2025-09-28 19:32:08.253,6.300302,-8.9013,-0.28235307,0.027717989,0.092011504,0.78893185,-17.325,40.0125,-20.19375,0.08189123,-0.7797816,0.6199411,995.373, , , , 
2025-09-28 19:32:08.273,6.235696,-8.583055,-0.5886344,0.1419497,-0.011835505,0.65881765,-17.868752,41.8125,-17.925001,0.076932594,-0.77946717,0.6211208,995.3798, , , , 
2025-09-28 19:32:08.293,6.1806607,-8.52802,-0.9092726,0.18226677,0.05291616,0.47067133,-15.525001,40.2,-20.400002,0.073360324,-0.7786059,0.6227349,995.3798, , , , 
2025-09-28 19:32:08.313,5.855237,-8.475378,-1.1365907,0.20547964,0.1598175,0.309403,-14.962501,43.10625,-18.46875,0.0712759,-0.77774775,0.6240749,995.38885, , , , 
2025-09-28 19:32:08.333,5.558527,-8.372486,-1.2921243,0.20975569,0.22762349,0.21716243,-15.3,41.34375,-20.025002,0.06947737,-0.7767662,0.6254856,995.38885, , , , 
2025-09-28 19:32:08.353,4.792824,-8.085348,-1.4596218,0.21891867,0.3540725,0.0772744,-13.425,41.04375,-21.75,0.066769056,-0.77499896,0.6278749,995.38934, , , , 
2025-09-28 19:32:08.373,4.4410787,-8.159525,-1.672583,0.20853396,0.3314705,0.0033597562,-12.243751,41.68125,-23.60625,0.0648727,-0.77352214,0.6297631,995.38934, , , , 
2025-09-28 19:32:08.393,4.3908296,-8.118847,-1.5577276,0.21708608,0.23861906,-0.030237807,-12.525001,41.8875,-21.112501,0.0639424,-0.7724396,0.6310816,995.38934, , , , 
2025-09-28 19:32:08.413,5.278567,-7.881958,-1.672583,0.2861138,0.08651373,-0.21471897,-15.150001,41.23125,-20.962502,0.064641275,-0.7694697,0.6344274,995.4018, , , , 
2025-09-28 19:32:08.433,4.938786,-8.092526,-2.1822543,0.23357943,0.15004367,-0.36743516,-15.281251,40.612503,-20.90625,0.0668898,-0.76755446,0.63632613,995.4057, , , , 
2025-09-28 19:32:08.453,4.831109,-8.099705,-2.1080768,0.11873684,0.22579089,-0.42302385,-14.981251,42.131252,-21.0375,0.0693383,-0.76611036,0.63752204,995.4057, , , , 
2025-09-28 19:32:08.473,5.704489,-7.8723865,-1.5768701,0.042989608,0.27282748,-0.53420126,-14.56875,41.0625,-23.175001,0.07180589,-0.76518846,0.6379799,995.415, , , , 
2025-09-28 19:32:08.493,5.6709895,-7.867601,-1.2466606,0.024663666,0.24228424,-0.6832523,-13.856251,41.53125,-25.275002,0.075186126,-0.7643461,0.6380807,995.415, , , , 
2025-09-28 19:32:08.513,5.9676995,-8.379665,-0.7800602,0.0692568,0.07246383,-0.7290671,-15.243751,39.99375,-21.806252,0.07860407,-0.76361656,0.63810205,995.4338, , , , 
2025-09-28 19:32:08.533,7.6570325,-9.06162,-0.1794617,0.31665704,-0.36430448,-0.82924896,-15.450001,41.850002,-22.81875,0.087121956,-0.76147366,0.63895255,995.4338, , , , 
2025-09-28 19:32:08.553,9.12144,-9.329616,-0.29671,0.546953,-0.7094431,-1.0057888,-18.45,40.78125,-21.825,0.09773317,-0.7581968,0.6410289,995.4484, , , , 
2025-09-28 19:32:08.574,10.140782,-9.375079,-0.6149554,0.6776781,-0.91530454,-1.2049308,-17.98125,39.99375,-24.768751,0.11195654,-0.75350326,0.644051,995.4484, , , , 
2025-09-28 19:32:08.593,11.459228,-9.363115,-0.701097,0.7448732,-1.0869576,-1.6319252,-19.66875,40.537502,-21.84375,0.13444069,-0.74623084,0.64792615,995.455, , , , 
2025-09-28 19:32:08.613,11.645867,-9.683753,-0.7752745,0.77052957,-1.1553744,-2.008218,-21.900002,38.943752,-22.44375,0.15061937,-0.7411153,0.64992875,995.455, , , , 
2025-09-28 19:32:08.633,11.01177,-10.073783,-1.4404793,0.78335774,-0.8945351,-2.4706426,-25.66875,36.9375,-21.91875,0.18729983,-0.7288722,0.65308166,995.4587, , , , 
2025-09-28 19:32:08.653,10.313066,-10.025927,-2.160719,0.6049852,-0.4418843,-2.6703954,-23.2875,34.706253,-24.825,0.20540217,-0.7220107,0.65417486,995.4587,37.8883702,127.73982864,145.96112060546875,0.0
2025-09-28 19:32:08.673,9.336794,-9.760324,-1.3591232,0.31360272,0.0040469794,-2.848768,-27.375002,35.025,-22.10625,0.23258325,-0.7110256,0.65407103,995.45844, , , , 
2025-09-28 19:32:08.693,9.001799,-9.41815,-0.16271193,0.29100072,0.011988222,-2.9507823,-27.806252,31.25625,-24.31875,0.24786782,-0.7044281,0.65309,995.45844, , , , 
2025-09-28 19:32:08.713,9.152547,-9.741181,0.18424734,0.4229475,-0.16027565,-3.096168,-32.04375,30.806252,-21.375,0.26918533,-0.6945133,0.6514926,995.4797, , , , 
2025-09-28 19:32:08.733,8.568698,-10.660025,-0.64606214,0.4870883,-0.4559342,-3.340514,-32.34375,27.91875,-21.487501,0.2992874,-0.679908,0.6486265,995.4797, , , , 
2025-09-28 19:32:08.753,8.319844,-10.734202,-0.997807,0.37407833,-0.52129674,-3.404044,-33.46875,25.931252,-21.4125,0.325027,-0.6677258,0.6444785,995.4831, , , , 
2025-09-28 19:32:08.773,8.02792,-11.090733,-1.1964114,0.19998185,-0.5103012,-3.2714863,-37.66875,22.63125,-20.00625,0.35016343,-0.65589136,0.638626,995.4831, , , , 
2025-09-28 19:32:08.793,8.362915,-10.892129,-1.5457634,0.041157015,-0.32032222,-3.0399685,-37.95,19.63125,-22.59375,0.37297377,-0.6448483,0.6318381,995.48676, , , , 
2025-09-28 19:32:08.813,9.195618,-10.164711,-1.3136597,-0.17447825,-0.14072797,-2.9373434,-39.131252,16.7625,-21.675001,0.39251608,-0.63478744,0.62444496,995.48676, , , , 
2025-09-28 19:32:08.833,9.580862,-8.427522,0.13399807,-0.3125337,0.17814344,-3.0222535,-41.25,14.306251,-21.018751,0.41375223,-0.6224629,0.6141316,995.4848, , , , 
2025-09-28 19:32:08.853,8.894122,-7.7120676,0.57906306,-0.15248711,0.33085963,-3.1474807,-41.5875,11.793751,-22.06875,0.42950433,-0.6107479,0.6062317,995.4848, , , , 
2025-09-28 19:32:08.873,7.1952176,-7.405786,0.28953153,0.08697187,0.34613127,-3.1633632,-40.275,10.3125,-21.806252,0.44513544,-0.5966354,0.59934336,995.4836, , , , 
2025-09-28 19:32:08.893,6.3338017,-7.3100734,-0.15074782,0.18593197,0.16653702,-3.1077745,-42.206253,8.85,-20.1375,0.4532158,-0.5891272,0.5960255,995.4836, , , , 
2025-09-28 19:32:08.915,5.386244,-7.097112,-0.81595254,0.29222244,-0.4143954,-2.7913465,-43.7625,4.7250004,-21.13125,0.47489372,-0.57152754,0.58646315,995.48065, , , , 
2025-09-28 19:32:08.933,4.342973,-6.7836523,-0.70588267,0.38018698,-0.53290313,-2.3747368,-45.037502,0.4875,-21.993752,0.4967818,-0.5563206,0.5758408,995.48065, , , , 
2025-09-28 19:32:08.953,3.481557,-6.2668023,-0.95473623,0.4333322,-0.46326458,-2.0155482,-44.831253,-1.2375001,-20.5125,0.512322,-0.5453831,0.568588,995.4687, , , , 
2025-09-28 19:32:08.973,2.7469604,-5.704489,-1.0025927,0.42966703,-0.3661371,-1.5677844,-45.037502,-3.1312501,-21.618752,0.5220219,-0.53816354,0.5644024,995.4687, , , , 
2025-09-28 19:32:08.993,2.8881369,-5.127819,-1.1389836,0.39423686,-0.27328563,-1.0497711,-46.3875,-5.26875,-19.2,0.5344221,-0.5287274,0.55963063,995.4567, , , , 
2025-09-28 19:32:09.013,3.2039895,-4.6396832,-1.875973,0.23846634,0.027870705,-0.7467822,-46.10625,-5.25,-18.91875,0.54216594,-0.5216834,0.55749106,995.4567, , , , 
2025-09-28 19:32:09.033,2.524428,-4.658826,-1.820938,0.08269582,0.20868668,-0.5244274,-46.95,-5.1937504,-20.081251,0.54513955,-0.51766324,0.5567915,995.44867, , , , 
2025-09-28 19:32:09.053,2.0458634,-4.520042,-1.5194423,-0.019929463,0.16592614,-0.17318016,-43.631252,-6.3375,-22.368752,0.54568624,-0.515434,0.5569623,995.44867, , , , 
2025-09-28 19:32:09.073,2.6799614,-4.8287163,-1.3208381,-0.018707734,-0.028328855,0.11026109,-46.3875,-7.3875003,-19.237501,0.5451677,-0.5154886,0.5573024,995.4465, , , , 
2025-09-28 19:32:09.093,3.0005996,-6.570691,-2.158326,-0.04497492,-0.31604618,0.47861254,-45.5625,-7.05,-20.118752,0.5440816,-0.5185613,0.55767,995.4465, , , , 
2025-09-28 19:32:09.113,3.0723844,-7.7120676,-2.225325,-0.1824195,-0.45349073,0.9007201,-46.237503,-7.4812503,-20.475,0.54215467,-0.5243268,0.5577634,995.4462, , , , 
2025-09-28 19:32:09.134,3.9960139,-8.26481,-2.416751,-0.41699156,-0.16943862,1.466381,-46.93125,-6.5625005,-20.306252,0.5359513,-0.5362918,0.5586213,995.4462, , , , 
2025-09-28 19:32:09.153,4.6229334,-9.229117,-1.9764715,-0.6601158,0.31986406,1.8151847,-46.66875,-4.4437504,-18.45,0.52780545,-0.5452824,0.5608915,995.4526, , , , 
2025-09-28 19:32:09.173,3.8691943,-9.635897,-1.68694,-0.8519273,0.7077632,2.4358232,-44.175003,-2.1937501,-18.84375,0.5069421,-0.56235963,0.56777745,995.4526, , , , 
2025-09-28 19:32:09.193,4.735396,-9.064013,-0.021535404,-0.9233985,0.79511684,3.0039275,-44.100002,-1.40625,-21.975,0.48408523,-0.5788517,0.5754457,995.4648, , , , 
2025-09-28 19:32:09.213,6.3864436,-8.6548395,1.4285151,-0.7230348,0.7285326,3.2348344,-45.581253,2.2875001,-20.025002,0.46480933,-0.5917983,0.58214086,995.4648, , , , 
2025-09-28 19:32:09.233,7.489535,-8.650054,1.5361922,-0.2691623,0.3436878,3.1444263,-42.862503,5.4375,-22.03125,0.43407977,-0.61125267,0.59398496,995.47943, , , , 
2025-09-28 19:32:09.253,7.5182486,-8.7673025,0.2440679,0.0014508038,-0.049709123,3.082729,-41.8875,9.637501,-21.45,0.41295537,-0.62435615,0.60321367,995.47943, , , , 
2025-09-28 19:32:09.273,7.678568,-8.863015,-0.63888365,0.044822205,-0.2512945,3.0521858,-41.100002,12.937501,-19.40625,0.3944211,-0.63660794,0.61126655,995.4875, , , , 
2025-09-28 19:32:09.294,7.580462,-8.961121,-1.5409778,-0.04925097,-0.36858055,3.0375252,-41.11875,15.168751,-17.831251,0.38138205,-0.64573896,0.6161688,995.4875, , , , 
2025-09-28 19:32:09.313,8.262417,-9.906285,-0.94277215,-0.30275986,-0.45165816,2.9697192,-37.74375,19.050001,-24.431252,0.35967842,-0.66189593,0.62142175,995.49603, , , , 
2025-09-28 19:32:09.334,8.329415,-10.96152,0.9092726,-0.016264275,-0.57016593,2.9446738,-39.225002,22.10625,-20.737501,0.33847705,-0.67717457,0.62511796,995.49603, , , , 
2025-09-28 19:32:09.353,8.319844,-11.188839,0.43070808,0.2635118,-0.6300307,3.006371,-35.925003,23.94375,-21.337502,0.32220697,-0.6867194,0.62960136,995.5224, , , , 
2025-09-28 19:32:09.373,7.9537425,-11.741581,-0.9236295,0.35819584,-0.4504364,3.169472,-34.631252,25.2,-22.331251,0.305991,-0.6945305,0.6349806,995.5224, , , , 
2025-09-28 19:32:09.393,8.377272,-11.442478,-1.012164,0.31238097,-0.19020802,3.3014188,-32.9625,28.237501,-23.4375,0.28690767,-0.7018265,0.64067274,995.53485, , , , 
2025-09-28 19:32:09.413,9.640682,-10.803595,-0.6197411,0.25251624,0.17081307,3.291034,-33.09375,29.718752,-24.13125,0.2652194,-0.70865196,0.64617234,995.53485, , , , 
2025-09-28 19:32:09.433,9.62154,-9.734002,-0.08853444,0.28550294,0.690659,3.0955572,-31.275002,31.63125,-21.956251,0.23550366,-0.7153322,0.6532367,995.54266, , , , 
2025-09-28 19:32:09.453,9.336794,-9.171689,-0.47377887,0.29344416,1.0553453,2.9947646,-28.518751,31.2,-26.081251,0.21640094,-0.71813846,0.65787137,995.54266, , , , 
2025-09-28 19:32:09.473,9.281759,-8.803194,-0.53599226,0.18043418,1.4505748,2.8872523,-25.050001,33.300003,-25.031252,0.18918741,-0.721183,0.6638641,995.53973, , , , 
2025-09-28 19:32:09.495,9.250652,-7.745567,-0.24646074,0.15783219,1.4682899,2.6465716,-22.368752,34.93125,-25.406252,0.15383919,-0.7242149,0.6703124,995.53973, , , , 
2025-09-28 19:32:09.513,9.501899,-8.056634,-1.1270195,0.07108939,1.309465,2.4138322,-20.90625,35.475002,-27.45,0.12778844,-0.7258459,0.6744084,995.5395, , , , 
2025-09-28 19:32:09.533,9.360723,-7.810173,-1.1126626,-0.10728313,1.1714096,2.1548254,-18.431252,38.34375,-26.94375,0.10443047,-0.72771186,0.6767249,995.5395, , , , 
2025-09-28 19:32:09.553,9.336794,-7.2215385,-0.12203395,-0.18547381,0.8537599,1.8774929,-16.21875,37.706253,-27.13125,0.07938229,-0.73060274,0.6773075,995.5334, , , , 
2025-09-28 19:32:09.573,9.628718,-6.4941206,0.34217364,-0.06818778,0.58375764,1.6099341,-14.043751,37.55625,-27.50625,0.063547224,-0.7322656,0.6774032,995.5334, , , , 
2025-09-28 19:32:09.594,10.284351,-6.2691956,-0.70588267,0.15050182,0.58681196,1.2696824,-13.856251,38.4375,-27.2625,0.051145233,-0.7324867,0.67838526,995.5346, , , , 
2025-09-28 19:32:09.613,10.289138,-6.101698,-1.5290136,0.16699515,0.79756033,1.0406082,-10.650001,39.037502,-28.725,0.04017407,-0.73176736,0.67994875,995.5346, , , , 
2025-09-28 19:32:09.633,10.542776,-6.068198,-1.8400806,0.16149737,0.8348231,0.8170316,-10.481251,39.9,-27.712502,0.029471157,-0.73092705,0.68134034,995.5119, , , , 
2025-09-28 19:32:09.653,11.75833,-6.5778694,-1.713261,0.22197299,0.28687736,0.5537489,-9.525001,40.143753,-29.362501,0.021449165,-0.7299703,0.6825892,995.5119,37.88836291,127.73981344,145.2989501953125,0.93
2025-09-28 19:32:09.673,13.49552,-8.059027,-1.6127625,0.40095636,-0.6129264,0.14019346,-8.90625,39.693752,-27.712502,0.020507643,-0.72840273,0.68432105,995.4953, , , , 
2025-09-28 19:32:09.694,14.136796,-9.29133,-2.4502504,0.41195193,-1.1291072,-0.4065305,-9.675,39.61875,-27.150002,0.031441312,-0.72523737,0.6874097,995.4953, , , , 
2025-09-28 19:32:09.713,14.411971,-10.291531,-2.1942184,0.12484549,-0.9623411,-0.7950405,-9.5625,38.756252,-26.812502,0.045150448,-0.7234524,0.6885704,995.4721, , , , 
2025-09-28 19:32:09.733,14.835501,-12.08854,-0.91166544,-0.03459022,-0.98983,-1.2953387,-10.03125,39.206253,-28.181252,0.060986407,-0.7229077,0.6878384,995.4721, , , , 
2025-09-28 19:32:09.753,14.809179,-11.598011,0.9020941,0.07047852,-0.94768035,-1.7308854,-11.7375,39.412502,-28.48125,0.08018041,-0.7219251,0.6866945,995.4609, , , , 
2025-09-28 19:32:09.773,14.05544,-10.942378,0.4426722,0.15538873,-0.56772244,-2.3527458,-14.2875,37.78125,-27.487501,0.101519614,-0.71899945,0.6864735,995.4609, , , , 
2025-09-28 19:32:09.793,12.162718,-11.169696,0.11485548,0.056428634,-0.15599959,-2.8774786,-15.450001,36.80625,-30.562502,0.12379085,-0.71505105,0.6858861,995.4594, , , , 
2025-09-28 19:32:09.813,10.315458,-11.99522,0.4761717,-0.040698867,0.037033677,-3.2446082,-18.73125,36.7125,-28.66875,0.14635868,-0.71060526,0.68409175,995.4594, , , , 
2025-09-28 19:32:09.833,9.138189,-13.246666,1.160519,-0.012599086,-0.17188208,-3.4529133,-20.23125,35.175003,-27.806252,0.16988333,-0.70537513,0.6811628,995.476, , , , 
2025-09-28 19:32:09.853,8.836694,-14.237295,1.7371893,0.1419497,-0.73204505,-3.54943,-23.71875,35.325,-27.6,0.20305392,-0.69706756,0.6763742,995.476, , , , 
2025-09-28 19:32:09.873,9.2793665,-14.840286,2.0051854,0.29405504,-1.1828632,-3.6398377,-27.31875,33.5625,-25.893751,0.23351727,-0.6888772,0.671625,995.50726, , , , 
2025-09-28 19:32:09.894,8.997013,-14.651253,1.2729816,0.33498296,-1.4107158,-3.719861,-28.743752,32.175003,-26.8875,0.26654363,-0.6793021,0.66589075,995.50726, , , , 
2025-09-28 19:32:09.913,8.678768,-13.739588,0.782453,0.19204062,-1.1981349,-3.7412415,-30.956251,30.187502,-24.075,0.29963076,-0.66911596,0.6586839,995.52484, , , , 
2025-09-28 19:32:09.933,8.937193,-13.179667,0.5072784,0.027717989,-0.7393755,-3.8041604,-33.787502,27.900002,-22.25625,0.33018053,-0.65844005,0.65042365,995.52484, , , , 
2025-09-28 19:32:09.953,9.516255,-13.009777,0.29910284,-0.14637847,-0.3655262,-3.959931,-36.9375,24.581251,-22.66875,0.35759345,-0.64693666,0.6414565,995.53143, , , , 
2025-09-28 19:32:09.973,9.128618,-12.96192,0.6436693,-0.20379977,-0.26656613,-4.2287116,-38.98125,18.150002,-22.3875,0.38994813,-0.63081676,0.62860566,995.53143, , , , 
2025-09-28 19:32:09.993,7.32443,-13.007384,0.6436693,-0.13965896,-0.31238097,-4.3374453,-38.90625,16.3125,-23.23125,0.41613695,-0.6160308,0.6169727,995.52606, , , , 
2025-09-28 19:32:10.013,5.790631,-12.531212,0.1363909,-0.14515674,-0.22258386,-4.2555895,-40.7625,12.993751,-21.6,0.4416743,-0.60017437,0.6046087,995.52606, , , , 
2025-09-28 19:32:10.033,4.338187,-11.870793,-0.1052842,-0.24900375,0.1494328,-4.0521717,-45.09375,6.0750003,-21.84375,0.4642167,-0.5838987,0.59230685,995.5195, , , , 
2025-09-28 19:32:10.053,3.1848469,-10.815558,0.2416751,-0.25694498,0.4890736,-3.7626216,-43.8375,1.48125,-21.09375,0.48228717,-0.56729215,0.58115685,995.5195, , , , 
2025-09-28 19:32:10.073,2.024328,-9.839287,0.23688944,-0.15431972,0.45425433,-3.4767368,-45.693752,-0.46875003,-20.475,0.49739423,-0.55040693,0.57121134,995.5085, , , , 
2025-09-28 19:32:10.093,1.308874,-9.052048,0.33260235,-0.020540329,0.21968225,-3.1456482,-44.04375,-2.53125,-21.618752,0.5113821,-0.5341637,0.56171286,995.5085, , , , 
2025-09-28 19:32:10.113,0.7322037,-8.34138,0.4139583,0.131565,-0.11384992,-2.7913465,-43.331253,-4.18125,-22.66875,0.5252238,-0.5193309,0.55226874,995.5024, , , , 
2025-09-28 19:32:10.133,0.11246266,-8.056634,-0.11006984,0.22930336,-0.39606944,-2.360687,-44.006252,-8.118751,-21.768751,0.54260325,-0.50346357,0.5405896,995.5024, , , , 
2025-09-28 19:32:10.153,-0.9236295,-8.216953,-0.41156548,0.14256057,-0.48831004,-1.9251404,-43.96875,-8.85,-23.737501,0.55532116,-0.49366033,0.53153557,995.50653, , , , 
2025-09-28 19:32:10.173,-1.9908284,-8.681161,-0.09092726,0.022220206,-0.44677123,-1.2910627,-43.29375,-10.51875,-22.63125,0.56511366,-0.48724902,0.5236484,995.50653, , , , 
2025-09-28 19:32:10.193,-1.7467605,-8.532805,0.1268196,0.046043932,-0.18287764,-0.558025,-45.0,-12.431251,-22.650002,0.5705631,-0.4843421,0.51899976,995.517, , , , 
2025-09-28 19:32:10.213,-1.5936198,-8.2456665,-1.0193424,0.03565923,0.26794055,0.1933387,-43.256252,-13.89375,-21.65625,0.571167,-0.48378608,0.5191447,995.517, , , , 
2025-09-28 19:32:10.233,-1.2873386,-8.891729,-2.1367905,-0.16348268,0.46097383,0.83780104,-43.050003,-11.606251,-24.45,0.5667463,-0.4859014,0.5233425,995.538, , , , 
2025-09-28 19:32:10.253,-0.5192425,-10.669596,-2.498107,-0.39622217,0.5000692,1.4785982,-44.193752,-11.981251,-22.143751,0.55774754,-0.4923282,0.5296299,995.538, , , , 
2025-09-28 19:32:10.273,-0.2943172,-10.887343,-2.2420747,-0.622853,0.37972882,2.3313653,-45.581253,-8.025001,-22.6875,0.540287,-0.50721157,0.53967017,995.53876, , , , 
2025-09-28 19:32:10.294,2.0003998,-10.394422,-1.1126626,-0.81955147,0.34735298,2.9917102,-45.80625,-9.168751,-22.59375,0.52150214,-0.52484447,0.5488226,995.53876, , , , 
2025-09-28 19:32:10.313,3.9026937,-10.518848,0.0741775,-0.90995944,0.67111135,3.3692248,-45.28125,-6.5062504,-22.5,0.4981369,-0.5446117,0.5594126,995.5507, , , , 
2025-09-28 19:32:10.333,4.8047876,-11.270195,1.0025927,-0.81466454,0.78167784,3.5934122,-44.98125,-1.5937501,-24.187502,0.47079277,-0.5639139,0.57184744,995.5507, , , , 
2025-09-28 19:32:10.353,5.206782,-12.260823,1.4117653,-0.47258025,0.22456917,3.806604,-44.325,1.8000001,-22.29375,0.44325987,-0.58272856,0.58462,995.55853, , , , 
2025-09-28 19:32:10.373,6.424729,-13.347165,0.44745782,-0.039477136,-0.46204284,4.046674,-43.725002,4.74375,-22.987501,0.4188818,-0.60156274,0.5966261,995.55853, , , , 
2025-09-28 19:32:10.393,7.578069,-14.153546,-0.6987042,0.11934771,-0.6605739,4.1633487,-40.987503,9.618751,-23.081251,0.39662173,-0.6198428,0.6079297,995.559, , , , 
2025-09-28 19:32:10.413,8.181061,-13.993227,-1.0313065,0.075976305,-0.5616138,4.243372,-39.600002,15.618751,-24.806252,0.36828524,-0.64131,0.6208034,995.559, , , , 
2025-09-28 19:32:10.433,8.874979,-13.306487,-0.4977071,0.07658717,-0.39118254,4.2329874,-40.987503,16.725,-24.581251,0.3439463,-0.657009,0.63006806,995.5549, , , , 
2025-09-28 19:32:10.453,9.628718,-12.710674,-0.22731815,0.1297324,-0.2323577,4.144412,-41.0625,19.556252,-21.16875,0.3249733,-0.6673753,0.636699,995.5549, , , , 
2025-09-28 19:32:10.473,10.442278,-12.102897,-0.5766702,0.18409938,-0.124234624,3.8860164,-36.225002,24.54375,-22.425001,0.2935514,-0.6814911,0.6470424,995.54974, , , , 
2025-09-28 19:32:10.493,10.96152,-11.753545,-0.35413775,0.16149737,-0.03810269,3.6557202,-34.518753,26.343752,-23.643751,0.26944876,-0.69056326,0.6540455,995.54974, , , , 
2025-09-28 19:32:10.513,11.66501,-11.2343025,-0.10767702,0.16821688,0.12255475,3.3655596,-32.737503,28.518751,-25.031252,0.24621844,-0.6979367,0.6600865,995.5468, , , , 
2025-09-28 19:32:10.533,11.353944,-10.30828,-0.9499506,-0.022372922,0.5135082,3.1120505,-32.550003,30.056252,-26.831251,0.22349168,-0.7038728,0.6652496,995.5468, , , , 
2025-09-28 19:32:10.553,10.856236,-9.518648,-0.7609176,-0.3821723,1.1323142,2.9330673,-28.706251,31.800001,-25.650002,0.19888489,-0.70994264,0.6686852,995.5456, , , , 
2025-09-28 19:32:10.573,11.035698,-9.233903,1.3016955,-0.4304306,1.3284018,2.762636,-24.35625,34.36875,-26.868752,0.16472484,-0.71792763,0.67077714,995.5456, , , , 
2025-09-28 19:32:10.593,11.839686,-8.956335,2.0578275,-0.13171771,0.9258419,2.6490152,-22.6875,35.4,-26.00625,0.13891174,-0.7224366,0.67268705,995.5505, , , , 
2025-09-28 19:32:10.613,12.890136,-7.948957,1.1030912,0.2543488,0.5049561,2.3887868,-20.53125,35.8875,-26.56875,0.11801937,-0.72396654,0.6761203,995.5505, , , , 
2025-09-28 19:32:10.633,12.430714,-6.74776,-0.28953153,0.3154353,0.4823541,2.025933,-19.556252,37.74375,-27.862501,0.101299055,-0.72353673,0.6802052,995.55756, , , , 
2025-09-28 19:32:10.653,12.134004,-6.0801625,-0.2440679,0.3172679,0.55810136,1.8420627,-20.737501,37.21875,-25.237501,0.08626838,-0.72270536,0.6837772,995.55756,37.88835903,127.73980043,144.95001220703125,1.94
2025-09-28 19:32:10.673,12.799209,-5.84088,-0.19621146,0.52312934,0.4560869,1.6862922,-17.681252,38.41875,-27.018751,0.07225872,-0.7210581,0.68757325,995.5617, , , , 
2025-09-28 19:32:10.693,14.435899,-5.831309,-0.7848458,0.81390095,-0.07536544,1.4468333,-14.38125,38.643753,-28.312502,0.061224207,-0.7177134,0.69254404,995.5617, , , , 
2025-09-28 19:32:10.713,16.048662,-6.4414787,-2.416751,1.0020473,-0.6288089,1.0625993,-14.1,38.662502,-28.031252,0.056856558,-0.7124785,0.69873536,995.54803, , , , 
2025-09-28 19:32:10.733,16.967505,-8.063812,-5.180461,0.7699187,-0.9208023,0.4566214,-11.981251,38.90625,-29.343752,0.060829967,-0.7056682,0.7056594,995.54803, , , , 
2025-09-28 19:32:10.753,17.307285,-9.174082,-5.9700923,0.24457498,-0.77052957,0.049174614,-13.200001,39.393753,-29.250002,0.066107124,-0.7033798,0.7075715,995.5285, , , , 
2025-09-28 19:32:10.773,17.130217,-10.033105,-4.429115,-0.43409577,-0.46204284,-0.45112363,-14.19375,38.79375,-29.56875,0.074420445,-0.7039949,0.706153,995.5285, , , , 
2025-09-28 19:32:10.793,15.323636,-9.2793665,-0.5838487,-0.7786235,-0.35941756,-1.0833687,-14.681251,37.875,-29.156252,0.08676804,-0.70890504,0.69964325,995.5153, , , , 
2025-09-28 19:32:10.813,14.263616,-9.219545,1.457229,-0.63629204,-0.4730384,-1.5751148,-15.375001,38.175003,-28.0125,0.09654272,-0.71181065,0.6951842,995.5153, , , , 
2025-09-28 19:32:10.833,12.373286,-10.097712,2.2875385,-0.23556472,-0.5475639,-2.1817036,-15.993751,39.35625,-28.48125,0.11803415,-0.71333593,0.6896073,995.539, , , , 
2025-09-28 19:32:10.855,10.96152,-10.920842,1.3399807,0.10529782,-0.64896744,-2.5384486,-17.493752,39.318752,-27.393751,0.13924615,-0.71076477,0.6874008,995.539, , , , 
2025-09-28 19:32:10.873,10.758131,-11.870793,-0.54317075,0.22197299,-0.57505286,-2.8383832,-21.6375,36.15,-28.181252,0.16876552,-0.70419115,0.68591523,995.5705, , , , 
2025-09-28 19:32:10.893,10.648061,-12.899707,-2.0865414,-0.039477136,-0.44616038,-3.0760095,-23.175001,35.98125,-25.06875,0.19315211,-0.69835126,0.68348366,995.5705, , , , 
2025-09-28 19:32:10.913,10.516456,-13.172488,-1.5026926,-0.3919461,-0.4504364,-3.2482734,-25.575,34.7625,-27.843752,0.21161583,-0.69487405,0.6795745,995.5627, , , , 
2025-09-28 19:32:10.933,10.411171,-12.856636,1.0289137,-0.5923098,-0.55611604,-3.5243843,-30.656252,32.34375,-25.1625,0.24352312,-0.6901582,0.66935605,995.5627, , , , 
2025-09-28 19:32:10.953,10.004392,-12.7393875,2.1750758,-0.5135082,-0.5011382,-3.7357435,-29.56875,32.475002,-26.6625,0.27032,-0.68509895,0.65978163,995.57367, , , , 
2025-09-28 19:32:10.973,9.635897,-12.935599,2.3018954,-0.3504073,-0.31115925,-3.9519897,-30.956251,30.937502,-23.962502,0.29738548,-0.6775167,0.65036064,995.57367, , , , 
2025-09-28 19:32:10.993,10.109675,-13.411771,1.6414764,-0.23128867,-0.042378742,-4.184729,-36.581253,26.362501,-22.35,0.32393992,-0.6672741,0.64126825,995.58514, , , , 
2025-09-28 19:32:11.013,9.757931,-13.720445,1.3447664,-0.19830199,0.091400646,-4.4174685,-38.11875,23.85,-22.5,0.3499958,-0.6543756,0.63201445,995.58514, , , , 
2025-09-28 19:32:11.033,8.382058,-14.246866,0.49052864,-0.15309799,0.09812015,-4.575072,-40.74375,21.075,-21.6,0.38281953,-0.6354319,0.6189996,995.58417, , , , 
2025-09-28 19:32:11.053,7.1282187,-13.899907,0.30149564,-0.18425208,0.040698867,-4.57385,-40.21875,15.675,-22.425001,0.408454,-0.6191004,0.6071439,995.58417, , , , 
2025-09-28 19:32:11.073,5.5896335,-13.347165,0.9379865,-0.16653702,-0.10713041,-4.4724464,-44.04375,11.2875,-21.46875,0.43347317,-0.6024635,0.5938057,995.582, , , , 
2025-09-28 19:32:11.093,4.342973,-12.662817,1.3280165,0.014278964,-0.3013854,-4.2775807,-44.60625,6.99375,-21.9375,0.45788425,-0.58532274,0.57987016,995.582, , , , 
2025-09-28 19:32:11.113,2.914458,-11.753545,0.81834537,0.2690096,-0.7094431,-4.0191846,-44.475002,4.14375,-20.71875,0.48237038,-0.5678621,0.5659123,995.57294, , , , 
2025-09-28 19:32:11.133,1.227518,-10.84188,-1.2059826,0.24213153,-1.021595,-3.5970774,-47.86875,-0.93750006,-19.44375,0.513836,-0.5477185,0.54726446,995.57294, , , , 
2025-09-28 19:32:11.153,0.21774685,-10.3848505,-2.2444677,-0.08040508,-0.7900772,-3.1444263,-46.10625,-2.2687502,-18.16875,0.53081113,-0.53772587,0.5355036,995.5627, , , , 
2025-09-28 19:32:11.173,-0.21535404,-10.279566,-1.2442678,-0.48479757,-0.16149737,-2.4614797,-44.943752,-5.4750004,-21.35625,0.5503281,-0.5247871,0.5180487,995.5627, , , , 
2025-09-28 19:32:11.193,-0.53599226,-10.042677,-0.20817557,-0.5135082,0.20685409,-1.8719951,-47.550003,-7.36875,-19.725,0.558231,-0.5167536,0.50821716,995.5456, , , , 
2025-09-28 19:32:11.213,-1.2346965,-10.059426,-0.35174492,-0.41088292,0.33269224,-1.3600904,-45.65625,-9.450001,-17.19375,0.56136566,-0.511769,0.5033804,995.5456, , , , 
2025-09-28 19:32:11.233,-2.1678972,-10.279566,-1.0552348,-0.43715012,0.48174325,-0.490219,-46.706253,-10.51875,-19.800001,0.56222016,-0.5067032,0.49957764,995.538, , , , 
2025-09-28 19:32:11.253,-2.0554347,-10.686346,-1.0743774,-0.48663014,0.545884,0.12797616,-45.525,-9.65625,-19.2,0.558198,-0.50682074,0.50010407,995.538, , , , 
2025-09-28 19:32:11.273,-2.5914268,-10.097712,-0.7106683,-0.50434524,0.50617784,0.8280272,-46.29375,-11.475,-21.018751,0.55034304,-0.5107745,0.5034751,995.53265, , , , 
2025-09-28 19:32:11.293,-2.3234308,-9.059227,0.6221339,-0.4267654,0.41699156,1.6233732,-47.15625,-9.3,-22.125,0.5392061,-0.51852494,0.5093962,995.53265, , , , 
2025-09-28 19:32:11.313,-0.6795616,-9.281759,1.7970098,-0.07063124,0.15554145,2.223853,-44.362503,-7.0312505,-22.25625,0.5256502,-0.52914196,0.51820314,995.5368, , , , 
2025-09-28 19:32:11.333,1.9764715,-10.813166,1.079163,0.53779006,-0.33559385,2.721708,-45.65625,-5.53125,-23.4375,0.5091276,-0.54462415,0.5328881,995.5368, , , , 
2025-09-28 19:32:11.353,3.9433718,-12.342179,-1.3328022,0.8713223,-0.56894416,2.993543,-43.29375,-3.1875002,-21.806252,0.4976005,-0.5575846,0.5465318,995.53485, , , , 
2025-09-28 19:32:11.373,4.651647,-13.004992,-3.2159536,0.80229455,-0.49441868,3.2067347,-46.59375,-1.29375,-20.79375,0.48869553,-0.56759304,0.557041,995.53485, , , , 
2025-09-28 19:32:11.393,5.5369916,-13.392629,-4.1635113,0.20975569,0.07979421,3.4700174,-46.59375,1.6875001,-20.04375,0.4690638,-0.5857568,0.573985,995.4987, , , , 
2025-09-28 19:32:11.413,5.5226345,-13.146168,-2.495714,-0.19158247,0.58497936,3.6728244,-45.037502,5.8125,-19.35,0.4462763,-0.6017216,0.58681875,995.4987, , , , 
2025-09-28 19:32:11.433,5.8337016,-12.543177,-0.043070808,-0.29054257,0.72120225,3.9385507,-43.068752,7.2937503,-22.893751,0.41049704,-0.6219906,0.60289806,995.48016, , , , 
2025-09-28 19:32:11.453,6.178268,-12.12204,0.33738798,-0.15248711,0.5122865,4.0888233,-41.79375,12.900001,-22.875,0.38806352,-0.6336864,0.6123082,995.48016, , , , 
2025-09-28 19:32:11.473,7.1018977,-12.023933,-0.19621146,-0.026038112,0.33696827,4.1517425,-41.98125,15.618751,-22.40625,0.3512889,-0.6517813,0.62710315,995.4858, , , , 
2025-09-28 19:32:11.493,7.0229344,-12.425928,-0.5814559,-0.008323032,0.1909716,4.226268,-37.518753,21.900002,-20.2875,0.32230222,-0.6649845,0.63763165,995.4858, , , , 
2025-09-28 19:32:11.513,7.501499,-12.825529,-0.5240282,-0.021151192,-0.01244637,4.411971,-35.4375,25.3875,-24.562502,0.2932035,-0.6777893,0.6466471,995.48553, , , , 
2025-09-28 19:32:11.533,9.690931,-12.823136,-0.19142582,-0.041920595,0.11094832,4.484053,-34.8375,28.29375,-24.487501,0.26346672,-0.68988365,0.6543144,995.48553, , , , 
2025-09-28 19:32:11.553,11.126625,-12.540784,-0.1268196,-0.11033745,0.41332638,4.3942556,-32.662502,31.031252,-25.95,0.23224044,-0.7003594,0.6610077,995.4799, , , , 
2025-09-28 19:32:11.573,12.892529,-11.751152,-0.3397808,-0.28199047,0.8830814,4.0246825,-31.687502,32.25,-25.35,0.19178493,-0.71119463,0.66742134,995.4799, , , , 
2025-09-28 19:32:11.593,13.471592,-10.758131,-0.29671,-0.5116756,1.3296236,3.6184576,-26.718752,33.61875,-25.650002,0.15914544,-0.7186595,0.6703368,995.4721, , , , 
2025-09-28 19:32:11.613,13.459627,-9.875179,0.59342,-0.66927874,1.5049417,3.263545,-24.487501,37.575,-23.94375,0.13478582,-0.72389275,0.67106855,995.4721, , , , 
2025-09-28 19:32:11.633,13.416556,-8.633304,2.5986054,-0.52328205,1.16469,2.8725917,-20.60625,37.10625,-25.406252,0.09755719,-0.731283,0.6706373,995.47504, , , , 
2025-09-28 19:32:11.653,14.557933,-7.759924,2.7828526,-0.06207913,0.6448441,2.5518875,-17.325,38.0625,-25.500002,0.07382761,-0.7341817,0.671448,995.47504,37.8883548,127.73978284,145.853271484375,1.82
2025-09-28 19:32:11.673,15.476777,-7.164111,0.8853444,0.4418843,0.50801045,2.1713188,-16.331251,37.93125,-25.893751,0.055609602,-0.73363894,0.67467016,995.49725, , , , 
2025-09-28 19:32:11.693,16.859829,-7.015756,-2.4717858,0.52190757,0.6643918,1.7974696,-13.125001,38.5125,-27.0375,0.04013957,-0.7306814,0.6795437,995.49725, , , , 
2025-09-28 19:32:11.714,17.410177,-6.8195443,-4.4004006,0.1627191,0.7285326,1.3686426,-11.0625,39.112503,-29.1375,0.02693436,-0.7284472,0.6828157,995.49677, , , , 
2025-09-28 19:32:11.733,17.85285,-7.5613194,-3.2207394,-0.48540843,0.46891508,0.7137955,-8.6625,39.375,-29.868752,0.015745612,-0.73029315,0.6811473,995.49677, , , , 
2025-09-28 19:32:11.753,17.888742,-8.360522,-0.8350951,-0.6265182,0.16287182,0.23060146,-9.5625,40.125,-27.656252,0.01316059,-0.73323,0.67791724,995.48773, , , , 
2025-09-28 19:32:11.773,17.840885,-8.642876,1.026521,-0.4426479,-0.14989094,-0.29596397,-6.7500005,41.775,-27.13125,0.014966348,-0.7369003,0.6736347,995.48773, , , , 
2025-09-28 19:32:11.793,18.204596,-8.551949,1.7443677,-0.12744166,-0.37346745,-1.1322379,-9.75,38.60625,-26.325,0.025401624,-0.7390138,0.670446,995.5114, , , , 
2025-09-28 19:32:11.813,17.324036,-9.195618,1.9334008,0.07903063,-0.46143198,-1.8603886,-9.356251,41.268753,-26.6625,0.040737726,-0.7385506,0.6692841,995.5114, , , , 
2025-09-28 19:32:11.833,14.744574,-11.038091,1.5936198,0.33009607,-0.6941715,-2.6300783,-12.731251,41.90625,-26.19375,0.06238081,-0.73599213,0.6689395,995.5358, , , , 
2025-09-28 19:32:11.853,12.44507,-12.425928,1.0719845,0.4486038,-0.917748,-2.9947646,-14.83125,39.581253,-25.987501,0.08914901,-0.7315499,0.6688469,995.5358, , , , 
2025-09-28 19:32:11.873,12.155539,-13.098311,0.9882358,0.4803688,-1.0362557,-3.2171195,-15.31875,39.16875,-27.468752,0.12630455,-0.7243022,0.6679687,995.54974, , , , 
2025-09-28 19:32:11.893,12.4833555,-13.313665,0.8446664,0.4736493,-0.86826795,-3.5298822,-19.63125,36.73125,-27.337502,0.15756862,-0.71717787,0.6662043,995.54974, , , , 
2025-09-28 19:32:11.913,11.897114,-13.380664,0.4426722,0.42600182,-0.46509716,-3.8353145,-24.525002,35.850002,-25.687502,0.18111005,-0.7107997,0.664187,995.5649, , , , 
2025-09-28 19:32:11.933,10.595419,-13.761123,-0.1052842,0.29038984,0.2520581,-4.143801,-26.625002,34.65,-28.331251,0.2176526,-0.6981123,0.6595126,995.5649, , , , 
2025-09-28 19:32:11.953,9.798609,-14.179867,1.0695918,0.33131778,0.18913901,-4.397921,-29.1375,33.881252,-26.643751,0.24448726,-0.6861097,0.6545825,995.5644, , , , 
2025-09-28 19:32:11.973,9.3104725,-14.452649,0.6221339,0.34964374,-0.099800035,-4.311789,-29.268751,31.875002,-26.212502,0.27387834,-0.6728921,0.6479782,995.5644, , , , 
2025-09-28 19:32:11.993,10.928021,-14.268401,1.1413764,0.39118254,-0.60132,-4.4675593,-34.66875,27.300001,-21.056252,0.30386984,-0.65921247,0.63982105,995.56805, , , , 
2025-09-28 19:32:12.013,10.585847,-14.409578,1.3136597,0.43638653,-0.8383356,-4.799259,-37.78125,23.90625,-25.0125,0.3374978,-0.644278,0.6290655,995.56805, , , , 
2025-09-28 19:32:12.033,7.786245,-14.586647,0.6197411,0.35086545,-0.55733776,-4.9141016,-38.381252,20.962502,-23.7,0.38060483,-0.62279254,0.61298084,995.5734, , , , 
2025-09-28 19:32:12.053,6.276374,-13.940585,0.5623133,0.26962045,-0.39118254,-4.7002993,-38.9625,15.937501,-24.281252,0.41149724,-0.60450494,0.599375,995.5734, , , , 
2025-09-28 19:32:12.073,5.802595,-13.146168,0.67477596,0.26412266,-0.45226902,-4.5219264,-42.693752,10.6875,-21.73125,0.43281987,-0.59077513,0.5889066,995.5734, , , , 
2025-09-28 19:32:12.094,4.6875396,-11.4903345,0.44745782,0.27817255,-0.57444197,-4.2476482,-40.912502,8.512501,-22.725,0.46665928,-0.5681333,0.57064474,995.57, , , , 
2025-09-28 19:32:12.114,3.7686956,-10.870593,0.2536392,0.23052509,-0.5341249,-4.041176,-45.28125,2.325,-20.53125,0.4920231,-0.5502969,0.5554211,995.5622, , , , 
2025-09-28 19:32:12.133,1.9860427,-10.356136,0.083748795,0.18898629,-0.29833108,-3.6856527,-43.350002,-4.18125,-21.900002,0.52000135,-0.52839166,0.53689253,995.5622, , , , 
2025-09-28 19:32:12.153,0.34217364,-9.820144,-0.41635114,0.13950625,-0.046654798,-3.24583,-43.3125,-3.9562502,-20.831251,0.5337689,-0.515639,0.5271969,995.5583, , , , 
2025-09-28 19:32:12.173,-0.85902333,-9.300901,-0.8446664,0.09613484,-0.11568252,-2.5555527,-45.300003,-6.5062504,-21.4125,0.551626,-0.497083,0.51376975,995.5583, , , , 
2025-09-28 19:32:12.193,-1.1437693,-8.908479,-0.7800602,0.08880447,-0.42416924,-1.9019275,-44.831253,-10.06875,-22.181252,0.563106,-0.4866778,0.5043355,995.54974, , , , 
2025-09-28 19:32:12.213,-0.849452,-8.616554,-0.91884387,0.07475458,-0.52129674,-1.3387102,-45.28125,-11.38125,-19.275002,0.57050997,-0.48184285,0.49794388,995.54974, , , , 
2025-09-28 19:32:12.233,-0.22492532,-8.5112705,-1.1988041,-0.12377647,-0.07536544,-0.65881765,-43.66875,-13.8,-22.237501,0.57828647,-0.47784725,0.49062994,995.5402, , , , 
2025-09-28 19:32:12.253,-0.3469593,-9.24826,-1.0863415,-0.26549712,0.24533857,-0.23854269,-44.7,-14.418751,-20.868752,0.5788686,-0.47684374,0.48884365,995.5402, , , , 
2025-09-28 19:32:12.273,-0.634098,-10.987842,-1.1509477,-0.33757916,0.33757916,0.2855793,-44.34375,-14.00625,-20.15625,0.57527643,-0.47825572,0.49020416,995.5268, , , , 
2025-09-28 19:32:12.293,-1.4452649,-10.676775,-1.2849457,-0.50556695,0.19646938,1.1163554,-43.893753,-13.44375,-22.3875,0.56857926,-0.4834634,0.4937184,995.5268, , , , 
2025-09-28 19:32:12.313,-0.8135597,-9.798609,-0.059820566,-0.5947532,0.10117448,1.6850705,-43.3125,-12.01875,-22.3875,0.55857855,-0.49350342,0.4986759,995.5219, , , , 
2025-09-28 19:32:12.333,0.485743,-9.482756,1.3447664,-0.4579195,0.19708025,2.2635593,-44.4375,-8.793751,-21.375,0.54175067,-0.5105623,0.50783145,995.5219, , , , 
2025-09-28 19:32:12.353,1.0887343,-9.954143,1.2753744,-0.14821106,0.22884522,2.6661193,-43.575,-8.306251,-23.643751,0.52561796,-0.5247925,0.51894605,995.5212, , , , 
2025-09-28 19:32:12.373,1.3040884,-10.877771,-0.06699903,0.07841977,-0.043600474,3.051575,-43.7625,-5.5875,-23.00625,0.5130678,-0.53587013,0.52881545,995.5212, , , , 
2025-09-28 19:32:12.393,2.725425,-12.567104,-1.7180467,0.17249294,-0.40401068,3.7100873,-44.34375,-4.03125,-22.575,0.49171826,-0.5574839,0.54580426,995.5119, , , , 
2025-09-28 19:32:12.413,3.8117664,-13.347165,-2.1702902,0.124234624,-0.3759109,3.9807003,-44.53125,0.28125,-20.175001,0.48221797,-0.5673171,0.55274653,995.5119, , , , 
2025-09-28 19:32:12.433,7.135397,-14.321044,-2.0338993,-0.2551124,0.16592614,4.6838055,-43.125,6.9187503,-23.94375,0.438691,-0.6044315,0.5783129,995.486, , , , 
2025-09-28 19:32:12.453,8.736196,-13.840086,-0.7298109,-0.32047492,0.27649269,4.7931504,-43.0875,10.14375,-21.975,0.40712643,-0.62566453,0.5927314,995.486, , , , 
2025-09-28 19:32:12.473,9.355937,-13.088739,0.33260235,-0.20257804,0.2013563,4.7894855,-41.850002,16.25625,-22.9125,0.38248187,-0.6403772,0.6029841,995.4733, , , , 
2025-09-28 19:32:12.493,9.075976,-12.96192,0.81834537,0.07108939,-0.05459604,4.8041463,-38.643753,19.181252,-21.5625,0.3425177,-0.66186446,0.6189027,995.4733, , , , 
2025-09-28 19:32:12.513,8.977871,-13.318451,0.8446664,0.26106834,-0.13400847,4.866454,-37.78125,23.493752,-20.5125,0.31924072,-0.672901,0.62807465,995.47406, , , , 
2025-09-28 19:32:12.533,9.877572,-14.033905,0.13160525,0.53473574,-0.13095413,5.085755,-33.525,26.7,-25.931252,0.2801579,-0.6880307,0.64344937,995.47406, , , , 
2025-09-28 19:32:12.553,12.153146,-13.837693,-0.3182454,0.6459131,-0.2616792,5.115076,-35.11875,28.29375,-25.85625,0.24795736,-0.69746214,0.65539503,995.4826, , , , 
2025-09-28 19:32:12.573,14.9814625,-12.926028,-1.5960127,0.5487856,-0.08575014,4.799259,-30.581251,31.237501,-24.7875,0.2090909,-0.70605624,0.66799164,995.4826, , , , 
2025-09-28 19:32:12.593,16.347765,-11.691332,-2.0195422,0.15661046,0.5104539,4.1798425,-29.343752,32.23125,-26.062502,0.17894423,-0.71154183,0.6747499,995.4753, , , , 
2025-09-28 19:32:12.613,15.366707,-10.743773,-1.2921243,-0.2758818,1.1323142,3.579973,-25.031252,34.66875,-26.19375,0.15638979,-0.7157263,0.67743754,995.4753, , , , 
2025-09-28 19:32:12.633,13.129417,-9.707682,1.6582261,-0.5330559,1.598404,3.015534,-21.2625,38.287502,-24.6375,0.11829843,-0.72325075,0.6782671,995.4731, , , , 
2025-09-28 19:32:12.653,12.368501,-9.171689,2.861816,-0.23128867,1.5562544,2.790125,-20.90625,37.0875,-25.687502,0.08885066,-0.72755176,0.6785781,995.4731,37.88834981,127.73976995,145.84356689453125,1.18
2025-09-28 19:32:12.673,12.672389,-8.226524,1.7491534,0.37896523,1.2422699,2.5928156,-15.1125,40.29375,-26.475,0.05579269,-0.7279019,0.6821763,995.488, , , , 
2025-09-28 19:32:12.693,14.435899,-7.556534,-0.32542387,0.74976015,0.9710459,2.4407103,-14.793751,39.600002,-28.1625,0.038332526,-0.72550356,0.68621063,995.488, , , , 
2025-09-28 19:32:12.713,16.134804,-6.6185474,-2.806781,0.89942205,0.5434406,2.0686936,-10.70625,39.506252,-27.806252,0.019227454,-0.7203946,0.6927028,995.4965, , , , 
2025-09-28 19:32:12.733,16.59901,-6.936793,-5.2929235,0.655687,-0.6343067,1.1945461,-8.64375,40.85625,-29.493752,0.007951354,-0.71438265,0.69946295,995.4965, , , , 
2025-09-28 19:32:12.753,15.859629,-7.984849,-5.1900325,0.25679228,-1.3447424,0.697913,-9.150001,39.825,-30.31875,0.009742299,-0.7125402,0.70147824,995.47406, , , , 
2025-09-28 19:32:12.773,17.017756,-9.930214,-1.7419748,-0.19341506,-1.4565307,0.21166465,-7.4625,40.125,-30.656252,-0.021159757,0.7130831,-0.7007554,995.47406, , , , 
2025-09-28 19:32:12.794,17.8026,-10.157532,0.33499518,-0.11155918,-0.8847613,-0.2764163,-8.75625,38.850002,-29.362501,-0.032567635,0.71432066,-0.6990044,995.4753, , , , 
2025-09-28 19:32:12.813,17.718851,-8.865408,0.05742774,-0.045585785,-0.28489205,-0.8182534,-10.06875,38.9625,-28.63125,-0.043304265,0.71433413,-0.6984276,995.4753, , , , 
2025-09-28 19:32:12.833,16.520048,-8.688339,0.32542387,-0.05780308,0.15737404,-1.8689408,-11.212501,40.818752,-25.987501,0.05834783,-0.71369857,0.697981,995.50116, , , , 
2025-09-28 19:32:12.853,14.388042,-10.157532,-0.047856454,0.04848739,0.054748755,-2.5476115,-12.900001,38.68125,-29.7,0.07055945,-0.7125148,0.6977891,995.50116, , , , 
2025-09-28 19:32:12.873,12.394821,-11.799008,-0.863809,0.045433067,-0.28061602,-3.024697,-15.58125,39.375,-26.831251,0.09189288,-0.7097513,0.6972303,995.52045, , , , 
2025-09-28 19:32:12.893,10.205389,-13.763515,-0.19381863,-0.14882194,-0.7418189,-3.3032513,-15.806251,38.23125,-27.056252,0.12514263,-0.7060694,0.69391674,995.52045, , , , 
2025-09-28 19:32:12.913,10.849058,-14.502898,1.5720844,-0.1805869,-1.0729077,-3.3551748,-21.975,37.48125,-26.212502,0.15440463,-0.7031123,0.68914723,995.5268, , , , 
2025-09-28 19:32:12.933,12.696317,-14.785251,2.5268207,-0.0712421,-1.0692425,-3.6447246,-24.300001,34.631252,-27.50625,0.19350931,-0.697459,0.6821894,995.5268, , , , 
2025-09-28 19:32:12.953,12.538391,-14.780465,2.1750758,-0.026648976,-0.78152514,-3.9935286,-25.893751,34.706253,-27.0375,0.21774581,-0.692231,0.6778452,995.5451, , , , 
2025-09-28 19:32:12.973,11.73201,-14.890535,1.7682959,-0.0712421,-0.47426015,-4.338056,-30.187502,33.2625,-24.487501,0.24974447,-0.6833366,0.67139834,995.5451, , , , 
2025-09-28 19:32:12.993,10.741381,-14.926428,1.7802601,-0.14149155,-0.28061602,-4.6886926,-29.38125,32.737503,-26.868752,0.28916118,-0.66964513,0.6614274,995.5561, , , , 
2025-09-28 19:32:13.013,9.688539,-15.156138,2.2875385,-0.099341884,-0.14256057,-4.904328,-30.843752,30.825,-23.04375,0.31274542,-0.6599371,0.6543021,995.5561, , , , 
2025-09-28 19:32:13.033,8.233703,-14.947963,2.0554347,0.07170025,-0.107741274,-5.003288,-38.23125,20.25,-24.45,0.3511903,-0.6404693,0.6417425,995.56366, , , , 
2025-09-28 19:32:13.054,7.2263246,-14.55554,1.5433706,0.17799072,-0.21097742,-5.0185595,-38.775,19.6875,-24.50625,0.3817767,-0.622517,0.6308202,995.56366, , , , 
2025-09-28 19:32:13.073,5.682954,-13.971691,0.87338024,0.18776456,-0.18104506,-4.898219,-42.300003,12.468751,-23.268751,0.41171575,-0.60324836,0.61884475,995.5612, , , , 
2025-09-28 19:32:13.093,4.278367,-13.339986,0.5096712,0.14500403,-0.17554727,-4.652041,-42.84375,10.556251,-23.41875,0.4394687,-0.58357346,0.60609764,995.5612, , , , 
2025-09-28 19:32:13.113,3.141776,-12.363714,0.43070808,0.1333976,-0.3154353,-4.330115,-44.025,6.20625,-23.04375,0.4649054,-0.5645426,0.59269446,995.5534, , , , 
2025-09-28 19:32:13.133,2.3569303,-10.894522,0.6628119,0.10224349,-0.60803956,-3.9171703,-44.30625,-0.93750006,-21.975,0.49458775,-0.5429517,0.57472974,995.5534, , , , 
2025-09-28 19:32:13.153,0.7513463,-10.140782,0.09571291,0.021609342,-0.5432879,-3.5720317,-44.5875,-1.0500001,-24.73125,0.5111413,-0.5310824,0.5635974,995.5378, , , , 
2025-09-28 19:32:13.173,-0.5886344,-10.004392,0.083748795,-0.18425208,-0.1834885,-2.9269586,-46.59375,-6.39375,-21.28125,0.5332419,-0.51389164,0.5464422,995.5378, , , , 
2025-09-28 19:32:13.193,-1.3184453,-9.499506,0.33260235,-0.19830199,0.060857404,-2.278831,-44.4,-8.025001,-23.41875,0.54451257,-0.5025103,0.53617066,995.52484, , , , 
2025-09-28 19:32:13.213,-1.1222339,-9.142975,0.32063824,-0.053527027,-0.101632625,-1.7669264,-44.325,-9.88125,-23.475,0.5506628,-0.49560553,0.53038836,995.52484, , , , 
2025-09-28 19:32:13.233,-1.0408778,-8.898908,-0.22731815,0.18226677,-0.44310603,-1.1560616,-44.625,-11.2875,-22.29375,0.5624687,-0.48650113,0.52084523,995.4987, , , , 
2025-09-28 19:32:13.253,-1.8664017,-9.025727,-0.94277215,0.17982332,-0.2946659,-0.7345649,-41.4375,-9.95625,-22.5375,0.56745183,-0.48376694,0.51751584,995.4987, , , , 
2025-09-28 19:32:13.273,-2.3545375,-9.296116,-1.1318051,0.14439316,-0.12728895,-0.30573782,-42.1875,-12.168751,-21.5625,0.570502,-0.48225757,0.51585203,995.4787, , , , 
2025-09-28 19:32:13.293,-2.009971,-10.593026,-1.6127625,0.11323906,-0.030161448,0.571464,-44.04375,-12.6,-21.0375,0.5701259,-0.4841545,0.5179459,995.4787, , , , 
2025-09-28 19:32:13.313,-1.8281165,-11.557333,-2.2707887,0.027107125,-0.07841977,1.0943643,-44.456253,-11.137501,-22.462502,0.5670657,-0.48843032,0.5211676,995.4677, , , , 
2025-09-28 19:32:13.333,-0.3397808,-11.353944,-1.1174482,-0.2587776,-0.044822205,2.1584907,-45.037502,-10.96875,-19.95,0.55674183,-0.50218403,0.52868444,995.4677, , , , 
2025-09-28 19:32:13.354,1.402194,-11.351551,0.124426775,-0.23678645,0.06940951,2.6807802,-43.800003,-9.95625,-21.206251,0.5429378,-0.51754224,0.5374943,995.44745, , , , 
2025-09-28 19:32:13.373,3.4360933,-11.799008,0.7465607,0.006948587,0.085292,3.1548111,-46.425003,-6.24375,-21.150002,0.5257962,-0.53416157,0.5490652,995.44745, , , , 
2025-09-28 19:32:13.393,4.634897,-12.538391,0.18903299,0.22380558,0.0040469794,3.4229808,-47.49375,-3.3937502,-18.88125,0.50719595,-0.55078495,0.56250185,995.4499, , , , 
2025-09-28 19:32:13.413,5.2977095,-13.112668,-0.05742774,0.2616792,-0.17676899,3.6306748,-44.006252,0.6,-21.7875,0.48790604,-0.5675227,0.5762752,995.4499, , , , 
2025-09-28 19:32:13.433,6.3744793,-13.983656,0.6723832,0.41011935,-0.13828452,3.8890705,-45.018753,5.1937504,-18.862501,0.46259758,-0.58881,0.5928219,995.44867, , , , 
2025-09-28 19:32:13.453,6.975078,-14.124832,0.031106694,0.4889209,0.3125337,4.0613346,-45.862503,5.2312503,-20.00625,0.44528162,-0.6003881,0.6038651,995.44867, , , , 
2025-09-28 19:32:13.473,7.5661054,-13.981263,-1.026521,0.45287988,0.69860023,4.2103853,-43.18125,9.75,-21.6375,0.41829824,-0.614201,0.6200081,995.4406, , , , 
2025-09-28 19:32:13.494,8.116454,-13.016955,-1.9525433,0.21036656,0.7725149,4.3197303,-45.9375,12.20625,-19.931252,0.3801538,-0.6306302,0.63916373,995.4406, , , , 
2025-09-28 19:32:13.513,8.489735,-12.679567,-1.7778672,-0.021762058,0.6161335,4.3307257,-42.375,15.937501,-21.300001,0.35661873,-0.6408194,0.6484514,995.4401, , , , 
2025-09-28 19:32:13.533,9.652647,-12.339787,-0.15074782,-0.24778202,0.44570222,4.2739153,-36.15,24.806252,-23.53125,0.31017983,-0.66181314,0.6614697,995.4401, , , , 
2025-09-28 19:32:13.553,9.937392,-12.306287,0.44027936,-0.2984838,0.6069705,4.203055,-36.05625,25.087502,-25.725,0.28697848,-0.6715847,0.66627234,995.43085, , , , 
2025-09-28 19:32:13.573,10.222138,-12.138789,0.17706887,-0.4182133,0.8861357,4.161516,-33.54375,26.7,-25.612501,0.25473416,-0.6834304,0.6717773,995.43085, , , , 
2025-09-28 19:32:13.594,11.365908,-11.274981,0.7848458,-0.7095958,1.1952333,4.0020804,-31.5375,30.13125,-24.7875,0.21177189,-0.69754636,0.67607194,995.43744, , , , 
2025-09-28 19:32:13.613,11.9019,-10.526027,1.6007984,-0.74808025,1.2190571,3.7760606,-29.531252,32.831253,-24.525002,0.1860146,-0.70544046,0.67713547,995.43744, , , , 
2025-09-28 19:32:13.633,11.988042,-10.226924,2.8689942,-0.58192503,1.0877211,3.454135,-24.862501,34.818752,-26.062502,0.14561334,-0.7163935,0.67766005,995.4462, , , , 
2025-09-28 19:32:13.653,12.528819,-9.760324,3.3355947,-0.25572327,0.7914517,3.2843144,-23.4375,35.325,-25.931252,0.116575755,-0.7221575,0.67857116,995.4462,37.88834684,127.7397579,146.1358642578125,1.32
2025-09-28 19:32:13.673,13.418949,-8.683554,2.7565317,0.08697187,0.5635991,3.0405796,-20.625,38.362503,-26.550001,0.097565405,-0.7242435,0.68029916,995.46136, , , , 
2025-09-28 19:32:13.693,15.170496,-7.2957163,0.8805587,0.3850739,0.6759982,2.4987423,-17.1,38.475002,-26.00625,0.07031754,-0.7240895,0.68493545,995.46136, , , , 
2025-09-28 19:32:13.713,15.4624195,-6.9894347,-0.70348984,0.37530005,0.7755692,1.8628322,-15.543751,38.025,-27.843752,0.047811154,-0.72171575,0.6898428,995.4821, , , , 
2025-09-28 19:32:13.733,14.91207,-6.9678993,-1.2514462,0.3832413,0.6900481,1.2983931,-12.168751,39.487503,-28.593752,0.03410377,-0.71964955,0.6929431,995.4821, , , , 
2025-09-28 19:32:13.753,14.505291,-7.2215385,-2.0267208,0.43944085,0.58803374,0.97341305,-12.50625,39.956253,-28.575,0.026393374,-0.7178471,0.6951763,995.47577, , , , 
2025-09-28 19:32:13.773,13.739588,-8.078169,-4.2281175,0.39240426,0.496404,0.6013964,-12.4125,39.825,-26.56875,0.018010486,-0.7146304,0.6987172,995.47577, , , , 
2025-09-28 19:32:13.793,13.574483,-8.831908,-5.611169,-0.060857404,0.45730865,0.318566,-10.481251,37.66875,-28.35,0.0135076875,-0.7136035,0.6997614,995.46844, , , , 
2025-09-28 19:32:13.813,14.414364,-9.597611,-3.0723844,-0.405996,-0.11140647,0.04856375,-10.35,39.80625,-28.650002,0.012330835,-0.7158067,0.69740003,995.46844, , , , 
2025-09-28 19:32:13.833,16.500904,-9.178867,0.67477596,-0.19830199,-1.1468222,-0.45906487,-9.46875,38.287502,-29.56875,0.019074332,-0.71872413,0.69425315,995.4655, , , , 
2025-09-28 19:32:13.853,16.701902,-8.834301,1.1700903,0.1523344,-1.5347214,-1.2513565,-10.556251,39.412502,-29.831251,0.035517026,-0.7191458,0.69324344,995.4655, , , , 
2025-09-28 19:32:13.873,14.943177,-9.810573,0.26081768,0.2738965,-1.3074797,-1.91781,-13.368751,38.737503,-26.56875,0.058570907,-0.7170849,0.6936959,995.5063, , , , 
2025-09-28 19:32:13.893,11.5621195,-11.712867,-1.1318051,0.06131555,-0.5628355,-2.4620905,-13.275001,39.131252,-28.143751,0.08839336,-0.71352506,0.6934698,995.5063, , , , 
2025-09-28 19:32:13.913,10.425529,-12.468999,-0.27756742,-0.07857248,-0.43638653,-2.6074762,-16.3125,38.568752,-28.556252,0.10490776,-0.7118659,0.6920182,995.52924, , , , 
2025-09-28 19:32:13.933,10.451849,-12.827922,0.7537391,-0.056581352,-0.872544,-2.762025,-21.112501,35.943752,-26.362501,0.13376088,-0.7087784,0.68835616,995.52924, , , , 
2025-09-28 19:32:13.953,11.073983,-13.000205,1.2179468,-0.06940951,-1.1498766,-2.9361215,-20.8125,36.73125,-26.906252,0.16044112,-0.705476,0.6844402,995.55, , , , 
2025-09-28 19:32:13.973,12.045469,-12.794423,1.8544376,-0.12316561,-1.1602613,-3.2519386,-24.712502,36.206253,-26.775002,0.18984309,-0.7013932,0.67921054,995.55, , , , 
2025-09-28 19:32:13.993,11.755938,-12.789637,1.835295,-0.23739733,-0.7302125,-3.688096,-28.35,34.95,-25.85625,0.22021982,-0.6960184,0.6727813,995.5715, , , , 
2025-09-28 19:32:14.013,11.062019,-12.916456,1.9740787,-0.3400226,-0.26595524,-4.0503387,-29.268751,33.99375,-26.475,0.24945413,-0.6891655,0.6652833,995.5715, , , , 
2025-09-28 19:32:14.033,9.834501,-13.584054,2.5148566,-0.3314705,-0.061926417,-4.3973103,-28.3875,31.837502,-26.1375,0.28470376,-0.67798156,0.6544567,995.58466, , , , 
2025-09-28 19:32:14.053,9.332008,-13.974084,2.225325,-0.17631085,-0.21097742,-4.555524,-34.2,27.35625,-21.73125,0.31345275,-0.6664539,0.6449594,995.58466, , , , 
2025-09-28 19:32:14.073,9.410972,-14.115261,1.4261223,-0.108504854,-0.26534438,-4.689914,-39.018753,23.643751,-23.625,0.33590686,-0.65647054,0.63713944,995.59, , , , 
2025-09-28 19:32:14.094,8.965906,-14.354543,0.8422736,-0.21662793,-0.02527453,-4.848739,-38.775,20.6625,-21.7875,0.37283874,-0.63770574,0.6223932,995.59, , , , 
2025-09-28 19:32:14.113,8.427522,-14.378471,1.1222339,-0.23006694,0.093233235,-4.892111,-39.45,17.25,-23.0625,0.40058365,-0.6210843,0.60913116,995.5776, , , , 
2025-09-28 19:32:14.133,7.501499,-14.177474,0.8709874,-0.12744166,0.11950042,-4.835911,-43.66875,10.950001,-21.956251,0.4331228,-0.59799,0.5917763,995.5776, , , , 
2025-09-28 19:32:14.153,7.496713,-13.782659,0.44027936,-0.07551816,-0.0655916,-4.699688,-43.3875,8.85,-20.175001,0.45813054,-0.578645,0.5771275,995.5678, , , , 
2025-09-28 19:32:14.173,6.6975107,-13.081561,0.55513483,0.04176788,-0.43821913,-4.6312714,-43.66875,4.36875,-22.35,0.48371974,-0.55944234,0.56074715,995.5678, , , , 
2025-09-28 19:32:14.194,4.486542,-12.30868,-0.3493521,0.003894263,-0.16699515,-4.416247,-45.412502,-0.54375005,-21.431252,0.5086246,-0.5398071,0.5436925,995.54364, , , , 
2025-09-28 19:32:14.213,2.3282163,-11.650654,-0.8039884,-0.09812015,0.3436878,-4.059502,-44.98125,-5.1000004,-23.38125,0.5283895,-0.5196642,0.5286435,995.54364, , , , 
2025-09-28 19:32:14.233,-0.72741807,-10.296316,-0.7968099,-0.08651373,0.3491856,-3.2708755,-43.85625,-8.212501,-22.3875,0.5460116,-0.4958605,0.5134651,995.5329, , , , 
2025-09-28 19:32:14.253,-2.0841484,-9.437292,-0.9738788,-0.0040469794,-0.07170025,-2.649626,-42.675003,-8.85,-22.63125,0.5552158,-0.48425534,0.5050375,995.5329, , , , 
2025-09-28 19:32:14.273,-2.778067,-8.56152,-1.3016955,0.0020616686,-0.3117701,-1.9892812,-44.268753,-13.743751,-21.5625,0.5664328,-0.4732223,0.4944466,995.5234, , , , 
2025-09-28 19:32:14.293,-2.5627131,-8.221739,-0.9954142,-0.05291616,-0.17127122,-0.98318684,-42.768753,-14.325001,-21.993752,0.5757579,-0.4657814,0.48492435,995.5234, , , , 
2025-09-28 19:32:14.313,-1.7611175,-8.288737,-0.68195444,-0.0028252497,-0.09063706,-0.332005,-43.987503,-15.31875,-22.425001,0.5780947,-0.46415606,0.48236266,995.51996, , , , 
2025-09-28 19:32:14.333,-0.8255238,-9.128618,-1.8376877,0.0112246405,0.0297033,0.43035424,-41.568752,-14.325001,-23.362501,0.57794785,-0.46554494,0.48291188,995.51996, , , , 
2025-09-28 19:32:14.353,-1.9094725,-9.083155,-2.885744,-0.19341506,0.2361756,0.9911281,-44.287502,-14.493751,-20.75625,0.5737721,-0.47019124,0.4869275,995.51166, , , , 
2025-09-28 19:32:14.373,-2.2301106,-8.410771,-1.9477576,-0.5690969,0.4701368,1.8915428,-43.818752,-13.06875,-22.725,0.5639308,-0.47923374,0.49379525,995.51166, , , , 
2025-09-28 19:32:14.393,-0.76331043,-8.037491,-0.15553348,-0.7248674,0.7267,2.5799873,-42.73125,-12.937501,-24.393751,0.54779845,-0.4925628,0.5038821,995.48676, , , , 
2025-09-28 19:32:14.413,0.95712906,-8.484949,1.2921243,-0.54099715,0.7462477,2.9990406,-44.79375,-10.575001,-20.925001,0.5268892,-0.5078857,0.5174386,995.48676, , , , 
2025-09-28 19:32:14.433,3.4576287,-9.803394,0.0526421,-0.16898046,0.37056586,3.2488844,-43.331253,-8.868751,-26.8875,0.50533605,-0.52367806,0.5331765,995.48553, , , , 
2025-09-28 19:32:14.453,4.84068,-11.456835,-1.5768701,8.3993905E-4,-0.48647743,3.4064875,-41.643753,-5.5875,-27.243752,0.48652002,-0.5409036,0.5475661,995.48553, , , , 
2025-09-28 19:32:14.473,5.6733823,-12.701102,-1.7587247,0.07353285,-0.8896482,3.6428921,-42.5625,-1.85625,-23.5125,0.47039777,-0.56081015,0.5591391,995.4714, , , , 
2025-09-28 19:32:14.493,6.769295,-13.60559,-2.4598217,0.005726857,-0.5139664,4.022239,-43.6875,1.3687501,-22.03125,0.4479341,-0.5866714,0.5736101,995.4714, , , , 
2025-09-28 19:32:14.513,7.135397,-13.514663,-2.0027926,-0.12805253,-0.16088651,4.268418,-44.268753,3.5625002,-22.087502,0.4307329,-0.6018014,0.5830752,995.4572, , , , 
2025-09-28 19:32:14.533,9.578469,-13.351951,-0.80877405,-0.27710354,0.10545053,4.591565,-44.100002,9.543751,-21.675001,0.38873693,-0.63135964,0.6022861,995.4572, , , , 
2025-09-28 19:32:14.553,11.894721,-12.404392,0.076570325,-0.26305366,0.31986406,4.4681706,-42.05625,15.1125,-23.90625,0.36549196,-0.6448126,0.6114876,995.4406, , , , 
2025-09-28 19:32:14.573,10.497313,-11.899507,-0.2656033,-0.20502149,0.51961684,4.05828,-39.80625,20.550001,-22.143751,0.3349034,-0.6596037,0.6229093,995.4406, , , , 
2025-09-28 19:32:14.593,8.958728,-12.193824,-0.48095736,-0.28199047,0.57337296,4.12181,-35.381252,24.487501,-21.28125,0.2969617,-0.6751685,0.6353855,995.4377, , , , 
2025-09-28 19:32:14.613,10.238888,-11.990435,-0.28235307,-0.42432195,0.54893833,4.2818565,-34.256252,27.50625,-25.893751,0.27295512,-0.6844073,0.6418107,995.4377, , , , 
2025-09-28 19:32:14.633,12.567104,-10.99502,1.0743774,-0.53733194,0.6735548,4.0185738,-32.15625,29.718752,-27.7875,0.23233743,-0.6992699,0.6499181,995.4362, , , , 
2025-09-28 19:32:14.653,11.956935,-10.561919,1.4979069,-0.5318341,0.9240093,3.6716027,-30.093752,31.29375,-27.31875,0.20075312,-0.70881057,0.6547663,995.4362,37.8883423,127.73974507,146.29150390625,1.27
2025-09-28 19:32:14.673,10.334601,-10.499705,1.6103697,-0.47929978,0.96005034,3.4797912,-29.268751,33.99375,-26.475,0.17762257,-0.7145241,0.65786564,995.4438, , , , 
2025-09-28 19:32:14.693,10.301102,-10.04507,1.3399807,-0.24228424,0.55321443,3.4907868,-25.968752,34.4625,-26.23125,0.14098388,-0.72208965,0.6626599,995.4438, , , , 
2025-09-28 19:32:14.713,12.428321,-9.217153,0.567099,-0.15676318,0.29542947,3.3777769,-21.88125,37.7625,-29.00625,0.11462465,-0.72653043,0.6663579,995.45306, , , , 
2025-09-28 19:32:14.733,13.155739,-8.389236,0.39960137,-0.1824195,0.22456917,2.9019132,-18.46875,38.100002,-27.69375,0.08651403,-0.7307985,0.6694377,995.45306, , , , 
2025-09-28 19:32:14.753,14.261223,-8.233703,0.62452674,-0.03825541,0.014431681,2.6306891,-17.60625,38.79375,-27.056252,0.06757648,-0.7331791,0.67108285,995.4665, , , , 
2025-09-28 19:32:14.773,16.453049,-7.554141,-0.076570325,0.21464261,-0.41500625,2.2311835,-15.450001,39.2625,-27.000002,0.056402136,-0.73381656,0.6727502,995.4665, , , , 
2025-09-28 19:32:14.793,15.8715925,-7.015756,-3.278167,0.25679228,-0.7473167,1.5189153,-14.231251,39.525,-26.98125,0.047640756,-0.7328971,0.6762239,995.4709, , , , 
2025-09-28 19:32:14.813,15.285351,-6.7405815,-3.9960139,-0.16714787,-0.15599959,1.2574651,-12.50625,39.956253,-28.275002,0.04387234,-0.7334017,0.6767552,995.4709, , , , 
2025-09-28 19:32:14.833,15.395421,-6.623333,-2.900101,-0.4890736,0.5147299,1.0155627,-12.8625,39.9,-26.062502,0.03879574,-0.7355423,0.6749323,995.4709, , , , 
2025-09-28 19:32:14.853,15.97927,-7.8867435,-0.15314065,-0.34552038,0.31192282,0.49388418,-12.281251,39.206253,-25.0125,0.029278412,-0.7398401,0.6705147,995.4633, , , , 
2025-09-28 19:32:14.873,17.237894,-8.133204,-0.15553348,0.10835214,-0.6440806,0.088269964,-10.650001,41.49375,-24.993752,0.029386995,-0.7408867,0.66932,995.46625, , , , 
2025-09-28 19:32:14.893,18.747765,-7.7551384,-2.376073,0.26290092,-1.3001493,-0.8298598,-12.243751,40.93125,-23.41875,0.04441449,-0.7390933,0.6707043,995.46625, , , , 
2025-09-28 19:32:14.913,17.422142,-8.554341,-3.0723844,-0.08651373,-0.7735839,-1.6209297,-10.425,39.525,-26.75625,0.058320124,-0.7383046,0.67039895,995.4816, , , , 
2025-09-28 19:32:14.933,13.859229,-10.5284195,-1.3854443,-0.4927388,-0.052763447,-2.2947135,-13.312501,41.34375,-25.331251,0.081989385,-0.7391767,0.6657537,995.4816, , , , 
2025-09-28 19:32:14.953,11.531013,-11.741581,0.8327023,-0.4426479,-0.15599959,-2.5647159,-17.118752,39.9375,-23.925001,0.10093683,-0.73993313,0.6604449,995.48456, , , , 
2025-09-28 19:32:14.973,11.054841,-12.124433,1.9764715,-0.0064904382,-0.65324354,-2.8206682,-20.7,40.443752,-23.56875,0.12905706,-0.73776835,0.6552892,995.48456, , , , 
2025-09-28 19:32:14.993,11.184053,-12.504891,1.7443677,0.22991423,-0.8401681,-3.0143123,-21.825,38.5875,-22.575,0.14869805,-0.73438,0.65324545,995.507, , , , 
2025-09-28 19:32:15.013,11.97847,-12.854243,1.2346965,0.35758498,-0.9721149,-3.282482,-26.04375,37.162502,-22.987501,0.17721325,-0.7279569,0.6508488,995.507, , , , 
2025-09-28 19:32:15.033,12.136396,-13.244273,0.80159557,0.3661371,-1.0038799,-3.6740463,-24.900002,36.28125,-23.98125,0.21640195,-0.7175825,0.64674085,995.52997, , , , 
2025-09-28 19:32:15.053,11.552547,-13.545769,0.33020952,0.26229006,-0.69600403,-4.004524,-30.150002,34.987503,-23.19375,0.24913608,-0.7075981,0.64186406,995.52997, , , , 
2025-09-28 19:32:15.073,10.662417,-13.780266,-0.021535404,0.05093085,-0.24824017,-4.272083,-29.925001,32.41875,-24.150002,0.2728423,-0.6992503,0.63714015,995.54315, , , , 
2025-09-28 19:32:15.093,9.856036,-14.321044,0.6556334,-0.07612903,0.09078978,-4.4748898,-34.331253,28.95,-20.71875,0.30947295,-0.683869,0.62726283,995.54315, , , , 
2025-09-28 19:32:15.113,9.932607,-14.42872,0.7178468,-0.040698867,0.13293944,-4.606226,-37.912502,24.337502,-20.081251,0.33756763,-0.6697093,0.6182164,995.5395, , , , 
2025-09-28 19:32:15.133,9.152547,-14.591433,0.15553348,-0.028481571,0.21723878,-4.777268,-39.018753,23.00625,-22.35,0.36551437,-0.65355736,0.608148,995.5395, , , , 
2025-09-28 19:32:15.153,7.618747,-14.694324,0.09571291,-0.067576915,0.31192282,-4.7748246,-40.3875,17.98125,-19.3125,0.3926762,-0.63588405,0.59682024,995.549, , , , 
2025-09-28 19:32:15.173,6.096912,-13.780266,0.7178468,0.047265664,0.360792,-4.5310893,-41.568752,12.543751,-23.04375,0.42373902,-0.6124691,0.5819729,995.549, , , , 
2025-09-28 19:32:15.197,5.3216376,-12.409178,0.25124636,0.21342088,0.24594943,-4.3185086,-41.943752,8.64375,-21.225,0.45239317,-0.58773935,0.56766206,995.54803, , , , 
2025-09-28 19:32:15.213,4.759324,-11.777473,-0.29671,0.23846634,0.19036074,-4.1951137,-45.05625,5.34375,-23.34375,0.46355546,-0.5776661,0.5618694,995.54803, , , , 
2025-09-28 19:32:15.233,3.022135,-10.963913,-0.7298109,0.16943862,0.1579849,-3.9342747,-41.006252,-0.91875005,-27.112501,0.48994258,-0.5528496,0.5467537,995.54144, , , , 
2025-09-28 19:32:15.253,1.4644074,-10.437492,-0.634098,0.116904244,0.0022143847,-3.584249,-43.443752,-0.5625,-25.181252,0.508861,-0.53424674,0.5342628,995.54144, , , , 
2025-09-28 19:32:15.273,0.4426722,-10.112068,-0.44745782,0.124234624,-0.14072797,-3.2433865,-45.1875,-6.0,-21.45,0.5260231,-0.5178672,0.5216921,995.53314, , , , 
2025-09-28 19:32:15.293,-0.62931234,-9.710074,-0.6843473,0.15294527,-0.18654284,-2.5506659,-42.037502,-6.6375003,-25.44375,0.5409851,-0.5040045,0.510237,995.53314, , , , 
2025-09-28 19:32:15.313,-1.7706888,-9.176475,-1.7443677,0.030772313,0.0956767,-1.8774929,-42.525,-8.94375,-23.56875,0.55243385,-0.4927164,0.50124335,995.52167, , , , 
2025-09-28 19:32:15.333,-1.9262222,-8.650054,-2.1272194,-0.23984079,0.5086213,-1.0173953,-42.225002,-11.887501,-24.35625,0.5589226,-0.4829163,0.49503222,995.52167, , , , 
2025-09-28 19:32:15.353,-1.8687944,-9.253045,-1.9884356,-0.34735298,0.55260354,-0.51343185,-40.7625,-12.6,-25.087502,0.5582649,-0.4787062,0.49374586,995.51215, , , , 
2025-09-28 19:32:15.373,-2.5339992,-10.492527,-2.0386848,-0.3559051,0.22579089,0.18539746,-42.131252,-14.250001,-23.775002,0.5549487,-0.4784381,0.49427623,995.51215, , , , 
2025-09-28 19:32:15.393,-3.1082766,-10.207782,-2.1631117,-0.4096612,-0.03932442,1.0650427,-41.568752,-12.31875,-25.63125,0.549758,-0.48359808,0.4963106,995.50287, , , , 
2025-09-28 19:32:15.414,-1.68694,-9.236296,-1.2418749,-0.50801045,-0.061926417,1.8280128,-41.34375,-11.175,-25.25625,0.5407829,-0.4946719,0.5009106,995.50287, , , , 
2025-09-28 19:32:15.433,0.9810573,-8.499306,0.55752766,-0.46952593,0.12988512,2.5512767,-40.85625,-7.3875003,-26.306252,0.52318615,-0.51327944,0.51129067,995.49506, , , , 
2025-09-28 19:32:15.453,2.6608188,-8.650054,0.9906286,-0.20685409,0.06940951,2.808451,-44.15625,-7.6125,-23.94375,0.5105792,-0.52498335,0.5197418,995.49506, , , , 
2025-09-28 19:32:15.473,3.534199,-9.7196455,-0.83748794,0.19876012,-0.4021781,2.9996514,-43.631252,-4.4437504,-25.406252,0.49074304,-0.5440596,0.5353894,995.5007, , , , 
2025-09-28 19:32:15.493,3.6849468,-10.861022,-2.2205393,0.3191005,-0.8444442,3.29531,-43.55625,-2.4562502,-24.13125,0.47707218,-0.5605829,0.5472921,995.5007, , , , 
2025-09-28 19:32:15.513,5.2259245,-11.830115,-3.0532417,0.25190535,-0.9690606,3.6538877,-44.925003,-0.375,-22.25625,0.4631197,-0.579554,0.5582939,995.49554, , , , 
2025-09-28 19:32:15.533,5.9437714,-12.669996,-3.5581272,-0.08773545,-0.40645415,3.9574876,-44.04375,3.9562502,-22.29375,0.44540483,-0.59939224,0.5692578,995.49554, , , , 
2025-09-28 19:32:15.553,7.068398,-13.079168,-2.5435705,-0.5147299,0.048029244,4.2879653,-42.506252,7.2187505,-22.800001,0.42106208,-0.6197096,0.58038574,995.4819, , , , 
2025-09-28 19:32:15.573,8.729017,-12.772887,-0.48095736,-0.7102067,0.26305366,4.43946,-44.1375,12.262501,-20.90625,0.3909533,-0.64059037,0.590784,995.4819, , , , 
2025-09-28 19:32:15.594,10.052248,-12.490534,1.1413764,-0.53733194,0.28015786,4.3233953,-42.600002,16.1625,-22.368752,0.3505653,-0.6641375,0.6030074,995.4755, , , , 
2025-09-28 19:32:15.613,9.707682,-12.859029,1.2035898,-0.2636645,-0.053985175,4.2476482,-40.74375,18.956251,-21.018751,0.32755494,-0.676087,0.61001295,995.4755, , , , 
2025-09-28 19:32:15.633,9.844072,-13.16531,0.5312066,0.08575014,-0.47548187,4.2696395,-36.3375,26.1375,-22.35,0.2931446,-0.6931847,0.62111974,995.4936, , , , 
2025-09-28 19:32:15.653,10.34178,-13.043276,-0.6197411,0.28977898,-0.42905614,4.3007936,-34.40625,26.1,-24.562502,0.26723474,-0.7042146,0.6300559,995.4936,37.88833635,127.73973091,146.454345703125,1.4
2025-09-28 19:32:15.673,11.052447,-12.710674,-1.9525433,0.27939427,-0.20547964,4.280635,-32.7,29.5125,-23.85,0.24727337,-0.7110904,0.63664246,995.4943, , , , 
2025-09-28 19:32:15.693,11.688938,-11.861222,-2.1966112,0.020998476,0.09262237,4.118145,-33.35625,30.675001,-22.931252,0.21242423,-0.7212844,0.64556634,995.4943, , , , 
2025-09-28 19:32:15.713,12.208181,-10.8969145,-1.3136597,-0.09628756,0.2777144,3.9086182,-30.300001,33.487503,-23.25,0.1839522,-0.72878546,0.65024126,995.4843, , , , 
2025-09-28 19:32:15.733,12.222538,-9.580862,-0.5455636,-0.124998204,0.5648208,3.4962845,-26.1,37.125,-20.8125,0.14924781,-0.7362315,0.6543376,995.4843, , , , 
2025-09-28 19:32:15.753,11.916257,-8.441878,-0.32542387,-0.10911572,0.9124029,3.1688612,-25.312502,36.487503,-22.875,0.12207658,-0.74042225,0.6569626,995.4743, , , , 
2025-09-28 19:32:15.773,11.830115,-8.370093,-0.7513463,-0.06330086,1.0058652,2.9422302,-21.88125,37.575,-22.368752,0.102043815,-0.7425684,0.6587894,995.4743, , , , 
2025-09-28 19:32:15.793,13.141382,-8.499306,-1.2514462,0.016111558,0.57215124,2.5793765,-18.50625,39.787502,-21.91875,0.07220804,-0.74483955,0.66123414,995.4814, , , , 
2025-09-28 19:32:15.813,14.206188,-9.085547,-1.698904,0.15966478,0.20257804,2.2091925,-16.25625,38.41875,-24.075,0.054316953,-0.745457,0.662991,995.4814, , , , 
2025-09-28 19:32:15.833,14.608182,-9.265009,-2.9359934,0.13217586,0.05413789,1.8188499,-15.7875,40.068752,-23.306252,0.038149573,-0.7451322,0.6651519,995.47675, , , , 
2025-09-28 19:32:15.853,15.125031,-8.482556,-2.8019953,-0.06269,0.19891284,1.5402956,-12.937501,40.36875,-24.393751,0.030158486,-0.7453747,0.6655287,995.47675, , , , 
2025-09-28 19:32:15.873,15.80938,-7.8077803,-1.3782659,-0.270384,0.45730865,1.0063998,-10.875,39.825,-22.25625,0.018552803,-0.74714446,0.6641125,995.4711, , , , 
2025-09-28 19:32:15.893,15.97927,-8.894122,0.3278167,-0.1060614,0.13660464,0.35766134,-9.356251,42.0,-25.48125,0.013012953,-0.74869406,0.6624624,995.4711, , , , 
2025-09-28 19:32:15.913,15.826129,-9.030513,0.47377887,0.22136213,-0.4834231,-0.01802051,-11.19375,41.79375,-23.71875,0.013596723,-0.7486267,0.66249746,995.4816, , , , 
2025-09-28 19:32:15.933,15.988841,-7.800602,-1.0624132,0.44493863,-0.9574542,-0.49999282,-8.94375,41.90625,-25.2,0.021992037,-0.74636364,0.6648526,995.4816, , , , 
2025-09-28 19:32:15.953,14.799608,-7.1545396,-1.942972,0.07903063,-0.48281226,-1.3093886,-9.262501,43.36875,-24.16875,0.039689098,-0.7436812,0.6669337,995.5007, , , , 
2025-09-28 19:32:15.973,13.550554,-8.090134,-0.40917268,-0.12744166,0.055970486,-1.8090761,-11.83125,41.475002,-24.093752,0.05082777,-0.7433078,0.66627634,995.5007, , , , 
2025-09-28 19:32:15.993,11.842079,-10.195817,1.0313065,0.0051159924,0.16653702,-2.3441937,-11.981251,42.206253,-23.5125,0.06986169,-0.7421647,0.6645325,995.5048, , , , 
2025-09-28 19:32:16.013,11.274981,-11.437693,1.5625132,0.24396412,-0.3105484,-2.622137,-13.51875,40.2,-26.325,0.08886391,-0.739151,0.66402006,995.5048, , , , 
2025-09-28 19:32:16.033,11.064412,-13.03849,1.442872,0.57199854,-1.0435861,-3.006371,-17.325,40.2,-26.38125,0.12092374,-0.73214257,0.66459507,995.52606, , , , 
2025-09-28 19:32:16.054,10.576276,-13.823337,0.5814559,0.6483566,-1.2256238,-3.228726,-19.03125,38.287502,-26.868752,0.15179779,-0.7244214,0.66500634,995.52606, , , , 
2025-09-28 19:32:16.073,10.470992,-13.940585,-0.10289137,0.54023355,-1.0619121,-3.3337946,-24.937502,37.518753,-24.206251,0.17556785,-0.71807843,0.6645433,995.5368, , , , 
2025-09-28 19:32:16.093,11.830115,-13.148561,0.038285162,0.2824486,-0.60559607,-3.6056294,-27.393751,36.05625,-26.175001,0.21350649,-0.70726395,0.6615987,995.5368, , , , 
2025-09-28 19:32:16.113,11.775081,-13.057633,0.485743,0.107741274,-0.15722132,-4.0204067,-28.425001,34.6875,-25.218752,0.24261098,-0.69774157,0.6572226,995.5278, , , , 
2025-09-28 19:32:16.133,9.856036,-13.75873,1.026521,0.049098257,0.3522399,-4.4455686,-32.5125,31.893751,-23.85,0.2773721,-0.68316084,0.64998686,995.5278, , , , 
2025-09-28 19:32:16.153,8.874979,-14.400006,1.2059826,0.12362376,0.45425433,-4.5793476,-33.3375,28.575,-23.41875,0.29736984,-0.672678,0.64518225,995.528, , , , 
2025-09-28 19:32:16.173,8.037491,-14.562718,1.1485549,0.2616792,0.36140287,-4.6343255,-36.581253,23.90625,-26.062502,0.32386774,-0.65676916,0.63836896,995.528, , , , 
2025-09-28 19:32:16.193,7.0348988,-14.108083,0.4235296,0.4143954,0.25633413,-4.620276,-36.99375,20.5125,-25.81875,0.35767257,-0.63437283,0.6289208,995.53754, , , , 
2025-09-28 19:32:16.213,6.573084,-13.58884,0.11006984,0.36430448,0.42248935,-4.5640764,-37.893753,16.800001,-24.6,0.37714288,-0.6200199,0.62271094,995.53754, , , , 
2025-09-28 19:32:16.233,6.2715883,-13.031312,0.5024927,0.36186102,0.6766091,-4.5304785,-41.79375,10.668751,-23.831251,0.40637258,-0.59470916,0.61176765,995.53314, , , , 
2025-09-28 19:32:16.253,5.0129633,-12.751352,0.4235296,0.44616038,0.66500264,-4.451066,-40.5,8.83125,-26.343752,0.4277618,-0.57276946,0.60281104,995.53314, , , , 
2025-09-28 19:32:16.273,3.5940197,-12.368501,-0.24885355,0.520075,0.42737627,-4.1890054,-41.68125,5.4375,-22.931252,0.4432484,-0.5560564,0.59589666,995.5246, , , , 
2025-09-28 19:32:16.293,3.2470603,-11.581262,-0.38285163,0.5151881,-0.0674242,-3.74735,-42.6375,-0.22500001,-26.062502,0.4685983,-0.5306086,0.5830846,995.5246, , , , 
2025-09-28 19:32:16.313,2.7876384,-11.13859,-0.40917268,0.5145772,-0.35758498,-3.490176,-41.15625,-1.8000001,-27.825,0.4887036,-0.5127956,0.5715392,995.51215, , , , 
2025-09-28 19:32:16.333,1.3495519,-10.947164,-1.134198,0.44616038,-0.6807324,-2.9996514,-43.162502,-5.0062504,-26.19375,0.5132625,-0.4938618,0.5559722,995.51215, , , , 
2025-09-28 19:32:16.353,0.65084773,-10.176675,-1.698904,0.26778784,-0.75220364,-2.4767513,-42.956253,-7.5937505,-25.7625,0.5307148,-0.4823963,0.5434903,995.5007, , , , 
2025-09-28 19:32:16.373,0.16031912,-9.571291,-1.9453648,-0.06696605,-0.52068585,-1.9013166,-41.79375,-10.59375,-25.706251,0.5444561,-0.47435102,0.5318805,995.5007, , , , 
2025-09-28 19:32:16.394,-0.701097,-9.5665045,-1.3064811,-0.31314456,-0.20914483,-1.3234385,-42.0,-12.243751,-24.975,0.5529623,-0.4692165,0.5224119,995.4858, , , , 
2025-09-28 19:32:16.413,-1.8281165,-10.030712,-1.0911272,-0.4237111,-0.038713556,-0.6423243,-41.11875,-13.650001,-24.525002,0.55631334,-0.46700516,0.5161669,995.4858, , , , 
2025-09-28 19:32:16.433,-3.1561332,-9.346365,-1.3304094,-0.57520556,-0.05093085,0.33811367,-41.23125,-12.7875,-24.88125,0.55431205,-0.47006798,0.5130886,995.4738, , , , 
2025-09-28 19:32:16.454,-2.457429,-8.532805,-0.46660042,-0.73464125,-0.04176788,1.2727368,-40.59375,-12.468751,-24.656252,0.5474387,-0.47893158,0.51402915,995.4738, , , , 
2025-09-28 19:32:16.473,-1.1676974,-7.984849,1.012164,-0.72059137,0.06269,1.8823798,-41.8125,-12.712501,-24.656252,0.5388949,-0.4886166,0.5172065,995.4843, , , , 
2025-09-28 19:32:16.493,1.8687944,-8.145168,1.6390835,-0.37606362,0.3180315,2.5702136,-43.5,-10.1625,-23.7,0.51979417,-0.50664824,0.5283597,995.4843, , , , 
2025-09-28 19:32:16.513,3.2087753,-8.925228,0.7609176,-0.12316561,0.42737627,2.812727,-42.675003,-5.45625,-24.975,0.50670016,-0.5170837,0.5380163,995.4909, , , , 
2025-09-28 19:32:16.533,3.4791641,-10.028319,-1.1796615,0.005726857,0.43959355,3.1731372,-43.18125,-4.275,-24.993752,0.48349506,-0.5338882,0.55660564,995.4909, , , , 
2025-09-28 19:32:16.553,4.208975,-10.770095,-1.9214365,-0.10178535,0.40355253,3.526217,-43.2,-2.4,-26.643751,0.4627787,-0.54857916,0.57215923,995.47455, , , , 
2025-09-28 19:32:16.573,5.424529,-11.114661,-2.0291135,-0.25022548,0.35101816,3.7840018,-42.768753,-0.13125001,-25.125002,0.43952975,-0.56498903,0.58727074,995.47455, , , , 
2025-09-28 19:32:16.593,6.4199433,-11.1936245,-1.605584,-0.3919461,0.23189954,3.9043422,-43.3875,4.8,-25.500002,0.40806273,-0.5869447,0.60423386,995.4709, , , , 
2025-09-28 19:32:16.613,6.506085,-11.380264,-1.1988041,-0.47746718,0.20257804,3.9721482,-42.825,6.0937505,-26.1,0.388417,-0.600281,0.6131762,995.4709, , , , 
2025-09-28 19:32:16.633,6.661618,-11.58844,-0.37328035,-0.50190175,0.07979421,4.0784388,-40.29375,16.3125,-27.243752,0.3544846,-0.6222225,0.62638056,995.47504, , , , 
2025-09-28 19:32:16.653,6.5659056,-12.205789,-0.086141616,-0.4579195,0.041920595,4.2122183,-41.49375,15.562501,-25.5375,0.32681444,-0.6390417,0.6358209,995.47504,37.88833117,127.73971865,146.6419677734375,1.1
2025-09-28 19:32:16.673,6.680761,-13.155739,-0.18185452,-0.5159517,0.44203702,4.4687815,-38.90625,17.681252,-23.925001,0.304507,-0.65099263,0.6428378,995.4826, , , , 
2025-09-28 19:32:16.695,8.236095,-14.158332,0.9954142,-0.70043284,1.1830161,4.7900963,-33.600002,24.093752,-27.31875,0.25947618,-0.66944575,0.6548838,995.4826, , , , 
2025-09-28 19:32:16.713,9.284152,-13.990834,2.2875385,-0.6503419,1.327791,4.836522,-31.275002,28.218752,-29.343752,0.21803012,-0.68205965,0.664162,995.4936, , , , 
2025-09-28 19:32:16.733,11.01177,-12.949956,2.7708886,-0.41088292,1.0938298,4.696023,-28.63125,31.10625,-30.093752,0.17684448,-0.691802,0.6728336,995.4936, , , , 
2025-09-28 19:32:16.753,12.665211,-12.191431,2.8785655,-0.102396205,0.47991064,4.2507024,-25.612501,31.5375,-29.962502,0.13160987,-0.69988084,0.68221325,995.5107, , , , 
2025-09-28 19:32:16.773,13.304094,-11.880364,2.4095724,0.21891867,-0.20547964,3.9153378,-25.050001,33.693752,-28.44375,0.11062634,-0.70253354,0.68738437,995.5107, , , , 
2025-09-28 19:32:16.793,14.136796,-10.652846,-0.03589234,0.597044,-0.99105173,3.3527312,-20.081251,35.5875,-31.3875,0.08754256,-0.7035472,0.6961453,995.5124, , , , 
2025-09-28 19:32:16.813,14.455042,-9.925428,-2.105684,0.3661371,-0.6941715,2.8976371,-19.85625,35.25,-31.406252,0.07796358,-0.7032442,0.70051277,995.5124, , , , 
2025-09-28 19:32:16.833,13.306487,-8.7673025,-1.1174482,-0.324751,0.32902706,2.319148,-17.775002,36.43125,-28.29375,0.06093035,-0.7051548,0.70295733,995.49994, , , , 
2025-09-28 19:32:16.853,13.351951,-9.272188,1.2586247,-0.45364347,0.6289616,2.0045528,-15.525001,37.29375,-29.04375,0.044356298,-0.708683,0.701529,995.49994, , , , 
2025-09-28 19:32:16.873,14.012369,-9.332008,2.347359,-0.14210242,0.2935969,1.7479895,-14.700001,37.85625,-27.618752,0.029544406,-0.7110905,0.7004375,995.5085, , , , 
2025-09-28 19:32:16.893,15.907485,-9.030513,-0.9499506,0.15722132,0.37423104,1.30328,-11.043751,38.49375,-28.331251,0.017527526,-0.7104336,0.70209867,995.5085, , , , 
2025-09-28 19:32:16.913,16.823936,-8.709874,-3.6753755,-0.3003164,1.3100759,0.83719015,-11.94375,38.5125,-27.31875,0.010274557,-0.7102933,0.7024068,995.4926, , , , 
2025-09-28 19:32:16.933,16.278372,-9.193225,-3.1274192,-1.047404,2.1744494,0.3026835,-5.6062503,39.1875,-30.187502,-0.0027992202,-0.71405685,0.69794106,995.4926, , , , 
2025-09-28 19:32:16.953,15.127425,-7.941778,1.9908284,-1.1598032,1.8732932,-0.2073886,-5.5687504,40.18125,-29.00625,-0.019339425,-0.7227436,0.6866105,995.4985, , , , 
2025-09-28 19:32:16.973,14.97907,-6.5084777,3.7016966,-0.7144827,0.9056834,-0.6863066,-8.4375,39.862503,-27.91875,-0.023831353,-0.726602,0.6809573,995.4985, , , , 
2025-09-28 19:32:16.994,13.864015,-7.5637126,4.0414777,0.063759014,-0.58849186,-1.4199551,-6.76875,40.800003,-28.612501,-0.015976679,-0.72920185,0.6763749,995.5212, , , , 
2025-09-28 19:32:17.013,13.294522,-9.162118,2.8666015,0.5133555,-1.4394265,-1.8188499,-6.2250004,41.34375,-28.706251,0.0033970762,-0.727919,0.676961,995.5212, , , , 
2025-09-28 19:32:17.033,12.332608,-10.7844515,0.7920243,0.5994874,-2.024024,-2.2806637,-12.7875,38.568752,-29.250002,0.039100546,-0.7241481,0.67931104,995.51776, , , , 
2025-09-28 19:32:17.053,11.980863,-12.071791,-0.059820566,0.23419029,-1.6263511,-2.541503,-11.981251,38.90625,-29.6625,0.07034836,-0.7215866,0.6788509,995.51776, , , , 
2025-09-28 19:32:17.073,11.66501,-12.799209,0.9284152,-0.10117448,-1.1352159,-2.7742424,-16.7625,37.03125,-28.275002,0.09224145,-0.72054946,0.67620045,995.51434, , , , 
2025-09-28 19:32:17.094,10.738988,-12.519248,3.117848,-0.1683696,-0.76747525,-3.0912812,-18.88125,38.193752,-28.575,0.1263205,-0.71883607,0.6692414,995.51434, , , , 
2025-09-28 19:32:17.113,10.176675,-11.940185,3.723232,-0.026038112,-0.6807324,-3.3105817,-21.28125,36.54375,-26.38125,0.15343934,-0.71549755,0.6634809,995.5339, , , , 
2025-09-28 19:32:17.133,9.80818,-11.547762,3.7758741,0.18104506,-0.66301733,-3.5701993,-24.31875,35.362503,-25.687502,0.174609,-0.71130717,0.659454,995.5339, , , , 
2025-09-28 19:32:17.153,9.626326,-11.636296,3.3810585,0.45837766,-0.7631992,-3.981311,-26.400002,35.15625,-26.531252,0.21245447,-0.70078975,0.6530389,995.5539, , , , 
2025-09-28 19:32:17.173,10.332209,-12.3708935,2.6536403,0.66301733,-1.0875684,-4.465116,-30.431252,31.368752,-24.206251,0.25517455,-0.6861393,0.6456886,995.5539, , , , 
2025-09-28 19:32:17.193,10.171889,-13.342379,1.8137596,0.7057779,-1.2421172,-4.832246,-33.65625,28.5375,-22.3125,0.29370052,-0.67169803,0.63768005,995.55756, , , , 
2025-09-28 19:32:17.213,9.724431,-14.115261,0.9738788,0.6446914,-1.2127956,-5.0295553,-34.95,26.306252,-25.143751,0.32388192,-0.65951425,0.6300786,995.55756, , , , 
2025-09-28 19:32:17.233,9.652647,-14.636896,0.33020952,0.43272135,-1.0448078,-5.1584477,-36.43125,23.400002,-23.8875,0.3730099,-0.6376304,0.6143973,995.54755, , , , 
2025-09-28 19:32:17.253,9.114262,-14.785251,0.05742774,0.23174682,-0.6434697,-5.1816607,-39.506252,15.4875,-22.5,0.40961254,-0.61892956,0.59952027,995.54755, , , , 
2025-09-28 19:32:17.273,7.9944205,-14.251652,-0.52163535,-0.12255475,0.45364347,-5.0271115,-42.675003,10.05,-21.243752,0.4469028,-0.5932677,0.58105254,995.5402, , , , 
2025-09-28 19:32:17.293,6.862615,-13.789837,-0.18664017,-0.24900375,1.1200969,-4.81392,-42.956253,7.18125,-22.125,0.46348462,-0.57655895,0.5710977,995.5402, , , , 
2025-09-28 19:32:17.313,5.3312087,-13.067204,0.3493521,-0.16653702,1.4615704,-4.393645,-44.381252,2.30625,-22.1625,0.4797958,-0.55296975,0.5600197,995.5368, , , , 
2025-09-28 19:32:17.333,4.6229334,-12.224931,0.43070808,0.009392046,1.2777001,-4.0069675,-44.625,-1.3125,-24.712502,0.49253485,-0.52923906,0.5509098,995.5368, , , , 
2025-09-28 19:32:17.353,3.5030923,-10.815558,0.4354937,0.29649848,0.7462477,-3.530493,-43.3875,-3.80625,-23.60625,0.5082338,-0.5015117,0.5399878,995.5341, , , , 
2025-09-28 19:32:17.373,2.050649,-9.5353985,0.3924229,0.49380782,0.39133525,-3.0778422,-41.025,-8.90625,-25.275002,0.5215603,-0.48148686,0.5311851,995.5341, , , , 
2025-09-28 19:32:17.393,0.59342,-8.609376,-0.22492532,0.60193086,0.21235187,-2.5781548,-42.1875,-12.39375,-24.487501,0.5345572,-0.4634817,0.5232195,995.52655, , , , 
2025-09-28 19:32:17.413,-0.2440679,-7.891529,-0.72502524,0.58360493,0.087124586,-2.1108432,-41.475002,-12.675,-26.400002,0.5462231,-0.44826463,0.51654017,995.52655, , , , 
2025-09-28 19:32:17.433,-1.294517,-8.051848,-1.2466606,0.50419253,-0.06131555,-1.4004076,-41.081253,-15.8625,-27.0375,0.55800426,-0.43413776,0.51009524,995.5173, , , , 
2025-09-28 19:32:17.453,-2.053042,-8.659625,-1.8448663,0.41500625,-0.22197299,-0.79442966,-39.675003,-16.95,-28.35,0.56337,-0.4288563,0.5074936,995.5173, , , , 
2025-09-28 19:32:17.473,-3.2231321,-8.449057,-2.3114667,0.26106834,-0.3673588,0.011911863,-39.1875,-15.7875,-26.306252,0.56805474,-0.42695922,0.5057679,995.4985, , , , 
2025-09-28 19:32:17.493,-2.9742785,-6.8506513,-2.0027926,-0.1512654,-0.1211803,1.3466514,-39.6375,-17.34375,-26.025002,0.56668144,-0.43406957,0.5085272,995.4985, , , , 
2025-09-28 19:32:17.513,-1.2993027,-6.3218374,-0.7680961,-0.36323547,0.32047492,2.116952,-40.612503,-16.2,-24.750002,0.5601779,-0.44239524,0.5139994,995.4936, , , , 
2025-09-28 19:32:17.533,1.6414764,-6.829116,0.66999036,-0.3210858,0.70226544,2.8286095,-40.95,-13.725,-26.85,0.54091465,-0.459133,0.5298087,995.4936, , , , 
2025-09-28 19:32:17.553,3.1513474,-7.783852,0.6987042,-0.06146827,0.50556695,3.042412,-42.112503,-12.13125,-25.125002,0.5223792,-0.47325626,0.5460233,995.4777, , , , 
2025-09-28 19:32:17.573,3.8093736,-9.171689,-0.1794617,0.3013854,-0.14561489,3.2049022,-41.737503,-9.58125,-26.550001,0.50599194,-0.48810375,0.5620738,995.4777, , , , 
2025-09-28 19:32:17.593,3.9696927,-10.648061,-2.1008983,0.4889209,-0.94035,3.485289,-43.612503,-8.887501,-28.556252,0.4933517,-0.5049709,0.57618177,995.4516, , , , 
2025-09-28 19:32:17.613,4.1587257,-11.557333,-2.6895328,0.4504364,-1.4492003,3.8585274,-41.53125,-4.21875,-26.718752,0.48258516,-0.5249877,0.5878139,995.4516, , , , 
2025-09-28 19:32:17.633,5.663811,-12.244074,-2.6321049,0.3099375,-1.6355141,4.2775807,-44.193752,0.95625,-23.8125,0.46808583,-0.55386585,0.599681,995.42523, , , , 
2025-09-28 19:32:17.653,6.257231,-12.784851,-2.7014968,0.12728895,-1.1761438,4.515818,-42.1875,3.0187502,-22.125,0.45276165,-0.5777432,0.6083361,995.42523,37.88832737,127.73970803,146.596923828125,1.13
2025-09-28 19:32:17.673,6.8219376,-13.418949,-2.3856442,-0.15004367,-0.5078577,4.7754354,-45.1875,7.0687504,-21.2625,0.43664092,-0.5952977,0.6153723,995.41425, , , , 
2025-09-28 19:32:17.693,8.29113,-14.321044,-1.3878372,-0.36506808,-0.049709123,5.093696,-45.225002,9.900001,-19.575,0.39255264,-0.6294312,0.6301936,995.41425, , , , 
2025-09-28 19:32:17.713,9.355937,-14.835501,-0.36370903,-0.25999933,-0.30260715,5.1370673,-40.987503,17.2875,-17.8125,0.36839864,-0.64557153,0.6366558,995.41205, , , , 
2025-09-28 19:32:17.733,10.60499,-14.749359,-0.47138608,0.039935283,-0.75098187,5.1303477,-40.3875,22.10625,-21.862501,0.33785555,-0.6648982,0.6439938,995.41205, , , , 
2025-09-28 19:32:17.753,11.076376,-14.44547,-0.5288138,0.24640758,-0.9330196,5.045438,-37.275,26.550001,-23.04375,0.30969945,-0.68118984,0.6499555,995.4111, , , , 
2025-09-28 19:32:17.773,11.844472,-14.062618,-0.36370903,0.46876237,-1.1260529,4.9861836,-33.581253,29.550001,-23.306252,0.28309435,-0.69427717,0.6550002,995.4111, , , , 
2025-09-28 19:32:17.793,14.991034,-12.425928,-1.9286151,0.6801216,-0.953789,4.629439,-33.5625,29.775002,-21.768751,0.25223997,-0.7055075,0.66076314,995.41156, , , , 
2025-09-28 19:32:17.813,15.833307,-10.674382,-3.2039895,0.43944085,-0.24640758,3.9800894,-30.337502,33.46875,-21.393751,0.23440261,-0.710084,0.66364765,995.41156, , , , 
2025-09-28 19:32:17.833,15.120246,-10.07139,-2.268396,0.0063377223,0.2966512,3.2659886,-28.275002,35.79375,-20.5125,-0.20491342,0.71723676,-0.6659644,995.39716, , , , 
2025-09-28 19:32:17.853,14.888143,-9.401401,0.021535404,0.09063706,0.052305296,2.7907357,-25.0125,38.006252,-22.21875,-0.1835277,0.72266823,-0.66593766,995.39716, , , , 
2025-09-28 19:32:17.873,14.907285,-8.30788,0.52163535,0.49502954,-0.4088976,2.3796237,-23.831251,38.98125,-20.23125,-0.16778462,0.7248829,-0.66691726,995.4069, , , , 
2025-09-28 19:32:17.893,15.086747,-7.539784,-2.0386848,0.89942205,-0.4400517,1.886045,-22.181252,37.03125,-19.66875,-0.15532084,0.7221175,-0.6714362,995.4069, , , , 
2025-09-28 19:32:17.913,15.675381,-7.585248,-4.0271206,0.791299,-0.26962045,1.587943,-20.550001,39.075,-22.59375,-0.14920583,0.71943647,-0.6747753,995.4079, , , , 
2025-09-28 19:32:17.933,17.352749,-7.1282187,-5.2402816,0.2616792,-0.4644863,1.0344995,-20.081251,39.99375,-21.6,-0.14215472,0.7166274,-0.6779842,995.4079, , , , 
2025-09-28 19:32:17.953,18.467806,-7.348358,-4.0845485,-0.21296273,-0.84994197,0.42363474,-17.25,38.68125,-22.9125,-0.143253,0.7169038,-0.67666894,995.3964, , , , 
2025-09-28 19:32:17.973,18.257236,-9.571291,-0.8877372,-0.47319114,-1.5994731,-0.40775225,-18.6375,39.9,-21.75,-0.15339209,0.71822584,-0.67245114,995.3964, , , , 
2025-09-28 19:32:17.993,17.027327,-9.489935,1.282553,-0.32536185,-2.2750895,-0.9770782,-17.56875,40.0125,-22.650002,-0.17252983,0.717712,-0.6676515,995.415, , , , 
2025-09-28 19:32:18.013,15.562919,-8.322237,1.6773686,-0.26855144,-2.466901,-1.4547745,-20.550001,40.050003,-18.9375,-0.19843636,0.7141555,-0.66341555,995.415, , , , 
2025-09-28 19:32:18.033,13.122239,-8.681161,3.4193435,-0.3522399,-2.2237768,-2.0625849,-24.281252,39.2625,-15.4125,-0.23508418,0.70775884,-0.65789276,995.4494, , , , 
2025-09-28 19:32:18.053,11.227124,-9.767502,4.476971,-0.13355032,-2.3215153,-2.3490806,-25.29375,38.4375,-18.0375,-0.25805086,0.7025056,-0.65506405,995.4494, , , , 
2025-09-28 19:32:18.073,10.250853,-10.923235,4.4721856,0.12179117,-3.0014076,-2.5024076,-28.462502,36.7125,-14.981251,-0.29100838,0.6924584,-0.65192604,995.5026, , , , 
2025-09-28 19:32:18.093,12.519248,-12.12204,4.4578285,0.16760603,-3.7704866,-2.703382,-30.975,36.075,-12.975,-0.33888412,0.6753232,-0.64566076,995.5026, , , , 
2025-09-28 19:32:18.113,14.715859,-13.01217,5.1828537,0.03199404,-3.8474555,-3.0857835,-32.5875,34.537502,-13.031251,-0.38193846,0.6586786,-0.6377253,995.5341, , , , 
2025-09-28 19:32:18.133,14.794823,-13.873586,6.984649,-0.13110685,-3.195052,-3.7479608,-36.881252,34.050003,-7.93125,-0.42574877,0.6397462,-0.6291847,995.5341, , , , 
2025-09-28 19:32:18.154,13.399807,-13.787444,8.350951,0.005726857,-2.6959753,-4.1065383,-38.475002,31.275002,-7.14375,-0.4676682,0.6182253,-0.6220349,995.57074, , , , 
2025-09-28 19:32:18.173,12.167503,-13.30888,8.262417,0.16332997,-2.2384377,-4.3716536,-41.23125,29.343752,-5.0437503,-0.50687075,0.5934209,-0.61722034,995.57074, , , , 
2025-09-28 19:32:18.193,10.490134,-13.103097,7.8699937,0.41195193,-1.2091305,-4.568963,-44.04375,22.425001,0.75,-0.5501268,0.5588409,-0.6152236,995.601, , , , 
2025-09-28 19:32:18.213,10.4016,-13.162917,7.0396843,0.59032446,-0.8603267,-4.6428776,-45.525,19.518751,1.5375,-0.5721413,0.5365734,-0.6166395,995.601, , , , 
2025-09-28 19:32:18.233,11.114661,-13.749159,5.6279187,0.80351627,-0.83100516,-4.8652325,-47.850002,12.95625,0.45000002,-0.6056379,0.4961499,-0.6206626,995.6169, , , , 
2025-09-28 19:32:18.253,11.184053,-14.273187,4.5415773,0.84810936,-0.863381,-5.0820894,-49.66875,10.743751,3.54375,-0.6321818,0.46058387,-0.62265265,995.6169, , , , 
2025-09-28 19:32:18.273,11.255837,-14.871393,3.5126636,0.7473167,-0.6734021,-5.1938777,-48.075,6.20625,2.1000001,-0.651332,0.43279484,-0.62322426,995.6071, , , , 
2025-09-28 19:32:18.296,11.004591,-15.177674,3.0388846,0.5823832,-0.22930336,-5.2726793,-48.975002,1.85625,3.825,0.6740453,-0.3953848,0.62374425,995.6071, , , , 
2025-09-28 19:32:18.313,10.399207,-15.658631,2.548356,0.47609273,0.7285326,-5.313607,-48.937504,-4.4812503,3.1125002,0.69487995,-0.34837762,0.6270528,995.5888, , , , 
2025-09-28 19:32:18.333,8.855837,-15.536597,2.1535404,0.60254174,1.1982876,-5.2690144,-48.99375,-13.556251,1.9312501,0.7073096,-0.3002492,0.63394064,995.5888, , , , 
2025-09-28 19:32:18.353,7.3292155,-15.053247,1.7108682,0.78641206,1.2355504,-5.143787,-48.24375,-14.962501,1.4625001,0.7132965,-0.2606553,0.64014417,995.5622, , , , 
2025-09-28 19:32:18.373,5.168497,-14.450256,1.2203395,1.0032691,1.0193043,-4.9226537,-45.84375,-19.81875,1.1812501,0.71679264,-0.23064236,0.64393735,995.5622, , , , 
2025-09-28 19:32:18.393,1.4189439,-13.299308,-0.0071784677,1.2121848,0.28565565,-4.2061095,-43.29375,-26.1375,-0.58125,0.72332555,-0.18230382,0.6461132,995.5351, , , , 
2025-09-28 19:32:18.415,-0.23928227,-12.12204,-0.78723866,1.211574,-0.33070692,-3.5152214,-43.237503,-27.993752,0.15,0.7309025,-0.1488314,0.64254016,995.5351, , , , 
2025-09-28 19:32:18.433,-1.3926228,-9.908679,-1.5696917,1.0307579,-0.63736105,-2.4700317,-38.362503,-31.368752,1.3687501,0.7423163,-0.11642022,0.6333376,995.51215, , , , 
2025-09-28 19:32:18.453,-1.9645073,-8.645268,-1.8257236,0.79496413,-0.3362047,-1.8683299,-35.1375,-32.8875,-0.112500004,0.74800724,-0.10188521,0.628138,995.51215, , , , 
2025-09-28 19:32:18.473,-3.182454,-7.925029,-2.213361,0.5298488,0.09078978,-1.3252711,-37.275,-33.65625,5.25,0.7521801,-0.08711664,0.62436736,995.4865, , , , 
2025-09-28 19:32:18.493,-4.871787,-8.453842,-1.8329022,0.25923574,0.41027206,-0.29840744,-35.11875,-36.2625,2.23125,0.75230706,-0.07695626,0.6250244,995.4865, , , , 
2025-09-28 19:32:18.513,-5.4723854,-8.066205,-1.3136597,0.21525347,0.28993168,0.6349939,-35.831253,-34.612503,3.6000001,0.7507292,-0.0772859,0.62805146,995.46576, , , , 
2025-09-28 19:32:18.533,-4.3238306,-7.62114,-0.69152576,0.2824486,0.093233235,1.5995494,-37.7625,-34.6875,3.6562502,0.74969983,-0.08293942,0.63073975,995.46576, , , , 
2025-09-28 19:32:18.553,-0.60059845,-7.661818,-0.38763726,0.4486038,0.10483967,2.747975,-36.600002,-34.068752,3.1875002,0.74775624,-0.10082919,0.6361619,995.4555, , , , 
2025-09-28 19:32:18.573,2.3114667,-8.279166,-0.7896315,0.52190757,0.42248935,3.2024586,-40.912502,-30.0375,3.8812501,0.7426838,-0.12494085,0.644405,995.4555, , , , 
2025-09-28 19:32:18.593,3.4193435,-9.040084,-1.2323036,0.520075,0.61796606,3.386329,-40.068752,-28.06875,3.2062502,0.7375535,-0.14067644,0.65063995,995.436, , , , 
2025-09-28 19:32:18.613,3.4576287,-10.07139,-1.3112668,0.50358164,0.70531976,3.6551094,-44.193752,-25.143751,4.55625,0.72860247,-0.1628513,0.65955526,995.436, , , , 
2025-09-28 19:32:18.633,3.735196,-11.770294,-1.5170496,0.5738311,0.3974439,4.182286,-47.49375,-21.150002,5.45625,0.7154428,-0.19365303,0.6693793,995.4257, , , , 
2025-09-28 19:32:18.653,4.599005,-12.713067,-2.3306093,0.5451205,0.26305366,4.5805697,-46.6875,-19.425001,3.5625002,0.7044947,-0.22135802,0.6740828,995.4257,37.88832153,127.73969699,146.26483154296875,1.27
2025-09-28 19:32:18.673,5.74756,-13.706088,-2.8546374,0.34964374,0.34674212,4.9470882,-48.468754,-14.400001,4.70625,-0.6949106,0.24430992,-0.67625856,995.40936, , , , 
2025-09-28 19:32:18.693,8.006385,-14.321044,-2.0434706,0.14072797,0.15676318,5.281842,-49.0125,-6.3562503,3.3750002,-0.6754297,0.28671458,-0.67722535,995.40936, , , , 
2025-09-28 19:32:18.713,9.9038925,-14.85225,-1.8448663,0.20670137,-0.29038984,5.305055,-51.525,-2.0062501,4.4812503,-0.6550765,0.32965514,-0.6723431,995.40594, , , , 
2025-09-28 19:32:18.733,10.621739,-15.139389,-1.9501505,0.23907721,-0.44616038,5.2604623,-49.4625,1.9125,7.275,-0.6431425,0.35391575,-0.6666662,995.40594, , , , 
2025-09-28 19:32:18.753,11.162518,-15.730416,-1.6127625,0.3502546,-0.7564797,5.187769,-47.9625,7.7812505,6.4687505,-0.6234773,0.39123407,-0.6535352,995.40546, , , , 
2025-09-28 19:32:18.773,11.782259,-16.031912,-1.902294,0.46937323,-0.91163933,5.1596694,-45.206253,15.1125,-1.1812501,-0.61159295,0.41155908,-0.64381856,995.40546, , , , 
2025-09-28 19:32:18.793,13.280166,-15.266209,-2.8833513,0.3514763,-0.7112757,4.984962,-47.23125,17.831251,5.0437503,-0.59096074,0.44265497,-0.625652,995.39984, , , , 
2025-09-28 19:32:18.813,14.002798,-14.354543,-3.0125637,-0.010766491,-0.20364705,4.6453214,-44.456253,19.875,3.2625,-0.5774833,0.460774,-0.61486274,995.39984, , , , 
2025-09-28 19:32:18.833,14.244473,-13.452449,-1.7324036,-0.2709949,0.28076872,4.258033,-45.3375,25.743752,4.875,-0.5534176,0.49120578,-0.5983941,995.39935, , , , 
2025-09-28 19:32:18.853,14.567504,-12.57189,-1.6271194,-0.42248935,0.7230348,3.9037313,-42.09375,26.681252,5.86875,-0.5329104,0.5149058,-0.5871604,995.39935, , , , 
2025-09-28 19:32:18.873,14.474184,-11.140983,-1.0313065,-0.5965858,1.0632865,3.5243843,-40.21875,30.112501,5.625,-0.51182586,0.5381145,-0.5778912,995.4079, , , , 
2025-09-28 19:32:18.893,14.344972,-9.413364,1.1820544,-0.519006,1.1396446,3.0124795,-37.21875,33.300003,4.05,-0.48641068,0.56488144,-0.5689077,995.4079, , , , 
2025-09-28 19:32:18.913,14.404793,-8.2049885,1.5529419,0.08452842,0.7786235,2.586096,-33.300003,34.443752,3.1125002,-0.4722898,0.5770912,-0.56542134,995.42474, , , , 
2025-09-28 19:32:18.933,14.675181,-7.056434,-1.0408778,0.6288089,0.2850448,2.1352777,-33.45,37.3125,2.1937501,-0.45196393,0.588694,-0.56264,995.42474, , , , 
2025-09-28 19:32:18.953,15.359529,-6.6305118,-3.3020952,0.6575196,-0.09491312,1.6887357,-32.34375,37.03125,3.0187502,-0.43982768,0.5925392,-0.5613942,995.4179, , , , 
2025-09-28 19:32:18.973,15.814165,-6.5515485,-4.0127635,0.44310603,-0.4266127,1.2226459,-29.75625,38.8125,1.40625,-0.43427712,0.5935463,-0.5599474,995.4179, , , , 
2025-09-28 19:32:18.994,16.520048,-7.5062847,-2.8163524,0.108963005,-0.8982003,0.56230104,-27.393751,39.787502,3.1125002,-0.43292612,0.59237754,-0.5559518,995.4084, , , , 
2025-09-28 19:32:19.013,17.510675,-8.271988,-1.5696917,0.06436988,-1.1187224,0.10231985,-29.962502,40.143753,2.8875,-0.43803743,0.5884583,-0.55230963,995.4084, , , , 
2025-09-28 19:32:19.033,17.474783,-7.2909307,-0.5838487,0.086361006,-1.1834742,-0.7333432,-29.343752,40.21875,2.5125,-0.45024878,0.57875365,-0.5501487,995.4194, , , , 
2025-09-28 19:32:19.053,15.924234,-6.9798636,-0.1363909,0.009392046,-1.0906227,-1.3955206,-28.312502,40.3125,2.71875,-0.46041107,0.5705689,-0.55083984,995.4194, , , , 
2025-09-28 19:32:19.073,13.9023,-7.8699937,0.56470615,-0.10178535,-1.0142646,-1.926362,-29.081251,38.850002,5.1937504,-0.47675252,0.5577435,-0.5537568,995.4504, , , , 
2025-09-28 19:32:19.093,11.399407,-9.32483,1.2490535,-0.19341506,-1.1486548,-2.3411393,-29.8875,38.5125,4.9875,-0.500267,0.5391731,-0.55867636,995.4504, , , , 
2025-09-28 19:32:19.113,11.408978,-11.078769,2.0027926,-0.35346162,-1.5762602,-2.5243988,-32.71875,35.475002,6.99375,-0.5216851,0.5223553,-0.5610502,995.4797, , , , 
2025-09-28 19:32:19.133,13.447663,-13.469198,3.7686956,-0.49151707,-2.0606759,-2.9092436,-34.631252,35.41875,5.9625,-0.5531595,0.49773726,-0.5603549,995.4797, , , , 
2025-09-28 19:32:19.153,14.187045,-14.124832,4.9938207,-0.49579313,-1.965992,-3.3979354,-35.456253,33.787502,10.63125,-0.57393533,0.48041528,-0.55957943,995.5129, , , , 
2025-09-28 19:32:19.173,12.562319,-14.146367,5.704489,-0.42737627,-1.4174354,-3.9519897,-39.6375,29.868752,11.2875,-0.6015212,0.45455167,-0.5611527,995.5129, , , , 
2025-09-28 19:32:19.193,9.970892,-13.847264,6.2213387,-0.20013458,-0.64896744,-4.325839,-39.506252,27.6375,12.168751,-0.63155544,0.41987538,-0.5695926,995.5529, , , , 
2025-09-28 19:32:19.213,8.382058,-13.706088,6.017949,0.13767365,-0.23785548,-4.3942556,-42.112503,26.493752,13.593751,-0.6459639,0.39810985,-0.57802063,995.5529, , , , 
2025-09-28 19:32:19.233,8.219346,-13.646268,4.7808595,0.73326683,-0.07231112,-4.288576,-43.443752,19.987501,15.4875,-0.6643969,0.35979366,-0.59501153,995.5715, , , , 
2025-09-28 19:32:19.253,9.0233345,-13.825729,3.1633115,1.0417535,-0.09491312,-4.272083,-44.925003,16.143751,12.618751,-0.6757912,0.32666287,-0.60918504,995.5715, , , , 
2025-09-28 19:32:19.273,10.179068,-14.256437,1.4787644,1.1633157,-0.14928009,-4.3710427,-45.46875,16.44375,14.512501,-0.68341255,0.30038753,-0.61935395,995.5632, , , , 
2025-09-28 19:32:19.293,11.571691,-14.955141,-0.10049855,0.96111935,-0.37896523,-4.7064075,-46.443752,7.2562504,13.9125,-0.696085,0.25450027,-0.63409704,995.5632, , , , 
2025-09-28 19:32:19.313,11.909079,-15.704095,-0.31106696,0.76869696,-0.37713265,-4.9684687,-47.98125,4.1062503,15.4875,-0.7068894,0.21648578,-0.64323395,995.53754, , , , 
2025-09-28 19:32:19.333,11.040483,-16.197016,-0.46181476,0.5170207,-0.17310381,-5.2726793,-48.16875,-4.0125003,16.125,-0.7189284,0.16816908,-0.6532607,995.53754, , , , 
2025-09-28 19:32:19.353,8.9013,-16.283157,-0.31345975,0.3417025,0.06207913,-5.35087,-47.456253,-5.6625004,14.75625,-0.7258918,0.12968105,-0.66104215,995.5219, , , , 
2025-09-28 19:32:19.373,7.463214,-15.495919,-0.29192436,0.18837543,0.35712683,-5.1950994,-46.40625,-10.03125,13.650001,-0.7296067,0.09294938,-0.6687174,995.5219, , , , 
2025-09-28 19:32:19.393,5.599205,-14.550755,-0.12921242,0.15538873,0.7419716,-4.958695,-45.018753,-14.7375,13.312501,-0.72947013,0.05856453,-0.67692536,995.50555, , , , 
2025-09-28 19:32:19.415,2.8785655,-13.3687,-0.38763726,0.22380558,0.9734894,-4.623941,-43.725002,-17.831251,12.900001,-0.72545177,0.026211234,-0.68593615,995.50555, , , , 
2025-09-28 19:32:19.433,-1.1988041,-11.559726,-0.6795616,0.44493863,0.76213014,-3.838369,-42.7125,-24.562502,11.325001,-0.71801,-0.010761501,-0.6956671,995.49286, , , , 
2025-09-28 19:32:19.453,-3.5006995,-10.078569,-1.4644074,0.5915462,0.28870997,-3.1181593,-40.3125,-24.300001,10.743751,-0.71451855,-0.030478913,-0.69892764,995.49286, , , , 
2025-09-28 19:32:19.473,-4.510471,-8.815159,-2.361716,0.51763153,-0.20670137,-2.2959354,-39.28125,-27.91875,10.06875,0.71311134,0.052236374,0.6990613,995.4777, , , , 
2025-09-28 19:32:19.493,-3.885944,-8.5016985,-1.7898313,0.17737986,-0.28122687,-1.1346813,-36.862503,-29.79375,10.087501,0.71530646,0.06893519,0.6951715,995.4777, , , , 
2025-09-28 19:32:19.513,-3.8333018,-8.925228,-1.2993027,0.08086322,-0.13523018,-0.54641855,-35.90625,-31.331251,12.843751,0.7163954,0.07376951,0.6934606,995.46674, , , , 
2025-09-28 19:32:19.533,-3.318845,-10.865808,-1.7946169,0.027717989,0.06330086,0.4639518,-38.49375,-30.468752,11.981251,0.71718585,0.074144855,0.6926286,995.46674, , , , 
2025-09-28 19:32:19.553,-3.6466618,-10.959127,-2.8594232,-0.21907139,0.029092435,1.3997966,-37.331253,-30.487501,12.01875,0.7178247,0.06695431,0.69286436,995.4555, , , , 
2025-09-28 19:32:19.573,-2.5962126,-10.380065,-2.306681,-0.532445,-0.07903063,2.2488987,-38.475002,-29.718752,10.70625,0.7195609,0.051015217,0.69254833,995.4555, , , , 
2025-09-28 19:32:19.593,-0.2416751,-9.662218,-0.46181476,-0.79694945,-0.028328855,3.1713045,-41.60625,-28.312502,13.106251,-0.72154754,-0.026484866,-0.69174784,995.44916, , , , 
2025-09-28 19:32:19.613,2.4478576,-9.848858,1.2514462,-0.7126501,0.130496,3.6728244,-40.10625,-25.406252,11.55,-0.7219436,0.0039432463,-0.69124496,995.44916, , , , 
2025-09-28 19:32:19.633,4.922036,-10.911271,2.0937197,-0.25755587,0.06391173,3.8548622,-44.11875,-21.337502,11.75625,-0.71958065,0.04361201,-0.6904503,995.4543, , , , 
2025-09-28 19:32:19.653,5.5465627,-12.253645,1.0624132,0.28122687,-0.31604618,3.9678721,-46.893753,-18.91875,14.531251,-0.71739185,0.072467364,-0.6873195,995.4543,37.88831222,127.73969146,145.91986083984375,1.25
2025-09-28 19:32:19.673,5.9413786,-13.30888,-0.60777694,0.5487856,-0.65141094,4.176788,-44.081253,-16.10625,10.668751,-0.71662635,0.09253637,-0.6822295,995.457, , , , 
2025-09-28 19:32:19.693,6.6041903,-14.354543,-2.2899313,0.48525572,-0.5487856,4.5628543,-48.45,-9.13125,15.056251,-0.71529055,0.12654483,-0.6695778,995.457, , , , 
2025-09-28 19:32:19.713,7.3603225,-14.38565,-2.4335005,0.2042579,-0.18532111,4.800481,-49.0875,-8.700001,15.093751,-0.7109142,0.15723316,-0.6586693,995.4399, , , , 
2025-09-28 19:32:19.733,8.664411,-14.112868,-1.3615161,-0.16714787,0.17569998,4.9061604,-48.43125,0.3375,14.3625,-0.7002151,0.20040983,-0.6454598,995.4399, , , , 
2025-09-28 19:32:19.753,9.209974,-14.05544,-0.552742,-0.30703592,0.3595703,4.8737845,-49.4625,3.43125,17.85,-0.691693,0.22731231,-0.63747084,995.42426, , , , 
2025-09-28 19:32:19.773,9.513863,-14.103296,0.2105684,-0.32230753,0.43592837,4.8383546,-48.093754,4.21875,15.0375,-0.67823285,0.26309225,-0.62667805,995.42426, , , , 
2025-09-28 19:32:19.793,10.396814,-13.883157,0.47138608,-0.20929754,0.23312128,4.745503,-45.3375,12.618751,12.712501,-0.65950143,0.30555308,-0.6116556,995.4306, , , , 
2025-09-28 19:32:19.813,11.566905,-13.663017,0.52163535,-0.11827869,0.074907295,4.5579677,-45.0,15.637501,10.96875,-0.6482863,0.32879236,-0.60130405,995.4306, , , , 
2025-09-28 19:32:19.833,12.777673,-13.351951,-0.37328035,-0.023594651,0.21235187,4.1737337,-43.800003,21.50625,10.05,-0.62948966,0.36308694,-0.5838293,995.43524, , , , 
2025-09-28 19:32:19.853,12.464213,-12.710674,-1.2346965,-0.17753258,0.4909062,3.8799076,-44.006252,22.706251,10.9125,-0.6137352,0.3880416,-0.57135576,995.43524, , , , 
2025-09-28 19:32:19.873,12.315858,-11.937792,-1.2586247,-0.44203702,0.83360136,3.711309,-41.193752,24.243752,10.387501,-0.59741306,0.4131642,-0.56011724,995.4245, , , , 
2025-09-28 19:32:19.893,13.981263,-10.79163,-0.55034924,-0.6735548,1.232496,3.403433,-36.768753,30.075,8.34375,-0.5757924,0.44615793,-0.54808533,995.4245, , , , 
2025-09-28 19:32:19.913,15.823736,-9.104691,-0.4354937,-0.5825359,1.3106867,2.9367325,-38.737503,30.712502,11.45625,-0.5628979,0.46471754,-0.5424098,995.4255, , , , 
