Time,Accel_X,Accel_Y,Accel_Z,Gyro_X,Gyro_Y,Gyro_Z,Mag_X,Mag_Y,Mag_Z,Orient_X,Orient_Y,Orient_Z,Pressure,Latitude,Longitude,Altitude,Speed
2025-03-08 15:35:45.199,0.34456646,4.5296135,8.963513,0.058032155,-0.08956805,-0.048792824,-19.518751,-46.3125,-25.987501,0.16755593,0.1393635,0.6906292,0.0,37.88837916,127.73985921,147.77435302734375,0.0
2025-03-08 15:35:45.218,0.45702913,4.706682,8.7673025,0.068416856,-0.03825541,-0.04818196,-19.40625,-46.5,-26.212502,0.17064281,0.1416222,0.68953973,0.0,37.88837916,127.73985921,147.77435302734375,0.0
2025-03-08 15:35:45.238,0.29910284,4.8358946,8.303095,0.03054324,0.0796415,-0.06895136,-19.275002,-46.575,-26.587502,0.17444842,0.14496319,0.6883719,0.0,37.88837916,127.73985921,147.77435302734375,0.0
2025-03-08 15:35:45.258,0.0023928226,4.84068,8.209774,-0.047647454,0.10713041,-0.08727731,-19.29375,-46.443752,-26.1,0.17653501,0.1500023,0.6869456,1007.87103,37.88837916,127.73985921,147.77435302734375,0.0
2025-03-08 15:35:45.278,-0.009571291,4.651647,8.666803,-0.083688475,0.04054615,-0.108657576,-19.81875,-46.537502,-25.331251,0.17650783,0.15384804,0.6856659,1007.87103,37.88837916,127.73985921,147.77435302734375,0.0
2025-03-08 15:35:45.298,-0.078963146,4.3812585,8.805588,-0.062308207,0.027717989,-0.10682498,-19.875,-46.3125,-25.050001,0.17499375,0.15543711,0.6847189,1007.86884,37.88837916,127.73985921,147.77435302734375,0.0
2025-03-08 15:35:45.319,-0.35174492,4.290331,8.865408,-0.064140804,0.02649626,-0.05978839,-20.1375,-46.3125,-24.50625,0.17193037,0.15670526,0.6838349,1007.86884,37.88837916,127.73985921,147.77435302734375,0.0
2025-03-08 15:35:45.338,-0.37088752,4.3740797,9.006584,-0.05070178,0.022831071,-0.0017562362,-19.837502,-46.21875,-24.6,0.16969611,0.15740892,0.68356377,1007.86884,37.88837916,127.73985921,147.77435302734375,0.0
2025-03-08 15:35:45.358,0.069391854,4.5128636,9.0544405,-0.047647454,-0.092011504,0.015958842,-19.5375,-45.84375,-24.806252,0.16781496,0.15782325,0.68349963,1007.86884,37.88837916,127.73985921,147.77435302734375,0.0
2025-03-08 15:35:45.378,-0.05742774,4.5008993,9.233903,-0.029932374,-0.054748755,0.042226028,-19.800001,-45.881252,-24.525002,0.16778207,0.15701698,0.68353486,1007.8676,37.88837916,127.73985921,147.77435302734375,0.0
2025-03-08 15:35:45.398,0.13160525,4.5320063,9.410972,0.019547673,0.030772313,0.100869045,-19.518751,-45.693752,-24.91875,0.16712317,0.15682317,0.684005,1007.8676,37.88837916,127.73985921,147.77435302734375,0.0
2025-03-08 15:35:45.419,0.43788654,4.5535417,9.329616,0.12950334,0.013057235,0.10270164,-19.81875,-45.975002,-24.768751,0.16760418,0.15652218,0.684818,1007.86127,37.88837916,127.73985921,147.77435302734375,0.0
2025-03-08 15:35:45.438,0.46899325,4.618148,8.7673025,0.17226386,0.0020616686,0.092927806,-20.00625,-46.03125,-24.843752,0.1691583,0.1567068,0.68546396,1007.86127,37.88837916,127.73985921,147.77435302734375,0.0
2025-03-08 15:35:45.458,0.3804588,4.5535417,8.226524,0.14355323,-0.10300707,0.0721584,-19.95,-45.9,-24.73125,0.17163341,0.15726185,0.68574905,1007.8686,37.88837916,127.73985921,147.77435302734375,0.0
2025-03-08 15:35:45.478,0.82313097,4.692325,8.130812,0.07147118,-0.13782637,0.015347977,-20.1375,-45.75,-24.375002,0.17462532,0.15731911,0.6856807,1007.8686,37.88837916,127.73985921,147.77435302734375,0.0
2025-03-08 15:35:45.498,0.6197411,4.409972,7.9944205,-0.045814857,0.11323906,-0.09033163,-20.400002,-45.862503,-24.0375,0.17765048,0.15670846,0.6852939,1007.8649,37.88837916,127.73985921,147.77435302734375,0.0
2025-03-08 15:35:45.518,0.13399807,4.386044,8.372486,-0.17470732,0.28916812,-0.083612114,-20.53125,-46.03125,-24.150002,0.17604484,0.15763542,0.68516326,1007.8649,37.88837916,127.73985921,147.77435302734375,0.0
2025-03-08 15:35:45.538,0.27038896,4.28076,9.229117,-0.18142684,0.27511823,-0.06467531,-20.475,-46.050003,-23.90625,0.17254479,0.15835856,0.6854761,1007.8713,37.88837916,127.73985921,147.77435302734375,0.0
2025-03-08 15:35:45.558,0.18664017,4.345366,9.413364,-0.05253437,0.1627191,-0.066507906,-20.550001,-46.59375,-24.13125,0.16958147,0.1583728,0.68583226,1007.8713,37.88837916,127.73985921,147.77435302734375,0.0
2025-03-08 15:35:45.578,0.27756742,4.644469,8.956335,0.059253883,-0.03581195,-0.056734066,-20.41875,-46.443752,-23.98125,0.16871485,0.15853594,0.6856504,1007.8808,37.88837916,127.73985921,147.77435302734375,0.0
2025-03-08 15:35:45.598,0.16510476,4.725825,8.458628,0.01527162,0.014278964,-0.055512335,-19.875,-46.29375,-23.775002,0.16989304,0.1589304,0.684998,1007.8808,37.88837916,127.73985921,147.77435302734375,0.0
2025-03-08 15:35:45.619,0.20578274,4.6779685,8.693125,-0.08552107,0.0674242,-0.035964664,-20.118752,-46.18125,-24.0,0.16980243,0.15971883,0.6846946,1007.88763,37.88837916,127.73985921,147.77435302734375,0.0
2025-03-08 15:35:45.638,0.3804588,4.6085763,9.016156,-0.08552107,-0.021151192,-0.07994693,-20.25,-46.068752,-23.925001,0.16927257,0.15959494,0.6845395,1007.88763,37.88837916,127.73985921,147.77435302734375,0.0
2025-03-08 15:35:45.658,0.4761717,4.4721856,9.3200445,-0.04886918,-0.043142326,-0.14042254,-20.04375,-46.03125,-24.187502,0.16927056,0.15885036,0.6841098,1007.88763,37.88837916,127.73985921,147.77435302734375,0.0
2025-03-08 15:35:45.678,-0.148355,4.4243293,9.382257,0.028099779,0.08513928,-0.18501566,-19.987501,-46.237503,-24.45,0.16870533,0.15833007,0.6828964,1007.89935,37.88837916,127.73985921,147.77435302734375,0.0
2025-03-08 15:35:45.698,-0.7369894,4.426722,8.846265,0.05070178,0.06498074,-0.107435845,-19.78125,-46.29375,-24.69375,0.16737325,0.15981045,0.6818399,1007.9089,37.88837916,127.73985921,147.77435302734375,0.0
2025-03-08 15:35:45.718,-0.31345975,4.3932223,8.618947,0.021380268,-0.02481638,-0.0457385,-19.275002,-46.3875,-24.937502,0.16647129,0.16126876,0.68108904,1007.9089,37.88837916,127.73985921,147.77435302734375,0.0
2025-03-08 15:35:45.738,-0.23449662,4.213761,8.506484,-0.033597562,0.022831071,-0.03291034,-18.993752,-46.3875,-24.825,0.16627602,0.1615917,0.6806577,1007.9167,37.88837916,127.73985921,147.77435302734375,0.0
2025-03-08 15:35:45.758,-0.28713873,4.1587257,8.681161,-0.10995566,-0.06940951,-0.037797257,-18.900002,-46.537502,-24.91875,0.1651057,0.16158462,0.680477,1007.9167,37.88837916,127.73985921,147.77435302734375,0.0
2025-03-08 15:35:45.778,-0.38763726,4.0558343,8.944371,-0.09773836,-0.10361794,-0.0066431547,-18.75,-46.537502,-24.993752,0.16428298,0.16045329,0.6802807,1007.91864,37.88837916,127.73985921,147.77435302734375,0.0
2025-03-08 15:35:45.798,-0.27038896,4.290331,8.815159,-0.08185588,-0.1060614,0.054443322,-18.5625,-46.537502,-24.768751,0.16358848,0.15933914,0.68037087,1007.91864,37.88837916,127.73985921,147.77435302734375,0.0
2025-03-08 15:35:45.819,0.059820566,4.386044,8.762517,-0.092851445,-0.11339177,0.08987348,-18.4125,-46.4625,-25.06875,0.16371961,0.15772974,0.6808884,1007.9328,37.88837916,127.73985921,147.77435302734375,0.0
2025-03-08 15:35:45.838,0.04546363,4.3094735,7.4656067,-0.1631009,0.101632625,0.09109521,-18.4125,-46.275,-24.975,0.16355345,0.15700783,0.6816042,1007.9328,37.88837916,127.73985921,147.77435302734375,0.0
2025-03-08 15:35:45.858,0.13878371,4.130012,8.867801,-0.31398448,-0.05535962,0.11186461,-18.618752,-46.18125,-25.031252,0.16304226,0.15420693,0.6823249,1007.9489,37.88837916,127.73985921,147.77435302734375,0.0
2025-03-08 15:35:45.878,0.23688944,4.034299,9.480363,-0.25778493,-0.10483967,0.13568833,-18.84375,-46.21875,-25.031252,0.16182789,0.15182635,0.683253,1007.9489,37.88837916,127.73985921,147.77435302734375,0.0
2025-03-08 15:35:45.898,0.44745782,3.9314077,9.556933,-0.124616414,-0.05780308,0.1344666,-19.10625,-46.275,-24.656252,0.16083345,0.148873,0.6845001,1007.96747,37.88837916,127.73985921,147.77435302734375,0.0
2025-03-08 15:35:45.918,0.09571291,3.8333018,9.652647,0.021380268,-0.1787543,0.111253746,-19.575,-46.331253,-24.825,0.16066547,0.14638321,0.6857876,1007.96747,37.88837916,127.73985921,147.77435302734375,0.0
2025-03-08 15:35:45.938,0.36610186,5.022535,9.999606,0.11117739,-0.27404922,0.29878923,-20.025002,-46.0875,-24.7875,0.16116256,0.14445105,0.68682235,1007.9948,37.88837916,127.73985921,147.77435302734375,0.0
2025-03-08 15:35:45.958,0.7920243,3.7567315,9.65504,0.20769402,-0.43715012,0.1955531,-20.212502,-46.0875,-24.88125,0.16522205,0.14249326,0.6878815,1007.9948,37.88837916,127.73985921,147.77435302734375,0.0
2025-03-08 15:35:45.978,0.9499506,4.35733,9.178867,0.21135922,0.008170316,0.1485165,-20.737501,-45.768753,-24.73125,0.16931753,0.1407548,0.68905705,1008.01776,37.88837916,127.73985921,147.77435302734375,0.0
2025-03-08 15:35:45.998,0.7465607,4.551149,8.79123,0.18997894,-0.057192214,0.13141228,-21.112501,-45.80625,-24.6375,0.17129607,0.1415939,0.68977153,1008.01776,37.88837916,127.73985921,147.77435302734375,0.0
2025-03-08 15:35:46.020,0.88295156,4.8789654,8.88455,0.16187917,-0.13477205,0.082543105,-21.300001,-45.862503,-24.35625,0.17343523,0.14181483,0.69001347,1008.0334,37.88837916,127.73985921,147.77435302734375,0.0
2025-03-08 15:35:46.040,0.66999036,4.800002,8.769695,0.14966187,-0.3033707,0.02328922,-21.581251,-45.84375,-24.112501,0.17762116,0.14155121,0.6897958,1008.0334,37.88837916,127.73985921,147.77435302734375,0.0
2025-03-08 15:35:46.058,0.60059845,4.682754,8.257631,0.15699224,-0.3333031,0.04894554,-21.712502,-45.787502,-24.243752,0.18163049,0.140663,0.6890678,1008.0356,37.88837916,127.73985921,147.77435302734375,0.0
2025-03-08 15:35:46.078,1.1892328,4.5822554,7.623533,-0.06108648,0.019776747,0.042226028,-21.75,-45.6375,-23.8125,0.18469235,0.14015271,0.6887876,1008.0356,37.88837916,127.73985921,147.77435302734375,0.0
2025-03-08 15:35:46.098,1.1676974,4.5726843,7.834101,-0.24373505,0.14256057,-0.065286174,-21.6,-45.6375,-23.90625,0.1841949,0.13994618,0.68919253,1008.04,37.88837916,127.73985921,147.77435302734375,0.0
2025-03-08 15:35:46.118,0.6771688,4.4171505,8.04467,-0.3017672,-0.03092503,-0.13003784,-21.337502,-45.5625,-23.79375,0.18250485,0.13888851,0.6890373,1008.04,37.88837916,127.73985921,147.77435302734375,0.0
2025-03-08 15:35:46.139,0.1698904,3.859623,8.087741,-0.3836231,0.19692753,-0.037797257,-21.31875,-45.45,-23.681252,0.17961796,0.13678455,0.6886676,1008.0334,37.88837916,127.73985921,147.77435302734375,0.0
2025-03-08 15:35:46.158,0.10049855,3.9361932,8.32463,-0.5051852,0.56955504,0.062995434,-21.300001,-45.318752,-23.7,0.17205386,0.13679345,0.6904446,1008.0334,37.88837916,127.73985921,147.77435302734375,0.0
2025-03-08 15:35:46.178,0.7106683,3.8524444,9.209974,-0.54916745,0.63919365,0.07276927,-21.09375,-45.2625,-24.300001,0.16619758,0.13705124,0.69216365,1008.0075,37.88837916,127.73985921,147.77435302734375,0.0
2025-03-08 15:35:46.198,0.8327023,3.7854455,9.74836,-0.46914417,0.6898954,0.022678355,-21.056252,-45.3375,-24.69375,0.1602446,0.137303,0.6938489,1008.0075,37.88837916,127.73985921,147.77435302734375,0.0
2025-03-08 15:35:46.218,0.76331043,4.072584,10.090533,-0.2131918,0.25068364,-0.10560325,-20.53125,-44.943752,-25.462502,0.15234213,0.1379896,0.6955497,1007.986,37.88837916,127.73985921,147.77435302734375,0.0
2025-03-08 15:35:46.238,0.2943172,3.9816568,10.152746,0.005497783,-0.06024654,-0.16791146,-20.212502,-44.7,-26.23125,0.15040734,0.13758785,0.69516325,1007.986,37.88837916,127.73985921,147.77435302734375,0.0
2025-03-08 15:35:46.258,-0.3900301,4.2855453,9.757931,0.17043127,-0.4512,-0.08972076,-20.175001,-44.568752,-26.268751,0.15146355,0.1370014,0.6938532,1007.9743,37.88837916,127.73985921,147.77435302734375,0.0
2025-03-08 15:35:46.278,0.33499518,4.5248275,10.10489,0.34819293,-1.1005492,0.076434456,-19.875,-44.175003,-26.19375,0.15913258,0.13354705,0.6919006,1007.9743,37.88837916,127.73985921,147.77435302734375,0.0
2025-03-08 15:35:46.298,1.564906,4.1611185,10.832308,0.7403681,-1.783496,0.18639012,-20.1,-44.4,-26.00625,0.16877325,0.12852171,0.6904348,1007.97504,37.88837916,127.73985921,147.77435302734375,0.0
2025-03-08 15:35:46.318,2.617748,4.4745784,8.116454,1.3353504,-2.4462843,0.042226028,-20.175001,-44.568752,-25.5375,0.19448888,0.118114024,0.6860588,1007.97504,37.88837916,127.73985921,147.77435302734375,0.0
2025-03-08 15:35:46.340,1.105484,4.302295,5.656633,1.4227041,-2.813414,0.06849321,-20.60625,-44.79375,-24.862501,0.21455005,0.11187472,0.681382,1007.9748,37.88837916,127.73985921,147.77435302734375,0.0
2025-03-08 15:35:46.360,1.0671989,3.3523445,2.6105695,1.2253947,-3.5085783,0.33910632,-22.050001,-45.693752,-22.837502,0.25217736,0.09802508,0.6719759,1007.9748,37.88837916,127.73985921,147.77435302734375,0.0
2025-03-08 15:35:46.378,2.3114667,3.0556345,1.416551,1.0305289,-3.8335583,0.5944478,-22.66875,-45.787502,-21.84375,0.28480825,0.08071828,0.66415834,1007.934,37.88837916,127.73985921,147.77435302734375,0.0
2025-03-08 15:35:46.398,2.2420747,2.4047868,0.9212367,0.8197805,-3.8146214,0.51198107,-24.525002,-46.18125,-19.837502,0.3173543,0.059801932,0.6557827,1007.934,37.88837916,127.73985921,147.77435302734375,0.0
2025-03-08 15:35:46.418,2.8833513,2.5124638,0.31345975,0.30298892,-3.9911613,0.29023713,-26.41875,-46.59375,-17.85,0.34846273,0.037030708,0.64548546,1007.8588,37.88837916,127.73985921,147.77435302734375,0.0
2025-03-08 15:35:46.438,1.375873,2.065006,2.0147567,0.12889247,-4.6063023,0.7367793,-28.087502,-46.631252,-15.731251,0.37732056,0.009476735,0.6330078,1007.8588,37.88837916,127.73985921,147.77435302734375,0.0
2025-03-08 15:35:46.458,0.8422736,1.0648061,1.9740787,0.26450446,-4.8763046,1.2944988,-29.868752,-46.66875,-13.8,0.40697834,-0.023515772,0.62084436,1007.8029,37.88837916,127.73985921,147.77435302734375,0.0
2025-03-08 15:35:46.478,2.7397819,0.083748795,0.18903299,0.3555233,-4.4548078,1.8375577,-31.500002,-46.575,-11.887501,0.44331035,-0.06686557,0.6094242,1007.8029,37.88837916,127.73985921,147.77435302734375,0.0
2025-03-08 15:35:46.499,6.0155563,0.25603202,-0.7178468,-0.2376264,-3.9710028,2.182696,-34.162502,-46.143753,-8.625,0.46850145,-0.10290997,0.60357744,1007.7724,37.88837916,127.73985921,147.77435302734375,0.0
2025-03-08 15:35:46.518,5.663811,-0.4235296,0.26081768,-0.641408,-3.9245772,2.3390777,-36.24375,-45.506252,-6.4500003,0.48788327,-0.14177896,0.5983536,1007.7724,37.88837916,127.73985921,147.77435302734375,0.0
2025-03-08 15:35:46.539,5.0081778,-1.8927227,0.26081768,-0.8619302,-3.5256824,2.7636287,-38.081253,-44.7,-4.3500004,0.50510275,-0.1927467,0.59298015,1007.7553,37.88837916,127.73985921,147.77435302734375,0.0
2025-03-08 15:35:46.558,6.245267,-2.6632116,-0.07178468,-1.043357,-3.1151812,3.1435864,-40.0875,-43.55625,-2.3812501,0.5113879,-0.22384958,0.5919355,1007.7553,37.88837916,127.73985921,147.77435302734375,0.0
2025-03-08 15:35:46.578,7.7479596,-3.225525,1.5409778,-1.2534945,-2.8940482,3.3909867,-41.25,-42.75,-1.3875,0.51424336,-0.2659715,0.593091,1007.7668,37.88837916,127.73985921,147.77435302734375,0.0
2025-03-08 15:35:46.598,7.664211,-4.0941195,2.3928227,-1.0934479,-3.00828,3.615785,-43.068752,-41.2125,0.61875004,0.51351327,-0.30828968,0.5948745,1007.7668,37.88837916,127.73985921,147.77435302734375,0.0
2025-03-08 15:35:46.618,9.5665045,-4.5966125,1.174876,-0.85948676,-3.2422411,3.733682,-45.206253,-38.86875,2.30625,0.5129937,-0.3505365,0.59622675,1007.79974,37.88837916,127.73985921,147.77435302734375,0.0
2025-03-08 15:35:46.638,10.765309,-5.697311,-0.050249275,-1.1691952,-2.6936846,3.9065566,-48.225002,-35.175003,4.65,0.51046246,-0.40245983,0.5968899,1007.79974,37.88837916,127.73985921,147.77435302734375,0.0
2025-03-08 15:35:46.658,10.068997,-6.6017976,1.3040884,-1.50456,-1.8067089,4.0837073,-49.068752,-33.956253,5.625,0.5001944,-0.44243318,0.5986524,1007.84,37.88837916,127.73985921,147.77435302734375,0.0
2025-03-08 15:35:46.678,10.193424,-7.867601,2.4741786,-1.4465278,-1.5861868,4.4129634,-50.5125,-30.937502,7.2375,0.48223042,-0.47991657,0.60347754,1007.84,37.88837916,127.73985921,147.77435302734375,0.0
2025-03-08 15:35:46.698,13.66541,-8.350951,1.8687944,-1.2583815,-1.4353032,4.4850454,-52.85625,-26.212502,9.825001,0.45685133,-0.5241898,0.61052847,1007.86224,37.88837916,127.73985921,147.77435302734375,0.0
2025-03-08 15:35:46.718,14.744574,-8.922835,0.96430755,-1.4227041,-1.2166135,4.2852926,-54.000004,-22.78125,10.9125,0.4356242,-0.5562602,0.61448586,1007.86224,37.88837916,127.73985921,147.77435302734375,0.0
2025-03-08 15:35:46.738,13.529019,-9.647861,1.7850457,-1.5974114,-0.86353374,4.1197486,-55.143753,-18.975,11.75625,0.4123208,-0.58588624,0.61663425,1007.8803,37.88837916,127.73985921,147.77435302734375,0.0
2025-03-08 15:35:46.758,13.763515,-10.260424,3.141776,-1.499673,-0.7413608,4.01468,-56.081253,-15.656251,12.225,0.38731,-0.61313426,0.6181983,1007.8803,37.88837916,127.73985921,147.77435302734375,0.0
2025-03-08 15:35:46.780,13.907085,-10.279566,3.1441689,-1.282816,-0.42065677,3.8448594,-56.11875,-12.243751,12.50625,0.3619886,-0.636346,0.62039304,1007.89056,37.88837916,127.73985921,147.77435302734375,0.0
2025-03-08 15:35:46.801,12.796816,-10.315458,2.3976083,-1.1380411,-0.22579089,3.652437,-56.287502,-9.0375,12.993751,0.33649898,-0.655352,0.6234031,1007.89056,37.88837916,127.73985921,147.77435302734375,0.0
2025-03-08 15:35:46.818,12.210574,-10.51167,2.2947168,-1.0848958,-0.21784966,3.6280022,-56.381252,-7.4062505,13.125001,0.31136757,-0.67246866,0.6258646,1007.9089,37.88837916,127.73985921,147.77435302734375,0.0
2025-03-08 15:35:46.838,12.150753,-10.097712,2.5052853,-0.95294905,-0.31375542,3.602346,-56.025,-4.1062503,13.44375,0.28667086,-0.68803984,0.62796885,1007.9089,37.88837916,127.73985921,147.77435302734375,0.0
2025-03-08 15:35:46.859,12.930814,-9.757931,2.7421749,-0.7324269,-0.3522399,3.3561676,-55.725002,0.20625001,13.762501,0.26373675,-0.7014215,0.6298734,1007.9089,37.88837916,127.73985921,147.77435302734375,0.0
2025-03-08 15:35:46.878,13.208381,-9.269794,2.8378878,-0.45203993,-0.26549712,2.9536076,-55.518753,1.575,13.837501,0.24346547,-0.7116338,0.6321108,1007.9089,37.88837916,127.73985921,147.77435302734375,0.0
2025-03-08 15:35:46.899,12.96192,-8.626125,2.5579274,-0.14416409,-0.15248711,2.4985132,-54.6375,4.3500004,14.156251,0.2263629,-0.71822554,0.6352532,1007.9079,37.88837916,127.73985921,147.77435302734375,0.0
2025-03-08 15:35:46.919,12.373286,-7.743174,1.7491534,0.18264857,-0.025427246,2.0134866,-53.30625,7.8562503,14.718751,0.20940398,-0.72187364,0.6407145,1007.9079,37.88837916,127.73985921,147.77435302734375,0.0
2025-03-08 15:35:46.938,12.02872,-7.338787,0.64845496,0.31520623,0.1419497,1.6170354,-52.93125,9.09375,15.01875,0.1988082,-0.7221392,0.64580417,1007.89764,37.88837916,127.73985921,147.77435302734375,0.0
2025-03-08 15:35:46.960,11.5932255,-7.2358956,-0.18424734,0.252898,0.4229475,1.1692716,-51.7125,12.13125,15.1125,0.18989949,-0.7213266,0.6514775,1007.89764,37.88837916,127.73985921,147.77435302734375,0.0
2025-03-08 15:35:46.978,10.779666,-6.9894347,-0.10049855,0.14172062,0.63858277,0.7929788,-51.187504,13.89375,14.56875,0.18017927,-0.71991575,0.6548975,1007.89813,37.88837916,127.73985921,147.77435302734375,0.0
2025-03-08 15:35:46.998,10.253245,-6.728617,0.20338993,0.116675176,0.76381004,0.5510764,-50.775,15.39375,14.137501,0.17496096,-0.71885043,0.6570406,1007.89813,37.88837916,127.73985921,147.77435302734375,0.0
2025-03-08 15:35:47.018,9.777073,-6.491728,0.26799613,0.15210533,0.84933114,0.24992006,-50.456253,16.181252,13.462501,0.16743577,-0.7161859,0.6604683,1007.89764,37.88837916,127.73985921,147.77435302734375,0.0
2025-03-08 15:35:47.038,9.19801,-6.690332,0.09571291,0.18936808,0.8572724,0.055054188,-49.968754,16.650002,13.1625,0.1639964,-0.7140635,0.66244715,1007.89764,37.88837916,127.73985921,147.77435302734375,0.0
2025-03-08 15:35:47.059,8.451449,-6.8171515,-0.2632105,0.20158538,0.70455617,-0.122707464,-50.081253,17.118752,12.58125,0.16009596,-0.71012866,0.66541374,1007.89374,37.88837916,127.73985921,147.77435302734375,0.0
2025-03-08 15:35:47.079,7.9704924,-6.908079,-0.46899325,0.15210533,0.44616038,-0.22899793,-49.93125,17.5125,11.775001,0.15901066,-0.70730245,0.66702384,1007.89374,37.88837916,127.73985921,147.77435302734375,0.0
2025-03-08 15:35:47.098,7.850851,-6.9702926,-0.31345975,0.1075122,0.17249294,-0.30841035,-50.025,17.681252,11.7375,0.159985,-0.70515,0.66770536,1007.8891,37.88837916,127.73985921,147.77435302734375,0.0
2025-03-08 15:35:47.118,7.733603,-6.8075805,0.062213387,0.082466744,-0.07185297,-0.40614873,-50.11875,17.56875,10.9875,0.1633691,-0.7035593,0.6675478,1007.8891,37.88837916,127.73985921,147.77435302734375,0.0
2025-03-08 15:35:47.138,7.4775705,-7.075577,0.5479564,0.115453444,-0.08040508,-0.46906778,-50.437504,17.737501,10.556251,0.16815828,-0.70154274,0.66705626,1007.8908,37.88837916,127.73985921,147.77435302734375,0.0
2025-03-08 15:35:47.158,6.8458657,-7.3603225,1.0336994,0.22479823,0.042989608,-0.4672352,-50.662502,17.23125,10.44375,0.17375787,-0.6991477,0.66740316,1007.8908,37.88837916,127.73985921,147.77435302734375,0.0
2025-03-08 15:35:47.178,6.302695,-7.2670026,1.2658032,0.41294459,0.028328855,-0.4012618,-50.737503,16.78125,10.21875,0.17750019,-0.6957388,0.66897863,1007.89594,37.88837916,127.73985921,147.77435302734375,0.0
2025-03-08 15:35:47.198,6.161518,-6.9320073,1.0169497,0.5968149,-0.05413789,-0.31451902,-51.075,16.48125,10.387501,0.18037139,-0.69246256,0.6711175,1007.89594,37.88837916,127.73985921,147.77435302734375,0.0
2025-03-08 15:35:47.218,6.242874,-6.422336,0.5096712,0.72509646,-0.14149155,-0.23021966,-51.3375,16.087502,10.181251,0.18554772,-0.6860991,0.6759434,1007.90643,37.88837916,127.73985921,147.77435302734375,0.0
2025-03-08 15:35:47.238,6.2644095,-6.003592,0.7680961,0.7788526,-0.16348268,-0.11720968,-51.54375,16.03125,9.450001,0.18982054,-0.680846,0.6801894,1007.90643,37.88837916,127.73985921,147.77435302734375,0.0
2025-03-08 15:35:47.259,7.015756,-6.3792653,0.8709874,1.0042617,-0.30398157,0.08743002,-51.787502,16.1625,9.375,0.19439463,-0.6734734,0.6868811,1007.9045,37.88837916,127.73985921,147.77435302734375,0.0
2025-03-08 15:35:47.278,8.233703,-6.977471,0.4426722,1.1734712,-0.61674434,0.11186461,-51.600002,16.425001,8.90625,0.19952379,-0.66681933,0.6931936,1007.9045,37.88837916,127.73985921,147.77435302734375,0.0
2025-03-08 15:35:47.298,9.564112,-7.1808605,-0.6580262,1.1966841,-1.0547343,0.032452192,-51.656254,16.425001,9.075001,0.20803508,-0.6600517,0.6990615,1007.9069,37.88837916,127.73985921,147.77435302734375,0.0
2025-03-08 15:35:47.318,10.760524,-7.420143,-1.2107682,0.9248493,-1.3015238,-0.12087487,-51.6375,16.48125,9.58125,0.21956995,-0.6545516,0.7027649,1007.9069,37.88837916,127.73985921,147.77435302734375,0.0
2025-03-08 15:35:47.338,11.614761,-7.4775705,-0.9092726,0.6065887,-1.3137411,-0.32123852,-51.54375,16.59375,9.69375,0.2328994,-0.6509956,0.703457,1007.9067,37.88837916,127.73985921,147.77435302734375,0.0
2025-03-08 15:35:47.358,12.201003,-7.645068,-0.21296121,0.22113305,-1.0651191,-0.68714654,-51.15,16.6875,10.1625,0.24674252,-0.64863807,0.7017888,1007.9067,37.88837916,127.73985921,147.77435302734375,0.0
2025-03-08 15:35:47.378,12.0430765,-7.570891,0.67477596,0.01527162,-0.6992111,-0.92416203,-51.05625,16.743752,10.275001,0.25986102,-0.6467685,0.6986198,1007.9233,37.88837916,127.73985921,147.77435302734375,0.0
2025-03-08 15:35:47.398,12.045469,-6.963114,1.8975084,-0.0048869182,-0.2758818,-1.2204314,-50.9625,16.44375,11.2875,0.2711942,-0.644127,0.6954195,1007.9233,37.88837916,127.73985921,147.77435302734375,0.0
2025-03-08 15:35:47.418,13.07199,-6.7740808,2.3976083,0.26816964,-0.04619665,-1.74211,-50.475002,15.918751,12.375001,0.28515452,-0.63731515,0.6929043,1007.9421,37.88837916,127.73985921,147.77435302734375,0.0
2025-03-08 15:35:47.438,12.911671,-7.0779696,1.4596218,0.52961975,-0.22334744,-2.3303728,-51.206253,14.906251,12.918751,0.30003476,-0.6280165,0.6915028,1007.9421,37.88837916,127.73985921,147.77435302734375,0.0
2025-03-08 15:35:47.458,11.899507,-7.635497,0.36131623,0.56077385,-0.473802,-2.7695847,-51.43125,14.212501,13.25625,0.31453568,-0.6195416,0.6895876,1007.93964,37.88837916,127.73985921,147.77435302734375,0.0
2025-03-08 15:35:47.478,10.559526,-8.243274,-0.39960137,0.37323838,-0.5813142,-3.0530257,-52.031254,12.675,13.031251,0.33676463,-0.60787636,0.6848163,1007.93964,37.88837916,127.73985921,147.77435302734375,0.0
2025-03-08 15:35:47.498,8.939586,-8.405986,-0.10049855,0.09224058,-0.60086185,-3.13366,-53.362503,9.76875,12.69375,0.36504745,-0.59441835,0.6753247,1007.9406,37.88837916,127.73985921,147.77435302734375,0.0
2025-03-08 15:35:47.518,8.937193,-8.097312,0.36131623,-0.02687805,-0.6717222,-3.0939538,-53.568752,8.625,12.675,0.38661733,-0.58468527,0.6658434,1007.9406,37.88837916,127.73985921,147.77435302734375,0.0
2025-03-08 15:35:47.539,9.157332,-7.948957,0.29910284,-0.07880156,-0.6802743,-3.1104472,-53.850002,6.1312504,12.825001,0.40777487,-0.5750668,0.6553082,1007.9489,37.88837916,127.73985921,147.77435302734375,0.0
2025-03-08 15:35:47.558,8.99462,-7.7814593,0.40438703,-0.10384701,-0.6442333,-3.1617599,-54.187504,3.7687502,13.687501,0.42846403,-0.5650921,0.6439485,1007.9489,37.88837916,127.73985921,147.77435302734375,0.0
2025-03-08 15:35:47.578,7.63789,-7.7671022,0.78723866,0.011606431,-0.609414,-3.052415,-54.225002,-0.65625,14.681251,0.44827464,-0.5543156,0.6325466,1007.95087,37.88837916,127.73985921,147.77435302734375,0.0
2025-03-08 15:35:47.598,7.259824,-7.34118,0.59342,0.17592905,-0.6424007,-2.7921865,-54.2625,-2.1937501,14.962501,0.46717831,-0.54316276,0.62188154,1007.95087,37.88837916,127.73985921,147.77435302734375,0.0
2025-03-08 15:35:47.618,6.853044,-6.95115,-0.63888365,0.15760311,-0.25266895,-2.5032475,-54.468754,-4.93125,15.58125,0.48408368,-0.5318406,0.61272407,1007.9504,37.88837916,127.73985921,147.77435302734375,0.0
2025-03-08 15:35:47.639,6.798009,-6.3074803,-1.0336994,-0.09651663,0.23602287,-2.2595124,-54.562504,-9.337501,16.800001,0.49902332,-0.5184108,0.60369277,1007.9504,37.88837916,127.73985921,147.77435302734375,0.0
2025-03-08 15:35:47.659,5.919843,-6.410372,-0.701097,-0.2376264,0.4266127,-2.0530403,-54.562504,-10.6125,17.025002,0.5065575,-0.50856245,0.597613,1007.957,37.88837916,127.73985921,147.77435302734375,0.0
2025-03-08 15:35:47.678,5.2402816,-6.2644095,-0.20338993,-0.17043127,0.26778784,-1.737223,-54.24375,-14.062501,17.587502,0.51202714,-0.49994156,0.5923142,1007.957,37.88837916,127.73985921,147.77435302734375,0.0
2025-03-08 15:35:47.698,4.223332,-6.0346985,-0.29671,-0.027488915,-0.093233235,-1.4605013,-53.9625,-15.375001,17.362501,0.51778716,-0.49287522,0.5872188,1007.956,37.88837916,127.73985921,147.77435302734375,0.0
2025-03-08 15:35:47.718,2.885744,-6.0490556,-1.1006985,0.023823727,-0.5318341,-0.80137825,-53.437504,-17.625,16.5375,0.526045,-0.4879904,0.58073986,1007.956,37.88837916,127.73985921,147.77435302734375,0.0
2025-03-08 15:35:47.738,3.0053852,-6.302695,-1.3734802,-0.06963859,-0.66561353,-0.1392008,-53.250004,-19.25625,16.556252,0.5310972,-0.48892656,0.57624966,1007.95526,37.88837916,127.73985921,147.77435302734375,0.0
2025-03-08 15:35:47.758,3.5557344,-5.871987,-1.3447664,-0.1753182,-0.58497936,0.38492116,-53.1375,-19.6875,16.725,0.53275007,-0.49232998,0.5739672,1007.95526,37.88837916,127.73985921,147.77435302734375,0.0
2025-03-08 15:35:47.778,3.7950168,-5.4053864,-1.6342978,-0.42577276,-0.07918335,1.0251075,-53.11875,-20.400002,17.475,0.53015333,-0.50135607,0.57308453,1007.9609,37.88837916,127.73985921,147.77435302734375,0.0
2025-03-08 15:35:47.798,3.7734814,-5.328816,-0.74416786,-0.61514086,0.27145302,1.4117849,-53.04375,-20.56875,17.475,0.52178013,-0.51088434,0.57547206,1007.9609,37.88837916,127.73985921,147.77435302734375,0.0
2025-03-08 15:35:47.819,3.7854455,-5.828916,0.45702913,-0.5400045,0.48403397,1.8436663,-52.968754,-20.41875,17.6625,0.5086968,-0.5216806,0.5806659,1007.96136,37.88837916,127.73985921,147.77435302734375,0.0
2025-03-08 15:35:47.840,3.9601214,-6.5946193,0.7728817,-0.17409647,0.3728566,2.296317,-53.550003,-19.237501,17.0625,0.49331343,-0.53282386,0.5887486,1007.96136,37.88837916,127.73985921,147.77435302734375,0.0
2025-03-08 15:35:47.858,4.5726843,-7.3698936,0.32063824,0.15210533,0.20181446,2.5931973,-53.831253,-18.5625,17.081251,0.4777197,-0.5440445,0.5988761,1007.96674,37.88837916,127.73985921,147.77435302734375,0.0
2025-03-08 15:35:47.879,5.2737813,-7.905886,-0.5312066,0.3329213,0.14744748,2.7898958,-54.187504,-15.675,16.875,0.45824197,-0.5576743,0.6131692,1007.96674,37.88837916,127.73985921,147.77435302734375,0.0
2025-03-08 15:35:47.898,5.804988,-8.109276,-1.2083755,0.2913825,0.20853396,2.861367,-54.881252,-13.481251,16.725,0.44201344,-0.56835544,0.62465924,1007.9653,37.88837916,127.73985921,147.77435302734375,0.0
2025-03-08 15:35:47.918,5.9030933,-8.116454,-1.7443677,0.02932151,0.46021026,2.865643,-54.956253,-10.9875,16.3875,0.4195976,-0.58180165,0.63791436,1007.9653,37.88837916,127.73985921,147.77435302734375,0.0
2025-03-08 15:35:47.938,5.9150577,-8.001599,-1.9788643,-0.2290743,0.6801216,2.8491497,-55.0875,-8.231251,15.7875,0.404373,-0.5902205,0.6449287,1007.95966,37.88837916,127.73985921,147.77435302734375,0.0
2025-03-08 15:35:47.958,5.802595,-7.7503524,-1.7754744,-0.63224506,0.97944534,2.8100543,-55.36875,-6.9375005,15.4875,0.38150835,-0.60223556,0.6527646,1007.95966,37.88837916,127.73985921,147.77435302734375,0.0
2025-03-08 15:35:47.978,5.7116675,-7.958528,-1.2346965,-0.98593575,1.1517092,2.7905066,-55.631252,-4.5750003,14.6625,0.35603923,-0.6152964,0.6585594,1007.96454,37.88837916,127.73985921,147.77435302734375,0.0
2025-03-08 15:35:47.999,5.508278,-8.465807,-0.36370903,-1.2834269,1.1181116,2.8399868,-55.687504,-0.75,13.762501,0.32183543,-0.63299876,0.66294783,1007.96454,37.88837916,127.73985921,147.77435302734375,0.0
2025-03-08 15:35:48.018,5.302495,-8.841479,0.24646074,-1.3787218,0.92813265,2.9584944,-55.74375,0.3,13.425,0.30087972,-0.6442544,0.66417545,1007.9709,37.88837916,127.73985921,147.77435302734375,0.0
2025-03-08 15:35:48.039,5.6350975,-9.176475,0.88295156,-1.3799435,0.7454841,3.1973426,-55.593754,2.6437502,12.843751,0.27267522,-0.659713,0.6647688,1007.9709,37.88837916,127.73985921,147.77435302734375,0.0
2025-03-08 15:35:48.058,6.8315086,-9.489935,1.4668003,-1.3029746,0.546953,3.3806021,-55.500004,4.9500003,12.337501,0.24407242,-0.67500275,0.6648253,1007.9843,37.88837916,127.73985921,147.77435302734375,0.0
2025-03-08 15:35:48.079,8.233703,-9.298509,2.4430718,-1.097724,0.3184896,3.3830454,-54.45,8.587501,11.625,0.20923698,-0.69252217,0.6645051,1007.9843,37.88837916,127.73985921,147.77435302734375,0.0
2025-03-08 15:35:48.100,8.822337,-8.977871,4.3812585,-0.54855657,0.12606722,3.3079093,-53.531254,11.08125,11.19375,0.1775227,-0.7059836,0.6653145,1007.99896,37.88837916,127.73985921,147.77435302734375,0.0
2025-03-08 15:35:48.120,9.243474,-8.829515,4.5008993,0.032986697,0.15538873,3.277366,-52.95,12.243751,11.175,0.16006829,-0.71034867,0.6684183,1007.99896,37.88837916,127.73985921,147.77435302734375,0.0
2025-03-08 15:35:48.141,10.365707,-9.097511,2.0554347,0.7055488,0.36430448,3.0751696,-51.037502,16.25625,11.19375,0.13224226,-0.7108656,0.67863554,1008.0136,37.88837916,127.73985921,147.77435302734375,0.0
2025-03-08 15:35:48.159,10.336994,-8.848659,-0.2656033,0.763581,0.58665925,2.8002806,-49.331253,18.91875,11.137501,0.11135617,-0.7081286,0.6879747,1008.0136,37.88837916,127.73985921,147.77435302734375,0.0
2025-03-08 15:35:48.179,9.891929,-8.659625,-1.8735801,0.39645123,0.83222693,2.617632,-47.5125,21.35625,10.725,0.090384625,-0.70576155,0.6953575,1008.00726,37.88836783,127.73985725,148.15264892578125,0.73
2025-03-08 15:35:48.200,10.461421,-8.377272,-1.3926228,-0.16615522,0.8584941,2.3702316,-45.787502,23.643751,10.40625,0.06912322,-0.70601785,0.6988517,1008.00726,37.88836783,127.73985725,148.15264892578125,0.73
2025-03-08 15:35:48.220,11.442478,-8.559127,0.10049855,-0.40561423,0.6501892,2.0012693,-43.85625,25.706251,9.431251,0.04995213,-0.7084837,0.69894874,1007.9948,37.88836783,127.73985725,148.15264892578125,0.73
2025-03-08 15:35:48.239,12.203396,-9.21476,1.0743774,-0.38423395,0.42539096,1.5504512,-42.46875,27.300001,8.887501,0.035139028,-0.7113403,0.69766253,1007.9948,37.88836783,127.73985725,148.15264892578125,0.73
2025-03-08 15:35:48.258,12.9954195,-10.258031,0.7920243,-0.33902994,0.36002842,1.1069634,-42.018753,28.087502,8.625,0.024995856,-0.71353745,0.6963029,1008.00726,37.88836783,127.73985725,148.15264892578125,0.73
2025-03-08 15:35:48.278,12.856636,-10.746166,0.36370903,-0.49357873,0.5170207,0.52236575,-39.99375,30.206251,8.306251,0.018431121,-0.71573555,0.69428575,1008.00726,37.88836783,127.73985725,148.15264892578125,0.73
2025-03-08 15:35:48.300,12.332608,-10.918449,1.0073783,-0.70860314,0.86643535,0.0410043,-39.61875,31.06875,8.118751,0.012552389,-0.7197593,0.6895693,1008.0114,37.88836783,127.73985725,148.15264892578125,0.73
2025-03-08 15:35:48.321,11.985648,-10.671989,2.3976083,-0.75502884,1.0277036,-0.382325,-39.2625,31.687502,7.8187504,0.00876962,-0.72351635,0.6844334,1008.0114,37.88836783,127.73985725,148.15264892578125,0.73
2025-03-08 15:35:48.338,11.229517,-9.891929,3.845266,-0.49480048,0.9507347,-0.7305179,-38.98125,31.66875,7.8562503,0.007509503,-0.7256617,0.6808343,1008.0285,37.88836783,127.73985725,148.15264892578125,0.73
2025-03-08 15:35:48.358,10.2723875,-9.150154,4.398008,0.11606431,0.4486038,-1.1049781,-39.375,31.425001,7.5937505,0.010698666,-0.7254744,0.67831755,1008.0285,37.88836783,127.73985725,148.15264892578125,0.73
2025-03-08 15:35:48.378,9.954143,-9.346365,3.562913,0.61025393,-0.34735298,-1.4586687,-39.43125,31.29375,7.4062505,0.020739263,-0.7218664,0.6799631,1008.0263,37.88836783,127.73985725,148.15264892578125,0.73
2025-03-08 15:35:48.398,9.765109,-10.049855,2.225325,0.87292576,-1.1506401,-1.80564,-40.050003,30.50625,7.6125,0.03904881,-0.7165867,0.6833462,1008.0263,37.88836783,127.73985725,148.15264892578125,0.73
2025-03-08 15:35:48.418,10.12164,-11.363515,1.0839486,0.7959568,-1.8659629,-2.1935391,-41.4,29.56875,7.6687503,0.071620315,-0.7098853,0.6867478,1008.0207,37.88836783,127.73985725,148.15264892578125,0.73
2025-03-08 15:35:48.438,10.762917,-12.344572,0.9523434,0.5583304,-2.190943,-2.4977498,-42.2625,28.368752,7.9500003,0.0949164,-0.7066372,0.6865287,1008.0207,37.88836783,127.73985725,148.15264892578125,0.73
2025-03-08 15:35:48.458,11.375479,-13.277773,1.5314065,0.27855435,-2.403524,-2.9510114,-43.162502,27.562502,8.55,0.12961973,-0.7033574,0.6840357,1008.0275,37.88836783,127.73985725,148.15264892578125,0.73
2025-03-08 15:35:48.478,11.152946,-13.095919,2.565106,0.13683371,-2.3338852,-3.4054947,-44.2125,26.325,9.46875,0.1675401,-0.700184,0.6779827,1008.0275,37.88836783,127.73985725,148.15264892578125,0.73
2025-03-08 15:35:48.499,10.535598,-12.5551405,3.1058838,0.21013749,-1.6161191,-3.8911324,-46.143753,22.9125,11.26875,0.21606663,-0.6935589,0.6683142,1008.028,37.88836783,127.73985725,148.15264892578125,0.73
2025-03-08 15:35:48.518,10.076176,-12.217752,2.7732813,0.31703883,-0.7883974,-4.2057276,-46.800003,22.03125,11.75625,0.25167406,-0.6841837,0.6612048,1008.028,37.88836783,127.73985725,148.15264892578125,0.73
2025-03-08 15:35:48.538,9.171689,-12.294323,2.3688943,0.48319405,-0.09689843,-4.5465903,-48.131252,19.5375,12.88125,0.2835707,-0.67061216,0.6553125,1008.02435,37.88836783,127.73985725,148.15264892578125,0.73
2025-03-08 15:35:48.558,7.446464,-12.229716,1.9142581,0.72448564,0.0881936,-4.7842164,-49.593754,16.518751,13.743751,0.3138793,-0.652995,0.6501782,1008.02435,37.88836783,127.73985725,148.15264892578125,0.73
2025-03-08 15:35:48.578,5.6470613,-11.806187,1.1318051,0.9944879,-0.16898046,-4.7665014,-52.031254,11.681251,14.343751,0.35242924,-0.62708837,0.64341813,1008.02386,37.88836783,127.73985725,148.15264892578125,0.73
2025-03-08 15:35:48.599,5.1014977,-11.188839,0.24885355,1.1062762,-0.50801045,-4.6088986,-53.23125,7.9687505,14.75625,0.38405573,-0.6050673,0.63687134,1008.02386,37.88836783,127.73985725,148.15264892578125,0.73
2025-03-08 15:35:48.620,4.843073,-10.514063,-0.7680961,1.011592,-0.85253817,-4.444576,-54.525,3.7125,15.0375,0.41616815,-0.5834556,0.62826955,1008.0109,37.88836783,127.73985725,148.15264892578125,0.73
2025-03-08 15:35:48.640,4.505685,-10.052248,-1.2083755,0.7110466,-1.074282,-4.212447,-55.068752,-0.28125,15.225,0.44777963,-0.56354713,0.61678046,1008.0109,37.88836783,127.73985725,148.15264892578125,0.73
2025-03-08 15:35:48.658,4.4458647,-9.724431,-1.0408778,0.3988947,-1.1848485,-4.0065856,-54.862503,-3.8812501,15.8625,0.47758675,-0.5459182,0.602559,1008.0007,37.88836783,127.73985725,148.15264892578125,0.73
2025-03-08 15:35:48.679,3.7543387,-9.269794,-0.3493521,0.17043127,-1.060843,-3.7280314,-54.9,-7.8750005,16.425001,0.50471944,-0.5302555,0.5865585,1008.0007,37.88836783,127.73985725,148.15264892578125,0.73
2025-03-08 15:35:48.698,3.3786657,-8.769695,0.069391854,0.0971275,-0.78717566,-3.4433684,-54.7125,-9.637501,16.81875,0.527946,-0.5156633,0.5709017,1007.9926,37.88836783,127.73985725,148.15264892578125,0.73
2025-03-08 15:35:48.718,2.8881369,-9.19801,-0.39481574,0.08735366,-0.16226095,-3.002324,-53.156254,-14.6625,18.28125,0.55037063,-0.4972886,0.5550177,1007.9926,37.88836783,127.73985725,148.15264892578125,0.73
2025-03-08 15:35:48.738,2.5507488,-9.628718,-0.715454,0.08429934,-0.04741838,-2.564334,-52.3875,-17.925001,19.0125,0.5634427,-0.48311192,0.5455904,1007.9892,37.88836783,127.73985725,148.15264892578125,0.73
2025-03-08 15:35:48.758,2.1104696,-9.882358,-0.72502524,0.12095123,-0.32047492,-1.9834015,-51.281254,-20.5125,19.5375,0.5742813,-0.4716381,0.53749526,1007.9892,37.88836783,127.73985725,148.15264892578125,0.73
2025-03-08 15:35:48.778,1.6797615,-9.265009,-0.782453,0.17715079,-0.76457363,-1.1721731,-50.41875,-22.650002,19.893751,0.584028,-0.46486062,0.52992254,1007.9914,37.88836783,127.73985725,148.15264892578125,0.73
2025-03-08 15:35:48.798,1.1294123,-8.425129,-1.4979069,0.13072506,-0.84704036,-0.3786598,-49.8375,-24.50625,20.19375,0.59219575,-0.4631688,0.5234241,1007.9914,37.88836783,127.73985725,148.15264892578125,0.73
2025-03-08 15:35:48.818,0.701097,-7.5661054,-1.9884356,-0.06536253,-0.50801045,0.39530587,-49.3875,-25.29375,20.306252,0.59601,-0.46633098,0.51986784,1007.9821,37.88836783,127.73985725,148.15264892578125,0.73
2025-03-08 15:35:48.838,0.97866446,-6.472585,-1.5816557,-0.38912088,0.0674242,1.266399,-48.91875,-26.343752,20.5125,0.5925019,-0.474006,0.52095896,1007.9821,37.88836783,127.73985725,148.15264892578125,0.73
2025-03-08 15:35:48.858,2.1367905,-6.2404814,-0.059820566,-0.53145236,0.7876338,2.0819035,-48.45,-26.643751,21.2625,0.5808765,-0.48513505,0.52739394,1007.97943,37.88836783,127.73985725,148.15264892578125,0.73
2025-03-08 15:35:48.881,4.1587257,-7.5062847,0.61734825,-0.23090689,1.1578178,2.5559347,-48.656254,-26.250002,21.112501,0.5580508,-0.5002272,0.54299587,1007.97943,37.88836783,127.73985725,148.15264892578125,0.73
2025-03-08 15:35:48.898,4.362116,-8.683554,-0.124426775,0.11423171,1.084514,2.7520223,-49.2,-25.837502,20.94375,0.54278505,-0.5085022,0.5551624,1007.9726,37.88836783,127.73985725,148.15264892578125,0.73
2025-03-08 15:35:48.918,3.6729827,-9.925428,-2.0434706,0.32131487,0.5170207,3.1527495,-50.718754,-23.493752,20.456251,0.5185019,-0.5227023,0.57602745,1007.9726,37.88836783,127.73985725,148.15264892578125,0.73
2025-03-08 15:35:48.939,3.6323047,-9.669396,-2.8498518,0.17898338,0.1523344,3.5730245,-52.031254,-21.46875,19.6875,0.49972156,-0.5371845,0.59088683,1007.9609,37.88836783,127.73985725,148.15264892578125,0.73
2025-03-08 15:35:48.960,4.651647,-9.671789,-3.3714871,-0.1802051,0.37407833,3.9474845,-53.23125,-18.75,19.2,0.47267696,-0.5595415,0.6072571,1007.9609,37.88836783,127.73985725,148.15264892578125,0.73
2025-03-08 15:35:48.978,5.4556355,-9.355937,-3.07717,-0.68050337,0.83283776,4.052553,-53.550003,-17.081251,19.06875,0.45228073,-0.5743824,0.6162419,1007.95844,37.88836783,127.73985725,148.15264892578125,0.73
2025-03-08 15:35:48.998,6.0251274,-8.975478,-1.579263,-1.1691952,1.4351504,4.0385036,-54.318752,-13.668751,18.54375,0.4196636,-0.59477603,0.6269945,1007.95844,37.88836783,127.73985725,148.15264892578125,0.73
2025-03-08 15:35:49.018,6.15434,-8.73141,0.08135597,-1.4251475,1.7754021,3.8833437,-55.275,-7.9500003,17.400002,0.38262916,-0.61443216,0.636293,1007.965,37.88836783,127.73985725,148.15264892578125,0.73
2025-03-08 15:35:49.040,5.4029937,-8.633304,1.012164,-1.3976586,1.7179809,3.7587273,-55.893753,-4.36875,16.2,0.33481005,-0.636631,0.6457243,1007.965,37.88836783,127.73985725,148.15264892578125,0.73
2025-03-08 15:35:49.060,4.570291,-9.236296,1.1222339,-1.2956442,1.3624575,3.9065566,-56.193752,-0.99375004,14.6625,0.29717803,-0.6527647,0.65187424,1007.9826,37.88836783,127.73985725,148.15264892578125,0.73
2025-03-08 15:35:49.078,5.1062837,-9.810573,1.0959128,-1.2388338,0.91835886,4.1582327,-55.65,2.2125,13.125001,0.26060763,-0.6687751,0.65663004,1007.9826,37.88836783,127.73985725,148.15264892578125,0.73
2025-03-08 15:35:49.100,7.34118,-10.279566,1.6438692,-1.1191043,0.49869475,4.3726463,-55.2,5.4,11.606251,0.224901,-0.68463916,0.66008866,1007.98724,37.88836783,127.73985725,148.15264892578125,0.73
2025-03-08 15:35:49.118,8.889337,-10.224531,2.548356,-0.85704327,0.10957387,4.2449756,-54.54375,7.0687504,11.2875,0.19156444,-0.69881773,0.66271174,1007.98724,37.88836783,127.73985725,148.15264892578125,0.73
2025-03-08 15:35:49.138,9.446864,-9.868001,3.641876,-0.23823726,-0.49396053,3.9535933,-52.443752,11.868751,9.993751,0.16349672,-0.7094979,0.66564876,1007.99554,37.88836783,127.73985725,148.15264892578125,0.73
2025-03-08 15:35:49.160,10.205389,-10.686346,2.821138,0.69638586,-0.9044617,3.7794967,-51.300003,14.962501,10.012501,0.13674086,-0.7155194,0.67309034,1007.99554,37.88836783,127.73985725,148.15264892578125,0.73
2025-03-08 15:35:49.178,11.100305,-11.200803,-0.46181476,1.1496475,-0.7077632,3.792325,-49.275,18.018751,10.63125,0.11813706,-0.7142468,0.6829978,1008.00604,37.88835034,127.73986714,147.9412841796875,2.56
2025-03-08 15:35:49.198,13.471592,-10.722239,-3.7974095,0.6627883,0.0051159924,3.4105344,-47.04375,21.28125,11.175,0.092849776,-0.71084714,0.6942701,1008.00604,37.88835034,127.73986714,147.9412841796875,2.56
2025-03-08 15:35:49.218,14.699109,-10.427921,-3.8763726,-0.13377939,0.37530005,2.879082,-44.5875,24.393751,11.512501,0.07204827,-0.71187496,0.69709295,1007.9843,37.88835034,127.73986714,147.9412841796875,2.56
2025-03-08 15:35:49.239,15.383457,-10.707881,-1.591227,-0.7672462,0.5103012,2.2553892,-43.3125,25.85625,11.4375,0.05808756,-0.7156346,0.69505376,1007.9843,37.88835034,127.73986714,147.9412841796875,2.56
2025-03-08 15:35:49.258,15.931413,-11.078769,0.93320084,-1.0085378,0.5603921,1.5309035,-40.725002,28.425001,11.19375,0.043063063,-0.72233796,0.6894914,1007.9826,37.88835034,127.73986714,147.9412841796875,2.56
2025-03-08 15:35:49.278,16.354942,-10.980663,2.9647074,-0.90285814,0.5341249,0.42829257,-38.175003,30.6375,10.650001,0.032313727,-0.73012495,0.6818363,1007.9826,37.88835034,127.73986714,147.9412841796875,2.56
2025-03-08 15:35:49.299,14.998212,-11.380264,3.6921253,-0.6530144,0.7259364,-0.30841035,-37.65,31.10625,10.725,0.030309943,-0.73347944,0.67808396,1008.0014,37.88835034,127.73986714,147.9412841796875,2.56
2025-03-08 15:35:49.318,12.847065,-11.7463665,3.885944,-0.18203771,1.0038799,-0.838641,-36.675003,31.800001,11.025001,0.03048693,-0.7354746,0.67517877,1008.0014,37.88835034,127.73986714,147.9412841796875,2.56
2025-03-08 15:35:49.339,11.294123,-11.614761,2.629712,0.43799004,0.7766382,-1.1666753,-37.10625,31.44375,11.45625,0.033009753,-0.7328745,0.676234,1008.0131,37.88835034,127.73986714,147.9412841796875,2.56
2025-03-08 15:35:49.358,11.827723,-12.679567,1.0671989,0.6493493,-0.008323032,-1.4898229,-37.6875,31.2,11.3625,0.0405014,-0.728017,0.67957145,1008.0131,37.88835034,127.73986714,147.9412841796875,2.56
2025-03-08 15:35:49.378,11.782259,-12.569497,0.148355,0.6316342,-1.1353686,-2.021886,-38.53125,30.31875,11.0625,0.057607576,-0.722869,0.68267244,1008.01654,37.88835034,127.73986714,147.9412841796875,2.56
2025-03-08 15:35:49.398,11.703296,-12.272787,-0.0741775,0.4581486,-1.5367067,-2.4806454,-39.0,29.906252,10.81875,0.083347835,-0.7184726,0.6837603,1008.01654,37.88835034,127.73986714,147.9412841796875,2.56
2025-03-08 15:35:49.419,12.040684,-12.930814,-0.083748795,0.16371176,-1.6552144,-3.0933428,-39.65625,29.268751,10.650001,0.11449094,-0.7149197,0.68178475,1008.01874,37.88835034,127.73986714,147.9412841796875,2.56
2025-03-08 15:35:49.438,11.109876,-14.065011,0.51206404,-0.12034036,-1.558087,-3.74819,-40.7625,28.218752,10.81875,0.14962068,-0.7117651,0.6763059,1008.01874,37.88835034,127.73986714,147.9412841796875,2.56
2025-03-08 15:35:49.458,9.202796,-13.670196,1.3112668,-0.24068072,-1.2178353,-3.9638252,-43.331253,25.556252,12.150001,0.19467185,-0.7067844,0.66619164,1008.02435,37.88835034,127.73986714,147.9412841796875,2.56
2025-03-08 15:35:49.478,9.174082,-12.4426775,2.268396,-0.20891576,-1.0638974,-4.1067677,-44.9625,23.34375,12.825001,0.2288519,-0.70116735,0.657051,1008.02435,37.88835034,127.73986714,147.9412841796875,2.56
2025-03-08 15:35:49.498,9.133404,-11.880364,3.101098,0.028099779,-1.1280382,-4.3993716,-45.91875,22.03125,13.312501,0.25502372,-0.69524586,0.6499646,1008.0324,37.88835034,127.73986714,147.9412841796875,2.56
2025-03-08 15:35:49.520,8.322237,-11.794223,2.5411777,0.3988947,-1.1701878,-4.813538,-48.412502,17.775002,14.793751,0.30196768,-0.6803936,0.63834345,1008.0324,37.88835034,127.73986714,147.9412841796875,2.56
2025-03-08 15:35:49.539,7.503892,-11.873186,1.4763715,0.5424479,-0.9747111,-4.989467,-48.99375,16.25625,15.075001,0.34086272,-0.66420096,0.62894446,1008.03754,37.88835034,127.73986714,147.9412841796875,2.56
2025-03-08 15:35:49.560,5.5106707,-11.763116,0.30149564,0.54611313,-0.2880991,-4.8795114,-51.43125,10.78125,16.95,0.38557497,-0.6400475,0.6174851,1008.03754,37.88835034,127.73986714,147.9412841796875,2.56
2025-03-08 15:35:49.578,4.5224347,-11.248659,-0.26081768,0.4905244,0.072921984,-4.6596003,-52.48125,6.8812504,17.831251,0.4084779,-0.6243782,0.6111617,1008.029,37.88835034,127.73986714,147.9412841796875,2.56
2025-03-08 15:35:49.598,3.9194436,-10.191031,-0.40438703,0.40989026,0.17615813,-4.3419504,-53.4,2.86875,18.31875,0.44124964,-0.59798235,0.6008198,1008.029,37.88835034,127.73986714,147.9412841796875,2.56
2025-03-08 15:35:49.618,4.453043,-9.640682,-0.5455636,0.3518581,0.08147409,-4.1525826,-53.68125,0.95625,18.73125,0.45894882,-0.5825579,0.59414375,1008.02216,37.88835034,127.73986714,147.9412841796875,2.56
2025-03-08 15:35:49.639,4.386044,-9.128618,-0.47856453,0.30482152,-0.13416117,-4.0530114,-53.925003,-4.875,18.73125,0.48744932,-0.5576065,0.58110315,1008.02216,37.88835034,127.73986714,147.9412841796875,2.56
2025-03-08 15:35:49.658,3.522235,-9.250652,-0.63170516,0.31337363,-0.14026983,-3.860589,-53.775,-9.13125,18.618752,0.50955695,-0.5379444,0.5693921,1008.01434,37.88835034,127.73986714,147.9412841796875,2.56
2025-03-08 15:35:49.678,2.8235307,-9.284152,-0.8853444,0.29871288,-0.07612903,-3.5026224,-53.23125,-11.19375,18.69375,0.5292158,-0.51895463,0.55821043,1008.01434,37.88835034,127.73986714,147.9412841796875,2.56
2025-03-08 15:35:49.699,2.7038896,-9.736395,-1.3974084,0.24678937,-0.19891284,-3.0408084,-52.74375,-17.268751,18.900002,0.54631454,-0.50162405,0.5477209,1008.0053,37.88835034,127.73986714,147.9412841796875,2.56
2025-03-08 15:35:49.720,2.6751757,-9.856036,-1.5888343,0.18509203,-0.4994583,-2.550895,-51.675003,-20.38125,18.84375,0.56532896,-0.48411378,0.53444564,1008.0053,37.88835034,127.73986714,147.9412841796875,2.56
2025-03-08 15:35:49.738,1.9381863,-9.518648,-1.8903298,0.09224058,-0.658894,-2.0958006,-51.375004,-21.675001,19.06875,0.57567394,-0.4762546,0.526339,1007.9992,37.88835034,127.73986714,147.9412841796875,2.56
2025-03-08 15:35:49.758,0.51206404,-8.623733,-2.0554347,-0.10140356,-0.60452706,-1.4024692,-50.79375,-23.681252,19.425001,0.58708626,-0.46936303,0.51616436,1007.9992,37.88835034,127.73986714,147.9412841796875,2.56
2025-03-08 15:35:49.778,-0.12921242,-8.288737,-1.9980069,-0.30726498,-0.24717116,-0.52038044,-49.8375,-26.00625,19.800001,0.59343743,-0.4670133,0.50877565,1008.00165,37.88835034,127.73986714,147.9412841796875,2.56
2025-03-08 15:35:49.798,-0.30388847,-8.338987,-1.6654046,-0.47647452,0.19204062,0.55168724,-48.61875,-27.768751,20.34375,0.5918925,-0.47050422,0.50648147,1008.00165,37.88835034,127.73986714,147.9412841796875,2.56
2025-03-08 15:35:49.818,0.66041905,-9.049655,-1.3495519,-0.5540544,0.55245084,1.4814235,-48.131252,-28.087502,20.41875,0.5829915,-0.47836554,0.5107901,1007.98627,37.88835034,127.73986714,147.9412841796875,2.56
2025-03-08 15:35:49.838,1.6654046,-10.018748,-1.4476577,-0.5913171,0.78335774,2.2902083,-47.90625,-28.48125,20.38125,0.56790745,-0.49006647,0.5201587,1007.98627,37.88835034,127.73986714,147.9412841796875,2.56
2025-03-08 15:35:49.859,3.0125637,-10.805987,-0.9451649,-0.6200278,0.58360493,3.1332018,-48.581253,-27.2625,19.800001,0.5427132,-0.5101124,0.5357693,1007.98456,37.88835034,127.73986714,147.9412841796875,2.56
2025-03-08 15:35:49.878,4.412365,-10.801202,-0.526421,-0.5393936,0.2775617,3.5766897,-48.99375,-26.7,19.35,0.5259072,-0.5248589,0.5456196,1007.98456,37.88835034,127.73986714,147.9412841796875,2.56
2025-03-08 15:35:49.899,5.6709895,-10.169497,0.13878371,-0.3591885,0.14072797,3.8399723,-50.1375,-24.806252,18.88125,0.49690947,-0.5512693,0.56200033,1007.98895,37.88835034,127.73986714,147.9412841796875,2.56
2025-03-08 15:35:49.920,5.453243,-9.406186,-0.53599226,-0.14844014,0.56100297,4.049499,-52.18125,-21.0,18.1875,0.47209132,-0.5706945,0.576558,1007.98895,37.88835034,127.73986714,147.9412841796875,2.56
2025-03-08 15:35:49.938,5.1589255,-9.15494,-1.1174482,-0.24006985,0.96111935,4.2009935,-52.875004,-19.6875,17.71875,0.44367707,-0.58823115,0.5926465,1007.98065,37.88835034,127.73986714,147.9412841796875,2.56
2025-03-08 15:35:49.958,4.981857,-8.7577305,-0.8279166,-0.45570514,1.2867103,4.4031897,-54.54375,-14.587501,16.96875,0.41078472,-0.60502714,0.6088833,1007.98065,37.88835034,127.73986714,147.9412841796875,2.56
2025-03-08 15:35:49.979,5.56092,-8.3174515,-0.20578274,-0.56077385,1.2683843,4.52353,-55.10625,-13.181251,16.331251,0.37454346,-0.62160355,0.6240723,1007.9858,37.88835034,127.73986714,147.9412841796875,2.56
2025-03-08 15:35:49.998,7.075577,-8.082955,0.22253251,-0.5546652,1.0032691,4.4532804,-55.687504,-9.675,15.13125,0.33789957,-0.6376577,0.6371629,1007.9858,37.88835034,127.73986714,147.9412841796875,2.56
2025-03-08 15:35:50.018,7.7814593,-8.60459,0.42592242,-0.45937032,0.6880628,4.2278714,-56.325,-4.125,13.70625,0.29503274,-0.65558195,0.65034854,1007.9838,37.88835034,127.73986714,147.9412841796875,2.56
2025-03-08 15:35:50.038,7.834101,-9.128618,0.41635114,-0.37323838,0.42355835,4.116083,-56.362503,-2.4,13.312501,0.27141756,-0.6650744,0.6568262,1007.9838,37.88835034,127.73986714,147.9412841796875,2.56
2025-03-08 15:35:50.059,8.097312,-9.489935,0.6436693,-0.216857,0.15477787,4.040947,-55.818752,1.81875,12.6,0.24209462,-0.6764379,0.6642625,1007.9814,37.88835034,127.73986714,147.9412841796875,2.56
2025-03-08 15:35:50.079,8.56152,-9.879965,-0.021535404,-0.06475167,0.20181446,3.9847474,-54.45,7.55625,12.056251,0.20775299,-0.6878912,0.67285585,1007.9814,37.88835034,127.73986714,147.9412841796875,2.56
2025-03-08 15:35:50.098,8.9826565,-10.10489,-0.4235296,-0.14355323,0.49258608,3.9132762,-53.5875,9.46875,11.85,0.17948833,-0.69521093,0.6790689,1007.98065,37.88835034,127.73986714,147.9412841796875,2.56
2025-03-08 15:35:50.118,9.375079,-9.896714,-0.27756742,-0.29199335,0.6428588,3.651826,-51.562504,14.493751,11.512501,0.14322309,-0.70317656,0.6845787,1007.98065,37.88835034,127.73986714,147.9412841796875,2.56
2025-03-08 15:35:50.138,9.444471,-10.001999,0.069391854,-0.36651886,0.6172025,3.47101,-50.9625,15.937501,11.2875,0.12220389,-0.70753247,0.6865171,1007.9787,37.88835034,127.73986714,147.9412841796875,2.56
2025-03-08 15:35:50.159,9.908679,-10.80838,0.8709874,-0.3176497,0.2702313,3.2834744,-48.318752,20.362501,10.668751,0.09003148,-0.71387994,0.6882388,1007.9787,37.88835034,127.73986714,147.9412841796875,2.56
2025-03-08 15:35:50.178,11.564512,-11.1936245,1.1030912,-0.12828161,0.02527453,3.0446265,-46.40625,23.025002,10.387501,0.068074346,-0.7173747,0.6893871,1007.97797,37.88833751,127.73987382,148.5701904296875,1.83
2025-03-08 15:35:50.198,12.732209,-11.521441,0.46181476,-0.05131264,-0.0712421,2.6298492,-45.46875,24.16875,10.293751,0.05421293,-0.7188005,0.6904231,1007.97797,37.88833751,127.73987382,148.5701904296875,1.83
2025-03-08 15:35:50.219,13.380664,-11.499906,-0.062213387,-0.14782928,0.047265664,2.0733514,-43.29375,26.38125,10.275001,0.039347026,-0.72013116,0.6911792,1007.9748,37.88833751,127.73987382,148.5701904296875,1.83
2025-03-08 15:35:50.239,13.552947,-11.224731,-0.08135597,-0.41416633,0.3985129,1.4166718,-41.175003,28.1625,10.3125,0.024528598,-0.72254986,0.68996644,1007.9748,37.88833751,127.73987382,148.5701904296875,1.83
2025-03-08 15:35:50.261,13.66541,-10.8251295,1.5026926,-0.6261364,0.6446914,0.65003645,-38.5125,30.525002,10.556251,0.013171923,-0.7267953,0.6858662,1007.9821,37.88833751,127.73987382,148.5701904296875,1.83
2025-03-08 15:35:50.278,13.598412,-11.184053,2.4430718,-0.54855657,0.68378675,0.16562071,-37.78125,31.25625,10.368751,0.008986624,-0.7293046,0.6830971,1007.9821,37.88833751,127.73987382,148.5701904296875,1.83
2025-03-08 15:35:50.298,12.77528,-10.518848,3.2470603,-0.23457208,0.6935606,-0.50510883,-36.862503,32.11875,10.35,0.0071158465,-0.7313029,0.68049085,1008.007,37.88833751,127.73987382,148.5701904296875,1.83
2025-03-08 15:35:50.318,12.358929,-10.99502,2.952743,0.09346231,0.44432777,-1.0298417,-36.300003,32.68125,10.44375,0.009438516,-0.7310569,0.67987293,1008.007,37.88833751,127.73987382,148.5701904296875,1.83
2025-03-08 15:35:50.339,11.913864,-12.643675,2.3234308,0.3848448,-0.3559051,-1.4598905,-36.487503,32.49375,10.106251,0.018178651,-0.72885454,0.681006,1008.02313,37.88833751,127.73987382,148.5701904296875,1.83
2025-03-08 15:35:50.359,12.1459675,-12.9954195,1.012164,0.43065968,-1.3980404,-1.9155955,-37.7625,31.650002,10.35,0.041447517,-0.7247558,0.6834311,1008.02313,37.88833751,127.73987382,148.5701904296875,1.83
2025-03-08 15:35:50.379,12.02872,-12.9236355,1.0648061,0.19120067,-1.6161191,-2.505691,-38.568752,30.88125,10.181251,0.06853811,-0.7221271,0.68347675,1008.0253,37.88833751,127.73987382,148.5701904296875,1.83
2025-03-08 15:35:50.398,11.755938,-13.722837,1.9405792,0.056199558,-1.3888774,-3.1721444,-39.825,29.831251,10.3125,0.10699899,-0.7191156,0.6802647,1008.0253,37.88833751,127.73987382,148.5701904296875,1.83
2025-03-08 15:35:50.418,10.882557,-13.591232,2.428715,0.13683371,-1.3015238,-3.6779404,-41.175003,28.63125,11.025001,0.14056309,-0.7150109,0.6763492,1008.03143,37.88833751,127.73987382,148.5701904296875,1.83
2025-03-08 15:35:50.439,9.611969,-13.129417,2.3306093,0.32131487,-1.3882666,-4.1079893,-42.3375,26.625002,11.962501,0.16778725,-0.710151,0.6731345,1008.03143,37.88833751,127.73987382,148.5701904296875,1.83
2025-03-08 15:35:50.458,8.676374,-11.959328,1.9405792,0.45937032,-1.4554617,-4.368829,-43.068752,25.706251,12.431251,0.20640785,-0.7012657,0.6683661,1008.0297,37.88833751,127.73987382,148.5701904296875,1.83
2025-03-08 15:35:50.478,8.941978,-11.753545,1.0408778,0.45020735,-1.1665226,-4.6357765,-46.0875,21.618752,13.931251,0.25566208,-0.686806,0.66099226,1008.0297,37.88833751,127.73987382,148.5701904296875,1.83
2025-03-08 15:35:50.499,7.9776707,-11.937792,0.63888365,0.35979936,-0.5648208,-4.903946,-46.96875,19.931252,14.400001,0.28407508,-0.6764119,0.65563565,1008.0212,37.88833751,127.73987382,148.5701904296875,1.83
2025-03-08 15:35:50.519,6.814759,-12.000006,1.0456635,0.40805766,-0.21479532,-5.016956,-49.725002,15.000001,15.056251,0.32756776,-0.656082,0.64592576,1008.0212,37.88833751,127.73987382,148.5701904296875,1.83
2025-03-08 15:35:50.539,6.302695,-11.684153,0.89730847,0.5754346,-0.2618319,-5.0462775,-50.7,13.06875,15.356251,0.36063677,-0.63689476,0.637793,1008.0224,37.88833751,127.73987382,148.5701904296875,1.83
2025-03-08 15:35:50.558,5.8911295,-11.511869,-0.17228323,0.6688969,-0.42432195,-5.031006,-51.99375,9.3,15.618751,0.3938209,-0.6157019,0.6287365,1008.0224,37.88833751,127.73987382,148.5701904296875,1.83
2025-03-08 15:35:50.578,4.761717,-11.526227,-1.119841,0.5430588,-0.42248935,-4.8758464,-53.1375,5.4375,15.900001,0.42645666,-0.59386516,0.61789435,1008.02264,37.88833751,127.73987382,148.5701904296875,1.83
2025-03-08 15:35:50.598,3.5964124,-10.96152,-1.1533405,0.32498005,-0.29420775,-4.5954595,-54.187504,1.06875,16.462502,0.45605984,-0.5725625,0.60565317,1008.02264,37.88833751,127.73987382,148.5701904296875,1.83
2025-03-08 15:35:50.618,3.0293136,-10.499705,-0.5312066,0.18814635,-0.39561132,-4.239936,-54.525,-3.15,16.9125,0.48199177,-0.5525935,0.5924606,1008.007,37.88833751,127.73987382,148.5701904296875,1.83
2025-03-08 15:35:50.638,2.57707,-10.006784,0.30149564,0.2046397,-0.88247055,-3.8728063,-54.54375,-7.2562504,17.71875,0.50617784,-0.53458244,0.5780729,1008.007,37.88833751,127.73987382,148.5701904296875,1.83
2025-03-08 15:35:50.660,2.5914268,-9.260223,0.42592242,0.38545567,-1.5703043,-3.3425758,-53.662502,-12.95625,18.6,0.53715247,-0.5157308,0.5578048,1008.01605,37.88833751,127.73987382,148.5701904296875,1.83
2025-03-08 15:35:50.678,2.751746,-9.085547,-0.5910272,0.411112,-1.6973641,-3.0102654,-53.175003,-14.625001,18.900002,0.56214774,-0.50324416,0.5406283,1008.01605,37.88833751,127.73987382,148.5701904296875,1.83
2025-03-08 15:35:50.699,2.2995026,-8.865408,-1.4979069,0.24556763,-1.4133121,-2.569221,-52.0125,-17.925001,19.9125,0.58444786,-0.4926348,0.5241181,1008.01605,37.88833751,127.73987382,148.5701904296875,1.83
2025-03-08 15:35:50.719,1.698904,-9.274581,-2.0602202,-0.05864302,-0.78106695,-1.9247586,-50.1375,-21.9375,21.5625,0.6011123,-0.48407352,0.51035595,1008.01605,37.88833751,127.73987382,148.5701904296875,1.83
2025-03-08 15:35:50.738,0.46899325,-8.7266245,-1.68694,-0.3017672,-0.15615231,-1.1452951,-48.862503,-24.150002,22.63125,0.61064583,-0.47825027,0.5008779,1008.00507,37.88833751,127.73987382,148.5701904296875,1.83
2025-03-08 15:35:50.760,0.5096712,-8.01117,-1.0360922,-0.34941465,0.31665704,-0.19234605,-47.850002,-25.85625,23.493752,0.61238754,-0.47580203,0.49677005,1008.00507,37.88833751,127.73987382,148.5701904296875,1.83
2025-03-08 15:35:50.778,0.849452,-8.386844,-1.0408778,-0.27183482,0.4834231,0.4899899,-47.4,-26.343752,23.56875,0.6078718,-0.47774228,0.49918628,1007.99554,37.88833751,127.73987382,148.5701904296875,1.83
2025-03-08 15:35:50.798,1.6701902,-9.059227,-1.8664017,-0.20769402,0.66668254,1.420337,-46.78125,-27.50625,23.681252,0.5992886,-0.48323685,0.50578904,1007.99554,37.88833751,127.73987382,148.5701904296875,1.83
2025-03-08 15:35:50.818,2.359323,-9.990034,-2.7062824,-0.32009315,0.7900772,1.976224,-46.818752,-27.393751,23.362501,0.5865226,-0.49233586,0.51567006,1007.99603,37.88833751,127.73987382,148.5701904296875,1.83
2025-03-08 15:35:50.838,2.495714,-10.619347,-2.5818555,-0.6175843,0.9073633,2.6756642,-47.662502,-27.112501,22.650002,0.5690221,-0.5053781,0.5274483,1007.99603,37.88833751,127.73987382,148.5701904296875,1.83
2025-03-08 15:35:50.858,3.2997024,-10.844273,-1.1509477,-0.7849612,0.7937424,3.3225698,-48.843754,-26.23125,22.331251,0.54073393,-0.5274015,0.54329115,1007.9953,37.88833751,127.73987382,148.5701904296875,1.83
2025-03-08 15:35:50.878,3.9050865,-10.547563,-0.2632105,-0.7831286,0.7717513,3.76056,-49.95,-24.45,21.1875,0.51441807,-0.5480444,0.55643207,1007.9953,37.88833751,127.73987382,148.5701904296875,1.83
2025-03-08 15:35:50.899,4.3501515,-10.013963,0.22253251,-0.69149894,0.86643535,4.029951,-50.456253,-23.5125,21.018751,0.49281415,-0.5639065,0.56682056,1007.9985,37.88833751,127.73987382,148.5701904296875,1.83
2025-03-08 15:35:50.918,4.7545385,-10.080962,0.21296121,-0.60597783,1.0356449,4.231537,-51.956253,-20.8875,19.837502,0.4616658,-0.58414745,0.58168805,1007.9985,37.88833751,127.73987382,148.5701904296875,1.83
2025-03-08 15:35:50.939,4.6731825,-9.702896,0.2632105,-0.5497783,1.1944697,4.468552,-53.756252,-16.556252,18.112501,0.41913956,-0.6077718,0.6009079,1007.99725,37.88833751,127.73987382,148.5701904296875,1.83
2025-03-08 15:35:50.958,5.1062837,-9.425328,0.27038896,-0.5583304,1.3221405,4.719007,-54.7125,-13.35,17.325,0.38201788,-0.6254912,0.61629057,1007.99725,37.88833751,127.73987382,148.5701904296875,1.83
2025-03-08 15:35:50.978,6.539584,-9.329616,0.50009996,-0.5577195,1.2555562,4.7617674,-55.143753,-11.26875,16.5,0.34280804,-0.6421595,0.63073426,1007.99384,37.88833751,127.73987382,148.5701904296875,1.83
2025-03-08 15:35:50.999,7.542177,-9.442079,0.5288138,-0.47708538,0.98983,4.5858383,-55.987503,-4.8562503,14.812501,0.29489973,-0.66069496,0.6459949,1007.99384,37.88833751,127.73987382,148.5701904296875,1.83
2025-03-08 15:35:51.018,7.6402826,-10.262816,0.36131623,-0.45692685,0.82734,4.520476,-56.04375,-2.5687501,14.475,0.26769465,-0.67052317,0.65354407,1007.98724,37.88833751,127.73987382,148.5701904296875,1.83
2025-03-08 15:35:51.039,8.059027,-11.160125,0.57427746,-0.411112,0.90064377,4.6255445,-55.500004,4.36875,12.937501,0.22249502,-0.6851873,0.6643394,1007.98724,37.88833751,127.73987382,148.5701904296875,1.83
2025-03-08 15:35:51.059,8.855837,-12.12204,0.6771688,-0.37262753,0.9696715,4.704957,-55.143753,6.43125,12.675,0.19421983,-0.69268346,0.6703092,1007.9838,37.88833751,127.73987382,148.5701904296875,1.83
2025-03-08 15:35:51.080,10.152746,-11.85165,1.39023,-0.18142684,0.6740129,4.5772862,-52.687504,12.337501,11.606251,0.14715856,-0.7026827,0.67913175,1007.9838,37.88833751,127.73987382,148.5701904296875,1.83
2025-03-08 15:35:51.098,10.66481,-11.363515,1.1653047,0.022601997,0.25801402,4.301175,-51.787502,14.19375,10.81875,0.113961205,-0.70783925,0.6852713,1007.9821,37.88833751,127.73987382,148.5701904296875,1.83
2025-03-08 15:35:51.118,11.511869,-10.66481,0.5766702,0.18203771,0.10102176,3.8857872,-48.7125,19.875,9.918751,0.085634604,-0.7105606,0.69079185,1007.9821,37.88833751,127.73987382,148.5701904296875,1.83
2025-03-08 15:35:51.138,11.586047,-10.339387,0.38763726,0.23701553,0.1107956,3.408091,-46.4625,23.025002,9.3,0.055299588,-0.7115614,0.6964604,1007.9926,37.88833751,127.73987382,148.5701904296875,1.83
2025-03-08 15:35:51.159,12.1866455,-10.399207,-0.18424734,0.27305657,0.3239874,3.0036986,-44.25,26.062502,9.01875,0.033683002,-0.7108785,0.70028675,1007.9926,37.88833751,127.73987382,148.5701904296875,1.83
2025-03-08 15:35:51.180,12.818351,-10.789237,-0.9619147,0.07269291,0.60742867,2.4221551,-41.943752,28.35,8.962501,0.013609587,-0.709833,0.7029826,1007.9848,37.88832379,127.73988551,148.068359375,1.91
2025-03-08 15:35:51.198,12.849458,-10.904093,-0.9499506,-0.14355323,0.6752347,2.029369,-40.706253,29.56875,8.793751,4.9033257E-5,-0.70977527,0.7035519,1007.9848,37.88832379,127.73988551,148.068359375,1.91
2025-03-08 15:35:51.219,13.268202,-10.643275,-0.37088752,-0.5198459,0.5634464,1.4026219,-38.23125,31.331251,7.93125,-0.018230341,-0.71196365,0.7014055,1007.98627,37.88832379,127.73988551,148.068359375,1.91
2025-03-08 15:35:51.238,14.273187,-11.083554,1.1988041,-0.7531963,0.3001637,0.5956695,-35.68125,33.09375,7.425,-0.026800044,-0.7159286,0.6971573,1007.98627,37.88832379,127.73988551,148.068359375,1.91
2025-03-08 15:35:51.259,14.038691,-11.7463665,2.1463618,-0.7385355,0.14561489,-0.081779525,-34.987503,33.693752,7.4625,-0.028516479,-0.7206322,0.6921566,1007.9965,37.88832379,127.73988551,148.068359375,1.91
2025-03-08 15:35:51.278,12.547962,-11.423335,2.6775684,-0.5253437,0.19204062,-0.8190933,-34.21875,34.3125,8.15625,-0.023336042,-0.72558373,0.68679047,1007.9965,37.88832379,127.73988551,148.068359375,1.91
2025-03-08 15:35:51.298,12.335001,-12.102897,2.6344976,-0.36102107,0.016722424,-1.3138938,-34.21875,34.331253,8.26875,-0.017522788,-0.7276143,0.6843808,1008.0087,37.88832379,127.73988551,148.068359375,1.91
2025-03-08 15:35:51.318,11.971292,-12.799209,2.3832514,-0.12156209,-0.6643918,-2.035325,-34.631252,34.125,8.981251,6.9295306E-4,-0.7294194,0.681665,1008.0087,37.88832379,127.73988551,148.068359375,1.91
2025-03-08 15:35:51.338,11.215159,-13.19881,1.7635103,0.0036651888,-1.2496003,-2.7072763,-35.643753,33.225002,8.925,0.024660485,-0.72951126,0.68013704,1008.0146,37.88832379,127.73988551,148.068359375,1.91
2025-03-08 15:35:51.358,10.281959,-13.830515,1.7347964,0.07696896,-1.5110503,-3.1904705,-36.65625,32.025,9.431251,0.055152003,-0.72865444,0.6780748,1008.0146,37.88832379,127.73988551,148.068359375,1.91
2025-03-08 15:35:51.378,9.812965,-14.373686,1.1533405,0.08735366,-1.5342633,-3.508731,-38.025,30.993752,10.275001,0.08953533,-0.72644573,0.6752505,1008.0168,37.88832379,127.73988551,148.068359375,1.91
2025-03-08 15:35:51.399,9.312865,-14.163117,0.7513463,-0.0048869182,-1.3858231,-3.874028,-39.9,29.1375,11.175,0.13479558,-0.7222031,0.6695724,1008.0168,37.88832379,127.73988551,148.068359375,1.91
2025-03-08 15:35:51.419,8.659625,-14.002798,0.95712906,-0.04459313,-1.1885138,-3.9760425,-40.893753,28.25625,11.606251,0.16196334,-0.7188538,0.66496146,1008.0185,37.88832379,127.73988551,148.068359375,1.91
2025-03-08 15:35:51.438,8.047063,-12.401999,2.0075781,-0.012217295,-0.9802089,-4.050568,-43.93125,24.7875,13.406251,0.19657515,-0.71310157,0.65811044,1008.0185,37.88832379,127.73988551,148.068359375,1.91
2025-03-08 15:35:51.458,8.372486,-11.425728,2.7684958,0.23212862,-0.95272,-4.2436013,-45.037502,23.475,13.8,0.2309174,-0.70509213,0.6511122,1008.019,37.88832379,127.73988551,148.068359375,1.91
2025-03-08 15:35:51.478,7.9968133,-11.117054,1.9669002,0.59925836,-0.6424007,-4.5539207,-47.71875,19.125,15.150001,0.2749447,-0.68969446,0.6435357,1008.019,37.88832379,127.73988551,148.068359375,1.91
2025-03-08 15:35:51.499,7.298109,-11.322837,0.7322037,0.7202096,-0.34307694,-4.747565,-48.506252,17.56875,15.281251,0.30100736,-0.6774439,0.63958955,1008.0312,37.88832379,127.73988551,148.068359375,1.91
2025-03-08 15:35:51.519,5.326423,-11.284552,-0.043070808,0.70860314,-0.0077121677,-4.750008,-50.831253,12.825001,15.6,0.3421741,-0.65382886,0.6326096,1008.0312,37.88832379,127.73988551,148.068359375,1.91
2025-03-08 15:35:51.538,4.5224347,-10.8251295,0.1698904,0.6976076,-0.0034361144,-4.592405,-52.050003,9.09375,15.88125,0.37222812,-0.6336009,0.6262637,1008.02655,37.88832379,127.73988551,148.068359375,1.91
2025-03-08 15:35:51.558,4.402794,-10.329815,0.26799613,0.75502884,-0.13293944,-4.4537387,-52.66875,7.3125005,16.10625,0.40078422,-0.6128797,0.6190779,1008.02655,37.88832379,127.73988551,148.068359375,1.91
2025-03-08 15:35:51.578,4.6205406,-10.236495,-0.5766702,0.7843504,-0.25633413,-4.3468375,-54.093754,1.3312501,16.237501,0.42879197,-0.59163594,0.611013,1008.0278,37.88832379,127.73988551,148.068359375,1.91
2025-03-08 15:35:51.598,4.1276193,-10.459028,-1.2083755,0.6542362,-0.34429866,-4.27109,-54.3375,-2.5687501,16.59375,0.4627795,-0.56503063,0.59884673,1008.0278,37.88832379,127.73988551,148.068359375,1.91
2025-03-08 15:35:51.619,2.969493,-10.394422,-1.268196,0.49357873,-0.46769336,-4.042627,-54.525,-6.3,16.5375,0.48835537,-0.54469556,0.5872349,1008.0241,37.88832379,127.73988551,148.068359375,1.91
2025-03-08 15:35:51.640,2.7565317,-10.420743,-1.3543376,0.2864956,-0.7376956,-3.6180758,-54.037502,-10.21875,16.893751,0.51212704,-0.52672344,0.57406986,1008.0241,37.88832379,127.73988551,148.068359375,1.91
2025-03-08 15:35:51.659,2.6416762,-10.523634,-1.4907285,0.07574723,-0.7236457,-3.2142942,-53.456253,-13.950001,17.1,0.5335758,-0.511763,0.559799,1008.0192,37.88832379,127.73988551,148.068359375,1.91
2025-03-08 15:35:51.678,2.309074,-10.5690975,-1.5314065,-0.086742796,-0.51961684,-2.8031821,-53.156254,-15.712501,17.325,0.55116516,-0.49930155,0.546084,1008.0192,37.88832379,127.73988551,148.068359375,1.91
2025-03-08 15:35:51.699,1.3998013,-10.593026,-1.5625132,-0.24495678,-0.20929754,-2.253404,-52.050003,-19.3125,18.075,0.5639511,-0.48911768,0.5344842,1008.0151,37.88832379,127.73988551,148.068359375,1.91
2025-03-08 15:35:51.720,-0.27996024,-9.638289,-1.2610176,-0.3762927,0.082084954,-1.3261111,-50.643753,-23.4375,18.88125,0.57250136,-0.4803474,0.52455026,1008.0151,37.88832379,127.73988551,148.068359375,1.91
2025-03-08 15:35:51.738,-0.8255238,-9.040084,-1.375873,-0.44654214,0.15477787,-0.43363765,-49.95,-25.35,19.181252,0.57383555,-0.47799632,0.52052546,1008.0173,37.88832379,127.73988551,148.068359375,1.91
2025-03-08 15:35:51.758,-0.701097,-8.815159,-1.2658032,-0.56321734,0.14866921,0.37148213,-49.500004,-25.968752,19.125,0.5717181,-0.47970504,0.5197155,1008.0173,37.88832379,127.73988551,148.068359375,1.91
2025-03-08 15:35:51.778,0.27756742,-8.975478,-0.28953153,-0.6175843,0.21342088,1.2957206,-49.125004,-27.13125,18.675001,0.5646777,-0.48694688,0.5213424,1008.01874,37.88832379,127.73988551,148.068359375,1.91
2025-03-08 15:35:51.799,2.0291135,-9.741181,0.6580262,-0.37751442,0.46204284,2.1582615,-49.10625,-27.431252,17.85,0.5488289,-0.50129753,0.5298198,1008.01874,37.88832379,127.73988551,148.068359375,1.91
2025-03-08 15:35:51.820,3.330809,-10.892129,0.1268196,0.010995566,0.5933788,2.8088326,-49.537502,-26.7,17.4375,0.5275042,-0.51740485,0.5459434,1008.0229,37.88832379,127.73988551,148.068359375,1.91
2025-03-08 15:35:51.839,3.792624,-11.344372,-0.53359944,0.27122396,0.4663189,3.2590399,-50.006252,-26.268751,17.4375,0.5132356,-0.52759326,0.5580575,1008.0229,37.88832379,127.73988551,148.068359375,1.91
2025-03-08 15:35:51.858,4.1036906,-11.691332,-1.7419748,0.47952884,0.18043418,3.9151087,-51.80625,-23.00625,17.025002,0.48828796,-0.5465493,0.5796012,1008.01263,37.88832379,127.73988551,148.068359375,1.91
2025-03-08 15:35:51.878,4.316652,-11.638689,-2.2636101,0.4300488,0.28672466,4.3195014,-52.3875,-21.618752,16.800001,0.4713946,-0.55921036,0.5929997,1008.01263,37.88832379,127.73988551,148.068359375,1.91
2025-03-08 15:35:51.899,5.2426744,-11.023734,-2.6703901,0.14477496,0.8242857,4.821632,-53.475002,-18.65625,16.650002,0.44386122,-0.57705843,0.61157024,1008.0041,37.88832379,127.73988551,148.068359375,1.91
2025-03-08 15:35:51.918,6.5898337,-10.054641,-2.4717858,-0.2944368,1.3129774,4.9633527,-54.412502,-14.83125,16.237501,0.4095498,-0.59534675,0.6299244,1008.0041,37.88832379,127.73988551,148.068359375,1.91
2025-03-08 15:35:51.938,7.479964,-8.925228,-1.3232309,-0.8100067,1.7240895,4.7825365,-55.612503,-8.981251,15.468751,0.35999712,-0.61802185,0.6492765,1007.98944,37.88832379,127.73988551,148.068359375,1.91
2025-03-08 15:35:51.958,7.456035,-8.463413,-0.14596218,-1.0891719,1.8816926,4.5333037,-56.268753,-4.8375,14.400001,0.31782144,-0.63516974,0.66096216,1007.98944,37.88832379,127.73988551,148.068359375,1.91
2025-03-08 15:35:51.978,7.391429,-8.015956,0.5455636,-1.2260056,1.875584,4.28346,-56.381252,-2.98125,13.837501,0.27536014,-0.6509974,0.6694157,1007.9899,37.88832379,127.73988551,148.068359375,1.91
2025-03-08 15:35:52.000,7.472785,-8.5112705,1.0695918,-1.2913681,1.545106,3.935878,-56.49375,2.68125,11.55,0.23484167,-0.66539294,0.6747702,1007.9899,37.88832379,127.73988551,148.068359375,1.91
2025-03-08 15:35:52.018,7.7742805,-9.698111,1.820938,-1.1911863,1.1901937,3.756284,-56.193752,4.6687503,10.950001,0.19792135,-0.6786625,0.67746377,1007.99115,37.88832379,127.73988551,148.068359375,1.91
2025-03-08 15:35:52.038,7.879565,-10.523634,1.3663018,-0.9401209,0.85055286,3.6530478,-54.693752,9.9375,8.700001,0.1562424,-0.6924898,0.6797247,1007.99115,37.88832379,127.73988551,148.068359375,1.91
2025-03-08 15:35:52.059,7.925029,-10.487741,0.6795616,-0.8918626,0.62086767,3.6115088,-53.8875,11.75625,8.26875,0.13324216,-0.699553,0.6807272,1008.0041,37.88832379,127.73988551,148.068359375,1.91
2025-03-08 15:35:52.080,7.664211,-10.389636,0.72263247,-0.94134265,0.4956404,3.6591563,-51.375004,16.85625,7.4062505,0.0968737,-0.71068156,0.6807605,1008.0041,37.88832379,127.73988551,148.068359375,1.91
2025-03-08 15:35:52.098,7.611569,-11.332408,0.9379865,-0.92362756,0.45287988,3.7904923,-49.425003,19.743752,7.2187505,0.067603275,-0.71884584,0.6796927,1008.0058,37.88832379,127.73988551,148.068359375,1.91
2025-03-08 15:35:52.119,10.009177,-12.373286,0.6029913,-0.9615012,0.43272135,3.8222573,-47.456253,22.29375,7.3125005,0.03761738,-0.72600603,0.6780138,1008.0058,37.88832379,127.73988551,148.068359375,1.91
2025-03-08 15:35:52.139,11.485549,-12.270394,1.4811572,-0.96699893,0.4058433,3.507051,-46.55625,23.681252,7.2937503,0.009113471,-0.7324537,0.6749064,1008.0026,37.88832379,127.73988551,148.068359375,1.91
2025-03-08 15:35:52.158,12.691531,-12.160325,2.1463618,-0.87292576,0.2946659,2.9352815,-44.850002,25.81875,7.9500003,-0.015738517,-0.73767656,0.67108905,1008.0026,37.88832379,127.73988551,148.068359375,1.91
2025-03-08 15:35:52.178,14.134403,-12.416357,2.8666015,-0.69272065,-0.03581195,2.2816563,-42.881252,27.656252,8.2875,-0.035105176,-0.74169,0.66728634,1007.9997,37.88831074,127.73989697,147.81658935546875,1.81
2025-03-08 15:35:52.198,15.05564,-12.339787,2.7948167,-0.41172287,-0.27466008,1.4795909,-39.45,30.618752,8.7375,-0.048803248,-0.74467665,0.6641728,1007.9997,37.88831074,127.73989697,147.81658935546875,1.81
2025-03-08 15:35:52.218,15.491134,-11.949757,2.9455647,-0.30054548,-0.025427246,0.86017394,-38.25,31.29375,8.94375,-0.052788302,-0.745644,0.6631024,1008.0036,37.88831074,127.73989697,147.81658935546875,1.81
2025-03-08 15:35:52.238,14.998212,-11.612369,4.15394,0.02443459,0.5133555,-0.055512335,-35.4375,33.16875,9.356251,-0.055851474,-0.74623895,0.66211784,1008.0036,37.88831074,127.73989697,147.81658935546875,1.81
2025-03-08 15:35:52.258,13.969298,-11.069198,3.7734814,0.5424479,0.5829941,-0.7531199,-34.3875,33.73125,9.8625,-0.05497448,-0.7442168,0.66386527,1008.0068,37.88831074,127.73989697,147.81658935546875,1.81
2025-03-08 15:35:52.278,13.622339,-11.636296,2.8378878,0.9156863,0.19631667,-1.4085778,-34.350002,33.956253,9.84375,-0.048209626,-0.7394465,0.6686399,1008.0068,37.88831074,127.73989697,147.81658935546875,1.81
2025-03-08 15:35:52.299,12.782458,-12.638889,1.1724831,1.201571,-0.76579535,-2.1996477,-34.29375,34.2,9.243751,-0.032149255,-0.7328807,0.6754606,1008.01483,37.88831074,127.73989697,147.81658935546875,1.81
2025-03-08 15:35:52.318,11.499906,-13.150953,-0.23449662,1.0677916,-1.5189916,-2.7793584,-34.59375,34.068752,8.887501,-0.0056942673,-0.72610784,0.68219954,1008.01483,37.88831074,127.73989697,147.81658935546875,1.81
2025-03-08 15:35:52.339,10.463814,-13.842479,-0.3589234,0.67500556,-1.8494694,-3.2112398,-35.9625,33.2625,8.231251,0.027945343,-0.72084564,0.6859641,1008.01385,37.88831074,127.73989697,147.81658935546875,1.81
2025-03-08 15:35:52.358,9.994821,-14.560326,0.83030945,0.24373505,-1.9997423,-3.63518,-38.456253,31.312502,8.15625,0.07500502,-0.71664727,0.6849595,1008.01385,37.88831074,127.73989697,147.81658935546875,1.81
2025-03-08 15:35:52.378,9.894321,-14.053047,1.8927227,0.11178826,-2.1323,-3.9583275,-39.525,30.487501,8.306251,0.11544791,-0.71378297,0.68042403,1008.01654,37.88831074,127.73989697,147.81658935546875,1.81
2025-03-08 15:35:52.398,9.9756775,-13.25863,2.8642087,0.13377939,-2.221486,-4.403648,-43.125,27.243752,9.88125,0.15885752,-0.70964426,0.6736289,1008.01654,37.88831074,127.73989697,147.81658935546875,1.81
2025-03-08 15:35:52.418,9.600004,-12.928421,3.4719856,0.30726498,-2.1017566,-4.732904,-43.95,25.893751,10.387501,0.20443282,-0.7026036,0.6656315,1008.0256,37.88831074,127.73989697,147.81658935546875,1.81
2025-03-08 15:35:52.439,9.123833,-12.890136,3.2398818,0.7024945,-1.716301,-5.148903,-47.268753,21.69375,12.375001,0.26206252,-0.68755156,0.65588355,1008.0256,37.88831074,127.73989697,147.81658935546875,1.81
2025-03-08 15:35:52.460,7.881958,-13.270595,1.4596218,0.83810645,-1.2795327,-5.4072986,-49.162502,18.112501,14.043751,0.30735075,-0.67012936,0.64849746,1008.0385,37.88831074,127.73989697,147.81658935546875,1.81
2025-03-08 15:35:52.478,7.3340015,-13.052848,0.64606214,0.7458659,-0.9038508,-5.461055,-49.875004,16.425001,14.681251,0.33936432,-0.6550988,0.64244086,1008.0385,37.88831074,127.73989697,147.81658935546875,1.81
2025-03-08 15:35:52.498,7.6594253,-12.830315,0.7393822,0.6334668,-0.6931025,-5.509924,-51.562504,12.6,15.7875,0.37920338,-0.63361543,0.63293505,1008.0373,37.88831074,127.73989697,147.81658935546875,1.81
2025-03-08 15:35:52.518,6.9990063,-12.803994,0.59581286,0.66401,-0.5831468,-5.501372,-52.65,8.137501,17.025002,0.426061,-0.604229,0.61893827,1008.0373,37.88831074,127.73989697,147.81658935546875,1.81
2025-03-08 15:35:52.538,5.178068,-12.600604,-0.27517462,0.61147565,-0.3229184,-5.2912345,-53.662502,3.54375,17.38125,0.46056443,-0.5789899,0.60688573,1008.03314,37.88831074,127.73989697,147.81658935546875,1.81
2025-03-08 15:35:52.558,3.5294135,-11.686545,-0.78723866,0.44348782,-0.099341884,-4.8782897,-54.468754,-1.2375001,18.056252,0.49012485,-0.5538428,0.5948468,1008.03314,37.88831074,127.73989697,147.81658935546875,1.81
2025-03-08 15:35:52.578,2.2995026,-10.719846,-0.97866446,0.24862197,-0.055970486,-4.429304,-54.206253,-5.9625,18.806252,0.5150674,-0.5303664,0.5824653,1008.029,37.88831074,127.73989697,147.81658935546875,1.81
2025-03-08 15:35:52.598,2.1367905,-9.966106,-0.66041905,0.10384701,-0.15920663,-3.820272,-53.381252,-12.262501,19.425001,0.54101497,-0.5045706,0.56651473,1008.029,37.88831074,127.73989697,147.81658935546875,1.81
2025-03-08 15:35:52.618,2.1655045,-9.499506,-0.71306115,0.08185588,-0.30275986,-3.453753,-53.04375,-14.325001,19.725,0.5546622,-0.49096122,0.5568719,1008.01605,37.88831074,127.73989697,147.81658935546875,1.81
2025-03-08 15:35:52.638,1.753939,-9.025727,-1.0815558,-0.0067195124,-0.5672643,-3.0224826,-51.693752,-17.71875,19.81875,0.57153326,-0.47516015,0.5402522,1008.01605,37.88831074,127.73989697,147.81658935546875,1.81
2025-03-08 15:35:52.658,1.2059826,-8.946764,-1.2251252,-0.16859868,-0.71387184,-2.4317763,-50.343754,-21.806252,19.987501,0.5902254,-0.4605409,0.5264263,1008.0087,37.88831074,127.73989697,147.81658935546875,1.81
2025-03-08 15:35:52.680,0.2440679,-8.717052,-1.1437693,-0.32375833,-0.56970775,-1.701793,-49.36875,-24.468752,20.550001,0.6015372,-0.45317158,0.5138858,1008.0087,37.88831074,127.73989697,147.81658935546875,1.81
2025-03-08 15:35:52.699,-1.0839486,-7.8029947,-1.0097711,-0.40805766,-0.29909468,-0.97791815,-48.656254,-25.462502,20.60625,0.60813993,-0.4495482,0.5046162,1008.0041,37.88831074,127.73989697,147.81658935546875,1.81
2025-03-08 15:35:52.718,-1.2993027,-7.204789,-0.715454,-0.45937032,0.0796415,0.20777038,-47.4,-28.3875,20.8125,0.6083209,-0.45087838,0.5000374,1008.0041,37.88831074,127.73989697,147.81658935546875,1.81
2025-03-08 15:35:52.738,-0.5814559,-7.8556366,-0.53359944,-0.3915643,0.27084216,1.0965786,-47.025,-29.79375,20.98125,0.6025309,-0.45687672,0.5023186,1008.0124,37.88831074,127.73989697,147.81658935546875,1.81
2025-03-08 15:35:52.758,0.6436693,-8.078169,-0.7082755,-0.29565856,0.42905614,1.9029201,-46.7625,-30.13125,20.41875,0.59220403,-0.46671152,0.5095517,1008.0124,37.88831074,127.73989697,147.81658935546875,1.81
2025-03-08 15:35:52.779,2.1774685,-9.202796,-1.5026926,-0.3084867,0.6477457,2.486296,-46.93125,-30.018751,19.9125,0.5778029,-0.4795489,0.52067095,1008.0109,37.88831074,127.73989697,147.81658935546875,1.81
2025-03-08 15:35:52.798,2.7110682,-10.353744,-1.6342978,-0.44287696,0.84688765,2.9707117,-47.5125,-29.00625,19.78125,0.5589917,-0.49465734,0.53447926,1008.0109,37.88831074,127.73989697,147.81658935546875,1.81
2025-03-08 15:35:52.818,2.7206392,-11.188839,-1.146162,-0.5326741,0.76625353,3.508273,-47.8125,-28.368752,19.275002,0.53617215,-0.5124008,0.5496004,1007.9987,37.88831074,127.73989697,147.81658935546875,1.81
2025-03-08 15:35:52.838,3.3355947,-11.846865,-0.53599226,-0.5192351,0.5774963,4.0696573,-49.031254,-26.400002,18.88125,0.5103526,-0.53314126,0.5651102,1007.9987,37.88831074,127.73989697,147.81658935546875,1.81
2025-03-08 15:35:52.859,4.2185464,-12.497713,-0.37806597,-0.42699447,0.52496195,4.651201,-51.131252,-22.81875,18.13125,0.48176706,-0.55582654,0.5810942,1008.0007,37.88831074,127.73989697,147.81658935546875,1.81
2025-03-08 15:35:52.879,5.5872407,-12.638889,-0.6197411,-0.48991355,0.7937424,5.097132,-52.331253,-19.48125,17.081251,0.44050962,-0.5847646,0.60224044,1008.0007,37.88831074,127.73989697,147.81658935546875,1.81
2025-03-08 15:35:52.898,6.640083,-12.224931,-0.38285163,-0.6316342,1.1663699,5.2260246,-53.100002,-17.737501,16.85625,0.41218296,-0.6016427,0.6148803,1008.00775,37.88831074,127.73989697,147.81658935546875,1.81
2025-03-08 15:35:52.918,7.6546397,-11.394622,0.40438703,-0.8014546,1.4895175,5.1453905,-54.7125,-12.0,15.993751,0.3598824,-0.62736595,0.6345023,1008.00775,37.88831074,127.73989697,147.81658935546875,1.81
2025-03-08 15:35:52.939,8.090134,-10.853844,1.18684,-0.8161153,1.3496294,4.912651,-55.55625,-7.5375004,14.868751,0.31705195,-0.6453707,0.6474967,1008.0058,37.88831074,127.73989697,147.81658935546875,1.81
2025-03-08 15:35:52.959,7.8699937,-10.686346,1.3878372,-0.7153227,1.0283145,4.6255445,-56.437504,-2.9437501,13.70625,0.2670438,-0.66461587,0.6599708,1008.0058,37.88831074,127.73989697,147.81658935546875,1.81
2025-03-08 15:35:52.978,7.793423,-11.155339,1.430908,-0.63407767,0.8132901,4.4997063,-56.250004,1.7062501,12.3,0.23905718,-0.67459023,0.66588354,1008.0102,37.88831074,127.73989697,147.81658935546875,1.81
2025-03-08 15:35:52.998,7.9537425,-11.691332,1.3615161,-0.49907652,0.62086767,4.5259733,-55.425003,6.61875,10.950001,0.20338759,-0.6862685,0.6725809,1008.0102,37.88831074,127.73989697,147.81658935546875,1.81
2025-03-08 15:35:53.018,8.755338,-12.016755,1.0193424,-0.42394015,0.51885325,4.569345,-54.750004,8.64375,10.6875,0.16863616,-0.69615865,0.67843026,1008.01166,37.88831074,127.73989697,147.81658935546875,1.81
2025-03-08 15:35:53.038,9.77468,-11.526227,1.119841,-0.39828384,0.48464483,4.4031897,-52.18125,14.7375,9.993751,0.12606099,-0.7061834,0.6840865,1008.01166,37.88831074,127.73989697,147.81658935546875,1.81
2025-03-08 15:35:53.059,10.552348,-11.339586,1.0624132,-0.433714,0.49991646,4.1209702,-49.7625,18.337502,9.431251,0.09391263,-0.71248406,0.6868466,1008.00775,37.88831074,127.73989697,147.81658935546875,1.81
2025-03-08 15:35:53.079,10.829915,-11.243874,1.564906,-0.38973173,0.5646681,3.7159667,-47.381252,21.375,9.1875,0.06397124,-0.717408,0.6881426,1008.00775,37.88831074,127.73989697,147.81658935546875,1.81
2025-03-08 15:35:53.098,10.844273,-11.394622,1.8257236,-0.2669479,0.63552845,3.5076618,-46.36875,22.96875,8.962501,0.042885106,-0.719931,0.688774,1008.0041,37.88831074,127.73989697,147.81658935546875,1.81
2025-03-08 15:35:53.119,11.492727,-10.645668,1.457229,-0.12583815,0.6972258,3.1790166,-43.987503,25.743752,8.7375,0.009669311,-0.7216155,0.6901307,1008.0041,37.88831074,127.73989697,147.81658935546875,1.81
2025-03-08 15:35:53.139,12.80878,-10.19821,1.375873,-0.08735366,0.60254174,2.7477462,-40.74375,29.19375,8.212501,-0.013769244,-0.72164315,0.690939,1008.0024,37.88831074,127.73989697,147.81658935546875,1.81
2025-03-08 15:35:53.158,14.261223,-10.205389,1.2131611,-0.07696896,0.41867146,2.1503203,-39.43125,30.281252,8.00625,-0.032619786,-0.7211735,0.6913356,1008.0024,37.88831074,127.73989697,147.81658935546875,1.81
2025-03-08 15:35:53.178,15.594026,-10.683953,0.83988076,-0.18997894,0.04176788,1.2047017,-37.21875,32.287502,7.8562503,-0.044498276,-0.7210195,0.6911131,1007.99725,37.88829894,127.7399064,147.14617919921875,1.53
2025-03-08 15:35:53.198,15.524633,-11.724831,1.2203395,-0.36224282,-0.24045165,0.1625664,-33.975002,34.3125,7.6312504,-0.047249995,-0.7227008,0.6892859,1007.99725,37.88829894,127.7399064,147.14617919921875,1.53
2025-03-08 15:35:53.218,14.203795,-12.614961,1.7491534,-0.4178315,-0.14271328,-0.47884163,-33.112503,34.818752,7.7625003,-0.043682892,-0.7245631,0.68752706,1008.0019,37.88829894,127.7399064,147.14617919921875,1.53
2025-03-08 15:35:53.239,12.301501,-12.12204,2.9479575,-0.30970845,0.35453063,-1.1116976,-32.5875,35.475002,8.118751,-0.034761116,-0.7277436,0.684339,1008.0019,37.88829894,127.7399064,147.14617919921875,1.53
2025-03-08 15:35:53.259,11.655439,-12.428321,3.1680973,-0.09040799,0.41806057,-1.5423572,-32.756252,35.193752,8.26875,-0.026603889,-0.72895074,0.6827069,1008.00165,37.88829894,127.7399064,147.14617919921875,1.53
2025-03-08 15:35:53.281,10.963913,-13.509876,2.3641088,0.15027274,-0.32352927,-2.2106433,-34.162502,34.575,9.01875,-0.009147686,-0.7282503,0.6824579,1008.00165,37.88829894,127.7399064,147.14617919921875,1.53
2025-03-08 15:35:53.299,10.217353,-13.756337,1.8568304,0.1631009,-0.81099933,-2.6174793,-35.30625,33.84375,9.356251,0.007139408,-0.7273001,0.68248487,1008.01434,37.88829894,127.7399064,147.14617919921875,1.53
2025-03-08 15:35:53.318,9.789038,-14.194224,1.8257236,0.108123064,-1.0938298,-2.9681156,-35.925003,33.2625,9.056251,0.033911593,-0.7260217,0.68152493,1008.01434,37.88829894,127.7399064,147.14617919921875,1.53
2025-03-08 15:35:53.338,9.276974,-14.541183,2.3186452,0.10873393,-1.422475,-3.376784,-37.29375,32.081253,9.13125,0.065012425,-0.7244012,0.6791983,1008.0131,37.88829894,127.7399064,147.14617919921875,1.53
2025-03-08 15:35:53.360,7.9106717,-13.435699,2.78046,0.25595233,-1.6014584,-3.69871,-39.7125,29.737501,8.981251,0.10910279,-0.7205734,0.67501825,1008.0131,37.88829894,127.7399064,147.14617919921875,1.53
2025-03-08 15:35:53.378,7.30768,-12.313465,2.993421,0.3970621,-1.5232676,-3.806833,-41.662502,27.88125,9.5625,0.14601324,-0.71514297,0.67136157,1008.02045,37.88829894,127.7399064,147.14617919921875,1.53
2025-03-08 15:35:53.398,7.1425757,-11.566905,3.1752756,0.6688969,-1.2838087,-3.9497752,-43.96875,25.48125,10.6875,0.1824125,-0.7069743,0.6681156,1008.02045,37.88829894,127.7399064,147.14617919921875,1.53
2025-03-08 15:35:53.418,7.2646093,-11.289337,2.8713872,0.9242384,-1.2453243,-4.163578,-44.8875,24.35625,10.9875,0.20964952,-0.6985871,0.6662428,1008.02045,37.88829894,127.7399064,147.14617919921875,1.53
2025-03-08 15:35:53.438,6.233303,-11.243874,1.6438692,1.188132,-1.3833797,-4.4506845,-46.725002,21.7875,12.356251,0.25782883,-0.6800229,0.6633871,1008.0258,37.88829894,127.7399064,147.14617919921875,1.53
2025-03-08 15:35:53.458,5.611169,-11.143375,0.28953153,1.0873393,-1.2819761,-4.512993,-49.3875,17.493752,13.51875,0.3068189,-0.6582539,0.6586584,1008.0295,37.88829894,127.7399064,147.14617919921875,1.53
2025-03-08 15:35:53.478,5.7379885,-11.550155,0.32542387,0.9071342,-1.0174717,-4.4726753,-50.437504,14.343751,14.043751,0.34367317,-0.64034647,0.6526318,1008.0295,37.88829894,127.7399064,147.14617919921875,1.53
2025-03-08 15:35:53.499,5.812166,-11.667403,0.11006984,0.85643244,-0.8116102,-4.437856,-51.187504,12.69375,14.64375,0.3693628,-0.6263125,0.6475142,1008.0278,37.88829894,127.7399064,147.14617919921875,1.53
2025-03-08 15:35:53.520,5.7762737,-11.286944,-0.3924229,0.7073814,-0.9093486,-4.529486,-52.95,7.4625,15.843751,0.41007948,-0.6018996,0.6373495,1008.0278,37.88829894,127.7399064,147.14617919921875,1.53
2025-03-08 15:35:53.539,4.7018967,-11.040483,-1.0408778,0.47403106,-1.0131956,-4.4824495,-53.41875,3.9,16.5,0.44254482,-0.58232534,0.6261896,1008.02606,37.88829894,127.7399064,147.14617919921875,1.53
2025-03-08 15:35:53.558,3.792624,-10.686346,-1.0360922,0.18142684,-0.966159,-4.24971,-53.925003,0.3,17.6625,0.47307992,-0.5641036,0.61241925,1008.02606,37.88829894,127.7399064,147.14617919921875,1.53
2025-03-08 15:35:53.579,3.251846,-9.882358,-0.37328035,-0.05986475,-0.87880534,-3.9619925,-53.850002,-1.4625001,17.85,0.5000181,-0.547798,0.597149,1008.0175,37.88829894,127.7399064,147.14617919921875,1.53
2025-03-08 15:35:53.598,3.2063823,-9.372686,0.0,-0.16065744,-0.8268818,-3.6272388,-53.456253,-7.3125005,18.675001,0.5290836,-0.5292798,0.57761866,1008.0175,37.88829894,127.7399064,147.14617919921875,1.53
2025-03-08 15:35:53.618,2.9718857,-10.12164,-0.22253251,-0.17287473,-0.79023,-3.3431866,-53.23125,-9.375,19.237501,0.54475206,-0.5188557,0.56597084,1008.02997,37.88829894,127.7399064,147.14617919921875,1.53
2025-03-08 15:35:53.638,2.1080768,-10.277173,-0.40677986,-0.19975278,-0.7376956,-2.84411,-52.55625,-13.25625,19.987501,0.5630874,-0.5063029,0.5513541,1008.02997,37.88829894,127.7399064,147.14617919921875,1.53
2025-03-08 15:35:53.658,1.1485549,-9.638289,-0.6269195,-0.17043127,-0.6265182,-2.0866377,-50.850002,-18.50625,20.90625,0.5811067,-0.49432933,0.53565186,1008.0317,37.88829894,127.7399064,147.14617919921875,1.53
2025-03-08 15:35:53.679,0.36370903,-8.633304,-1.0097711,-0.23518294,-0.36873326,-1.2314271,-49.893753,-21.28125,21.9375,0.59068006,-0.48836863,0.5264664,1008.0317,37.88829894,127.7399064,147.14617919921875,1.53
2025-03-08 15:35:53.699,0.42592242,-8.484949,-1.0025927,-0.28344125,-0.07002038,-0.4739547,-48.843754,-23.25,22.35,0.5950674,-0.48605075,0.521018,1008.0278,37.88829894,127.7399064,147.14617919921875,1.53
2025-03-08 15:35:53.718,0.42831525,-8.733803,-0.9020941,-0.2858847,0.17004949,0.17172936,-48.562504,-23.94375,22.5,0.59439546,-0.4871628,0.51969916,1008.0278,37.88829894,127.7399064,147.14617919921875,1.53
2025-03-08 15:35:53.739,0.41874397,-9.152547,-1.2346965,-0.30421066,0.63552845,1.0935243,-48.300003,-25.312502,22.78125,0.58835554,-0.49148214,0.52312565,1008.0263,37.88829894,127.7399064,147.14617919921875,1.53
2025-03-08 15:35:53.758,0.78723866,-9.839287,-1.564906,-0.4214967,1.0277036,1.8919246,-48.45,-25.5375,22.81875,0.5759948,-0.49922657,0.5315648,1008.0263,37.88829894,127.7399064,147.14617919921875,1.53
2025-03-08 15:35:53.778,1.5026926,-10.202995,-1.119841,-0.5907062,1.2024109,2.6066363,-48.91875,-25.050001,22.237501,0.55733085,-0.5107255,0.5436844,1008.0241,37.88829894,127.7399064,147.14617919921875,1.53
2025-03-08 15:35:53.799,2.725425,-10.293923,0.031106694,-0.6163626,1.0948987,3.241325,-50.531254,-23.90625,21.431252,0.52735865,-0.5299801,0.5613095,1008.0241,37.88829894,127.7399064,147.14617919921875,1.53
2025-03-08 15:35:53.819,3.5772698,-10.162318,0.8063812,-0.42088583,0.85055286,3.6615999,-51.581253,-21.956251,20.5125,0.50096726,-0.5475658,0.5760309,1008.01874,37.88829894,127.7399064,147.14617919921875,1.53
2025-03-08 15:35:53.839,4.0127635,-10.009177,0.70348984,-0.15515965,0.68623024,3.9487064,-52.65,-19.35,19.087502,0.46725303,-0.5696724,0.5948626,1008.01874,37.88829894,127.7399064,147.14617919921875,1.53
2025-03-08 15:35:53.858,4.0558343,-9.9038925,-0.1698904,-0.080634154,0.7100539,4.2144322,-53.79375,-16.63125,18.1875,0.4391402,-0.5866321,0.6103368,1008.0317,37.88829894,127.7399064,147.14617919921875,1.53
2025-03-08 15:35:53.878,4.321438,-9.923036,-0.44745782,-0.15882485,0.8303943,4.4270134,-54.525,-12.993751,17.2875,0.40826172,-0.6035724,0.62554014,1008.0317,37.88829894,127.7399064,147.14617919921875,1.53
2025-03-08 15:35:53.898,5.1589255,-9.662218,0.21535404,-0.2864956,0.98983,4.739776,-55.518753,-9.525001,16.725,0.37382102,-0.62052226,0.64001125,1008.0329,37.88829894,127.7399064,147.14617919921875,1.53
2025-03-08 15:35:53.918,6.3481584,-9.537791,0.6891329,-0.28160867,0.8890373,4.8369036,-55.66875,-5.9437504,16.1625,0.33730173,-0.636738,0.65329164,1008.0329,37.88829894,127.7399064,147.14617919921875,1.53
2025-03-08 15:35:53.939,8.013563,-9.7196455,0.8327023,-0.21624613,0.7076105,4.7104545,-55.593754,-1.95,15.13125,0.30126137,-0.6514328,0.664742,1008.0368,37.88829894,127.7399064,147.14617919921875,1.53
2025-03-08 15:35:53.959,8.772088,-9.927821,1.0719845,-0.14966187,0.60315263,4.480159,-55.36875,-0.056250002,14.75625,0.26712528,-0.6639402,0.6742454,1008.0368,37.88829894,127.7399064,147.14617919921875,1.53
2025-03-08 15:35:53.979,8.867801,-10.51167,0.9164511,-0.036651887,0.5939896,4.25475,-54.675003,4.0875,13.837501,0.23506549,-0.673905,0.68238175,1008.03876,37.88829894,127.7399064,147.14617919921875,1.53
2025-03-08 15:35:53.999,9.238688,-10.980663,0.57906306,0.060475614,0.80351627,4.0775986,-53.568752,8.137501,13.012501,0.2036317,-0.6814432,0.6898578,1008.03876,37.88829894,127.7399064,147.14617919921875,1.53
2025-03-08 15:35:54.018,9.102298,-11.320444,-0.08853444,0.010995566,1.10284,3.8760133,-52.575,12.056251,12.450001,0.1716196,-0.6869381,0.6967124,1008.0307,37.88829894,127.7399064,147.14617919921875,1.53
2025-03-08 15:35:54.038,8.709874,-11.052447,-0.13878371,-0.100181825,0.87987435,3.6725955,-50.193752,17.456251,11.4375,0.13218778,-0.6926538,0.7029444,1008.0307,37.88829894,127.7399064,147.14617919921875,1.53
2025-03-08 15:35:54.058,8.793623,-11.066805,-0.078963146,-0.19486587,0.6807324,3.5937939,-49.218754,18.900002,10.89375,0.11031008,-0.69593996,0.70514274,1008.02484,37.88829894,127.7399064,147.14617919921875,1.53
2025-03-08 15:35:54.079,10.523634,-10.80838,0.46660042,-0.2272417,0.40645415,3.353724,-46.575,22.987501,10.21875,0.07687877,-0.70113206,0.7066922,1008.02484,37.88829894,127.7399064,147.14617919921875,1.53
2025-03-08 15:35:54.098,11.624332,-10.423136,0.8111669,-0.21868959,0.4076759,2.9859834,-45.206253,24.4125,9.7875,0.053687967,-0.7042899,0.70685554,1008.0202,37.88829894,127.7399064,147.14617919921875,1.53
2025-03-08 15:35:54.119,12.509677,-10.147961,0.7848458,-0.24373505,0.60803956,2.355571,-41.943752,28.0125,8.681251,0.03356357,-0.70652425,0.7064661,1008.0202,37.88829894,127.7399064,147.14617919921875,1.53
2025-03-08 15:35:54.138,12.866207,-10.549955,0.9762716,-0.31459537,0.7741948,1.8076253,-40.987503,29.19375,8.85,0.016229672,-0.70854706,0.70527905,1008.02606,37.88829894,127.7399064,147.14617919921875,1.53
2025-03-08 15:35:54.159,13.325629,-11.79183,0.9595219,-0.3604102,0.66912603,1.0690898,-37.8375,31.7625,8.34375,1.5982188E-4,-0.71113175,0.70292205,1008.02606,37.88829894,127.7399064,147.14617919921875,1.53
2025-03-08 15:35:54.178,12.856636,-12.244074,1.2131611,-0.4300488,0.33009607,0.42218393,-36.393753,32.756252,7.9500003,-0.0047881645,-0.71292454,0.70107615,1008.0253,37.88828607,127.73991604,147.4034423828125,1.89
2025-03-08 15:35:54.198,12.543177,-12.564712,1.8329022,-0.4386009,0.2183078,-0.07933606,-35.850002,33.206253,8.025001,-0.0062993914,-0.71557707,0.69830054,1008.0253,37.88828607,127.73991604,147.4034423828125,1.89
2025-03-08 15:35:54.219,12.08854,-11.6339035,2.9718857,-0.2687805,0.43699738,-0.5020545,-34.7625,33.487503,7.9875,-0.0046569984,-0.71782553,0.69584274,1008.0307,37.88828607,127.73991604,147.4034423828125,1.89
2025-03-08 15:35:54.240,11.705688,-11.60519,3.1633115,0.13500112,0.4314996,-1.0579414,-34.350002,33.73125,8.0625,-9.372412E-5,-0.71791756,0.69522506,1008.0307,37.88828607,127.73991604,147.4034423828125,1.89
2025-03-08 15:35:54.259,11.191232,-12.916456,1.995614,0.5186242,-0.35101816,-1.6315435,-34.48125,33.7125,8.587501,0.009459132,-0.7151716,0.6972744,1008.0358,37.88828607,127.73991604,147.4034423828125,1.89
2025-03-08 15:35:54.279,10.253245,-13.2203455,0.6436693,0.58215415,-1.1213187,-2.0157773,-34.85625,33.693752,8.45625,0.02792174,-0.71102935,0.7003139,1008.0358,37.88828607,127.73991604,147.4034423828125,1.89
2025-03-08 15:35:54.298,9.858429,-13.074383,0.14117654,0.38117963,-1.6515493,-2.4085634,-36.45,32.9625,8.475,0.05399361,-0.7073711,0.7019276,1008.0483,37.88828607,127.73991604,147.4034423828125,1.89
2025-03-08 15:35:54.319,9.8321085,-13.416556,0.63888365,0.06658426,-1.7199662,-2.9894958,-38.41875,31.425001,8.7375,0.09296733,-0.7041515,0.7001889,1008.0483,37.88828607,127.73991604,147.4034423828125,1.89
2025-03-08 15:35:54.339,9.375079,-13.445271,1.4045869,-0.073303774,-1.6393319,-3.4036622,-39.05625,30.712502,8.775001,0.11826264,-0.70240015,0.69723433,1008.0422,37.88828607,127.73991604,147.4034423828125,1.89
2025-03-08 15:35:54.359,8.212168,-12.966706,2.1894326,-0.06902772,-1.6057345,-3.8062222,-41.25,28.368752,9.918751,0.16286898,-0.69816864,0.6902318,1008.0422,37.88828607,127.73991604,147.4034423828125,1.89
2025-03-08 15:35:54.378,6.920043,-12.189038,3.199204,0.14172062,-1.4328597,-3.9674904,-42.768753,26.493752,11.025001,0.19942273,-0.69235665,0.68403095,1008.0434,37.88828607,127.73991604,147.4034423828125,1.89
2025-03-08 15:35:54.400,5.5896335,-11.006984,2.4670002,0.4856375,-1.4163663,-4.0560656,-44.943752,23.75625,12.281251,0.23570475,-0.682968,0.67895657,1008.0434,37.88828607,127.73991604,147.4034423828125,1.89
2025-03-08 15:35:54.418,5.426922,-10.370493,1.7515461,0.5338958,-1.2825869,-4.045681,-46.78125,21.075,13.593751,0.27150923,-0.6711267,0.67408013,1008.05316,37.88828607,127.73991604,147.4034423828125,1.89
2025-03-08 15:35:54.438,5.343173,-9.891929,1.6414764,0.524122,-1.2153919,-4.001699,-48.375004,18.0375,14.718751,0.3060541,-0.6580788,0.6668146,1008.05316,37.88828607,127.73991604,147.4034423828125,1.89
2025-03-08 15:35:54.459,5.5202417,-9.559326,1.9286151,0.6004801,-1.0944406,-3.9968119,-49.706253,14.812501,15.468751,0.34708884,-0.6401264,0.6604197,1008.0561,37.88828607,127.73991604,147.4034423828125,1.89
2025-03-08 15:35:54.479,5.7140603,-9.5665045,1.5361922,0.69638586,-1.1115448,-4.0664506,-50.081253,13.425,15.656251,0.37116477,-0.6280249,0.65544415,1008.0561,37.88828607,127.73991604,147.4034423828125,1.89
2025-03-08 15:35:54.498,5.424529,-9.827323,0.6364908,0.6835577,-1.0944406,-4.1476955,-50.79375,10.368751,16.650002,0.40341955,-0.61046946,0.6479895,1008.0546,37.88828607,127.73991604,147.4034423828125,1.89
2025-03-08 15:35:54.518,5.096712,-10.284351,-0.22253251,0.4838049,-0.94661134,-4.14403,-52.050003,5.3812504,18.056252,0.44219825,-0.5876514,0.6366534,1008.0546,37.88828607,127.73991604,147.4034423828125,1.89
2025-03-08 15:35:54.538,4.223332,-10.408778,-0.50488555,0.26755878,-0.7938951,-3.9913142,-52.143753,3.7687502,18.4125,0.47046492,-0.56984115,0.62598485,1008.0505,37.88828607,127.73991604,147.4034423828125,1.89
2025-03-08 15:35:54.558,3.656233,-9.958928,-0.54317075,0.037873615,-0.71814793,-3.7133706,-52.55625,0.22500001,19.743752,0.49547297,-0.55337524,0.6143273,1008.0505,37.88828607,127.73991604,147.4034423828125,1.89
2025-03-08 15:35:54.579,3.9601214,-9.836894,-0.5599205,-0.1838703,-0.690659,-3.4775767,-52.875004,-3.3000002,20.8125,0.5175592,-0.5388034,0.60161793,1008.0368,37.88828607,127.73991604,147.4034423828125,1.89
2025-03-08 15:35:54.599,3.6921253,-10.614561,-0.485743,-0.39461866,-0.5941424,-3.2301767,-52.331253,-7.9500003,21.862501,0.54155296,-0.5226561,0.5846907,1008.0368,37.88828607,127.73991604,147.4034423828125,1.89
2025-03-08 15:35:54.618,2.713461,-10.559526,-0.23688944,-0.4508182,-0.53549933,-2.902753,-52.425003,-9.58125,22.3125,0.55395764,-0.5140577,0.57454485,1008.0373,37.88828607,127.73991604,147.4034423828125,1.89
2025-03-08 15:35:54.640,1.8281165,-10.183853,-0.6221339,-0.45509425,-0.49518228,-2.1959825,-51.037502,-13.743751,22.29375,0.57085615,-0.5024353,0.559091,1008.0373,37.88828607,127.73991604,147.4034423828125,1.89
2025-03-08 15:35:54.658,1.1437693,-9.446864,-1.134198,-0.58032155,-0.23128867,-1.5185335,-50.325,-16.237501,22.800001,0.5803159,-0.4965551,0.54875267,1008.0351,37.88828607,127.73991604,147.4034423828125,1.89
2025-03-08 15:35:54.678,0.83988076,-8.563912,-1.1485549,-0.7037162,0.33864817,-0.8728494,-50.1375,-17.7,23.025002,0.5837723,-0.4938914,0.5420803,1008.0351,37.88828607,127.73991604,147.4034423828125,1.89
2025-03-08 15:35:54.699,0.61734825,-8.480164,-1.0360922,-0.7825178,0.9556216,-0.142866,-49.18125,-19.743752,23.1375,0.57983273,-0.49356982,0.5409836,1008.0329,37.88828607,127.73991604,147.4034423828125,1.89
2025-03-08 15:35:54.718,0.3900301,-8.135597,-0.6269195,-0.7812961,1.229289,0.6310997,-49.0125,-21.13125,23.19375,0.5695774,-0.4960195,0.544806,1008.0329,37.88828607,127.73991604,147.4034423828125,1.89
2025-03-08 15:35:54.738,0.97866446,-8.41795,-0.55034924,-0.7006619,1.1828632,1.4600432,-49.312504,-22.35,22.706251,0.55492157,-0.5018834,0.5521064,1008.0346,37.88828607,127.73991604,147.4034423828125,1.89
2025-03-08 15:35:54.758,1.7826529,-9.353543,-0.567099,-0.64324063,0.967228,2.0947316,-49.93125,-22.63125,21.862501,0.5373797,-0.5113566,0.5614808,1008.0346,37.88828607,127.73991604,147.4034423828125,1.89
2025-03-08 15:35:54.779,2.8642087,-10.047462,0.10289137,-0.46853328,0.4889209,2.7679048,-51.187504,-22.1625,20.34375,0.5131866,-0.5280699,0.57431245,1008.0307,37.88828607,127.73991604,147.4034423828125,1.89
2025-03-08 15:35:54.798,3.17049,-10.229317,0.34456646,-0.21807873,0.10835214,3.2327728,-51.937504,-21.0375,18.993752,0.49354112,-0.54415524,0.5849436,1008.0307,37.88828607,127.73991604,147.4034423828125,1.89
2025-03-08 15:35:54.818,3.7806597,-9.844072,0.38285163,0.0067195124,-0.02481638,3.5907395,-52.55625,-19.050001,18.018751,0.47373277,-0.561343,0.5962057,1008.0251,37.88828607,127.73991604,147.4034423828125,1.89
2025-03-08 15:35:54.838,4.7377887,-10.076176,-0.4642076,0.12156209,0.3191005,3.9474845,-53.437504,-16.78125,17.2875,0.45181125,-0.5780726,0.6091024,1008.0251,37.88828607,127.73991604,147.4034423828125,1.89
2025-03-08 15:35:54.858,5.168497,-9.777073,-0.62452674,0.06169734,0.71433,4.1405177,-53.568752,-15.468751,17.04375,0.42570144,-0.59388685,0.62342393,1008.0224,37.88828607,127.73991604,147.4034423828125,1.89
2025-03-08 15:35:54.879,5.8935223,-9.075976,-0.0741775,-0.050090913,1.2140174,4.2828493,-54.656254,-10.40625,16.706251,0.38661566,-0.61206275,0.64220434,1008.0224,37.88828607,127.73991604,147.4034423828125,1.89
2025-03-08 15:35:54.898,6.4845495,-8.609376,0.25842485,-0.047647454,1.3313035,4.2443647,-54.7125,-8.775001,16.743752,0.36104056,-0.6218394,0.6531973,1008.0251,37.88828607,127.73991604,147.4034423828125,1.89
2025-03-08 15:35:54.918,6.556334,-8.394022,0.17228323,-0.034208428,1.4510329,4.116694,-55.143753,-5.1937504,16.3875,0.32640952,-0.63315034,0.6701897,1008.0251,37.88828607,127.73991604,147.4034423828125,1.89
2025-03-08 15:35:54.938,6.2787666,-8.432307,0.09092726,-0.033597562,1.5988622,4.052553,-55.425003,-1.40625,15.187501,0.29123104,-0.6425946,0.6795537,1008.0236,37.88828607,127.73991604,147.4034423828125,1.89
2025-03-08 15:35:54.958,6.838687,-8.750552,0.1052842,0.008552107,1.5799254,4.0024624,-55.0875,2.79375,14.043751,0.24621081,-0.65222776,0.693883,1008.0236,37.88828607,127.73991604,147.4034423828125,1.89
2025-03-08 15:35:54.979,7.1569324,-9.116654,-0.66999036,-0.005497783,1.342299,3.8466918,-54.393753,8.925,11.7375,0.21132882,-0.6583132,0.7037699,1008.0275,37.88828607,127.73991604,147.4034423828125,1.89
2025-03-08 15:35:54.999,7.204789,-9.533006,-0.77766734,-0.15393792,1.0185406,3.7440665,-53.86875,10.81875,10.78125,0.17885672,-0.6641659,0.71112365,1008.0275,37.88828607,127.73991604,147.4034423828125,1.89
2025-03-08 15:35:55.020,7.0492554,-10.49492,-0.09810573,-0.19486587,0.30566147,3.719021,-51.581253,16.40625,8.700001,0.14986092,-0.6704673,0.7157072,1008.0336,37.88828607,127.73991604,147.4034423828125,1.89
2025-03-08 15:35:55.040,8.386844,-10.79163,0.18664017,-0.098960094,-0.34246606,3.6854236,-49.612503,19.59375,7.93125,0.11998361,-0.6778477,0.71915287,1008.0336,37.88828607,127.73991604,147.4034423828125,1.89
2025-03-08 15:35:55.059,9.755538,-10.951949,-0.5599205,-0.14538582,-0.23189954,3.507051,-47.643753,22.2,7.4625,0.099689156,-0.68258893,0.7207733,1008.02484,37.88828607,127.73991604,147.4034423828125,1.89
2025-03-08 15:35:55.078,10.442278,-10.96152,-0.76570326,-0.34697118,0.18409938,3.2932484,-45.525,24.675001,7.6687503,0.07876431,-0.68720484,0.72076285,1008.02484,37.88828607,127.73991604,147.4034423828125,1.89
2025-03-08 15:35:55.098,11.497513,-11.157732,0.60777694,-0.63407767,0.6434697,2.721479,-43.068752,26.925001,7.89375,0.05680202,-0.69265103,0.71845126,1008.02386,37.88828607,127.73991604,147.4034423828125,1.89
2025-03-08 15:35:55.119,12.447463,-12.1459675,1.2705889,-0.58032155,0.6795107,2.2364523,-40.7625,28.931252,7.9125004,0.03674512,-0.6977051,0.71521556,1008.02386,37.88828607,127.73991604,147.4034423828125,1.89
2025-03-08 15:35:55.138,13.311273,-12.988241,0.4953143,-0.64385146,0.39790204,1.5076907,-38.8875,30.88125,8.175,0.021597996,-0.7018912,0.71187526,1008.03094,37.88828607,127.73991604,147.4034423828125,1.89
2025-03-08 15:35:55.158,13.328022,-12.361321,1.0624132,-0.9279036,0.34720027,0.851011,-37.143753,32.25,8.34375,0.010784679,-0.7083809,0.70572126,1008.03094,37.88828607,127.73991604,147.4034423828125,1.89
2025-03-08 15:35:55.178,14.359328,-12.464213,2.8666015,-0.98776835,0.45837766,0.27618724,-35.60625,33.43125,8.3625,0.0071333703,-0.7131226,0.7009712,1008.0466,37.88827342,127.73992566,147.34112548828125,1.76
2025-03-08 15:35:55.198,13.502698,-12.366107,4.7401814,-0.61025393,0.6092613,-0.53931725,-34.612503,33.975002,8.587501,0.006192491,-0.71954185,0.694263,1008.0466,37.88827342,127.73992566,147.34112548828125,1.76
2025-03-08 15:35:55.218,11.301301,-11.547762,4.615755,-0.08857539,0.8084032,-0.99318975,-34.40625,33.881252,8.700001,0.008027346,-0.7208398,0.69264495,1008.0595,37.88827342,127.73992566,147.34112548828125,1.76
2025-03-08 15:35:55.238,10.080962,-11.933006,3.141776,0.43432486,0.5817723,-1.421406,-34.59375,33.5625,8.681251,0.01387525,-0.71825665,0.6943291,1008.0595,37.88827342,127.73992566,147.34112548828125,1.76
2025-03-08 15:35:55.258,9.6071825,-12.35175,2.1391835,0.75686145,-0.19341506,-1.7787619,-35.0625,33.300003,8.606251,0.02476315,-0.71331674,0.69810504,1008.0583,37.88827342,127.73992566,147.34112548828125,1.76
2025-03-08 15:35:55.279,9.219545,-12.253645,0.72263247,0.8790344,-1.1414772,-2.224693,-36.581253,32.49375,8.512501,0.049475875,-0.70532286,0.7037535,1008.0583,37.88827342,127.73992566,147.34112548828125,1.76
2025-03-08 15:35:55.299,9.131011,-12.473784,-0.03589234,0.75808316,-1.4682899,-2.478813,-37.21875,32.100002,8.15625,0.06925503,-0.70057404,0.70622057,1008.049,37.88827342,127.73992566,147.34112548828125,1.76
2025-03-08 15:35:55.319,9.004191,-12.863814,-0.35413775,0.3451386,-1.648495,-2.9320745,-39.16875,30.6,8.212501,0.10713082,-0.69419307,0.706617,1008.049,37.88827342,127.73992566,147.34112548828125,1.76
2025-03-08 15:35:55.340,8.319844,-12.60539,0.51445687,0.03970621,-1.5397611,-3.2405612,-40.7625,29.268751,8.64375,0.13967437,-0.6904804,0.70318204,1008.0429,37.88827342,127.73992566,147.34112548828125,1.76
2025-03-08 15:35:55.359,7.84128,-12.078969,1.5864414,-0.07208204,-1.422475,-3.3975534,-41.53125,28.500002,8.85,0.1640979,-0.6878225,0.6990899,1008.0429,37.88827342,127.73992566,147.34112548828125,1.76
2025-03-08 15:35:55.379,8.085348,-11.298908,2.8378878,0.13316852,-1.3534473,-3.7353618,-44.0625,25.556252,10.181251,0.20488694,-0.6814652,0.6914126,1008.05,37.88827342,127.73992566,147.34112548828125,1.76
2025-03-08 15:35:55.398,7.259824,-11.239088,1.9381863,0.35307986,-1.3931534,-4.0609527,-45.037502,24.375002,10.743751,0.23994112,-0.67267996,0.6855237,1008.05,37.88827342,127.73992566,147.34112548828125,1.76
2025-03-08 15:35:55.419,5.8743796,-10.923235,1.2179468,0.30665413,-1.2728131,-4.150139,-47.71875,20.75625,12.431251,0.27590153,-0.6617627,0.67875195,1008.0468,37.88827342,127.73992566,147.34112548828125,1.76
2025-03-08 15:35:55.438,5.9700923,-10.631311,1.3447664,0.24312419,-0.88552487,-4.0756135,-49.331253,17.79375,13.275001,0.31760588,-0.646929,0.66893077,1008.0468,37.88827342,127.73992566,147.34112548828125,1.76
2025-03-08 15:35:55.458,6.0011992,-10.353744,1.2346965,0.24190246,-0.5764273,-4.085998,-49.893753,16.331251,13.743751,0.34016505,-0.6370475,0.66298765,1008.04584,37.88827342,127.73992566,147.34112548828125,1.76
2025-03-08 15:35:55.479,6.2404814,-10.028319,1.0001999,0.24434592,-0.41149378,-4.1800714,-50.737503,13.2375,14.418751,0.368261,-0.6224934,0.654944,1008.04584,37.88827342,127.73992566,147.34112548828125,1.76
2025-03-08 15:35:55.499,6.285945,-10.001999,0.72741807,0.28710645,-0.5263364,-4.3779917,-52.3875,8.1,15.731251,0.40304074,-0.6020715,0.64342886,1008.0468,37.88827342,127.73992566,147.34112548828125,1.76
2025-03-08 15:35:55.518,5.4628143,-9.760324,0.43788654,0.34758207,-0.7963386,-4.452517,-53.250004,4.59375,16.6875,0.43226078,-0.5841819,0.6322172,1008.0468,37.88827342,127.73992566,147.34112548828125,1.76
2025-03-08 15:35:55.539,4.338187,-9.334401,-0.20338993,0.3035998,-1.0864993,-4.354168,-53.625004,1.0500001,17.34375,0.4625809,-0.5659958,0.61876076,1008.0517,37.88827342,127.73992566,147.34112548828125,1.76
2025-03-08 15:35:55.559,3.2590244,-8.95155,-0.60059845,0.08429934,-0.99609137,-4.0359073,-53.850002,-2.79375,17.868752,0.4916834,-0.54886496,0.60340595,1008.0517,37.88827342,127.73992566,147.34112548828125,1.76
2025-03-08 15:35:55.578,2.2899313,-8.7577305,-0.26081768,-0.08796453,-0.70165455,-3.6174648,-53.79375,-4.7250004,18.243752,0.51633936,-0.5332954,0.5880593,1008.039,37.88827342,127.73992566,147.34112548828125,1.76
2025-03-08 15:35:55.600,2.1822543,-8.200203,0.30867413,-0.10079269,-0.60086185,-2.9510114,-52.800003,-11.025001,19.331251,0.54002076,-0.5164332,0.5712029,1008.039,37.88827342,127.73992566,147.34112548828125,1.76
2025-03-08 15:35:55.620,2.2707887,-8.087741,0.22731815,-0.040317077,-0.68455034,-2.4757586,-52.050003,-14.625001,19.9125,0.5521295,-0.5079472,0.5591734,1008.03436,37.88827342,127.73992566,147.34112548828125,1.76
2025-03-08 15:35:55.639,2.0841484,-8.118847,-0.3493521,0.018325943,-0.56970775,-1.6626976,-51.018753,-17.587502,20.831251,0.56870794,-0.49688652,0.5493065,1008.03436,37.88827342,127.73992566,147.34112548828125,1.76
2025-03-08 15:35:55.659,2.053042,-8.042277,-0.55034924,0.0048869182,-0.50801045,-1.1489602,-50.4,-19.03125,21.056252,0.57583594,-0.49161413,0.542165,1008.03265,37.88827342,127.73992566,147.34112548828125,1.76
2025-03-08 15:35:55.678,2.1463618,-7.24786,-0.31345975,0.028099779,-0.34124434,-0.38599017,-49.125004,-21.487501,21.54375,0.5828602,-0.4897309,0.53791946,1008.03265,37.88827342,127.73992566,147.34112548828125,1.76
2025-03-08 15:35:55.698,2.8307092,-7.379465,-0.849452,0.100181825,-0.10117448,0.2767981,-48.35625,-22.462502,21.900002,0.58425057,-0.49044415,0.53714633,1008.0285,37.88827342,127.73992566,147.34112548828125,1.76
2025-03-08 15:35:55.718,2.9336007,-8.094919,-1.4931214,0.03054324,0.11751511,0.81558084,-48.300003,-23.325,22.050001,0.58192134,-0.49349675,0.53963643,1008.0285,37.88827342,127.73992566,147.34112548828125,1.76
2025-03-08 15:35:55.739,3.1513474,-8.56152,-1.7946169,-0.12034036,0.36980227,1.4447715,-48.393753,-23.325,22.181252,0.57531637,-0.49961793,0.54479885,1008.0236,37.88827342,127.73992566,147.34112548828125,1.76
2025-03-08 15:35:55.758,3.8739798,-8.7984085,-1.5984055,-0.35491243,0.70455617,2.016541,-48.73125,-22.5,22.181252,0.5599266,-0.5117923,0.5548234,1008.0236,37.88827342,127.73992566,147.34112548828125,1.76
2025-03-08 15:35:55.778,4.5152564,-9.119047,-0.8997013,-0.49480048,0.89514595,2.3244169,-49.125004,-22.237501,22.331251,0.54715705,-0.52087784,0.56218547,1008.0214,37.88827342,127.73992566,147.34112548828125,1.76
2025-03-08 15:35:55.800,4.962714,-9.466006,0.23928227,-0.48685923,0.8933134,2.5797584,-50.268753,-20.212502,21.712502,0.5221372,-0.53745776,0.5755863,1008.0214,37.88827342,127.73992566,147.34112548828125,1.76
2025-03-08 15:35:55.818,4.9842496,-9.401401,0.76331043,-0.3274235,0.7540362,2.7159812,-50.79375,-19.368752,21.375,0.50115037,-0.5509553,0.5865983,1008.0285,37.88827342,127.73992566,147.34112548828125,1.76
2025-03-08 15:35:55.838,4.7138605,-9.126225,0.567099,-0.106290475,0.6324741,2.8986297,-52.162502,-16.612501,20.15625,0.48047358,-0.56391156,0.5979597,1008.0285,37.88827342,127.73992566,147.34112548828125,1.76
2025-03-08 15:35:55.858,4.1443686,-8.585447,-0.16271193,-0.015882485,0.74609494,3.1154866,-52.518753,-15.337501,19.48125,0.45915318,-0.5763174,0.60998595,1008.03534,37.88827342,127.73992566,147.34112548828125,1.76
2025-03-08 15:35:55.878,4.180261,-8.355737,-0.76570326,-0.17409647,1.0362557,3.447797,-53.7,-12.20625,18.6375,0.4349003,-0.58890045,0.6227018,1008.03534,37.88827342,127.73992566,147.34112548828125,1.76
2025-03-08 15:35:55.898,4.692325,-8.327023,-0.53359944,-0.43432486,1.2164608,3.755062,-53.98125,-11.00625,18.16875,0.4064416,-0.60252297,0.6352625,1008.03046,37.88827342,127.73992566,147.34112548828125,1.76
2025-03-08 15:35:55.918,5.7188463,-8.16431,0.4019942,-0.64446235,1.1596504,3.9554257,-54.99375,-6.6562505,16.725,0.36633027,-0.6212864,0.6490491,1008.03046,37.88827342,127.73992566,147.34112548828125,1.76
2025-03-08 15:35:55.938,6.946364,-8.1020975,1.0600204,-0.7037162,0.8878156,3.9261043,-55.2,-3.3375,15.562501,0.33360842,-0.63659805,0.65776706,1008.0307,37.88827342,127.73992566,147.34112548828125,1.76
2025-03-08 15:35:55.958,8.085348,-8.133204,1.835295,-0.650571,0.6642391,3.733071,-55.218754,0.1875,14.55,0.30282125,-0.65095234,0.6643431,1008.0307,37.88827342,127.73992566,147.34112548828125,1.76
2025-03-08 15:35:55.979,8.224132,-8.3581295,2.5387847,-0.4459313,0.56100297,3.47101,-55.031254,1.9687501,14.118751,0.27483118,-0.66310537,0.6697238,1008.0363,37.88827342,127.73992566,147.34112548828125,1.76
2025-03-08 15:35:56.000,7.5326056,-8.860622,2.7996025,0.053145237,0.5811615,3.3182938,-54.037502,6.675,13.05,0.24264772,-0.6736188,0.6774257,1008.0363,37.88827342,127.73992566,147.34112548828125,1.76
2025-03-08 15:35:56.018,7.1784678,-9.753145,2.0482562,0.3451386,0.71921694,3.3952627,-53.756252,8.137501,12.468751,0.2234442,-0.6771922,0.68364865,1008.04755,37.88827342,127.73992566,147.34112548828125,1.76
2025-03-08 15:35:56.038,7.04447,-10.1288185,0.9284152,0.5186242,0.99471694,3.59807,-52.518753,12.20625,11.6625,0.19588655,-0.67974514,0.6933775,1008.04755,37.88827342,127.73992566,147.34112548828125,1.76
2025-03-08 15:35:56.059,7.4584284,-10.286744,0.13160525,0.48136145,1.0386992,3.6750388,-51.768753,13.762501,11.231251,0.16611221,-0.6810987,0.70310766,1008.04486,37.88827342,127.73992566,147.34112548828125,1.76
2025-03-08 15:35:56.078,8.176275,-10.846665,0.13399807,0.34269515,1.0026581,3.733682,-49.85625,17.962502,10.481251,0.12819447,-0.68266284,0.71299875,1008.04486,37.88827342,127.73992566,147.34112548828125,1.76
2025-03-08 15:35:56.099,9.186047,-10.985449,0.6963114,0.3188714,0.885983,3.7080255,-48.825,19.63125,9.95625,0.09807333,-0.68361855,0.7191261,1008.0483,37.88827342,127.73992566,147.34112548828125,1.76
2025-03-08 15:35:56.118,11.397015,-10.872986,0.485743,0.2809978,0.6880628,3.3592217,-46.93125,22.63125,8.90625,0.070280924,-0.68369764,0.7240398,1008.0483,37.88827342,127.73992566,147.34112548828125,1.76
2025-03-08 15:35:56.139,12.49532,-10.492527,0.17706887,0.09773836,0.5683333,2.5070653,-43.706253,26.437502,7.65,0.04267872,-0.68337417,0.72776526,1008.0451,37.88827342,127.73992566,147.34112548828125,1.76
2025-03-08 15:35:56.160,12.701102,-10.755738,0.0741775,-0.16249003,0.5823832,1.7911319,-41.737503,28.66875,6.8812504,0.02623698,-0.68401575,0.72839296,1008.0451,37.88827342,127.73992566,147.34112548828125,1.76
2025-03-08 15:35:56.178,12.320643,-10.856236,0.37088752,-0.4159989,0.5530617,1.194317,-40.893753,29.475,6.6562505,0.016976371,-0.6855145,0.72740144,1008.03973,37.88826171,127.73993558,147.10009765625,1.72
2025-03-08 15:35:56.199,12.337394,-10.939985,1.2490535,-0.60597783,0.5011382,0.5113702,-37.875,32.025,5.71875,0.0071233306,-0.6898674,0.7234765,1008.03973,37.88826171,127.73993558,147.10009765625,1.72
2025-03-08 15:35:56.219,11.784652,-11.5621195,2.3976083,-0.582765,0.58727014,-0.009697478,-37.331253,32.53125,5.9625,0.004253552,-0.6928315,0.72056776,1008.0412,37.88826171,127.73993558,147.10009765625,1.72
2025-03-08 15:35:56.238,10.674382,-11.887543,3.103491,-0.26083925,0.7393755,-0.531376,-36.05625,33.3375,6.1875005,0.0027203104,-0.69618607,0.71688765,1008.0412,37.88826171,127.73993558,147.10009765625,1.72
2025-03-08 15:35:56.258,9.923036,-12.3708935,2.4622145,0.086742796,0.6227003,-0.8740711,-35.79375,33.43125,6.05625,0.0040165144,-0.6960991,0.71628433,1008.0505,37.88826171,127.73993558,147.10009765625,1.72
2025-03-08 15:35:56.279,9.930214,-12.535997,1.5864414,0.3414734,-0.033368487,-1.3138938,-36.54375,33.393753,5.925,0.0118875755,-0.6934922,0.7176192,1008.0505,37.88826171,127.73993558,147.10009765625,1.72
2025-03-08 15:35:56.298,9.597611,-12.067004,0.8207382,0.38851,-0.41332638,-1.6193261,-36.75,33.16875,5.4187503,0.021464698,-0.6913682,0.7187437,1008.0522,37.88826171,127.73993558,147.10009765625,1.72
2025-03-08 15:35:56.318,9.482756,-11.789437,0.23928227,0.33536476,-0.6112466,-2.1684935,-37.875,32.475002,4.8187504,0.043686215,-0.68789226,0.71966344,1008.0522,37.88826171,127.73993558,147.10009765625,1.72
2025-03-08 15:35:56.338,9.281759,-12.160325,-0.12921242,0.28710645,-0.63690287,-2.6266422,-38.381252,32.0625,4.8187504,0.059622277,-0.6857406,0.7193598,1008.05316,37.88826171,127.73993558,147.10009765625,1.72
2025-03-08 15:35:56.358,8.575876,-12.301501,-0.2321038,0.16615522,-0.76823884,-3.1043384,-39.9375,30.806252,5.2875004,0.08399097,-0.68277955,0.717536,1008.05316,37.88826171,127.73993558,147.10009765625,1.72
2025-03-08 15:35:56.379,7.9393854,-11.691332,0.35413775,0.076358095,-0.92706364,-3.5435503,-42.225002,28.425001,5.86875,0.11927536,-0.6789476,0.7124273,1008.04974,37.88826171,127.73993558,147.10009765625,1.72
2025-03-08 15:35:56.398,6.431907,-10.913664,0.81595254,0.13316852,-0.8763619,-3.76957,-44.4,26.437502,6.1312504,0.15020326,-0.6747864,0.7066978,1008.04974,37.88826171,127.73993558,147.10009765625,1.72
2025-03-08 15:35:56.418,5.4388857,-10.645668,0.552742,0.2254091,-0.6643918,-3.7243662,-45.3375,25.500002,6.3750005,0.1804237,-0.6688134,0.70069164,1008.0546,37.88826171,127.73993558,147.10009765625,1.72
2025-03-08 15:35:56.439,4.9674997,-10.432707,0.13878371,0.3536907,-0.49334967,-3.6192975,-48.112503,21.618752,7.0125003,0.21501397,-0.65896624,0.69354004,1008.0546,37.88826171,127.73993558,147.10009765625,1.72
2025-03-08 15:35:56.458,5.15414,-10.202995,-0.22492532,0.36651886,-0.68271774,-3.5478263,-48.80625,20.306252,7.2000003,0.23514296,-0.6522166,0.6891069,1008.0507,37.88826171,127.73993558,147.10009765625,1.72
2025-03-08 15:35:56.478,5.9653068,-9.652647,0.14596218,0.38973173,-1.0693952,-3.616854,-50.343754,17.38125,7.36875,0.2630213,-0.64313334,0.682002,1008.0507,37.88826171,127.73993558,147.10009765625,1.72
2025-03-08 15:35:56.499,6.108876,-9.343972,0.10767702,0.42882708,-1.5208242,-3.7353618,-51.862503,14.531251,8.15625,0.2942157,-0.6336286,0.6729556,1008.05194,37.88826171,127.73993558,147.10009765625,1.72
2025-03-08 15:35:56.519,5.2953167,-9.475577,-0.35653058,0.3677406,-1.3607776,-3.7139814,-53.41875,10.425,9.431251,0.33573195,-0.6209506,0.659119,1008.05194,37.88826171,127.73993558,147.10009765625,1.72
2025-03-08 15:35:56.539,5.2737813,-9.6071825,-0.715454,0.2290743,-0.97410023,-3.5795913,-54.54375,7.0125003,10.5,0.36546057,-0.6100581,0.64770436,1008.06146,37.88826171,127.73993558,147.10009765625,1.72
2025-03-08 15:35:56.558,5.6853466,-9.341579,-0.8470592,0.056810424,-0.69982195,-3.522781,-54.975002,5.4375,11.15625,0.39106998,-0.5989478,0.63619596,1008.06146,37.88826171,127.73993558,147.10009765625,1.72
2025-03-08 15:35:56.580,5.3144593,-9.188439,-0.97866446,-0.12583815,-0.7761801,-3.5637088,-55.800003,0.09375,13.293751,0.42073405,-0.585007,0.62019366,1008.05927,37.88826171,127.73993558,147.10009765625,1.72
2025-03-08 15:35:56.599,4.8598228,-9.410972,-0.96909314,-0.2583958,-1.0681734,-3.5453827,-55.912502,-3.6375,14.025001,0.43865857,-0.5771811,0.6089033,1008.05927,37.88826171,127.73993558,147.10009765625,1.72
2025-03-08 15:35:56.619,3.6586258,-10.035499,-0.9379865,-0.42027497,-1.2386047,-3.308978,-55.48125,-6.7312503,15.056251,0.4686765,-0.566156,0.58710593,1008.0578,37.88826171,127.73993558,147.10009765625,1.72
2025-03-08 15:35:56.639,2.8378878,-9.858429,-0.5838487,-0.5326741,-1.160414,-2.9430702,-55.18125,-8.418751,15.4875,0.48489806,-0.5608419,0.57361233,1008.0578,37.88826171,127.73993558,147.10009765625,1.72
2025-03-08 15:35:56.658,2.4741786,-9.671789,-0.41874397,-0.5412262,-0.8733076,-2.4415503,-54.45,-11.587501,16.2,0.5029386,-0.55511314,0.5568825,1008.05975,37.88826171,127.73993558,147.10009765625,1.72
2025-03-08 15:35:56.678,2.268396,-9.961321,-0.9834501,-0.5497783,-0.4890736,-1.8716134,-53.550003,-14.587501,16.743752,0.51888,-0.549346,0.5402441,1008.05975,37.88826171,127.73993558,147.10009765625,1.72
2025-03-08 15:35:56.699,1.3878372,-9.779466,-1.4620147,-0.64446235,0.008170316,-1.1526254,-52.29375,-18.225,17.681252,0.525764,-0.5464042,0.53085935,1008.0583,37.88826171,127.73993558,147.10009765625,1.72
2025-03-08 15:35:56.720,0.8350951,-9.645468,-1.6151553,-0.7812961,0.407065,-0.35361436,-51.562504,-20.1,18.0375,0.5258389,-0.54610205,0.52459073,1008.0583,37.88826171,127.73993558,147.10009765625,1.72
2025-03-08 15:35:56.739,1.0001999,-9.499506,-1.2993027,-0.8839213,0.59887654,0.34643668,-51.15,-21.65625,18.112501,0.5213809,-0.548353,0.5235344,1008.0588,37.88826171,127.73993558,147.10009765625,1.72
2025-03-08 15:35:56.759,2.1080768,-10.107283,-1.4739788,-0.9633338,0.8236748,1.0642028,-50.79375,-22.59375,17.56875,0.5104643,-0.554458,0.52519375,1008.0588,37.88826171,127.73993558,147.10009765625,1.72
2025-03-08 15:35:56.778,3.1082766,-10.645668,-1.5960127,-1.1129956,1.0386992,1.6048181,-50.775,-22.800001,17.306252,0.49425057,-0.56336194,0.5298507,1008.05927,37.88826171,127.73993558,147.10009765625,1.72
