Time,Accel_X,Accel_Y,Accel_Z,Gyro_X,Gyro_Y,Gyro_Z,Mag_X,Mag_Y,Mag_Z,Orient_X,Orient_Y,Orient_Z,Pressure,Lat,Lng,Alt,Speed
2025-09-28 19:38:16.165,0.14596218,4.87418,7.685746,0.19204062,-0.2323577,0.07055488,24.750002,-27.825,-36.1875,0.18282372,0.17362937,0.6929805,995.5158,37.88837735,127.73983985,141.75970458984375,0.0
2025-09-28 19:38:16.184,0.3924229,4.7712884,7.735996,0.0112246405,-0.032604907,0.0962112,24.206251,-29.00625,-36.075,0.1854838,0.17418276,0.69298327,995.52875, , , , 
2025-09-28 19:38:16.204,0.47138608,4.759324,8.590233,-0.010155627,0.076739885,0.057115857,26.343752,-28.5375,-35.23125,0.1857234,0.17412715,0.69343007,995.52875, , , , 
2025-09-28 19:38:16.224,0.45702913,4.8239303,9.08794,0.09735657,0.090178914,0.0058032153,25.575,-28.85625,-36.525,0.185381,0.1743627,0.69416744,995.54193, , , , 
2025-09-28 19:38:16.246,0.3062813,5.003392,8.848659,0.13584106,0.046807513,-0.021685699,25.031252,-29.812502,-33.16875,0.18564205,0.17520806,0.6941657,995.54193, , , , 
2025-09-28 19:38:16.264,0.61016977,5.235496,8.635697,0.10468695,0.07918335,-0.051007207,27.656252,-29.38125,-36.862503,0.1860831,0.17610335,0.69391924,995.53485, , , , 
2025-09-28 19:38:16.284,-0.5024927,4.395615,8.322237,0.018555017,0.2636645,-0.11209369,25.500002,-29.625002,-33.393753,0.18654169,0.17761827,0.69303614,995.53485, , , , 
2025-09-28 19:38:16.304,0.17706887,5.4628143,9.236296,0.053985175,0.39011353,-0.062002774,26.587502,-29.5125,-35.04375,0.18361208,0.18044525,0.6930128,995.53485, , , , 
2025-09-28 19:38:16.324,0.023928227,4.8047876,8.886943,0.12728895,0.18791728,-0.05589413,27.862501,-27.50625,-34.6875,0.1825392,0.18237889,0.6929334,995.53485, , , , 
2025-09-28 19:38:16.344,0.1268196,5.032106,8.446664,0.17432554,0.12866339,-0.03451386,25.800001,-30.468752,-34.912502,0.18215579,0.18487343,0.692589,995.5297, , , , 
2025-09-28 19:38:16.364,0.18424734,4.9268217,8.449057,0.1211803,0.092011504,-0.045509428,26.94375,-28.48125,-35.30625,0.18258432,0.18709129,0.69222814,995.5297, , , , 
2025-09-28 19:38:16.384,-0.1052842,4.9052863,8.374879,0.08452842,0.087124586,-0.038179047,27.45,-28.800001,-34.10625,0.18268088,0.18798573,0.69201547,995.5307, , , , 
2025-09-28 19:38:16.404,-0.22253251,5.0679984,8.16431,0.0112246405,0.12316561,-0.008246674,25.087502,-30.300001,-34.068752,0.18222383,0.1893453,0.69184566,995.5307, , , , 
2025-09-28 19:38:16.424,-0.16271193,5.022535,8.252846,-0.03642281,0.1164461,0.010690134,27.581251,-30.393751,-35.25,0.1813973,0.19049945,0.69196486,995.52655, , , , 
2025-09-28 19:38:16.444,-0.148355,4.981857,8.554341,-0.012599086,-0.003894263,0.037568185,26.925001,-30.487501,-32.25,0.18043603,0.190992,0.6923123,995.52655, , , , 
2025-09-28 19:38:16.464,-0.14356937,5.0440702,8.506484,-0.005268709,-0.042378742,0.044898562,23.831251,-30.056252,-34.275,0.18037564,0.19096662,0.6923759,995.52826, , , , 
2025-09-28 19:38:16.484,0.15792629,5.1062837,8.035098,-0.06879865,-0.057650365,0.032070402,27.0375,-27.862501,-33.80625,0.18138209,0.19005568,0.6926632,995.52826, , , , 
2025-09-28 19:38:16.504,0.14596218,5.0847483,8.3581295,-0.14332415,0.0938441,0.008857539,25.218752,-31.143751,-34.03125,0.18131314,0.18938453,0.692956,995.54095, , , , 
2025-09-28 19:38:16.524,-0.23449662,4.914858,8.623733,-0.11950042,0.0834594,0.021685699,27.993752,-28.368752,-35.71875,0.17975117,0.18900152,0.6935005,995.54095, , , , 
2025-09-28 19:38:16.544,-0.124426775,4.8502517,8.999406,-0.05535962,0.084070265,0.03573559,23.493752,-29.23125,-31.031252,0.17827798,0.18886994,0.6940182,995.5568, , , , 
2025-09-28 19:38:16.564,-0.1794617,4.7569313,8.975478,0.014889829,0.06879865,0.032681264,24.73125,-29.831251,-33.45,0.17742963,0.18881254,0.69439423,995.5568, , , , 
2025-09-28 19:38:16.584,-0.12203395,4.910072,8.872586,0.06436988,-0.006948587,0.02046397,25.556252,-27.88125,-33.1875,0.17684525,0.18906341,0.6947275,995.57245, , , , 
2025-09-28 19:38:16.604,-0.10049855,4.974678,8.903693,0.08269582,-0.029550584,0.013744458,26.925001,-28.48125,-34.518753,0.17698121,0.18914866,0.69474113,995.57245, , , , 
2025-09-28 19:38:16.624,-0.086141616,5.070391,8.71466,0.0881936,-0.0063377223,0.016187917,27.375002,-29.19375,-34.3875,0.17741486,0.18933858,0.69468325,995.57245, , , , 
2025-09-28 19:38:16.644,-0.02871387,5.103891,8.628518,0.013668099,0.023594651,0.024129158,26.1,-28.95,-33.956253,0.1781606,0.19039506,0.69467366,995.57465, , , , 
2025-09-28 19:38:16.664,-0.07178468,5.005785,8.635697,0.022831071,0.013820816,0.01802051,25.95,-30.337502,-33.24375,0.17826715,0.19057909,0.6948147,995.5866, , , , 
2025-09-28 19:38:16.684,-0.023928227,5.048856,8.379665,0.021609342,-0.017944153,0.021685699,24.675001,-27.862501,-31.85625,0.17857033,0.19085693,0.6949102,995.5866, , , , 
2025-09-28 19:38:16.704,0.1268196,5.0416775,8.415557,0.030161448,-0.045433067,-3.054324E-4,28.031252,-28.743752,-33.693752,0.17903647,0.1908632,0.69491404,995.59, , , , 
2025-09-28 19:38:16.724,0.11964113,5.046463,8.410771,0.043600474,-0.060093824,-0.03573559,26.643751,-28.275002,-32.662502,0.179936,0.19068128,0.69469947,995.59, , , , 
2025-09-28 19:38:16.744,-0.08853444,5.0536413,8.441878,-0.01809687,0.028481571,-0.051618073,23.38125,-29.868752,-31.7625,0.18056318,0.19080046,0.6941964,995.5881, , , , 
2025-09-28 19:38:16.764,-0.25124636,5.0344987,8.673982,-0.04619665,0.017486004,-0.03695732,26.56875,-28.781252,-33.693752,0.18004788,0.19101463,0.69396156,995.5881, , , , 
2025-09-28 19:38:16.784,-0.19381863,4.9579287,8.628518,-0.03825541,-0.01244637,-0.013744458,24.993752,-29.081251,-30.900002,0.17959006,0.19092959,0.693852,995.5915, , , , 
2025-09-28 19:38:16.804,-0.009571291,4.922036,8.580662,-0.016264275,0.016264275,-0.0027488915,24.73125,-27.6,-32.9625,0.17912,0.19060983,0.6938731,995.5915, , , , 
2025-09-28 19:38:16.825,-0.08135597,4.9172506,8.834301,0.021609342,-0.017944153,-0.008857539,24.16875,-28.800001,-30.35625,0.17893198,0.1904574,0.6939266,995.5993, , , , 
2025-09-28 19:38:16.844,-0.19381863,4.9435716,8.705089,0.045433067,-0.036270097,0.0058032153,25.35,-27.4125,-32.41875,0.17903876,0.19031641,0.69383204,995.5993, , , , 
2025-09-28 19:38:16.864,-0.06699903,5.003392,8.343773,0.028328855,-0.008170316,0.022296565,25.85625,-28.593752,-33.318752,0.17926581,0.19041023,0.6937838,995.601, , , , 
2025-09-28 19:38:16.884,0.014356935,5.0009995,8.556734,-0.012599086,0.021151192,0.013133593,26.625002,-29.268751,-33.99375,0.17951992,0.19060647,0.693917,995.601, , , , 
2025-09-28 19:38:16.904,-0.15074782,4.910072,8.7577305,0.010613776,0.015042545,0.014355322,24.35625,-30.018751,-30.768751,0.17938045,0.19054355,0.69406074,995.6032, , , , 
2025-09-28 19:38:16.924,-0.019142581,4.948357,8.748159,0.056428634,0.008323032,0.03084867,24.69375,-27.843752,-33.24375,0.17922279,0.19068928,0.6942672,995.6032, , , , 
2025-09-28 19:38:16.944,0.016749758,4.965107,8.724232,0.05948296,0.0064904382,0.031459536,24.69375,-27.843752,-33.24375,0.17922279,0.19068928,0.6942672,995.6032, , , , 
2025-09-28 19:38:16.965,0.14356937,5.0440702,8.365308,0.07353285,-0.028939718,0.013744458,23.925001,-28.575,-31.425001,0.1799688,0.19089171,0.6943627,995.60834, , , , 
2025-09-28 19:38:16.984,0.021535404,5.089534,8.195417,-0.0022143847,0.06207913,-0.0027488915,25.968752,-30.31875,-34.3125,0.1812291,0.1914578,0.6942311,995.6037, , , , 
2025-09-28 19:38:17.004,-0.0071784677,5.0440702,8.52802,-0.026648976,0.099341884,-9.162972E-4,23.41875,-29.1,-33.037502,0.18076116,0.19206022,0.6943954,995.6037, , , , 
2025-09-28 19:38:17.024,-0.04546363,4.9842496,8.848659,-0.008323032,0.12744166,-0.00641408,26.23125,-28.2,-32.925003,0.18010129,0.19238058,0.6945716,995.6064, , , , 
2025-09-28 19:38:17.044,-0.13160525,5.1182475,8.8701935,0.038713556,0.022372922,-0.004581486,25.0125,-29.831251,-31.781252,0.17903607,0.19294481,0.69481313,995.6064, , , , 
2025-09-28 19:38:17.064,-0.13160525,5.003392,8.60459,0.043600474,-0.05093085,0.011300999,25.893751,-28.368752,-31.95,0.17920175,0.19317995,0.6947004,995.611, , , , 
2025-09-28 19:38:17.084,-0.08853444,5.1254263,8.444271,0.03565923,-0.024663666,0.014355322,26.23125,-28.81875,-31.650002,0.17959496,0.19316635,0.6946385,995.611, , , , 
2025-09-28 19:38:17.104,-0.09810573,5.032106,8.374879,0.02527453,-0.038713556,0.013744458,25.9125,-27.6,-33.54375,0.18027976,0.19335607,0.6945742,995.6152, , , , 
2025-09-28 19:38:17.124,-0.15553348,5.029713,8.32463,0.011835505,-0.023441937,0.00641408,25.143751,-29.925001,-32.71875,0.18071693,0.19336194,0.6945124,995.6152, , , , 
2025-09-28 19:38:17.144,-0.2943172,4.651647,8.475378,-0.03825541,0.053527027,-0.010690134,24.35625,-29.38125,-32.04375,0.1807865,0.19358285,0.69446725,995.61053, , , , 
2025-09-28 19:38:17.164,0.086141616,5.2283173,8.537591,-0.016264275,0.0077121677,-0.013133593,26.268751,-27.825,-31.10625,0.17991033,0.19345376,0.69448733,995.61053,37.88837735,127.73983985,141.75970458984375,0.0
2025-09-28 19:38:17.184,-0.10049855,5.103891,8.678768,0.0026725335,-0.03932442,-0.031459536,26.79375,-28.3875,-33.600002,0.17953289,0.19321172,0.6943226,995.6049, , , , 
2025-09-28 19:38:17.204,-0.10049855,5.048856,8.539984,0.020387612,-0.033826638,-0.011911863,24.35625,-30.018751,-30.768751,0.17972796,0.19307843,0.6940574,995.6049, , , , 
2025-09-28 19:38:17.224,-0.15314065,5.127819,8.484949,0.034437504,-0.03932442,-0.0027488915,25.406252,-28.5375,-31.743752,0.1799953,0.19307283,0.69392025,995.61664, , , , 
2025-09-28 19:38:17.244,-0.03589234,5.0847483,8.413164,0.028939718,-0.030772313,0.0021380268,23.831251,-29.812502,-31.500002,0.18052374,0.19317098,0.6937694,995.61664, , , , 
2025-09-28 19:38:17.264,0.011964113,5.06082,8.310273,0.011835505,0.016264275,0.004581486,26.643751,-28.9125,-31.06875,0.18089929,0.19322984,0.6937172,995.61664, , , , 
2025-09-28 19:38:17.284,-0.078963146,5.087141,8.420342,-0.039477136,0.081015944,0.008246674,25.85625,-30.843752,-33.975002,0.18060844,0.19373566,0.69390005,995.61273, , , , 
2025-09-28 19:38:17.304,-0.12921242,5.022535,8.891729,-0.058413945,0.11400264,0.011300999,26.118752,-30.187502,-33.412502,0.17942987,0.19392724,0.6943156,995.6103, , , , 
2025-09-28 19:38:17.324,-0.14356937,5.0273204,8.903693,-0.037033677,0.12438734,0.016798781,26.062502,-28.968752,-32.4,0.17837262,0.1940699,0.6946486,995.6103, , , , 
2025-09-28 19:38:17.344,-0.124426775,5.056034,8.707481,2.290743E-4,0.09812015,0.02535089,25.743752,-30.487501,-31.66875,0.17701021,0.19454643,0.69516885,995.6081, , , , 
2025-09-28 19:38:17.364,-0.09571291,5.06082,8.583055,0.017944153,0.10545053,0.03451386,26.1,-28.95,-34.256252,0.1764013,0.19510862,0.6955351,995.6081, , , , 
2025-09-28 19:38:17.384,-0.13399807,5.0368915,8.508878,0.018555017,0.11217005,0.035124727,25.837502,-27.88125,-31.35,0.17606874,0.19566105,0.6958223,995.6125, , , , 
2025-09-28 19:38:17.404,-0.050249275,5.0751767,8.585447,0.027717989,0.084070265,0.021074835,24.6,-28.650002,-28.706251,0.17560324,0.19641864,0.6961897,995.6125, , , , 
2025-09-28 19:38:17.424,-0.11724831,5.058427,8.611769,0.060093824,-0.04176788,-0.0058032153,26.400002,-29.437502,-31.95,0.17580587,0.19680268,0.6962631,995.6152, , , , 
2025-09-28 19:38:17.444,-0.17228323,5.015356,8.322237,0.055817768,-0.06131555,-0.010079269,24.243752,-30.656252,-31.500002,0.17642404,0.19678888,0.696071,995.6152, , , , 
2025-09-28 19:38:17.464,-0.083748795,5.0440702,8.298309,-0.03581195,0.052305296,-0.0070249448,26.775002,-28.3875,-33.28125,0.17696276,0.19706018,0.69584864,995.6103, , , , 
2025-09-28 19:38:17.484,-0.0526421,5.020142,8.633304,-0.029092435,0.054748755,-0.003970621,24.91875,-28.725,-30.750002,0.1763396,0.19713177,0.69604653,995.6103, , , , 
2025-09-28 19:38:17.504,-0.15553348,5.046463,8.580662,0.014889829,0.0064904382,-0.0027488915,26.2875,-29.94375,-31.593752,0.17607695,0.1970998,0.6961394,995.6137, , , , 
2025-09-28 19:38:17.524,-0.124426775,5.1086764,8.496913,0.033826638,-0.044822205,-3.054324E-4,27.206251,-29.1,-32.04375,0.17622788,0.19713435,0.69610655,995.6137, , , , 
2025-09-28 19:38:17.544,-0.13160525,5.096712,8.544769,0.014278964,-0.027107125,-0.011300999,26.1375,-30.825,-32.925003,0.17722037,0.19697578,0.6958497,995.612, , , , 
2025-09-28 19:38:17.564,-0.26081768,4.9986067,8.645268,0.005726857,0.0022143847,-0.00641408,26.737501,-30.6375,-31.29375,0.17733061,0.19693577,0.6957721,995.612, , , , 
2025-09-28 19:38:17.584,-0.31345975,5.1014977,8.705089,0.015500694,0.0077121677,0.00641408,25.368752,-29.531252,-32.1375,0.17707303,0.19702937,0.6957587,995.61957, , , , 
2025-09-28 19:38:17.604,-0.18185452,5.113462,8.635697,0.033215772,-0.030161448,0.010079269,25.500002,-29.643751,-32.775,0.1770704,0.19713366,0.69575727,995.61957, , , , 
2025-09-28 19:38:17.624,-0.09571291,5.0799623,8.496913,0.055817768,-0.04176788,-0.008857539,26.23125,-28.2,-32.925003,0.17811206,0.1971892,0.69551665,995.6208, , , , 
2025-09-28 19:38:17.644,-0.15553348,5.058427,8.5016985,0.042989608,-0.0063377223,-0.021685699,24.73125,-29.60625,-30.375002,0.17853078,0.19725959,0.69535387,995.6208, , , , 
2025-09-28 19:38:17.664,-0.20578274,5.1158547,8.482556,0.015500694,0.014431681,-0.03084867,26.962502,-29.718752,-34.3125,0.1786712,0.19763789,0.69507885,995.6193, , , , 
2025-09-28 19:38:17.684,-0.22492532,5.1062837,8.4705925,0.008170316,0.022372922,-0.025961753,26.60625,-29.906252,-32.568752,0.17861104,0.19781484,0.69497067,995.6193, , , , 
2025-09-28 19:38:17.704,-0.18664017,5.130212,8.592627,0.0063377223,0.024205517,-0.00763581,26.268751,-28.575,-30.900002,0.17829052,0.1982686,0.6947907,995.61957, , , , 
2025-09-28 19:38:17.724,-0.15314065,5.1254263,8.609376,0.013668099,0.022372922,-0.0015271619,25.0125,-29.062502,-32.287502,0.17825565,0.19832453,0.6947864,995.61957, , , , 
2025-09-28 19:38:17.744,-0.17467605,5.144569,8.477771,0.045433067,0.014431681,0.010690134,25.650002,-29.5125,-31.556252,0.17828475,0.19866431,0.69482046,995.6193, , , , 
2025-09-28 19:38:17.764,-0.2416751,5.1326046,8.408379,0.033826638,0.00160352,0.01802051,25.500002,-29.41875,-30.150002,0.17856269,0.19903085,0.69481343,995.6193, , , , 
2025-09-28 19:38:17.784,-0.24646074,5.1206403,8.439486,0.003894263,-0.0032833982,0.021685699,26.5125,-28.1625,-32.193752,0.17880681,0.19938006,0.6949572,995.6154, , , , 
2025-09-28 19:38:17.804,-0.3182454,5.056034,8.475378,0.016722424,-0.019165883,0.027794348,24.112501,-29.062502,-30.337502,0.17888822,0.19944663,0.69503224,995.6154, , , , 
2025-09-28 19:38:17.824,-0.24646074,5.089534,8.472985,0.038713556,-0.018555017,0.029626941,27.562502,-26.56875,-32.081253,0.17902716,0.19956635,0.69510955,995.6174, , , , 
2025-09-28 19:38:17.844,-0.18903299,5.0751767,8.444271,0.04176788,-0.033826638,0.016187917,24.281252,-28.9125,-30.525002,0.17931455,0.19964287,0.69513565,995.6174, , , , 
2025-09-28 19:38:17.864,-0.22492532,5.1158547,8.348558,0.021609342,3.8179048E-4,0.0015271619,24.075,-28.66875,-32.2125,0.17980456,0.19978319,0.6950426,995.6208, , , , 
2025-09-28 19:38:17.884,-0.31106696,5.1086764,8.492127,-0.017486004,0.0297033,0.0015271619,28.050001,-31.48125,-33.075,0.17970976,0.20009704,0.6949918,995.6208, , , , 
2025-09-28 19:38:17.904,-0.2321038,5.1182475,8.539984,-0.009544762,-0.0051159924,0.013744458,25.95,-29.587502,-32.8125,0.17928751,0.20023264,0.6950692,995.62836, , , , 
2025-09-28 19:38:17.924,-0.16271193,5.096712,8.496913,0.0075594517,-0.03810269,0.013744458,27.975,-30.393751,-32.0625,0.17927244,0.20013781,0.695111,995.62836, , , , 
2025-09-28 19:38:17.944,-0.040677983,5.0536413,8.618947,0.024663666,-0.027107125,0.009468404,25.556252,-28.406252,-30.525002,0.17959726,0.19985868,0.69513065,995.6264, , , , 
2025-09-28 19:38:17.964,-0.1698904,5.156533,8.437093,0.034437504,-0.010002911,0.016798781,25.66875,-29.493752,-32.475002,0.18005455,0.19981806,0.69515634,995.6264, , , , 
2025-09-28 19:38:17.984,-0.09810573,5.197211,8.456235,0.0240528,-0.027107125,0.028405212,25.3875,-29.2875,-30.768751,0.18047293,0.19990852,0.6952035,995.62714, , , , 
2025-09-28 19:38:18.004,-0.011964113,5.2426744,8.458628,0.010613776,-0.03199404,0.025961753,24.993752,-29.831251,-31.462502,0.18102105,0.1997898,0.6953029,995.62714, , , , 
2025-09-28 19:38:18.024,-0.0526421,5.2331033,8.535198,2.290743E-4,0.0034361144,0.025961753,26.718752,-28.650002,-32.49375,0.18134525,0.19963555,0.69540995,995.61884, , , , 
2025-09-28 19:38:18.044,-0.078963146,5.2019963,8.628518,0.008170316,0.023594651,0.030237807,26.04375,-29.718752,-31.575,0.1814193,0.19964123,0.69568944,995.61884, , , , 
2025-09-28 19:38:18.064,-0.076570325,5.168497,8.56152,0.02649626,-2.290743E-4,0.03329213,23.925001,-30.69375,-30.375002,0.18146661,0.19968113,0.6959134,995.6186, , , , 
2025-09-28 19:38:18.084,-0.11485548,5.139783,8.52802,0.04054615,0.0022143847,0.032070402,26.737501,-30.6375,-31.7625,0.18168488,0.19972786,0.6960419,995.6186, , , , 
2025-09-28 19:38:18.104,-0.1268196,5.1924253,8.303095,0.016722424,0.025427246,0.012522728,25.575,-29.775002,-30.45,0.18195017,0.20007613,0.6962248,995.622, , , , 
2025-09-28 19:38:18.124,-0.07178468,5.1924253,8.166703,-0.022372922,0.032757625,-0.0015271619,26.19375,-28.218752,-31.368752,0.1819359,0.20043409,0.6962851,995.622, , , , 
2025-09-28 19:38:18.144,-0.08853444,5.17089,8.353344,-0.033979353,0.033979353,-0.00763581,26.156252,-29.212502,-31.931252,0.18174975,0.20056365,0.6963441,995.63007, , , , 
2025-09-28 19:38:18.164,-0.0047856453,5.113462,8.549556,-0.004657844,0.021151192,-0.009468404,24.750002,-29.60625,-31.7625,0.18146145,0.20054743,0.6964142,995.63007,37.88837735,127.73983985,141.75970458984375,0.0
2025-09-28 19:38:18.184,-0.023928227,5.1206403,8.566305,0.0032833982,0.015653409,-0.010079269,24.750002,-29.60625,-31.7625,0.18141423,0.20052084,0.6964274,995.63007, , , , 
2025-09-28 19:38:18.204,-0.059820566,5.111069,8.606983,0.024663666,0.032757625,0.004581486,23.868752,-29.56875,-30.431252,0.1814099,0.2004808,0.6964522,995.6286, , , , 
2025-09-28 19:38:18.224,-0.148355,5.1158547,8.504091,0.03932442,0.029092435,0.013133593,27.300001,-29.456251,-33.28125,0.18118307,0.20087764,0.69665676,995.634, , , , 
2025-09-28 19:38:18.244,-0.14117654,5.0799623,8.389236,0.042378742,-0.009392046,0.009468404,24.825,-29.962502,-31.593752,0.1812918,0.20106752,0.6966864,995.634, , , , 
2025-09-28 19:38:18.264,-0.1794617,5.1158547,8.226524,0.011835505,0.03092503,-9.162972E-4,25.218752,-30.056252,-29.925001,0.18166874,0.20141478,0.69659156,995.6347, , , , 
2025-09-28 19:38:18.284,-0.19142582,5.1421757,8.389236,-0.01687514,0.076739885,0.0027488915,26.475,-30.54375,-32.5125,0.18141787,0.20173915,0.6966447,995.6347, , , , 
2025-09-28 19:38:18.304,-0.25124636,5.13739,8.484949,-0.021151192,0.07063124,0.004581486,25.81875,-30.6375,-29.343752,0.18043855,0.20222871,0.69691056,995.64105, , , , 
2025-09-28 19:38:18.324,-0.23449662,5.1421757,8.379665,0.009392046,0.01687514,-0.0021380268,24.7875,-30.31875,-33.73125,0.18004389,0.20247363,0.696987,995.64105, , , , 
2025-09-28 19:38:18.344,-0.2847459,5.197211,8.293523,0.011835505,-0.010002911,-0.011911863,25.031252,-30.31875,-30.825,0.18005827,0.20274037,0.69689405,995.64935, , , , 
2025-09-28 19:38:18.364,-0.33020952,5.17089,8.343773,-0.017486004,-0.0014508038,-0.014355322,26.475,-30.54375,-31.575,0.18007736,0.20289662,0.6967612,995.64935, , , , 
2025-09-28 19:38:18.384,-0.19381863,5.130212,8.60459,-0.050472703,0.06269,-0.02046397,26.250002,-29.962502,-29.437502,0.1791894,0.2028254,0.69675475,995.64325, , , , 
2025-09-28 19:38:18.404,-0.2632105,5.194818,8.662018,-0.019929463,0.06024654,-0.013744458,25.0125,-30.337502,-29.437502,0.17853266,0.2028712,0.6968325,995.64325, , , , 
2025-09-28 19:38:18.424,-0.2536392,5.218746,8.633304,-0.004657844,0.04497492,-0.008246674,25.0125,-30.337502,-29.437502,0.17820208,0.20299713,0.6968615,995.64325, , , , 
2025-09-28 19:38:18.445,-0.069391854,5.2929235,8.30788,0.013057235,-0.03810269,0.022907428,25.9125,-30.35625,-31.5375,0.17852232,0.20326474,0.6968562,995.6464, , , , 
2025-09-28 19:38:18.464,-0.033499517,5.235496,8.176275,-0.011988222,-0.010002911,0.019853106,25.875002,-29.868752,-31.25625,0.1790157,0.2031796,0.69689834,995.6462, , , , 
2025-09-28 19:38:18.484,-0.08853444,5.111069,8.331808,-0.04253146,-0.01244637,3.054324E-4,26.550001,-29.306252,-30.73125,0.17932566,0.2029112,0.697068,995.6462, , , , 
2025-09-28 19:38:18.504,-0.19621146,5.048856,8.238488,-0.04925097,-0.053985175,0.0027488915,23.79375,-31.331251,-29.868752,0.17930861,0.20239016,0.69713736,995.65155, , , , 
2025-09-28 19:38:18.524,-0.11485548,4.9674997,7.9513497,-0.0730747,-0.069867656,0.0070249448,26.475,-30.54375,-32.5125,0.17943007,0.20165974,0.6971597,995.65155, , , , 
2025-09-28 19:38:18.544,-0.09571291,4.855037,7.676175,-0.108504854,-0.12545635,0.00763581,27.956251,-30.618752,-34.518753,0.17976336,0.20032598,0.6972236,995.64667, , , , 
2025-09-28 19:38:18.564,-0.1363909,4.8358946,7.3028946,-0.12072215,-0.23480114,0.021685699,26.118752,-30.825,-32.15625,0.18018956,0.19916716,0.6971939,995.64667, , , , 
2025-09-28 19:38:18.584,0.14117654,4.8263235,6.4414787,-0.15554145,-0.46204284,0.032681264,24.675001,-30.093752,-32.8125,0.18197456,0.19681743,0.6969369,995.6357, , , , 
2025-09-28 19:38:18.604,0.25842485,4.3525443,4.9842496,-0.24656029,-1.0222058,0.07971785,27.843752,-27.525002,-33.9,0.1896266,0.18930477,0.69564813,995.6357, , , , 
2025-09-28 19:38:18.624,0.5024927,3.158526,4.9866424,-0.28870997,-1.3270273,0.23732096,22.7625,-30.900002,-33.956253,0.19473444,0.18263131,0.6949285,995.63837, , , , 
2025-09-28 19:38:18.644,1.9597218,2.4885356,3.1202407,-0.2935969,-2.0820563,0.49449503,22.331251,-30.206251,-34.55625,0.20360786,0.17042194,0.6945823,995.63837, , , , 
2025-09-28 19:38:18.664,2.0865414,3.0293136,1.6079768,-0.50617784,-2.9525385,0.5225948,23.362501,-29.475,-34.875,0.21871895,0.15092388,0.6933353,995.6132, , , , 
2025-09-28 19:38:18.684,3.778267,1.8687944,1.5409778,-0.59047717,-3.6299875,0.5103775,20.41875,-30.73125,-40.050003,0.24366245,0.117790304,0.68937373,995.6132, , , , 
2025-09-28 19:38:18.704,2.9671001,1.3663018,0.31106696,-0.73830646,-4.028271,0.4951059,18.69375,-29.8875,-40.8375,0.26588064,0.087265745,0.6838538,995.612, , , , 
2025-09-28 19:38:18.724,2.3641088,0.89730847,-0.8063812,-1.06573,-4.282391,0.67470014,16.66875,-28.35,-41.325,0.28291583,0.06146447,0.6787932,995.612, , , , 
2025-09-28 19:38:18.744,3.1561332,-0.3900301,0.66999036,-1.7370703,-4.590267,1.1322379,10.5,-28.706251,-45.45,0.30850732,0.010758158,0.67064047,995.60516, , , , 
2025-09-28 19:38:18.764,3.8548372,-1.2658032,1.1892328,-1.9246058,-4.766807,1.4175117,10.462501,-26.831251,-46.800003,0.32241926,-0.023793997,0.6658698,995.60516, , , , 
2025-09-28 19:38:18.784,5.493921,-2.6464617,2.6512475,-2.1762822,-5.258553,1.9489641,1.0125,-25.181252,-48.05625,0.34439018,-0.08735171,0.65782166,995.6181, , , , 
2025-09-28 19:38:18.804,7.745567,-3.3834512,5.087141,-2.0119596,-5.760073,2.2989895,-5.4375,-22.237501,-47.7,0.3668798,-0.15829107,0.64825726,995.6181, , , , 
2025-09-28 19:38:18.824,8.073383,-3.5030923,5.3790655,-1.9044473,-5.832155,2.3454154,-5.4375,-22.237501,-47.7,0.37175867,-0.17281471,0.6460106,995.6181, , , , 
2025-09-28 19:38:18.844,8.154739,-4.1036906,3.4504502,-1.1500293,-5.382559,2.5922048,-16.59375,-19.29375,-45.0,0.40702093,-0.2679935,0.6295824,995.64764, , , , 
2025-09-28 19:38:18.864,7.5110703,-4.8789654,1.5529419,-1.1726313,-5.0166507,2.9947646,-22.575,-18.300001,-43.2,0.41995853,-0.30470064,0.6234541,995.66766, , , , 
2025-09-28 19:38:18.884,8.891729,-6.0921264,1.3974084,-1.2905282,-4.7637525,3.5158322,-28.181252,-16.1625,-41.49375,0.43525147,-0.36550334,0.61487013,995.66766, , , , 
2025-09-28 19:38:18.904,9.812965,-6.9128647,1.105484,-1.3962078,-4.1425033,3.9000661,-31.48125,-10.5375,-39.0,0.4413631,-0.413556,0.60942596,995.6733, , , , 
2025-09-28 19:38:18.924,11.533405,-7.702496,1.2777673,-1.4768419,-3.5041494,4.0845475,-32.71875,-11.55,-38.04375,0.4409039,-0.4477823,0.6068839,995.6733, , , , 
2025-09-28 19:38:18.944,12.918849,-8.319844,1.1365907,-1.6148974,-2.589685,4.132195,-37.2,-5.9437504,-34.800003,0.43324873,-0.48952708,0.60562706,995.67596, , , , 
2025-09-28 19:38:18.964,12.423535,-9.585648,2.28036,-1.7786092,-1.6061926,4.164571,-41.081253,-0.15,-30.243752,0.40803558,-0.5435294,0.6069732,995.67596, , , , 
2025-09-28 19:38:18.984,13.4763775,-9.992428,3.6873398,-1.5318198,-1.6623921,4.1969466,-39.09375,5.2875004,-31.687502,0.38736057,-0.57603616,0.6084291,995.6889, , , , 
2025-09-28 19:38:19.004,14.395221,-9.887143,3.7040894,-1.2764783,-1.5988622,4.0381217,-40.18125,6.6375003,-28.406252,0.37740552,-0.59092766,0.60927165,995.6889, , , , 
2025-09-28 19:38:19.024,12.4426775,-10.030712,2.1415763,-1.0009784,-1.1077269,3.7088654,-38.15625,10.725,-30.54375,0.3537949,-0.6223132,0.61197805,995.7116, , , , 
2025-09-28 19:38:19.044,11.236695,-10.822737,1.6295122,-0.98081976,-0.81512266,3.7534587,-37.48125,15.637501,-29.362501,0.3280399,-0.6484218,0.61541533,995.7116, , , , 
2025-09-28 19:38:19.064,11.499906,-11.090733,2.0338993,-0.84826213,-0.8438333,3.7858346,-37.893753,19.44375,-28.29375,0.30583262,-0.66755027,0.6181833,995.7143, , , , 
2025-09-28 19:38:19.085,12.236895,-10.916057,1.3232309,-0.5745947,-1.0044907,3.621512,-36.581253,23.268751,-25.10625,0.27961582,-0.68830633,0.6217551,995.7143, , , , 
2025-09-28 19:38:19.104,12.222538,-11.057234,0.7106683,-0.473802,-0.9727258,3.413207,-34.36875,27.112501,-24.16875,0.26549557,-0.6990075,0.6235267,995.72015, , , , 
2025-09-28 19:38:19.124,11.564512,-11.349157,0.22492532,-0.44448048,-0.7540362,3.2281148,-33.581253,28.800001,-24.0375,0.24748021,-0.7113769,0.6254638,995.72015, , , , 
2025-09-28 19:38:19.144,10.980663,-10.475778,-0.2440679,-0.528169,-0.20609051,2.9807148,-32.0625,30.581251,-23.831251,0.22357723,-0.72439486,0.6274459,995.7055, , , , 
2025-09-28 19:38:19.165,9.480363,-10.147961,-0.59581286,-0.6973785,0.33574656,2.6972735,-28.931252,32.25,-23.475,0.20290376,-0.73334813,0.6281866,995.7055,37.88837735,127.73983985,141.75970458984375,0.0
2025-09-28 19:38:19.184,8.571091,-10.195817,0.18424734,-0.83176875,0.5128973,2.6380196,-26.962502,34.2,-22.10625,0.18070775,-0.7418237,0.6278051,995.6962, , , , 
2025-09-28 19:38:19.204,9.542577,-9.707682,1.39023,-0.76213014,0.50068,2.496299,-24.956251,34.537502,-23.868752,0.15812726,-0.74982655,0.6267314,995.6962, , , , 
2025-09-28 19:38:19.224,9.614362,-9.097511,1.5409778,-0.54038626,0.609414,2.0943499,-22.125,37.050003,-22.931252,0.13740112,-0.75595504,0.6260934,995.68646, , , , 
2025-09-28 19:38:19.244,8.733803,-9.052048,0.7393822,-0.39683303,0.600251,1.7571526,-22.893751,37.706253,-20.868752,0.11511991,-0.76070076,0.62625855,995.68646, , , , 
2025-09-28 19:38:19.264,8.817552,-8.606983,0.36370903,-0.31131196,0.50373435,1.5238022,-19.59375,38.456253,-25.593752,0.099981405,-0.76338106,0.62649053,995.67474, , , , 
2025-09-28 19:38:19.284,8.662018,-8.413164,-0.09810573,-0.2880991,0.46586075,1.2336414,-18.2625,40.18125,-22.893751,0.08729732,-0.765381,0.6265971,995.67474, , , , 
2025-09-28 19:38:19.304,8.126026,-8.463413,-0.2536392,-0.32047492,0.53733194,0.96791524,-18.825,38.775,-23.53125,0.07666938,-0.76713914,0.62616056,995.6716, , , , 
2025-09-28 19:38:19.324,7.7216387,-8.415557,0.016749758,-0.33574656,0.6112466,0.78709924,-18.206251,40.55625,-22.29375,0.06943918,-0.7683653,0.6254889,995.6716, , , , 
2025-09-28 19:38:19.344,7.391429,-8.250452,0.25603202,-0.292986,0.58620113,0.63132876,-16.087502,40.800003,-23.625,0.06080824,-0.769694,0.62449723,995.65985, , , , 
2025-09-28 19:38:19.366,6.8482585,-8.075776,0.009571291,-0.16409355,0.5727621,0.40775225,-13.556251,41.568752,-25.63125,0.050552018,-0.7705684,0.62367105,995.65985, , , , 
2025-09-28 19:38:19.384,6.984649,-7.8628154,-0.0047856453,-0.10483967,0.48174325,0.31428993,-14.531251,41.30625,-21.806252,0.04510183,-0.7706008,0.6234929,995.6716, , , , 
2025-09-28 19:38:19.404,7.140183,-7.5230346,-0.02632105,-0.023594651,0.37056586,0.14019346,-13.05,41.23125,-24.112501,0.041523412,-0.7702508,0.6236165,995.6716, , , , 
2025-09-28 19:38:19.424,6.4055862,-7.652247,-0.2847459,0.022220206,0.21907139,-0.009468404,-12.39375,40.18125,-24.13125,0.040456623,-0.7697527,0.62385666,995.66644, , , , 
2025-09-28 19:38:19.444,5.9988065,-7.812566,-0.28235307,0.074143715,0.06391173,-0.062613636,-13.35,41.325,-23.15625,0.040449724,-0.7692047,0.6241782,995.66644, , , , 
2025-09-28 19:38:19.465,6.35773,-7.7886376,-0.16031912,0.2164752,-0.19081889,-0.118202336,-13.875001,42.2625,-23.625,0.042782255,-0.7677075,0.62558985,995.6645, , , , 
2025-09-28 19:38:19.484,6.4606214,-7.793423,-0.20338993,0.23846634,-0.21219915,-0.1414152,-13.875001,42.2625,-23.625,0.043499827,-0.76736367,0.62595814,995.6645, , , , 
2025-09-28 19:38:19.504,6.649654,-7.9154572,-0.3397808,0.33131778,-0.2372446,-0.2837467,-14.343751,41.98125,-25.406252,0.04825581,-0.76519126,0.6282017,995.65936, , , , 
2025-09-28 19:38:19.524,6.5682983,-7.702496,0.009571291,0.46754062,-0.38873908,-0.41202828,-15.637501,40.612503,-26.587502,0.057792563,-0.76099336,0.6322418,995.65936, , , , 
2025-09-28 19:38:19.544,7.0468626,-7.786245,0.27038896,0.5909353,-0.65629786,-0.458454,-14.26875,40.4625,-22.087502,0.06535914,-0.7578696,0.6353469,995.664, , , , 
2025-09-28 19:38:19.564,7.7216387,-7.728817,0.3684947,0.7106648,-0.88292867,-0.5280926,-16.25625,39.91875,-24.16875,0.07265884,-0.7551156,0.63813645,995.664, , , , 
2025-09-28 19:38:19.584,8.595019,-8.10449,-0.1268196,0.8377247,-1.0790163,-0.75411254,-17.5125,38.68125,-25.518751,0.08838614,-0.74953544,0.6434493,995.6623, , , , 
2025-09-28 19:38:19.604,8.9013,-8.566305,-0.2536392,0.8114575,-1.0924553,-0.92148954,-17.493752,39.300003,-26.775002,0.10311449,-0.74460214,0.6474344,995.6623, , , , 
2025-09-28 19:38:19.624,9.473185,-9.286545,0.6771688,0.83344865,-1.1944697,-1.0656536,-19.743752,37.068752,-24.2625,0.11904867,-0.739504,0.65084857,995.6611, , , , 
2025-09-28 19:38:19.644,10.202995,-9.38465,1.012164,1.0063233,-1.3484076,-1.2024873,-22.931252,37.875,-26.437502,0.13675445,-0.7335223,0.6544822,995.6611, , , , 
2025-09-28 19:38:19.664,10.674382,-9.133404,0.043070808,1.1193334,-1.2072979,-1.3894119,-22.25625,37.66875,-24.337502,0.15625557,-0.7260353,0.6587694,995.6696, , , , 
2025-09-28 19:38:19.684,10.789237,-9.15494,-1.5744773,0.9232457,-0.78152514,-1.6447535,-24.225,35.86875,-25.25625,0.18036573,-0.7155278,0.66370505,995.6696, , , , 
2025-09-28 19:38:19.704,11.059627,-9.49472,-1.3974084,0.6575196,-0.6459131,-1.8597778,-25.0125,34.6875,-27.281252,0.19416153,-0.70973504,0.66522545,995.674, , , , 
2025-09-28 19:38:19.724,11.059627,-9.58804,-0.5096712,0.5145772,-0.6453023,-2.102291,-24.54375,35.831253,-24.618752,0.21324342,-0.70262766,0.665369,995.674, , , , 
2025-09-28 19:38:19.744,10.66481,-9.523434,0.2009971,0.4559342,-0.63736105,-2.45476,-27.862501,31.63125,-24.7875,0.23923117,-0.69320184,0.66381013,995.6818, , , , 
2025-09-28 19:38:19.764,10.27478,-9.829716,0.18903299,0.4406626,-0.40339983,-2.6160283,-30.187502,29.643751,-23.6625,0.26080257,-0.6846683,0.6618126,995.6818, , , , 
2025-09-28 19:38:19.784,10.179068,-9.722038,0.08853444,0.37407833,-0.10713041,-2.7443101,-31.781252,28.987501,-24.225,0.28118774,-0.6751661,0.6596201,995.6933, , , , 
2025-09-28 19:38:19.804,10.535598,-9.635897,-0.14356937,0.3087158,0.07063124,-2.9642212,-31.63125,25.050001,-28.031252,0.300437,-0.6647973,0.6569868,995.6933, , , , 
2025-09-28 19:38:19.824,9.702896,-9.777073,-0.09092726,0.29772022,0.077961616,-3.236667,-34.36875,24.993752,-23.41875,0.32514903,-0.65038544,0.652194,995.67035, , , , 
2025-09-28 19:38:19.844,9.169296,-9.899107,-0.37328035,0.28672466,0.010155627,-3.3331838,-35.7,21.975,-23.118752,0.3354202,-0.64412045,0.64984345,995.67035, , , , 
2025-09-28 19:38:19.864,7.192825,-9.164511,-0.14117654,0.27267477,-0.11568252,-3.2983644,-37.74375,19.78125,-23.550001,0.36708647,-0.6248179,0.6408224,995.6352, , , , 
2025-09-28 19:38:19.884,7.6833534,-9.257831,0.35413775,0.33131778,-0.075976305,-3.159698,-39.206253,15.3,-25.44375,0.3871741,-0.61178523,0.63429964,995.6352, , , , 
2025-09-28 19:38:19.904,7.503892,-8.688339,0.05742774,0.3917934,-0.11140647,-3.1645849,-41.756252,12.918751,-24.281252,0.40648407,-0.59795004,0.62793267,995.6237, , , , 
2025-09-28 19:38:19.924,7.3292155,-8.410771,-0.4642076,0.39668033,-0.348422,-3.2085671,-43.4625,8.775001,-25.406252,0.42651433,-0.5836392,0.62062407,995.6237, , , , 
2025-09-28 19:38:19.944,6.7501526,-7.8556366,-1.119841,0.3239874,-0.4718167,-3.1627524,-44.662502,6.6375003,-22.987501,0.4472183,-0.5694967,0.6118061,995.6252, , , , 
2025-09-28 19:38:19.964,5.9916277,-7.436893,-1.4739788,0.21586435,-0.46692976,-3.0442445,-43.2,4.425,-23.175001,0.46734813,-0.5560935,0.6017521,995.6252, , , , 
2025-09-28 19:38:19.984,5.0249276,-6.745367,-1.1916257,0.021609342,-0.44616038,-2.8200572,-44.41875,-0.1875,-23.71875,0.49000952,-0.54093164,0.58814895,995.6296, , , , 
2025-09-28 19:38:20.004,4.45065,-6.343373,-1.4093726,-0.037644543,-0.41928232,-2.6752822,-43.256252,-2.41875,-23.868752,0.49816984,-0.5354036,0.58258134,995.6296, , , , 
2025-09-28 19:38:20.024,4.462614,-5.9174504,-0.6891329,-0.2202931,-0.37163487,-2.2262967,-43.96875,-3.0,-23.60625,0.5189466,-0.5215465,0.5660472,995.62836, , , , 
2025-09-28 19:38:20.044,3.2327034,-5.7930236,-0.3684947,-0.13843723,-0.32093307,-1.8438953,-45.15,-6.7312503,-23.41875,0.53000784,-0.513803,0.5561052,995.62836, , , , 
2025-09-28 19:38:20.064,2.4191437,-5.9318075,-0.80159557,-0.074907295,-0.4406626,-1.3784164,-46.6875,-7.65,-21.35625,0.5392201,-0.50772434,0.54796463,995.61346, , , , 
2025-09-28 19:38:20.084,2.6799614,-5.919843,-1.3112668,-0.10728313,-0.52312934,-0.9178243,-43.6875,-8.700001,-21.768751,0.5448648,-0.50521064,0.54278684,995.61346, , , , 
2025-09-28 19:38:20.104,2.6512475,-6.216553,-1.6558332,-0.30703592,-0.63491756,-0.3252855,-44.643753,-9.918751,-22.050001,0.55170256,-0.5053062,0.53496134,995.5861, , , , 
2025-09-28 19:38:20.124,3.0005996,-6.7429743,-1.0743774,-0.39438957,-0.55428344,0.13408482,-45.956253,-9.056251,-21.65625,0.55387026,-0.509453,0.5298309,995.5861, , , , 
2025-09-28 19:38:20.144,3.385844,-6.0753765,0.033499517,-0.31558803,-0.28122687,0.64476776,-44.4,-8.025001,-22.650002,0.5527486,-0.51411396,0.5279882,995.56976, , , , 
2025-09-28 19:38:20.165,4.429115,-5.8767724,-0.5766702,-0.010766491,-0.16210824,1.3765838,-46.3875,-7.3875003,-19.237501,0.5453073,-0.52523005,0.53115845,995.56976,37.88837735,127.73983985,141.75970458984375,0.0
2025-09-28 19:38:20.184,5.2498527,-5.3072805,-1.2490535,0.037491824,-0.04054615,1.6087124,-44.193752,-6.15,-21.225,0.5379733,-0.5338976,0.53633463,995.5595, , , , 
2025-09-28 19:38:20.204,5.352744,-5.6781683,-1.8161523,0.005726857,0.3644572,1.7846415,-45.487503,-4.425,-19.800001,0.52845556,-0.5425606,0.5432903,995.5595, , , , 
2025-09-28 19:38:20.224,5.474778,-5.7379885,-1.1318051,-0.08223767,0.32841617,1.985616,-45.487503,-3.05625,-20.6625,0.5161833,-0.55132663,0.5517599,995.5524, , , , 
2025-09-28 19:38:20.244,5.8504515,-6.2117677,-0.83030945,0.05093085,0.36567894,2.1132867,-45.506252,-0.82500005,-18.768751,0.49930656,-0.5632849,0.5626598,995.5524, , , , 
2025-09-28 19:38:20.264,6.101698,-7.0636125,-1.026521,0.19020802,0.2447277,2.1670427,-45.393753,2.4375,-20.6625,0.4889194,-0.5700508,0.56986314,995.55536, , , , 
2025-09-28 19:38:20.286,6.3194447,-7.5613194,-1.308874,0.44249517,-0.30627233,2.2861614,-41.831253,4.05,-22.368752,0.47377175,-0.581367,0.58118606,995.55536, , , , 
2025-09-28 19:38:20.304,5.8743796,-8.248059,-2.3138595,0.41928232,-0.45471248,2.2910483,-42.600002,5.45625,-20.212502,0.46370745,-0.59070903,0.58924085,995.5639, , , , 
2025-09-28 19:38:20.326,5.096712,-9.506684,-2.9072795,0.2115883,-0.051541716,2.6490152,-44.90625,7.2000003,-19.29375,0.44917732,-0.6036988,0.59839934,995.5639, , , , 
2025-09-28 19:38:20.344,5.611169,-10.224531,-1.8687944,0.052763447,0.30947936,3.0625706,-43.631252,9.712501,-20.8125,0.43627307,-0.61238205,0.604907,995.571, , , , 
2025-09-28 19:38:20.364,7.9776707,-9.992428,-1.4045869,0.023441937,0.32719445,3.151146,-44.49375,13.368751,-22.462502,0.41490367,-0.62461776,0.61466664,995.571, , , , 
2025-09-28 19:38:20.384,9.339187,-9.707682,-1.7946169,-0.18791728,0.00160352,3.0925028,-43.40625,13.837501,-20.456251,0.39927208,-0.63397324,0.6205639,995.5822, , , , 
2025-09-28 19:38:20.404,9.777073,-9.432507,-0.63170516,-0.21968225,0.052305296,3.0039275,-43.3125,16.331251,-21.225,0.37977964,-0.6468668,0.62587297,995.5822, , , , 
2025-09-28 19:38:20.424,10.150353,-9.281759,0.49052864,0.0692568,0.50251263,2.947117,-38.456253,21.45,-23.1,0.35361743,-0.65990055,0.63409644,995.5927, , , , 
2025-09-28 19:38:20.444,10.609776,-8.688339,-0.6987042,0.072921984,0.7896191,2.79379,-38.0625,20.38125,-24.16875,0.33712074,-0.6656076,0.6402104,995.5927, , , , 
2025-09-28 19:38:20.464,9.657433,-7.489535,-2.0745773,-0.5287798,1.2227222,2.5915937,-36.54375,23.53125,-24.337502,0.3025092,-0.6766919,0.6497031,995.5944, , , , 
2025-09-28 19:38:20.484,10.796415,-7.331609,-0.6795616,-0.7444151,1.4383575,2.463923,-36.487503,24.525002,-23.94375,0.2832912,-0.6834189,0.65229505,995.5944, , , , 
2025-09-28 19:38:20.504,10.827522,-6.855437,1.8544376,-0.68271774,1.4065925,2.187812,-34.66875,26.962502,-25.35,0.2643782,-0.6896598,0.65412796,995.6164, , , , 
2025-09-28 19:38:20.524,10.021141,-6.7429743,0.39720857,-0.3730093,1.0217477,1.8921536,-31.031252,28.218752,-26.118752,0.22609018,-0.6988912,0.65952873,995.6164, , , , 
2025-09-28 19:38:20.544,10.767702,-6.9726853,0.73459655,-0.3522399,0.68821555,1.7767003,-30.843752,31.218752,-26.925001,0.20830448,-0.7032596,0.6617362,995.6391, , , , 
2025-09-28 19:38:20.564,11.526227,-6.73101,0.92602235,-0.20441063,0.8018364,1.592219,-28.781252,31.425001,-25.29375,0.19667403,-0.7060267,0.6631449,995.6391, , , , 
2025-09-28 19:38:20.584,10.655239,-6.151947,-0.23688944,-0.24289511,1.2905282,1.5457933,-26.8875,33.2625,-28.687502,0.18064642,-0.70825773,0.6657154,995.66864, , , , 
2025-09-28 19:38:20.604,11.629118,-6.087341,-0.27517462,-0.5959749,1.6130648,1.3429862,-26.775002,31.143751,-26.268751,0.15659617,-0.7113543,0.6677417,995.66864, , , , 
2025-09-28 19:38:20.624,11.181661,-6.283552,0.92602235,-0.600251,1.5012766,1.2134829,-24.056252,31.425001,-28.275002,0.14247559,-0.7136468,0.6675936,995.68475, , , , 
2025-09-28 19:38:20.644,10.815558,-6.3960147,1.5026926,-0.43470666,1.2147809,1.0949751,-23.325,34.875,-29.625002,0.1258766,-0.71600485,0.6673872,995.68475, , , , 
2025-09-28 19:38:20.664,8.513663,-5.881558,-2.1822543,-1.1518619,-0.28489205,0.8188642,-21.35625,35.2125,-30.000002,0.11076122,-0.7195977,0.66576284,995.7011, , , , 
2025-09-28 19:38:20.684,10.47817,-6.8817577,1.5553347,-1.092608,-0.36247188,1.0216713,-19.3125,35.15625,-29.60625,0.10718721,-0.72646713,0.6599385,995.7011, , , , 
2025-09-28 19:38:20.704,12.071791,-8.147561,3.4600215,-0.25633413,-0.12789981,0.82497287,-17.8875,37.29375,-28.331251,0.10209182,-0.73216426,0.6557144,995.7099, , , , 
2025-09-28 19:38:20.724,14.201403,-7.623533,-0.56470615,0.4351648,-0.6953932,0.4847212,-20.025002,36.825,-28.5375,0.10150019,-0.73129994,0.65880203,995.7099, , , , 
2025-09-28 19:38:20.744,14.708681,-6.5252275,-1.2394822,0.2409098,-0.07231112,0.08704823,-18.91875,37.40625,-25.743752,0.10479677,-0.7296191,0.6610705,995.70013, , , , 
2025-09-28 19:38:20.764,13.5481615,-5.666204,0.27756742,0.107741274,0.5959749,-0.20922118,-18.206251,36.506252,-27.018751,0.10598145,-0.72839594,0.661821,995.70013, , , , 
2025-09-28 19:38:20.784,11.653047,-5.812166,2.361716,0.46570805,0.88247055,-0.72540194,-18.393751,36.99375,-28.25625,0.10535708,-0.72427803,0.6636696,995.6713, , , , 
2025-09-28 19:38:20.804,8.786445,-6.1591253,1.3878372,0.9721149,0.3192532,-0.9312633,-15.900001,35.268753,-31.050001,0.108712465,-0.71759135,0.6676619,995.6713, , , , 
2025-09-28 19:38:20.824,8.52802,-6.5371914,-0.19381863,1.2231804,-0.19631667,-0.9459241,-16.556252,36.45,-30.88125,0.11455963,-0.71118253,0.6721246,995.6945, , , , 
2025-09-28 19:38:20.844,9.939785,-6.9559355,-0.8327023,1.0270928,-0.9556216,-0.97341305,-18.2625,35.79375,-32.362503,0.12616561,-0.7026331,0.67813873,995.6945, , , , 
2025-09-28 19:38:20.864,13.009777,-8.760123,3.493521,0.91347194,-1.6006948,-1.6801835,-21.54375,32.7,-30.91875,0.15654284,-0.6950679,0.68011427,995.72894, , , , 
2025-09-28 19:38:20.884,12.880565,-8.262417,0.79920274,1.1016183,-1.541441,-2.0821326,-24.50625,30.300001,-32.175003,0.18188013,-0.6871103,0.6815822,995.72894, , , , 
2025-09-28 19:38:20.904,11.73201,-8.71466,0.4642076,0.53717923,-1.6996549,-2.2049165,-27.018751,30.393751,-29.60625,0.20930353,-0.67965305,0.6803758,995.78973, , , , 
2025-09-28 19:38:20.924,12.906885,-8.240881,2.160719,0.41683885,-1.4944043,-2.4449863,-26.343752,30.73125,-31.087502,0.22976422,-0.6754737,0.6771052,995.78973, , , , 
2025-09-28 19:38:20.944,13.265809,-7.9393854,1.7395821,0.32093307,-1.306258,-2.7424774,-31.125002,28.85625,-30.16875,0.25725102,-0.66876024,0.67183524,995.8398, , , , 
2025-09-28 19:38:20.964,13.785051,-9.186047,1.0863415,0.15722132,-0.81267923,-3.0851727,-32.831253,27.675001,-29.60625,0.27746204,-0.66299903,0.6670331,995.8398, , , , 
2025-09-28 19:38:20.984,13.536198,-10.375279,0.59342,-0.05535962,-0.20547964,-3.5115561,-32.100002,27.243752,-27.0375,0.30262655,-0.6539918,0.6595548,995.8398, , , , 
2025-09-28 19:38:21.004,11.009377,-11.341979,1.1126626,-0.21662793,0.3265836,-3.8621926,-35.1375,22.425001,-25.35,0.33072817,-0.6403408,0.6486391,995.85223, , , , 
2025-09-28 19:38:21.024,8.348558,-11.109876,2.1870399,0.050319985,0.21235187,-3.7815585,-36.15,19.143751,-30.7875,0.3614012,-0.6207178,0.63523227,995.8195, , , , 
2025-09-28 19:38:21.044,12.124433,-15.4313135,1.6295122,0.3001637,-0.0045051277,-3.9721482,-37.256252,17.5125,-28.556252,0.38245386,-0.6061402,0.6265471,995.8195, , , , 
2025-09-28 19:38:21.064,5.3336015,-7.7647095,2.0578275,0.4492147,-0.36674795,-3.8493645,-36.881252,10.81875,-26.681252,0.4058217,-0.5893729,0.61706346,995.7712, , , , 
2025-09-28 19:38:21.084,7.6259255,-11.430513,0.31585258,0.57138765,-0.96478456,-3.6111271,-40.65,7.2187505,-28.5375,0.42531183,-0.5779819,0.60875374,995.7712, , , , 
2025-09-28 19:38:21.104,5.9724855,-9.848858,0.3062813,0.42905614,-0.8114575,-3.6526659,-42.91875,5.6062503,-26.5125,0.46431682,-0.5558325,0.5897105,995.7143, , , , 
2025-09-28 19:38:21.124,4.211368,-9.937392,0.016749758,0.3777435,-0.7094431,-3.381442,-46.425003,3.075,-21.525002,0.48765635,-0.5406269,0.57675654,995.7143, , , , 
2025-09-28 19:38:21.144,2.8402805,-10.286744,-0.39481574,0.34536767,-0.8206205,-2.8903067,-46.10625,-2.0812502,-25.125002,0.5084389,-0.527096,0.5643629,995.66766, , , , 
2025-09-28 19:38:21.164,2.6129622,-10.057034,-0.27038896,0.30627233,-1.0087668,-2.4816382,-44.4,-3.54375,-21.975,0.5224696,-0.5188629,0.5554151,995.66766,37.88837735,127.73983985,141.75970458984375,0.0
2025-09-28 19:38:21.184,2.388037,-9.836894,-1.2490535,0.19753839,-1.0313689,-2.0815217,-42.91875,-3.6375,-23.362501,0.53950477,-0.5103488,0.5437536,995.62787, , , , 
2025-09-28 19:38:21.204,2.6344976,-10.633704,-1.4859428,-0.03092503,-0.86582446,-1.7180572,-45.73125,-7.93125,-21.13125,0.55011255,-0.5060534,0.53543276,995.62787, , , , 
2025-09-28 19:38:21.224,0.89730847,-9.501899,-1.6893328,-0.41210467,-0.8927025,-1.0986403,-44.475002,-8.2875,-21.243752,0.5645748,-0.501901,0.5210231,995.59393, , , , 
2025-09-28 19:38:21.244,0.27756742,-10.877771,0.65324056,-0.32536185,-0.88048524,-0.4566214,-45.15,-11.587501,-21.28125,0.5724726,-0.5040932,0.5095828,995.59393, , , , 
2025-09-28 19:38:21.264,-0.80159557,-10.169497,1.2466606,-0.22884522,-0.81573355,-0.27275112,-44.831253,-10.575001,-19.368752,0.5735522,-0.50502527,0.5077861,995.5756, , , , 
2025-09-28 19:38:21.284,0.16749759,-9.305687,-0.63170516,0.12912154,-0.31115925,1.0711514,-48.35625,-10.6875,-19.612501,0.5734999,-0.51410925,0.506736,995.5756, , , , 
2025-09-28 19:38:21.304,1.9980069,-7.6977105,0.10289137,0.003894263,0.92706364,1.5372412,-44.662502,-9.69375,-18.825,0.5653732,-0.5213629,0.51394296,995.6149, , , , 
2025-09-28 19:38:21.324,3.8476589,-7.068398,0.2656033,0.028939718,1.3400083,1.5995494,-46.03125,-7.8562503,-19.087502,0.55444354,-0.5252379,0.5236771,995.6149, , , , 
2025-09-28 19:38:21.344,4.505685,-7.4153576,0.66041905,0.22075126,0.9197333,1.5073088,-46.5,-6.525,-19.275002,0.5395569,-0.529243,0.5372552,995.63495, , , , 
2025-09-28 19:38:21.364,5.0823555,-8.664411,1.7060826,0.6324741,0.13171771,1.5091414,-43.893753,-6.1125,-21.88125,0.5314143,-0.5324165,0.5458951,995.63495, , , , 
2025-09-28 19:38:21.384,5.953343,-10.150353,-2.0003998,1.1107812,-0.78152514,1.6038254,-43.800003,-3.3937502,-19.725,0.5252146,-0.5393681,0.5602531,995.62445, , , , 
2025-09-28 19:38:21.404,5.235496,-10.674382,-3.6514473,0.6483566,-0.55245084,2.477973,-46.59375,-3.4125001,-19.743752,0.52246606,-0.54722846,0.56773794,995.62445, , , , 
2025-09-28 19:38:21.424,8.46102,-10.001999,-2.9958138,0.063759014,0.50801045,2.9495606,-48.16875,-2.4750001,-19.0125,0.50969595,-0.55988705,0.57775915,995.6142, , , , 
2025-09-28 19:38:21.444,8.786445,-8.049456,-1.2466606,-0.5330559,1.7633375,3.014923,-46.21875,3.4687502,-20.175001,0.47922292,-0.57623523,0.5941392,995.6142, , , , 
2025-09-28 19:38:21.464,9.12144,-7.5828547,0.083748795,-0.61491174,1.7010293,2.902524,-45.1875,3.5625002,-20.2875,0.4571002,-0.58537686,0.6044005,995.6005, , , , 
2025-09-28 19:38:21.484,9.217153,-7.204789,1.4285151,-0.415159,1.1665226,2.6697845,-43.4625,8.137501,-24.750002,0.429959,-0.59663,0.6159366,995.6005, , , , 
2025-09-28 19:38:21.504,7.1306114,-7.32443,0.62931234,-0.17631085,0.4163807,2.5347834,-42.131252,11.868751,-23.25,0.40394443,-0.6086306,0.6271844,995.60223, , , , 
2025-09-28 19:38:21.524,9.523434,-8.88455,-0.66041905,-0.43409577,0.30581418,2.3252568,-39.75,15.4875,-25.706251,0.38477868,-0.6184924,0.63488454,995.60223, , , , 
2025-09-28 19:38:21.544,9.241081,-6.556334,0.11724831,-0.50068,-0.22624904,2.7650795,-39.018753,19.706251,-28.35,0.36810473,-0.6304839,0.638022,995.6115, , , , 
2025-09-28 19:38:21.564,11.083554,-7.070791,-0.37328035,-0.074907295,0.055970486,2.5470006,-39.787502,18.862501,-26.681252,0.3475181,-0.64466715,0.64276904,995.6115, , , , 
2025-09-28 19:38:21.584,9.999606,-7.587641,-0.94755775,-0.04497492,0.27893612,2.6422956,-38.381252,21.487501,-26.812502,0.33106664,-0.65267044,0.6482855,995.6132, , , , 
2025-09-28 19:38:21.604,10.956735,-7.5349984,-1.2921243,-0.31864235,0.8885792,2.740645,-38.831253,23.56875,-27.0375,0.31618592,-0.65879595,0.65267986,995.6132, , , , 
2025-09-28 19:38:21.624,11.047662,-6.242874,-0.3684947,-0.5831468,1.3155737,2.681391,-33.768753,23.212502,-27.562502,0.28588194,-0.6693356,0.6591834,995.61786, , , , 
2025-09-28 19:38:21.644,11.2343025,-6.4941206,1.6079768,-0.47074768,1.3644428,2.6789474,-35.53125,25.518751,-26.56875,0.25940406,-0.6771027,0.66380095,995.61786, , , , 
2025-09-28 19:38:21.664,15.376278,-6.0083776,1.3280165,-0.12072215,0.713261,2.3301437,-32.756252,26.79375,-27.562502,0.23458353,-0.68282974,0.66894335,995.6469, , , , 
2025-09-28 19:38:21.684,12.35175,-2.5124638,-3.2614172,0.060704686,0.28076872,1.5531237,-30.806252,29.1375,-29.1375,0.21975577,-0.6861203,0.6728761,995.6469, , , , 
2025-09-28 19:38:21.704,11.753545,-4.1276193,-4.6396832,-0.50373435,1.8213696,1.7705916,-29.156252,28.66875,-28.2,0.2062815,-0.6886695,0.6754957,995.6784, , , , 
2025-09-28 19:38:21.724,12.818351,-4.6779685,-2.589034,-1.7987677,3.0235517,1.8255694,-25.837502,31.143751,-29.75625,0.17134877,-0.69649273,0.6748582,995.6784, , , , 
2025-09-28 19:38:21.744,15.014962,-6.3601227,1.2323036,-2.195219,3.1310637,1.7467679,-21.956251,32.268753,-29.156252,0.13699192,-0.70697826,0.6680888,995.7236, , , , 
2025-09-28 19:38:21.764,16.201801,-5.7523456,2.2277179,-2.1194718,2.7877579,1.2281437,-21.825,32.90625,-29.212502,0.105212286,-0.7163867,0.65919125,995.7236, , , , 
2025-09-28 19:38:21.784,16.366907,-5.845666,1.2131611,-1.8482478,2.0706024,0.72723454,-16.96875,35.15625,-30.150002,0.07949968,-0.72409374,0.6493197,995.77826, , , , 
2025-09-28 19:38:21.804,17.575283,-5.4317074,2.7038896,-1.4780637,0.9044617,0.3045161,-15.76875,37.74375,-27.187502,0.063232034,-0.7311294,0.6391677,995.77826, , , , 
2025-09-28 19:38:21.824,17.99642,-5.0440702,3.4863427,-1.0400736,0.43653923,-0.30757043,-17.53125,37.575,-28.368752,0.057336904,-0.7369048,0.630187,995.7846, , , , 
2025-09-28 19:38:21.844,15.926627,-4.7784667,4.3669014,-0.65217453,0.2844339,-0.96608263,-14.231251,38.775,-27.093752,0.06007302,-0.7409747,0.620643,995.7846, , , , 
2025-09-28 19:38:21.864,13.9023,-5.625526,4.6612186,-0.17814344,0.1512654,-1.3680316,-16.331251,39.300003,-27.056252,0.067694455,-0.74124014,0.61486495,995.7619, , , , 
2025-09-28 19:38:21.884,12.9954195,-7.496713,4.7425747,0.39484772,-0.32093307,-1.5775583,-17.94375,37.03125,-27.69375,0.079797775,-0.7387056,0.6119045,995.7619, , , , 
2025-09-28 19:38:21.904,10.849058,-5.4723854,5.9294147,1.157207,-0.9702823,-2.319759,-17.493752,38.68125,-26.587502,0.0999301,-0.73269916,0.6119455,995.7458, , , , 
2025-09-28 19:38:21.924,11.327622,-10.236495,4.6061835,2.133369,-2.3942082,-2.025933,-22.556252,35.30625,-27.2625,0.13023557,-0.72401506,0.6161865,995.7458, , , , 
2025-09-28 19:38:21.944,11.806187,-9.432507,3.414558,2.462625,-2.5059965,-2.085187,-23.587502,34.237503,-30.7875,0.1657814,-0.7132116,0.6234915,995.7199, , , , 
2025-09-28 19:38:21.964,12.928421,-9.475577,0.7298109,2.3642757,-2.1297038,-2.3942845,-28.7625,31.95,-29.04375,0.20219205,-0.69996196,0.63076353,995.7199, , , , 
2025-09-28 19:38:21.984,11.545369,-8.922835,-0.31106696,1.8810817,-1.6074144,-2.6911647,-31.44375,28.81875,-29.04375,0.23708613,-0.68571305,0.63500404,995.6623, , , , 
2025-09-28 19:38:22.004,11.349157,-9.006584,-0.18424734,1.504789,-1.3459642,-2.8774786,-31.25625,27.468752,-30.225,0.26920864,-0.6719606,0.6355808,995.6623, , , , 
2025-09-28 19:38:22.024,11.227124,-9.176475,0.8757731,1.1889719,-1.2579997,-3.2928667,-36.225002,25.687502,-26.5125,0.30796394,-0.65502447,0.6318469,995.6142, , , , 
2025-09-28 19:38:22.044,9.68136,-9.8632145,1.1653047,1.1901937,-1.1804198,-3.5720317,-37.18125,21.73125,-25.725,0.340042,-0.6402069,0.62633586,995.6142, , , , 
2025-09-28 19:38:22.064,8.13799,-9.968499,-0.29192436,1.0154864,-0.94035,-3.5298822,-38.568752,18.46875,-25.706251,0.3711473,-0.6241138,0.6199868,995.60443, , , , 
2025-09-28 19:38:22.084,8.006385,-9.899107,-0.7752745,0.7082214,-0.62025684,-3.4529133,-40.706253,15.262501,-24.375002,0.39909172,-0.6083882,0.6124771,995.60443, , , , 
2025-09-28 19:38:22.104,7.7742805,-9.501899,-0.49052864,0.41683885,-0.37346745,-3.4193156,-40.29375,12.075001,-25.612501,0.4233512,-0.59323055,0.60381967,995.60443, , , , 
2025-09-28 19:38:22.124,7.190432,-9.329616,-0.10767702,0.25618142,-0.3117701,-3.377166,-41.8125,8.306251,-24.16875,0.45020586,-0.5747546,0.59149796,995.60443, , , , 
2025-09-28 19:38:22.144,6.1806607,-9.401401,0.10289137,0.17249294,-0.32276568,-3.2898123,-44.04375,5.2125,-24.825,0.47016308,-0.56030387,0.5806453,995.6159, , , , 
2025-09-28 19:38:22.164,5.2809596,-9.329616,0.05742774,0.12056944,-0.34109163,-3.0760095,-43.5,2.90625,-24.150002,0.48859414,-0.546517,0.5694832,995.6159,37.88836555,127.73981714,143.369384765625,1.62
2025-09-28 19:38:22.184,4.833502,-9.518648,-0.10767702,0.08697187,-0.41317368,-2.8646505,-45.05625,-1.0125,-21.900002,0.50549626,-0.53379667,0.5582587,995.6247, , , , 
2025-09-28 19:38:22.204,4.3094735,-9.77468,-0.17467605,0.0570395,-0.4901426,-2.590372,-44.41875,-2.9250002,-21.862501,0.52117485,-0.52234626,0.5469717,995.6247, , , , 
2025-09-28 19:38:22.224,3.278167,-9.750752,0.05742774,0.083306685,-0.52129674,-2.237903,-43.55625,-6.05625,-23.775002,0.5353118,-0.51229715,0.5362018,995.63666, , , , 
2025-09-28 19:38:22.244,2.6416762,-9.470792,-0.11964113,0.17249294,-0.62147856,-1.8054109,-44.006252,-7.36875,-21.65625,0.547795,-0.5039758,0.5266859,995.63666, , , , 
2025-09-28 19:38:22.264,2.3186452,-9.745967,-0.8757731,0.13706279,-0.6404154,-1.402851,-45.225002,-9.1125,-22.03125,0.558665,-0.4979099,0.51858276,995.65546, , , , 
2025-09-28 19:38:22.284,2.4622145,-11.066805,-1.18684,-0.05535962,-0.5817723,-0.79626226,-42.881252,-9.975,-23.306252,0.56832904,-0.4946569,0.5103627,995.65546, , , , 
2025-09-28 19:38:22.304,2.0195422,-12.071791,-1.5361922,-0.2514472,-0.41011935,-0.28313583,-44.15625,-11.00625,-20.493752,0.57198566,-0.49577665,0.5057544,995.6718, , , , 
2025-09-28 19:38:22.324,0.37567315,-10.750952,-1.4261223,-0.5788707,-0.008781182,0.37110037,-47.268753,-14.175,-21.84375,0.57155526,-0.49878287,0.50392014,995.6718, , , , 
2025-09-28 19:38:22.344,0.047856454,-8.305488,0.6795616,-0.78534305,0.6607266,1.0326669,-43.66875,-11.56875,-21.6,0.5624754,-0.50748545,0.5053312,995.6755, , , , 
2025-09-28 19:38:22.364,0.25124636,-8.097312,1.3926228,-0.6869938,1.0193043,1.3539817,-44.850002,-10.81875,-20.90625,0.552459,-0.51325494,0.5097416,995.6755, , , , 
2025-09-28 19:38:22.384,0.9906286,-9.8727865,1.0887343,-0.20990841,0.8586468,1.831678,-43.706253,-8.94375,-22.81875,0.5322002,-0.52235144,0.52242583,995.6984, , , , 
2025-09-28 19:38:22.404,2.053042,-11.425728,0.124426775,0.2531271,0.0193186,2.2922702,-44.8125,-6.3375,-21.9375,0.51738787,-0.5312546,0.5344384,995.6984, , , , 
2025-09-28 19:38:22.424,3.5318062,-11.949757,-0.74416786,0.53962266,-0.646524,2.711934,-42.6375,-3.73125,-24.31875,0.5059669,-0.5436355,0.5458166,995.717, , , , 
2025-09-28 19:38:22.444,5.1158547,-12.354143,-1.8592232,0.60132,-0.6410262,3.1975718,-43.95,-2.7562501,-21.768751,0.49225283,-0.56219286,0.5600684,995.717, , , , 
2025-09-28 19:38:22.464,5.178068,-12.41875,-2.5196424,0.3759109,-0.26290092,3.5732536,-45.9375,1.48125,-17.625,0.4810731,-0.57398695,0.56952465,995.7111, , , , 
2025-09-28 19:38:22.484,6.262017,-11.782259,-0.93320084,0.022220206,-0.16332997,3.9251115,-45.037502,5.8125,-19.35,0.4552808,-0.5956528,0.5855667,995.7111, , , , 
2025-09-28 19:38:22.504,8.226524,-11.286944,0.76331043,0.09063706,-0.101632625,4.027737,-45.16875,9.9375,-22.518751,0.43164057,-0.61360794,0.59730655,995.69183, , , , 
2025-09-28 19:38:22.524,7.8149586,-11.356337,0.27756742,0.3191005,0.10361794,4.075384,-44.4375,13.218751,-18.300001,0.40738705,-0.6290566,0.60956633,995.69183, , , , 
2025-09-28 19:38:22.544,7.4153576,-11.487942,-0.997807,0.39668033,0.14271328,4.204888,-41.0625,17.94375,-22.48125,0.38167635,-0.64241856,0.6225422,995.69525, , , , 
2025-09-28 19:38:22.564,8.475378,-11.3778715,-1.6821543,0.27328563,0.2514472,4.383871,-41.081253,18.581251,-23.4375,0.35386077,-0.65528333,0.6348264,995.69525, , , , 
2025-09-28 19:38:22.584,10.07139,-10.846665,-1.4117653,0.107741274,0.23067781,4.393034,-40.36875,21.900002,-25.087502,0.3317847,-0.6650347,0.64272183,995.6889, , , , 
2025-09-28 19:38:22.604,11.203196,-9.958928,-0.5096712,0.033826638,0.20563236,4.092489,-38.11875,26.925001,-19.893751,0.28849012,-0.68290746,0.6546246,995.6889, , , , 
2025-09-28 19:38:22.624,11.370693,-10.095319,-0.19860429,0.06864593,0.33024877,3.9110618,-37.0875,27.45,-23.4375,0.26785365,-0.6902874,0.6593643,995.67816, , , , 
2025-09-28 19:38:22.644,12.040684,-10.145568,-0.3182454,0.050319985,0.5788707,3.715585,-32.1375,31.66875,-22.5,0.23292731,-0.7001873,0.6667813,995.67816, , , , 
2025-09-28 19:38:22.664,12.387643,-10.01157,-0.13878371,0.09063706,0.45730865,3.5384343,-32.0625,31.95,-24.675001,0.21233048,-0.70506746,0.6705672,995.6816, , , , 
2025-09-28 19:38:22.684,12.763316,-9.188439,0.59342,0.3099375,0.15493058,3.1731372,-23.550001,34.706253,-27.281252,0.18228143,-0.71091306,0.6759624,995.6816, , , , 
2025-09-28 19:38:22.704,13.174882,-8.9348,-0.31345975,0.43394306,0.4823541,2.8762567,-24.45,36.206253,-24.6375,0.16139425,-0.71291983,0.6806427,995.6921, , , , 
2025-09-28 19:38:22.724,13.2610235,-9.209974,-1.8879371,0.4174497,1.0645082,2.711934,-22.96875,37.85625,-24.281252,0.13945399,-0.7134601,0.6856968,995.6921, , , , 
2025-09-28 19:38:22.744,14.194224,-8.705089,-3.8285162,0.08880447,1.6827034,2.6215262,-20.400002,36.75,-24.7875,0.10746316,-0.7145519,0.69069123,995.6796, , , , 
2025-09-28 19:38:22.764,16.453049,-8.142776,-4.2448673,-0.23861906,1.6869794,2.3228133,-18.993752,37.66875,-27.000002,0.087450035,-0.716355,0.69173056,995.6796, , , , 
2025-09-28 19:38:22.784,18.089739,-8.310273,-3.010171,-0.61979866,1.3406191,1.425453,-15.075001,38.943752,-27.937502,0.060089603,-0.721389,0.68938327,995.65546, , , , 
2025-09-28 19:38:22.804,17.584854,-9.193225,-1.8831514,-0.690659,1.1078796,0.9685261,-12.993751,40.518753,-28.25625,0.049005225,-0.7250123,0.6863372,995.65546, , , , 
2025-09-28 19:38:22.824,17.615961,-8.851051,0.20817557,-0.45853037,0.6277399,0.59467685,-12.95625,40.143753,-25.7625,0.03926682,-0.72933286,0.68215847,995.6479, , , , 
2025-09-28 19:38:22.844,18.850657,-5.278567,0.009571291,0.09918917,0.14271328,-0.39003715,-11.56875,40.518753,-25.612501,0.037078287,-0.7307428,0.6804177,995.6479, , , , 
2025-09-28 19:38:22.864,16.984255,-4.5248275,-1.1294123,0.13095413,0.15309799,-1.1847723,-12.056251,39.375,-27.656252,0.042588476,-0.72970265,0.68077457,995.6606, , , , 
2025-09-28 19:38:22.884,12.538391,-6.195018,-0.87338024,0.116904244,0.04253146,-2.0729697,-12.675,40.55625,-28.593752,0.05899178,-0.7277239,0.6801769,995.6606, , , , 
2025-09-28 19:38:22.904,10.301102,-8.080562,-1.1318051,0.27267477,-0.43638653,-2.3484697,-13.2375,40.125,-27.281252,0.07746373,-0.725049,0.679537,995.6652, , , , 
2025-09-28 19:38:22.924,10.322637,-9.032906,-1.7682959,0.29527676,-0.82611823,-2.4407103,-15.918751,39.956253,-26.362501,0.09410235,-0.722432,0.67903066,995.6652, , , , 
2025-09-28 19:38:22.944,11.968899,-10.585847,-1.9621146,-0.012599086,-0.9678389,-2.725984,-19.462502,37.612503,-26.325,0.12539342,-0.71843696,0.6761681,995.675, , , , 
2025-09-28 19:38:22.964,12.815958,-11.406586,-0.67477596,-0.22945608,-0.99410605,-2.9709408,-18.150002,40.256252,-28.781252,0.14559378,-0.7167513,0.67234063,995.675, , , , 
2025-09-28 19:38:22.984,13.406985,-12.057433,1.6797615,-0.33574656,-0.9238566,-3.2898123,-22.275002,36.693752,-26.587502,0.17410561,-0.7145132,0.6652286,995.67035, , , , 
2025-09-28 19:38:23.005,13.27538,-12.189038,3.4073794,-0.16592614,-0.52251846,-3.7846127,-27.91875,34.36875,-24.487501,0.21811958,-0.7074914,0.6536143,995.67035, , , , 
2025-09-28 19:38:23.024,12.60539,-12.437892,3.2422748,-0.03642281,-0.21097742,-4.0417867,-29.79375,33.05625,-24.525002,0.24008822,-0.7012244,0.64826244,995.695, , , , 
2025-09-28 19:38:23.044,12.007184,-12.77528,2.07697,-0.023594651,0.5617665,-4.3850927,-30.487501,33.75,-26.79375,0.27465293,-0.686868,0.63975805,995.695, , , , 
2025-09-28 19:38:23.065,11.279766,-13.409378,2.4454648,0.017944153,1.0779473,-4.569574,-31.931252,31.087502,-24.956251,0.29286715,-0.67615366,0.63454854,995.7128, , , , 
2025-09-28 19:38:23.084,10.389636,-13.811373,2.2636101,0.2512945,1.0687842,-4.6440997,-34.93125,27.91875,-23.681252,0.31543782,-0.658918,0.62807274,995.7128, , , , 
2025-09-28 19:38:23.104,10.293923,-13.708481,1.8735801,0.65263265,0.27710354,-4.8041463,-36.225002,20.587502,-26.531252,0.34639347,-0.6341828,0.6192256,995.7192, , , , 
2025-09-28 19:38:23.124,9.647861,-13.777873,1.4596218,0.79801846,-0.19142975,-4.944034,-37.875,19.66875,-26.156252,0.36844948,-0.6183082,0.6122979,995.7192, , , , 
2025-09-28 19:38:23.144,7.2693954,-13.722837,0.7465607,0.82795084,-0.61842424,-4.8872237,-38.850002,12.618751,-27.656252,0.4173749,-0.5856917,0.593939,995.7131, , , , 
2025-09-28 19:38:23.164,6.2979093,-13.445271,0.2632105,0.7253256,-0.58788097,-4.704575,-39.300003,9.58125,-27.581251,0.44116676,-0.5696468,0.5833355,995.7131,37.88836854,127.73980229,145.1495361328125,1.05
2025-09-28 19:38:23.184,5.3240304,-13.091133,0.26799613,0.57077676,-0.40523243,-4.3832603,-42.73125,5.9625,-24.243752,0.46965468,-0.54889894,0.56881577,995.6982, , , , 
2025-09-28 19:38:23.204,4.2568316,-12.796816,0.23688944,0.4577668,-0.19876012,-3.928166,-43.125,-1.66875,-23.15625,0.4994121,-0.52399063,0.5516067,995.6982, , , , 
2025-09-28 19:38:23.224,2.5842485,-12.416357,-0.4546363,0.37713265,-0.0900262,-3.5769186,-44.756252,-3.2062502,-22.893751,0.51451474,-0.50975525,0.5421089,995.6884, , , , 
2025-09-28 19:38:23.244,-0.0,-11.602797,-1.0839486,0.11018474,-0.03932442,-2.830442,-45.2625,-9.356251,-22.331251,0.5348236,-0.48890325,0.52765775,995.6884, , , , 
2025-09-28 19:38:23.264,-0.46660042,-10.944771,-0.20817557,-0.017486004,-0.15111268,-2.2305727,-41.775,-10.35,-24.6375,0.5464656,-0.47687763,0.5173862,995.68744, , , , 
2025-09-28 19:38:23.284,-0.38763726,-10.396814,0.55752766,0.03932442,-0.16577344,-1.7394375,-41.8125,-10.59375,-25.237501,0.55317354,-0.47040537,0.510875,995.68744, , , , 
2025-09-28 19:38:23.305,-1.9812572,-10.829915,-0.9619147,0.108963005,-0.033215772,-1.0748166,-42.300003,-14.400001,-23.90625,0.5614558,-0.46192607,0.5036797,995.69037, , , , 
2025-09-28 19:38:23.324,-3.414558,-11.454442,-2.333002,-0.013820816,-0.10102176,-0.3497201,-42.73125,-12.937501,-25.0125,0.5647495,-0.45882908,0.5011615,995.69037, , , , 
2025-09-28 19:38:23.344,-3.211168,-10.760524,-1.579263,-0.3351357,-0.2769508,0.9795217,-43.6875,-14.025001,-24.69375,0.5626051,-0.46480867,0.5015478,995.70087, , , , 
2025-09-28 19:38:23.364,-0.8566305,-9.5760765,0.13160525,-0.39866564,0.007101303,1.7241658,-43.068752,-13.968751,-25.237501,0.5570479,-0.47321928,0.5045126,995.70087, , , , 
2025-09-28 19:38:23.384,1.402194,-9.08794,0.62452674,-0.13293944,0.532445,2.3283112,-43.93125,-10.81875,-23.925001,0.54107696,-0.48851755,0.51641613,995.71356, , , , 
2025-09-28 19:38:23.404,2.0865414,-9.934999,-1.2849457,0.02649626,0.52083856,2.654513,-45.075,-9.84375,-21.69375,0.5251883,-0.5001341,0.53055096,995.71356, , , , 
2025-09-28 19:38:23.424,2.806781,-10.966306,-2.3712873,0.03932442,0.19463679,2.9910994,-41.775,-8.34375,-26.925001,0.5085387,-0.5135059,0.5453257,995.7104, , , , 
2025-09-28 19:38:23.445,4.855037,-11.720045,-2.6488547,-0.03581195,-0.12179117,3.4199264,-44.100002,-3.1125002,-25.425001,0.48695952,-0.53460205,0.5624327,995.7104, , , , 
2025-09-28 19:38:23.465,6.161518,-12.162718,-3.0939198,-0.234343,0.18425208,3.6819875,-46.256252,0.24375,-21.993752,0.4672445,-0.5531314,0.5757106,995.68304, , , , 
2025-09-28 19:38:23.485,6.5347986,-12.067004,-2.8713872,-0.5471058,0.4805215,3.8951793,-45.018753,4.21875,-21.900002,0.44292483,-0.5718888,0.5891622,995.68304, , , , 
2025-09-28 19:38:23.506,7.075577,-11.854043,-1.0839486,-0.73830646,0.29604036,3.991085,-44.325,7.65,-22.48125,0.40800098,-0.5964062,0.60400915,995.67474, , , , 
2025-09-28 19:38:23.524,7.0301127,-11.868401,0.19860429,-0.6417898,0.05535962,4.0711083,-42.393753,13.35,-25.1625,0.38705194,-0.61119026,0.61145276,995.67474, , , , 
2025-09-28 19:38:23.544,7.4512496,-12.078969,0.47377887,-0.464639,-0.08391755,4.2317657,-43.6875,16.050001,-20.550001,0.35950318,-0.6299456,0.62094754,995.6723, , , , 
2025-09-28 19:38:23.564,8.094919,-12.531212,0.35413775,-0.27466008,-0.14866921,4.4028077,-40.65,20.60625,-23.90625,0.32463768,-0.65129286,0.6328186,995.6723, , , , 
2025-09-28 19:38:23.584,9.075976,-13.000205,-0.28953153,-0.1579849,-0.2042579,4.524981,-40.0875,23.306252,-25.968752,0.29614642,-0.6664942,0.642152,995.6728, , , , 
2025-09-28 19:38:23.605,10.583454,-13.110275,-1.1102697,-0.29420775,-0.14561489,4.5769043,-38.5875,25.687502,-24.88125,0.2664743,-0.6804764,0.6505171,995.6728, , , , 
2025-09-28 19:38:23.625,11.29173,-12.610175,-0.7728817,-0.49029535,-0.105908684,4.5762935,-36.018753,28.312502,-24.825,0.23640035,-0.694055,0.6562956,995.6528, , , , 
2025-09-28 19:38:23.645,12.830315,-12.047862,0.83988076,-0.4823541,-0.16332997,4.448012,-32.25,31.050001,-23.53125,0.2060651,-0.7068703,0.65981346,995.6528, , , , 
2025-09-28 19:38:23.666,14.29233,-10.626525,1.4931214,-0.24717116,-0.20547964,4.1566296,-30.16875,34.7625,-25.031252,0.17775252,-0.7170546,0.66265714,995.6335, , , , 
2025-09-28 19:38:23.685,15.912271,-8.669196,0.7537391,0.08758274,-0.2683987,3.485289,-26.75625,35.100002,-23.56875,0.14761345,-0.72464585,0.6666995,995.6335, , , , 
2025-09-28 19:38:23.706,16.594225,-8.087741,0.02871387,0.40156722,-0.6642391,3.015534,-24.88125,38.53125,-23.79375,0.13377286,-0.72676617,0.6693928,995.62836, , , , 
2025-09-28 19:38:23.725,17.273787,-6.788438,-2.2995026,0.6434697,-0.98983,2.5433354,-21.6,40.237503,-24.093752,0.11892017,-0.7267972,0.6747437,995.62836, , , , 
2025-09-28 19:38:23.745,17.907885,-6.099305,-3.3355947,0.42233664,-0.52801627,2.0815217,-20.643751,37.8375,-22.66875,0.11077974,-0.725796,0.67832214,995.6193, , , , 
2025-09-28 19:38:23.765,17.764315,-6.2979093,-2.9862428,0.16699515,0.043753188,1.6423099,-19.5,39.1875,-22.706251,0.102282755,-0.72570664,0.6801597,995.6193, , , , 
2025-09-28 19:38:23.786,18.001205,-6.8195443,-2.4885356,0.049098257,0.20990841,1.2440261,-20.04375,40.0125,-23.775002,0.09376553,-0.726315,0.68085825,995.6047, , , , 
2025-09-28 19:38:23.806,19.508682,-7.479964,-1.9525433,0.029550584,0.05535962,0.79076445,-18.056252,41.100002,-24.50625,0.08782233,-0.7269422,0.6810201,995.6047, , , , 
2025-09-28 19:38:23.825,20.810379,-7.884351,-1.4859428,0.03810269,-0.069867656,0.08643737,-16.518751,41.381252,-25.143751,0.08696456,-0.72702336,0.6810476,995.5986, , , , 
2025-09-28 19:38:23.845,19.018154,-7.02772,-1.0767702,-0.021762058,0.09750929,-0.8310815,-17.550001,40.0125,-23.737501,0.09369065,-0.72616774,0.680971,995.5986, , , , 
2025-09-28 19:38:23.866,15.596418,-6.4151573,-0.28953153,-0.048029244,0.24778202,-1.6398665,-18.243752,39.5625,-22.3875,0.10353676,-0.7249688,0.6804782,995.5961, , , , 
2025-09-28 19:38:23.884,13.050455,-7.003792,-0.48095736,0.028939718,0.18669555,-2.1322236,-17.118752,39.956253,-24.69375,0.11704993,-0.722683,0.67992145,995.5961, , , , 
2025-09-28 19:38:23.904,11.030912,-8.681161,-1.2418749,0.075976305,-0.0900262,-2.441932,-20.831251,39.05625,-23.325,0.13427335,-0.7191873,0.6791619,995.6152, , , , 
2025-09-28 19:38:23.924,10.942378,-9.968499,-1.6917256,0.008781182,-0.28183773,-2.559218,-21.69375,38.68125,-24.825,0.15427852,-0.71533084,0.6773581,995.6152, , , , 
2025-09-28 19:38:23.944,12.526426,-11.282159,-0.8063812,-0.16042836,-0.3239874,-2.808451,-24.862501,37.912502,-24.225,0.17577319,-0.7116429,0.67396057,995.6252, , , , 
2025-09-28 19:38:23.964,13.356736,-12.361321,0.44745782,-0.20807582,-0.34109163,-3.129155,-28.050001,35.9625,-23.625,0.19875473,-0.7074738,0.66920716,995.6252, , , , 
2025-09-28 19:38:23.984,13.5170555,-12.892529,1.5720844,-0.10789399,-0.28672466,-3.5469863,-28.9125,35.25,-24.281252,0.23023278,-0.70002633,0.66222405,995.6445, , , , 
2025-09-28 19:38:24.004,12.397214,-13.127025,1.6438692,0.032604907,-0.14072797,-3.901288,-31.575,33.61875,-24.206251,0.25702494,-0.69114816,0.65651834,995.6445, , , , 
2025-09-28 19:38:24.024,11.339586,-13.299308,1.3974084,0.1645517,-0.08513928,-4.1523533,-34.125,32.71875,-23.118752,0.28455234,-0.67963225,0.6506601,995.6608, , , , 
2025-09-28 19:38:24.044,10.686346,-13.074383,1.1676974,0.23907721,-0.19020802,-4.421134,-35.53125,28.706251,-21.975,0.31309617,-0.6659195,0.6440733,995.6608, , , , 
2025-09-28 19:38:24.065,9.554541,-13.2514515,1.3304094,0.28550294,-0.099800035,-4.5842347,-38.34375,27.91875,-20.85,0.34276375,-0.6503175,0.63605917,995.6674, , , , 
2025-09-28 19:38:24.084,8.745767,-13.150953,1.0767702,0.33925903,0.12805253,-4.579959,-42.412502,20.775002,-21.2625,0.37126407,-0.6326964,0.6275579,995.6674, , , , 
2025-09-28 19:38:24.104,8.372486,-12.933207,0.19621146,0.39729118,0.2514472,-4.5408635,-43.125,17.23125,-22.06875,0.39763162,-0.61329836,0.61907905,995.684, , , , 
2025-09-28 19:38:24.124,7.7407813,-12.452249,-0.9403793,0.31482443,0.22579089,-4.496881,-43.4625,11.118751,-23.681252,0.42867973,-0.5877526,0.6073696,995.684, , , , 
2025-09-28 19:38:24.145,6.7573314,-12.064611,-1.038485,0.116904244,0.11400264,-4.4718356,-43.612503,8.231251,-22.725,0.45232683,-0.56755954,0.59577644,995.6735, , , , 
2025-09-28 19:38:24.164,5.7140603,-12.052648,-0.85902333,0.010002911,0.09445497,-4.3734865,-46.21875,3.4687502,-20.643751,0.4748191,-0.5479584,0.5821421,995.6735,37.88836854,127.73980229,145.1495361328125,1.05
2025-09-28 19:38:24.184,4.063013,-12.021541,-0.98584294,-0.06940951,0.13355032,-4.1835074,-45.018753,1.2375001,-22.96875,0.49514934,-0.5287338,0.5677719,995.66156, , , , 
2025-09-28 19:38:24.204,1.4931214,-12.031113,-0.9667004,-0.18180864,-0.06436988,-3.7864454,-44.8125,-4.9500003,-23.1,0.5133424,-0.5107206,0.55296296,995.66156, , , , 
2025-09-28 19:38:24.224,-0.5407779,-11.770294,-0.06460621,-0.22823435,-0.35636324,-3.237278,-44.643753,-6.1875005,-21.806252,0.52967405,-0.49570352,0.5376009,995.65643, , , , 
2025-09-28 19:38:24.244,-1.7922242,-11.452049,0.81834537,-0.13171771,-0.5298488,-2.7247624,-44.4,-8.025001,-22.95,0.5406258,-0.48682633,0.5264739,995.65643, , , , 
2025-09-28 19:38:24.264,-3.345166,-10.765309,0.5766702,0.21708608,-0.6483566,-1.7357723,-44.175003,-11.231251,-22.331251,0.5592769,-0.47435498,0.5091681,995.6718, , , , 
2025-09-28 19:38:24.284,-3.5653057,-10.217353,-1.1557333,0.21036656,-0.4351648,-0.8127556,-44.550003,-13.012501,-22.2,0.56781554,-0.47004429,0.50299466,995.6718, , , , 
2025-09-28 19:38:24.304,-2.5172493,-11.140983,-2.3186452,-0.06207913,-0.24579671,-0.094378605,-44.25,-12.993751,-21.45,0.5712975,-0.46993467,0.5004518,995.6862, , , , 
2025-09-28 19:38:24.324,-2.754139,-12.325429,-2.143969,-0.34552038,-0.267177,0.64476776,-47.4375,-13.33125,-19.706251,0.56971395,-0.4748362,0.5002916,995.6862, , , , 
2025-09-28 19:38:24.344,-2.7086751,-11.779866,-0.4426722,-0.4890736,-0.3655262,1.6410882,-45.075,-12.712501,-21.54375,0.5634051,-0.48598596,0.5023528,995.6757, , , , 
2025-09-28 19:38:24.364,-0.2727818,-10.523634,0.91405827,-0.40538514,0.092011504,2.681391,-44.925003,-11.1,-19.331251,0.5513456,-0.5019471,0.50899976,995.6757, , , , 
2025-09-28 19:38:24.384,2.2947168,-10.224531,0.552742,-0.25755587,0.5159517,3.2470517,-47.53125,-8.7375,-19.650002,0.53307366,-0.51903117,0.5217168,995.67474, , , , 
2025-09-28 19:38:24.404,4.8215375,-10.738988,-0.05503492,-0.08651373,0.4304306,3.553095,-47.25,-4.4812503,-19.931252,0.51107097,-0.5360865,0.5379111,995.67474, , , , 
2025-09-28 19:38:24.425,6.977471,-11.765509,-1.1629118,0.0881936,0.022372922,3.670992,-44.86875,-0.75,-21.0,0.48377344,-0.5578697,0.5579367,995.6713, , , , 
2025-09-28 19:38:24.444,8.087741,-12.789637,-2.3449662,0.074143715,-0.1107956,3.719861,-45.15,2.8312502,-21.6375,0.4630668,-0.57555926,0.57221186,995.6713, , , , 
2025-09-28 19:38:24.464,8.130812,-13.423735,-2.7589245,-0.09873102,0.0034361144,3.7766714,-44.86875,4.3500004,-20.681252,0.44677767,-0.5889127,0.5819393,995.65106, , , , 
2025-09-28 19:38:24.484,7.850851,-13.433307,-1.6845472,-0.43653923,0.24900375,4.0112433,-44.475002,9.243751,-20.23125,0.415433,-0.6118694,0.5965732,995.65106, , , , 
2025-09-28 19:38:24.505,8.236095,-12.607782,-0.34456646,-0.52694726,0.43776098,4.164571,-44.23125,11.64375,-23.025002,0.38650632,-0.6303081,0.6074031,995.6254, , , , 
2025-09-28 19:38:24.524,8.429914,-12.102897,0.15792629,-0.53916454,0.65645057,4.2287116,-43.4625,13.2375,-23.962502,0.36305097,-0.6432261,0.61541975,995.6254, , , , 
2025-09-28 19:38:24.544,8.889337,-11.971292,0.4139583,-0.4841867,0.73464125,4.294074,-40.36875,20.643751,-23.325,0.32159257,-0.66260993,0.6283816,995.61664, , , , 
2025-09-28 19:38:24.564,9.509077,-12.004791,0.29192436,-0.37850708,0.5599339,4.32645,-38.193752,24.093752,-23.737501,0.28809226,-0.6763385,0.63790864,995.61664, , , , 
2025-09-28 19:38:24.584,10.547563,-11.976077,-0.27756742,-0.3314705,0.3907244,4.308735,-36.28125,25.425001,-26.175001,0.26376194,-0.6856944,0.64429593,995.6064, , , , 
2025-09-28 19:38:24.604,11.550155,-11.112268,-0.7609176,-0.4927388,0.4231002,4.069276,-31.2,30.187502,-26.98125,0.21718666,-0.70254177,0.65380347,995.6064, , , , 
2025-09-28 19:38:24.624,11.636296,-10.612168,-0.9164511,-0.6992111,0.63262683,3.9086182,-32.15625,30.69375,-25.368752,0.19412899,-0.71039605,0.6564646,995.6032, , , , 
2025-09-28 19:38:24.644,12.569497,-9.767502,0.44985065,-0.8519273,0.7218131,3.5946338,-26.718752,34.36875,-25.5375,0.15540572,-0.723111,0.65772474,995.6032, , , , 
2025-09-28 19:38:24.664,13.552947,-9.075976,0.47856453,-0.7419716,0.57092947,3.376555,-24.712502,35.475002,-27.975,0.13361895,-0.72963786,0.65764105,995.5971, , , , 
2025-09-28 19:38:24.684,14.629718,-7.0540414,0.30149564,-0.658894,0.31558803,2.866483,-21.018751,37.93125,-25.10625,0.102527484,-0.73837614,0.6568231,995.5971, , , , 
2025-09-28 19:38:24.704,14.122439,-5.7762737,1.5816557,-0.5984184,0.23800819,2.4199407,-15.975,40.331253,-27.31875,0.08244602,-0.74411947,0.65515625,995.60004, , , , 
2025-09-28 19:38:24.724,14.378471,-5.76431,3.0293136,-0.18486296,-0.07841977,2.1187844,-17.1,41.325,-26.175001,0.06653332,-0.74794316,0.6542005,995.60004, , , , 
2025-09-28 19:38:24.744,15.125031,-5.4628143,1.7635103,0.4058433,-0.34781113,1.8750495,-16.462502,40.3875,-23.550001,0.058030326,-0.74815995,0.65591407,995.6142, , , , 
2025-09-28 19:38:24.764,16.68276,-5.65424,-2.3928227,0.6245329,-0.38934994,1.4621048,-15.000001,40.162502,-25.237501,0.049011,-0.7446641,0.66220117,995.6142, , , , 
2025-09-28 19:38:24.784,18.139988,-6.6759753,-3.8476589,0.13461933,-0.2702313,0.8439097,-13.2375,39.600002,-24.468752,0.044834122,-0.74245477,0.66584295,995.6203, , , , 
2025-09-28 19:38:24.804,19.52304,-8.319844,-2.8283165,-0.22518003,-0.17554727,0.25320345,-12.656251,40.162502,-25.48125,0.045004092,-0.7433406,0.665027,995.6203, , , , 
2025-09-28 19:38:24.824,19.817358,-8.662018,-1.4739788,-0.37117672,-0.07475458,-0.31062475,-11.137501,43.3125,-26.437502,0.047638286,-0.7448185,0.66304964,995.5988, , , , 
2025-09-28 19:38:24.844,19.393827,-8.054241,0.2847459,-0.46952593,0.21662793,-1.3154973,-12.525001,40.912502,-24.150002,0.056797266,-0.7473705,0.65851986,995.5988, , , , 
2025-09-28 19:38:24.864,17.194824,-8.556734,1.7324036,-0.33819002,0.38033968,-2.0961826,-13.368751,41.7,-25.500002,0.06906932,-0.7483705,0.6543883,995.6091, , , , 
2025-09-28 19:38:24.884,14.22533,-9.678967,1.9812572,0.023441937,0.27832526,-2.6618433,-16.2,40.912502,-24.075,0.08145513,-0.7472966,0.65207934,995.6091, , , , 
2025-09-28 19:38:24.904,10.482956,-11.023734,0.50009996,0.52496195,-0.4003455,-2.988045,-19.143751,39.99375,-25.10625,0.11443175,-0.73977536,0.6505867,995.6462, , , , 
2025-09-28 19:38:24.924,10.157532,-11.334801,0.20338993,0.64957833,-0.7894664,-3.015534,-19.78125,39.693752,-25.800001,0.13433978,-0.7345091,0.6504054,995.6462, , , , 
2025-09-28 19:38:24.944,10.853844,-11.46162,0.5479564,0.77052957,-1.229289,-3.1713045,-25.612501,36.956253,-24.862501,0.1715027,-0.7245001,0.64949244,995.6591, , , , 
2025-09-28 19:38:24.964,11.16491,-11.289337,0.4642076,0.7919098,-1.2946515,-3.354564,-26.493752,35.5125,-24.843752,0.19571316,-0.7175563,0.6483608,995.6591, , , , 
2025-09-28 19:38:24.984,11.272588,-11.282159,0.19621146,0.6935606,-1.0924553,-3.6691594,-31.95,32.568752,-23.962502,0.2372944,-0.7044145,0.64485437,995.6789, , , , 
2025-09-28 19:38:25.004,11.169696,-11.411371,-0.009571291,0.5475639,-0.79985106,-3.9116726,-33.84375,31.7625,-24.7875,0.27030775,-0.6925502,0.6402844,995.6789, , , , 
2025-09-28 19:38:25.024,11.468799,-11.614761,-0.3684947,0.3172679,-0.36125016,-4.162738,-35.23125,29.268751,-24.975,0.30179548,-0.67954296,0.6340254,995.6818, , , , 
2025-09-28 19:38:25.044,10.614561,-12.413964,0.047856454,0.08269582,0.2673297,-4.5072656,-38.60625,24.525002,-20.475,0.33744422,-0.6612326,0.6238515,995.6818, , , , 
2025-09-28 19:38:25.064,9.817751,-12.782458,0.13878371,0.074143715,0.37056586,-4.6166105,-40.65,19.987501,-22.63125,0.35728452,-0.64883333,0.6169782,995.6728, , , , 
2025-09-28 19:38:25.084,9.236296,-12.823136,0.011964113,0.116293386,0.2777144,-4.681362,-38.8125,19.44375,-25.893751,0.38333848,-0.6309563,0.606838,995.6728, , , , 
2025-09-28 19:38:25.105,8.013563,-12.567104,-0.3469593,0.11751511,0.039477136,-4.7180142,-42.09375,12.8625,-22.5375,0.4164173,-0.6072417,0.59181845,995.67206, , , , 
2025-09-28 19:38:25.124,6.769295,-12.44507,-0.4019942,0.075976305,-0.10468695,-4.606226,-42.412502,9.731251,-23.400002,0.43625277,-0.5928655,0.58141136,995.67206, , , , 
2025-09-28 19:38:25.144,5.548956,-11.727223,-0.11964113,0.04054615,-0.12301289,-4.293463,-44.081253,5.83125,-23.625,0.46748427,-0.5695593,0.56272626,995.66644, , , , 
2025-09-28 19:38:25.164,4.910072,-11.375479,-0.37567315,-0.026038112,0.0956767,-4.0888233,-44.34375,1.8000001,-21.206251,0.48938245,-0.55113727,0.54801184,995.66644,37.88836864,127.7397766,143.857421875,1.55
2025-09-28 19:38:25.184,3.1465619,-11.521441,-0.6029913,-0.10545053,0.34490952,-3.8127124,-45.506252,-1.9125,-23.19375,0.5033073,-0.53724384,0.537629,995.66815, , , , 
2025-09-28 19:38:25.204,0.7800602,-11.763116,-0.19381863,-0.11217005,0.3540725,-2.9819365,-45.43125,-7.14375,-21.056252,0.524238,-0.511789,0.5198324,995.66815, , , , 
2025-09-28 19:38:25.224,0.009571291,-11.911471,-0.28713873,-0.040088,0.23495387,-2.337474,-45.581253,-7.275,-21.7875,0.53189164,-0.5016253,0.51287585,995.66644, , , , 
2025-09-28 19:38:25.244,-0.3804588,-10.894522,-0.36370903,0.005726857,0.102396205,-1.434005,-41.5125,-8.45625,-25.706251,0.54113173,-0.48967916,0.50451374,995.66644, , , , 
2025-09-28 19:38:25.264,-0.4833502,-10.461421,-0.42831525,0.006948587,0.18303037,-0.98868465,-42.6375,-13.931251,-24.50625,0.54449296,-0.4851455,0.5015445,995.66815, , , , 
2025-09-28 19:38:25.284,-1.1653047,-10.286744,-0.4426722,0.032604907,0.24594943,-0.42791077,-39.6375,-12.225,-26.625002,0.5461802,-0.48120508,0.5002889,995.66815, , , , 
2025-09-28 19:38:25.304,-1.4045869,-11.459228,-1.5026926,0.075976305,-0.022831071,0.41325003,-44.325,-12.1125,-24.750002,0.54493916,-0.48072478,0.5024669,995.66864, , , , 
2025-09-28 19:38:25.324,-1.579263,-11.253445,-1.9764715,-0.05780308,-0.20975569,1.1163554,-44.4,-12.4875,-24.093752,0.54142064,-0.48613936,0.5062795,995.66864, , , , 
2025-09-28 19:38:25.344,-0.040677983,-9.987641,-0.53599226,-0.27466008,-0.055206906,2.1468842,-44.53125,-10.25625,-24.675001,0.5308047,-0.500588,0.51421976,995.6613, , , , 
2025-09-28 19:38:25.364,1.7778672,-9.51147,0.29192436,-0.31864235,0.38644832,2.69483,-43.55625,-9.0375,-24.525002,0.51994556,-0.51136005,0.521995,995.6613, , , , 
2025-09-28 19:38:25.384,3.885944,-9.683753,0.45224348,-0.21968225,0.70287627,3.055851,-43.96875,-6.7125,-24.468752,0.5006726,-0.5257543,0.536133,995.654, , , , 
2025-09-28 19:38:25.404,5.4412785,-10.621739,-0.6628119,-0.08773545,0.5159517,3.2556038,-42.9,-2.1375,-24.225,0.47348198,-0.54309666,0.55645967,995.654, , , , 
2025-09-28 19:38:25.424,6.1567326,-11.095519,-1.1940185,-0.04925097,0.17386739,3.3576183,-44.41875,-1.7812501,-25.931252,0.45753878,-0.554027,0.5680184,995.6386, , , , 
2025-09-28 19:38:25.444,7.092326,-11.772687,-1.8520447,-0.07735075,-0.2409098,3.4822347,-42.300003,2.15625,-25.312502,0.4328136,-0.5740812,0.5845883,995.6386, , , , 
2025-09-28 19:38:25.464,6.9942207,-11.676974,-2.1080768,-0.2361756,-0.17066035,3.617236,-43.143753,6.6937504,-25.781252,0.41278762,-0.59110665,0.5959323,995.6132, , , , 
2025-09-28 19:38:25.484,6.896115,-11.468799,-1.6462619,-0.4927388,0.07735075,3.8200428,-42.112503,9.65625,-25.29375,0.38964304,-0.6086919,0.6062931,995.6132, , , , 
2025-09-28 19:38:25.504,7.5924263,-11.569298,-0.61734825,-0.67905253,0.3296379,4.0698867,-40.78125,14.64375,-26.79375,0.35521674,-0.6308876,0.6184189,995.602, , , , 
2025-09-28 19:38:25.524,8.255239,-11.643475,-0.1363909,-0.6955459,0.34063348,4.17129,-39.506252,16.875,-23.6625,0.33262104,-0.64379513,0.6252494,995.602, , , , 
2025-09-28 19:38:25.544,9.212367,-11.507084,0.39720857,-0.6069705,0.20624322,4.253146,-36.600002,23.681252,-28.218752,0.29406,-0.6639615,0.6355941,995.5905, , , , 
2025-09-28 19:38:25.564,10.049855,-11.55494,0.5982057,-0.48663014,0.03581195,4.2604766,-35.550003,25.893751,-28.593752,0.271344,-0.6749765,0.64117247,995.5905, , , , 
2025-09-28 19:38:25.584,10.920842,-11.509477,0.51445687,-0.31558803,-0.16882776,4.189616,-36.300003,26.79375,-26.250002,0.24257272,-0.6879981,0.648,995.5861, , , , 
2025-09-28 19:38:25.604,11.428121,-10.985449,-0.10767702,-0.15676318,-0.17371467,4.132806,-30.6,28.7625,-27.900002,0.20904998,-0.7013213,0.6557032,995.5861, , , , 
2025-09-28 19:38:25.624,12.318251,-10.13839,-0.9499506,-0.19036074,0.1512654,4.0698867,-30.2625,30.4125,-27.562502,0.18195112,-0.7098643,0.66129565,995.58466, , , , 
2025-09-28 19:38:25.644,13.679767,-8.717052,-1.1820544,-0.5000692,0.6106357,3.7662868,-27.056252,34.8375,-25.987501,0.14561443,-0.7192384,0.66590315,995.58466, , , , 
2025-09-28 19:38:25.664,14.809179,-8.003992,0.4331009,-0.51961684,0.44692394,3.426646,-24.956251,35.0625,-26.212502,0.12440664,-0.72461903,0.66680616,995.58124, , , , 
2025-09-28 19:38:25.684,16.096518,-7.2693954,1.3232309,-0.0956767,0.037033677,2.9068,-20.15625,37.66875,-27.806252,0.100837626,-0.729837,0.6678521,995.58124, , , , 
2025-09-28 19:38:25.704,14.849857,-6.314659,-0.59581286,0.2775617,-0.47242755,2.1597123,-18.6375,38.925003,-24.7875,0.08195378,-0.7314476,0.6714733,995.582, , , , 
2025-09-28 19:38:25.724,14.079369,-6.3960147,-0.4354937,0.2635118,-0.60132,1.926362,-16.875,40.125,-27.825,0.07323337,-0.7313806,0.6742912,995.582, , , , 
2025-09-28 19:38:25.744,16.496119,-6.458228,-0.3900301,0.43944085,-0.7387646,1.7064508,-17.2875,39.05625,-24.618752,0.066718146,-0.7306576,0.67712516,995.5876, , , , 
2025-09-28 19:38:25.764,18.458235,-6.2883377,-1.4811572,0.45654505,-0.7577014,1.2104286,-15.168751,39.300003,-26.250002,0.06374775,-0.7287168,0.680442,995.5876, , , , 
2025-09-28 19:38:25.784,19.891535,-7.109076,-2.0793629,0.2323577,-0.52251846,0.48899725,-12.937501,41.5125,-27.393751,0.065104745,-0.72698945,0.6826044,995.6066, , , , 
2025-09-28 19:38:25.804,20.049461,-8.819944,-1.4093726,-0.12072215,-0.03810269,-0.5732966,-15.075001,39.91875,-24.91875,0.07139231,-0.72647756,0.68246126,995.6066, , , , 
2025-09-28 19:38:25.824,18.793228,-8.609376,-1.0887343,-0.22884522,0.17692171,-1.1139119,-13.312501,41.100002,-27.468752,0.077375606,-0.7266448,0.68126327,995.61395, , , , 
2025-09-28 19:38:25.844,16.706688,-8.037491,-0.6652047,-0.33757916,0.46708247,-1.732718,-16.237501,39.16875,-24.750002,0.087649606,-0.72693425,0.67867255,995.61395, , , , 
2025-09-28 19:38:25.864,12.957134,-8.429914,-0.14117654,-0.302149,0.6869938,-2.4358232,-16.518751,38.41875,-26.681252,0.10343829,-0.7263963,0.6743513,995.63153, , , , 
2025-09-28 19:38:25.884,10.743773,-9.497113,-0.1698904,-0.12744166,0.34124434,-2.6954408,-18.28125,39.206253,-25.143751,0.114922754,-0.7249066,0.6717628,995.63153, , , , 
2025-09-28 19:38:25.904,9.95175,-10.578669,0.09571291,0.17127122,-0.7961859,-2.8591526,-23.456251,37.443752,-26.5125,0.14654781,-0.7194239,0.66682273,995.6469, , , , 
2025-09-28 19:38:25.924,10.674382,-11.02852,0.47377887,0.28305948,-1.3368012,-2.9581127,-21.618752,35.53125,-27.525002,0.1673978,-0.7157567,0.6640641,995.6469, , , , 
2025-09-28 19:38:25.944,11.648261,-11.653047,0.79441714,0.32582,-1.5713733,-3.1432047,-26.681252,35.8875,-27.018751,0.19091687,-0.71147615,0.6607863,995.66986, , , , 
2025-09-28 19:38:25.964,12.277573,-12.1866455,1.0145568,0.23052509,-1.1517092,-3.4871216,-32.5125,31.893751,-23.85,0.2398416,-0.7006807,0.65244293,995.66986, , , , 
2025-09-28 19:38:25.984,12.397214,-11.968899,1.119841,0.16088651,-0.68256503,-3.7106981,-31.800001,32.475002,-24.431252,0.2630215,-0.6939604,0.6476234,995.6862, , , , 
2025-09-28 19:38:26.004,12.437892,-11.904293,0.51445687,0.10468695,-0.030772313,-4.1254754,-34.40625,29.831251,-23.7,0.2990016,-0.6799934,0.63918775,995.6862, , , , 
2025-09-28 19:38:26.024,12.040684,-11.99522,0.29910284,0.036270097,0.24167338,-4.4260206,-35.86875,28.425001,-22.5375,0.3261388,-0.66616297,0.63162357,995.6899, , , , 
2025-09-28 19:38:26.044,10.765309,-12.526426,0.011964113,-0.07857248,0.3919461,-4.8340783,-39.393753,21.975,-21.956251,0.35981566,-0.6459469,0.6197849,995.6899, , , , 
2025-09-28 19:38:26.064,9.085547,-13.040883,0.4546363,-0.09445497,0.4182133,-4.9195995,-40.3875,18.393751,-22.725,0.3798653,-0.63255936,0.6111549,995.6806, , , , 
2025-09-28 19:38:26.084,8.003992,-13.19881,1.0983056,0.0075594517,0.32536185,-4.826748,-41.775,14.400001,-23.737501,0.40578622,-0.6135831,0.5987925,995.6806, , , , 
2025-09-28 19:38:26.104,6.7238317,-12.526426,1.0671989,0.29405504,0.19891284,-4.548194,-43.96875,9.431251,-22.29375,0.43693542,-0.58824617,0.583434,995.6796, , , , 
2025-09-28 19:38:26.124,6.0514483,-12.059826,0.39720857,0.38079783,0.09506583,-4.37593,-42.393753,6.99375,-22.95,0.45493042,-0.5724166,0.57450193,995.6796, , , , 
2025-09-28 19:38:26.146,4.871787,-11.545369,-0.36370903,0.32276568,-0.050319985,-4.005746,-43.068752,2.8312502,-24.018751,0.4888891,-0.5418195,0.5558603,995.6774, , , , 
2025-09-28 19:38:26.164,3.5844483,-11.334801,-0.66999036,0.24885105,-0.05337431,-3.7161958,-43.800003,-2.11875,-22.125,0.50417787,-0.52760226,0.5461925,995.6774,37.88836304,127.73976025,143.302734375,1.38
2025-09-28 19:38:26.184,1.8305093,-10.798809,-1.1988041,0.14622575,-0.052763447,-3.363116,-44.60625,-4.05,-23.94375,0.5178819,-0.5143897,0.53670555,995.6652, , , , 
2025-09-28 19:38:26.204,0.021535404,-10.413564,-1.3064811,-0.093233235,-0.0881936,-2.4003932,-42.112503,-6.1687503,-23.60625,0.53887916,-0.49359283,0.5193621,995.6652, , , , 
2025-09-28 19:38:26.224,0.15074782,-9.798609,-1.2299109,-0.23861906,-0.046043932,-1.7461569,-45.881252,-9.431251,-21.487501,0.54563254,-0.48704377,0.51231843,995.66473, , , , 
2025-09-28 19:38:26.244,-0.10289137,-9.205189,-1.2562319,-0.3766745,0.17447825,-1.2861758,-41.831253,-11.3625,-23.962502,0.5507902,-0.48129967,0.5051643,995.66473, , , , 
2025-09-28 19:38:26.265,-2.254039,-9.08794,-1.0336994,-0.43592837,0.20685409,-0.7809906,-44.34375,-12.1125,-23.04375,0.55237657,-0.47748998,0.500331,995.6552, , , , 
2025-09-28 19:38:26.284,-2.9048867,-9.434899,-0.30149564,-0.34613127,-0.23663375,-0.008246674,-42.84375,-11.1,-21.712502,0.5517052,-0.47746888,0.4973782,995.6552, , , , 
2025-09-28 19:38:26.304,-1.4069797,-9.647861,0.3924229,0.0240528,-0.7418189,0.96974784,-42.99375,-11.981251,-23.8125,0.5498385,-0.48527572,0.49644026,995.65155, , , , 
2025-09-28 19:38:26.324,-0.2632105,-8.872586,-0.2943172,0.18409938,-0.623922,1.5738931,-42.600002,-11.4375,-22.800001,0.5469397,-0.49555483,0.49958152,995.65155, , , , 
2025-09-28 19:38:26.344,1.1318051,-8.733803,-0.99302137,0.20364705,-0.35514152,2.0546436,-44.53125,-10.03125,-21.75,0.5424141,-0.50437313,0.50470984,995.65814, , , , 
2025-09-28 19:38:26.364,3.3236306,-9.501899,-1.4117653,0.19265148,-0.0570395,2.5439463,-44.04375,-6.99375,-23.362501,0.5297769,-0.52043337,0.5173687,995.65814, , , , 
2025-09-28 19:38:26.384,4.369294,-10.4351,-1.8999012,0.22685991,-0.09063706,2.7858489,-46.03125,-7.33125,-22.21875,0.5164711,-0.53417856,0.5296858,995.6506, , , , 
2025-09-28 19:38:26.404,6.101698,-11.217552,-2.4478576,0.19204062,-0.37407833,3.129155,-45.05625,-2.60625,-23.19375,0.49825144,-0.5534162,0.54510546,995.6506, , , , 
2025-09-28 19:38:26.424,6.8051877,-11.289337,-2.7397819,0.108963005,-0.30260715,3.2116215,-44.943752,-0.375,-20.868752,0.48662895,-0.56590927,0.55372226,995.63495, , , , 
2025-09-28 19:38:26.444,6.7381887,-11.207981,-2.5794628,-0.23495387,0.13232858,3.3973246,-45.61875,2.68125,-22.81875,0.46383336,-0.5868431,0.5675569,995.63495, , , , 
2025-09-28 19:38:26.464,6.812366,-10.753345,-1.4213367,-0.43837184,0.37545276,3.5274386,-42.112503,4.78125,-23.306252,0.4408547,-0.6038224,0.5783987,995.6213, , , , 
2025-09-28 19:38:26.484,7.2358956,-10.19821,0.15792629,-0.43837184,0.46036297,3.6355617,-45.506252,8.400001,-21.300001,0.41489983,-0.62050647,0.5890849,995.6213, , , , 
2025-09-28 19:38:26.504,7.735996,-10.195817,0.8853444,-0.14088069,0.29237515,3.6819875,-43.125,13.51875,-23.23125,0.38182503,-0.63917065,0.60271615,995.6269, , , , 
2025-09-28 19:38:26.524,8.030313,-10.561919,0.2440679,0.1004109,0.06879865,3.7363544,-41.25,16.3125,-22.518751,0.36297068,-0.6489411,0.6110627,995.6269, , , , 
2025-09-28 19:38:26.544,8.154739,-10.987842,-1.39023,0.1645517,-0.11568252,3.9128942,-40.425003,21.862501,-22.29375,0.33273286,-0.66383135,0.6245531,995.63715, , , , 
2025-09-28 19:38:26.564,8.898908,-10.913664,-1.820938,-0.03581195,-0.25007278,4.1059275,-39.487503,22.10625,-23.643751,0.31413352,-0.67312896,0.6314427,995.63715, , , , 
2025-09-28 19:38:26.584,10.755738,-10.078569,-0.51206404,-0.2606102,-0.25862488,4.1688466,-37.21875,24.468752,-25.556252,0.28826118,-0.6864863,0.63826436,995.62714, , , , 
2025-09-28 19:38:26.604,12.80878,-9.387043,0.44745782,-0.06818778,0.14882194,3.909229,-35.86875,28.425001,-22.5375,0.24843873,-0.7038891,0.6462984,995.62714, , , , 
2025-09-28 19:38:26.624,13.03849,-9.004191,-0.9284152,0.021609342,0.3595703,3.7888887,-33.787502,30.018751,-23.306252,0.22820394,-0.7099058,0.6508669,995.6264, , , , 
2025-09-28 19:38:26.644,14.507684,-7.688139,-2.8833513,-0.25633413,0.749302,3.5231626,-29.456251,31.95,-22.331251,0.19386412,-0.7185725,0.6570434,995.6264, , , , 
2025-09-28 19:38:26.664,15.237494,-6.6257257,-1.7371893,-0.5312233,0.9405027,3.1548111,-26.868752,34.4625,-23.831251,0.17305267,-0.7240141,0.65860105,995.6225, , , , 
2025-09-28 19:38:26.684,15.74238,-6.0729837,0.4546363,-0.39805475,0.6314051,2.6862779,-25.10625,38.1375,-23.90625,0.14804846,-0.7305922,0.65902,995.6225, , , , 
2025-09-28 19:38:26.704,16.06541,-6.2141604,0.35413775,0.3398699,-0.1957058,1.9813399,-23.1,36.35625,-25.406252,0.1274458,-0.73407716,0.66133296,995.61957, , , , 
2025-09-28 19:38:26.724,16.541582,-6.4534426,-1.6845472,0.5634464,-0.29405504,1.6148211,-20.23125,38.90625,-26.325,0.12043482,-0.73351353,0.664364,995.61957, , , , 
2025-09-28 19:38:26.744,17.410177,-6.9391856,-3.5557344,0.35758498,0.056581352,1.1322379,-19.5375,38.193752,-23.8875,0.112568416,-0.7312571,0.66943365,995.63934, , , , 
2025-09-28 19:38:26.764,18.113667,-7.204789,-3.8907297,-9.926553E-4,0.39622217,0.67653275,-21.1875,38.550003,-25.725,0.107300706,-0.73073107,0.6711098,995.63934, , , , 
2025-09-28 19:38:26.784,18.654446,-8.389236,-2.3641088,-0.292986,0.54038626,0.06444623,-18.16875,38.86875,-27.150002,0.10389819,-0.7318899,0.66999656,995.62885, , , , 
2025-09-28 19:38:26.804,17.613567,-8.839087,-0.6867401,-0.15065452,0.2880991,-0.64476776,-18.75,39.787502,-24.825,0.105697595,-0.7328847,0.66751564,995.62885, , , , 
2025-09-28 19:38:26.824,16.381264,-7.958528,-0.7896315,-0.013209951,0.09689843,-1.1102468,-17.212502,38.7,-25.087502,0.110737674,-0.73222727,0.66654557,995.62665, , , , 
2025-09-28 19:38:26.844,15.074782,-7.389036,-0.5024927,0.063759014,-0.022220206,-1.5977168,-18.16875,38.362503,-25.10625,0.121676646,-0.73023707,0.6653094,995.62665, , , , 
2025-09-28 19:38:26.864,13.069597,-8.432307,-0.4019942,0.24457498,-0.34414595,-2.1780384,-20.737501,39.45,-23.6625,0.13737556,-0.72679675,0.6640198,995.6337, , , , 
2025-09-28 19:38:26.884,11.542976,-9.614362,-0.86141616,0.3917934,-0.8108466,-2.482249,-22.987501,36.881252,-26.23125,0.15831509,-0.7217624,0.66268706,995.6337, , , , 
2025-09-28 19:38:26.904,10.849058,-10.375279,-3.2159536,0.2201404,-0.5952114,-2.6697845,-26.23125,34.66875,-24.825,0.19497798,-0.71276337,0.6593283,995.6452, , , , 
2025-09-28 19:38:26.924,10.473385,-10.762917,-4.2185464,-0.22701262,-0.10713041,-2.7155993,-26.79375,34.8375,-23.85,0.21141711,-0.70908105,0.6557671,995.6452, , , , 
2025-09-28 19:38:26.944,10.04507,-10.624132,-1.5122639,-0.8733076,0.5635991,-2.7840161,-30.31875,32.4,-27.056252,0.23250046,-0.70593137,0.6455482,995.6457, , , , 
2025-09-28 19:38:26.964,10.346565,-10.284351,1.3782659,-0.81771886,0.5971967,-2.952615,-29.868752,31.81875,-26.1375,0.24318562,-0.70421606,0.6382463,995.6457, , , , 
2025-09-28 19:38:26.984,10.621739,-9.9756775,3.2590244,-0.3333031,0.20196716,-3.2879796,-31.931252,31.612501,-27.300001,0.25957108,-0.69937885,0.6292372,995.6435, , , , 
2025-09-28 19:38:27.004,9.334401,-10.126426,3.3834512,0.33498296,-0.33009607,-3.801717,-35.625,29.587502,-23.400002,0.28856894,-0.6876454,0.6195075,995.6435, , , , 
2025-09-28 19:38:27.024,7.975278,-10.399207,1.7802601,0.6312524,-0.3099375,-3.8951793,-35.1375,27.750002,-22.10625,0.3165633,-0.67391235,0.61290264,995.6711, , , , 
2025-09-28 19:38:27.044,7.5732837,-10.482956,-0.0741775,0.65202177,-0.05459604,-3.8542514,-37.78125,23.268751,-23.268751,0.33722267,-0.6620934,0.6084314,995.6711, , , , 
2025-09-28 19:38:27.064,7.3435726,-10.394422,-1.1988041,0.4400517,0.3161989,-3.8121016,-37.93125,21.243752,-21.45,0.3679174,-0.6414501,0.6004757,995.6857, , , , 
2025-09-28 19:38:27.084,6.7836523,-10.241281,-1.3351951,0.25251624,0.4493674,-3.7528477,-41.550003,17.025002,-22.368752,0.38917506,-0.62480175,0.5929756,995.6857, , , , 
2025-09-28 19:38:27.104,6.250053,-10.109675,-0.9020941,0.086361006,0.3815614,-3.6819875,-42.506252,12.31875,-22.462502,0.41339973,-0.6045865,0.5816349,995.67255, , , , 
2025-09-28 19:38:27.124,5.474778,-10.040284,-0.37806597,0.055817768,0.28137958,-3.5824165,-42.487503,10.21875,-22.81875,0.42726597,-0.5927849,0.57391375,995.67255, , , , 
2025-09-28 19:38:27.144,4.220939,-10.140782,-0.09092726,0.08025236,0.20074543,-3.3099709,-41.86875,5.175,-23.831251,0.4491576,-0.57362884,0.5605812,995.6701, , , , 
2025-09-28 19:38:27.164,3.6370904,-10.557134,-0.14117654,0.10468695,0.16470441,-3.0375252,-43.706253,4.74375,-24.075,0.46489778,-0.55911,0.55040026,995.6701,37.88835587,127.73974567,143.234375,1.39
2025-09-28 19:38:27.184,2.7972097,-10.750952,-0.22971097,0.14317143,0.090178914,-2.6911647,-43.912502,0.8625,-23.98125,0.4754705,-0.5490432,0.5433751,995.674, , , , 
2025-09-28 19:38:27.204,1.4045869,-9.848858,-0.4953143,0.18776456,-0.07231112,-2.1010695,-44.1375,-1.0125,-24.768751,0.49356005,-0.532298,0.5313481,995.674, , , , 
2025-09-28 19:38:27.224,1.052842,-9.8727865,-0.9068798,0.18165591,-0.154167,-1.6612468,-43.162502,-2.8875,-26.475,0.5009795,-0.5260489,0.5264519,995.66595, , , , 
2025-09-28 19:38:27.244,-0.016749758,-10.001999,-1.8137596,-0.016264275,-0.13217586,-0.82558376,-42.975002,-5.49375,-25.725,0.5097483,-0.51954794,0.5203488,995.66595, , , , 
2025-09-28 19:38:27.264,0.18185452,-9.784252,-1.5026926,-0.15248711,-0.08025236,-0.3265072,-43.631252,-4.425,-26.175001,0.5120573,-0.5188015,0.5177033,995.6628, , , , 
2025-09-28 19:38:27.284,0.3900301,-10.193424,-1.8855443,-0.28199047,0.057192214,0.26419902,-42.09375,-6.9,-24.806252,0.5109365,-0.5204456,0.5173852,995.6628, , , , 
2025-09-28 19:38:27.304,-0.16031912,-9.777073,-2.0434706,-0.58803374,0.09995275,1.0974185,-42.73125,-5.71875,-24.656252,0.5035802,-0.52754086,0.51963437,995.65204, , , , 
2025-09-28 19:38:27.324,0.7800602,-9.710074,-0.7298109,-0.7077632,0.09445497,1.6539164,-43.256252,-3.3937502,-26.737501,0.49258724,-0.53800434,0.5233047,995.65204, , , , 
2025-09-28 19:38:27.344,2.565106,-9.590433,0.9954142,-0.4909062,-0.0026725335,2.2751658,-44.362503,-2.15625,-24.993752,0.47429374,-0.5544995,0.53114426,995.64374, , , , 
2025-09-28 19:38:27.364,3.6251264,-9.875179,0.7896315,-0.18425208,-0.18043418,2.5628831,-44.268753,0.46875003,-24.843752,0.46264648,-0.56489223,0.5376841,995.64374, , , , 
2025-09-28 19:38:27.384,4.1874394,-10.370493,-0.22253251,0.056428634,-0.39423686,2.8298311,-43.237503,1.9312501,-24.581251,0.44763485,-0.5788781,0.5478434,995.6357, , , , 
2025-09-28 19:38:27.404,5.7188463,-11.315659,-1.4261223,0.19692753,-0.60132,3.2433865,-42.675003,5.5875,-22.837502,0.4287541,-0.59744436,0.56156445,995.6357, , , , 
2025-09-28 19:38:27.424,6.599405,-11.224731,-1.7778672,0.17188208,-0.5445096,3.4767368,-41.8875,9.4125,-24.225,0.41218302,-0.6129113,0.57280993,995.62714, , , , 
2025-09-28 19:38:27.444,7.058827,-10.437492,-1.2586247,0.13523018,-0.33864817,3.6312857,-42.018753,11.75625,-23.1,0.393311,-0.6281422,0.58412105,995.62714, , , , 
2025-09-28 19:38:27.464,7.240681,-9.65504,-0.8757731,0.13889538,-0.08025236,3.7418523,-40.03125,14.7375,-27.337502,0.37188408,-0.64220065,0.5957808,995.61615, , , , 
2025-09-28 19:38:27.484,7.678568,-9.02812,-0.74416786,0.16760603,0.08468113,3.7809474,-39.506252,14.75625,-23.38125,0.348256,-0.654729,0.607744,995.61615, , , , 
2025-09-28 19:38:27.504,8.226524,-8.968299,-1.6845472,0.14256057,0.27282748,3.7497935,-37.03125,23.34375,-23.831251,0.31714803,-0.66820115,0.62229425,995.6125, , , , 
2025-09-28 19:38:27.524,8.56152,-9.21476,-1.9334008,0.005726857,0.34124434,3.7204719,-35.25,26.906252,-25.593752,0.2976604,-0.67564833,0.6301363,995.6125, , , , 
2025-09-28 19:38:27.544,9.396614,-9.461221,-1.2418749,-0.1512654,0.2862665,3.647779,-35.30625,26.868752,-23.118752,0.2647158,-0.6878881,0.64072543,995.61224, , , , 
2025-09-28 19:38:27.564,9.82493,-9.425328,-0.78723866,-0.12255475,0.23922992,3.55676,-33.46875,29.831251,-26.8875,0.2453181,-0.6948104,0.6458337,995.61224, , , , 
2025-09-28 19:38:27.584,10.188639,-9.265009,-1.2059826,-0.10789399,0.21601705,3.4327545,-30.7875,31.593752,-26.493752,0.22034016,-0.7027944,0.6519754,995.60736, , , , 
2025-09-28 19:38:27.604,11.073983,-9.2075815,-1.2107682,-0.14393501,0.20929754,3.3105817,-29.118752,33.375,-25.687502,0.19023444,-0.71154475,0.6580512,995.60736, , , , 
2025-09-28 19:38:27.624,12.014362,-8.82473,-1.4069797,-0.13232858,0.20624322,3.1761913,-26.362501,33.91875,-26.625002,0.1672051,-0.7175372,0.6618443,995.61566, , , , 
2025-09-28 19:38:27.644,12.942778,-7.348358,-1.4500505,-0.21113014,0.4011091,2.8298311,-22.5375,35.550003,-25.10625,0.14011052,-0.72380877,0.6651394,995.61566, , , , 
2025-09-28 19:38:27.664,13.093526,-6.8985076,-1.5768701,-0.27527094,0.6888264,2.4791946,-20.85,36.46875,-26.8875,0.11936753,-0.72792083,0.6666219,995.6203, , , , 
2025-09-28 19:38:27.684,13.296915,-6.802795,-1.7347964,-0.31131196,0.8555925,2.2391248,-20.587502,37.85625,-25.593752,0.10423864,-0.7305618,0.6671767,995.6203, , , , 
2025-09-28 19:38:27.704,13.9166565,-6.5539412,-1.9597218,-0.41393724,0.88430315,1.7510439,-17.681252,39.15,-26.1375,0.08075857,-0.73448646,0.66693354,995.61664, , , , 
2025-09-28 19:38:27.724,14.677574,-7.2550383,-1.9166509,-0.4896845,0.6088031,1.3924663,-17.868752,39.6375,-27.075,0.06913642,-0.73689324,0.66583157,995.61664, , , , 
2025-09-28 19:38:27.744,15.337994,-8.599805,-0.7609176,-0.53733194,-0.06131555,0.7034108,-15.7875,39.84375,-25.9125,0.05807063,-0.7414176,0.66221195,995.622, , , , 
2025-09-28 19:38:27.764,15.314065,-9.410972,0.2847459,-0.4512,-0.3362047,0.30879214,-14.493751,40.59375,-25.1625,0.056958716,-0.74482715,0.6587545,995.622, , , , 
2025-09-28 19:38:27.784,15.24228,-9.844072,1.5529419,-0.23312128,-0.40401068,-0.04734202,-15.39375,40.5,-24.281252,0.060190685,-0.7470616,0.65606236,995.6274, , , , 
2025-09-28 19:38:27.804,15.448063,-8.04467,1.4715859,0.24274239,-0.31604618,-0.49571678,-13.9875,41.006252,-23.38125,0.067721106,-0.7464675,0.6557791,995.6274, , , , 
2025-09-28 19:38:27.824,15.44567,-7.1784678,0.3182454,0.3832413,-0.3417025,-1.0534363,-14.1,41.1375,-24.618752,0.074743174,-0.7443755,0.6569371,995.6496, , , , 
2025-09-28 19:38:27.844,14.065011,-8.456235,-0.52163535,0.37102398,-0.565279,-1.9532402,-17.00625,39.825,-24.075,0.09336443,-0.73978657,0.6582438,995.6496, , , , 
2025-09-28 19:38:27.864,12.51207,-10.346565,-0.63888365,0.31971136,-0.9256892,-2.4846926,-20.4375,40.10625,-25.44375,0.11496656,-0.7356856,0.65770316,995.65985, , , , 
2025-09-28 19:38:27.884,11.408978,-11.624332,-0.27038896,0.26106834,-1.1321615,-2.7357578,-20.306252,38.625,-25.218752,0.13450865,-0.7324802,0.65617603,995.65985, , , , 
2025-09-28 19:38:27.904,9.724431,-12.150753,1.1126626,0.2183078,-1.1352159,-2.8506005,-24.50625,37.331253,-26.081251,0.1767841,-0.72538304,0.6509937,995.66547, , , , 
2025-09-28 19:38:27.924,9.5353985,-11.703296,1.5888343,0.25251624,-0.96539545,-2.8408267,-25.425001,35.9625,-22.518751,0.19727594,-0.7210651,0.6481735,995.66547, , , , 
2025-09-28 19:38:27.944,9.762716,-10.590633,1.8041883,0.30199626,-0.53656834,-2.9465063,-28.987501,34.7625,-25.63125,0.22905478,-0.7121019,0.643913,995.6713, , , , 
2025-09-28 19:38:27.964,9.836894,-9.932607,1.7467605,0.3380373,-0.23174682,-3.163974,-34.93125,32.381252,-23.00625,0.25293744,-0.70303905,0.6407419,995.6713, , , , 
2025-09-28 19:38:27.984,9.789038,-9.669396,1.5218352,0.36674795,-0.10835214,-3.4003787,-31.687502,31.612501,-24.862501,0.27079144,-0.69498366,0.6382261,995.69135, , , , 
2025-09-28 19:38:28.004,8.642876,-9.934999,1.3471591,0.43027788,-0.10835214,-3.7852237,-34.237503,29.343752,-22.29375,0.30208007,-0.6792069,0.63294244,995.69135, , , , 
2025-09-28 19:38:28.024,8.212168,-10.327422,1.227518,0.4400517,-0.118125975,-3.8878489,-40.425003,26.456251,-19.78125,0.32824436,-0.66483134,0.6275584,995.7026, , , , 
2025-09-28 19:38:28.044,8.257631,-10.590633,1.6247265,0.4406626,-0.055817768,-3.9886415,-39.506252,20.587502,-22.48125,0.36058572,-0.6452554,0.6195142,995.7026, , , , 
2025-09-28 19:38:28.064,7.9298143,-10.738988,1.9166509,0.5139664,-0.06436988,-4.0821037,-39.112503,18.900002,-22.725,0.3797729,-0.63243043,0.61414,995.7111, , , , 
2025-09-28 19:38:28.084,7.274181,-10.980663,1.5672989,0.58849186,-0.124234624,-4.109593,-40.125,16.9125,-21.28125,0.40554473,-0.6139478,0.60645366,995.7111, , , , 
2025-09-28 19:38:28.104,6.3744793,-10.805987,1.0648061,0.65202177,-0.29344416,-3.972759,-43.3125,11.231251,-21.69375,0.43765968,-0.58993036,0.595677,995.71674, , , , 
2025-09-28 19:38:28.124,5.9318075,-10.351351,0.67477596,0.6141482,-0.2512945,-3.806604,-42.16875,8.868751,-22.612501,0.45612878,-0.5755783,0.5887557,995.71674, , , , 
2025-09-28 19:38:28.144,5.288138,-9.944571,0.23688944,0.53840095,-0.056428634,-3.5274386,-45.1875,4.3125,-19.10625,0.4838089,-0.55196583,0.5773012,995.7233, , , , 
2025-09-28 19:38:28.165,4.666004,-10.10489,-0.46899325,0.45226902,0.0956767,-3.3527312,-45.318752,1.3312501,-21.69375,0.5025894,-0.53350526,0.56871647,995.7233,37.88834839,127.73973114,143.0098876953125,1.39
2025-09-28 19:38:28.184,3.8620157,-10.267602,-0.9164511,0.27633995,0.3345248,-3.025308,-45.46875,-2.30625,-20.85,0.5143038,-0.52027535,0.56276834,995.7153, , , , 
2025-09-28 19:38:28.204,2.5722845,-10.269995,-0.8135597,0.075976305,0.43409577,-2.4095562,-43.6875,-6.7125,-22.95,0.5310863,-0.49727234,0.5525799,995.7153, , , , 
2025-09-28 19:38:28.224,1.7371893,-9.934999,-0.77766734,0.024663666,0.39438957,-2.0265439,-43.7625,-6.2250004,-21.73125,0.53681785,-0.48807043,0.5484402,995.70184, , , , 
2025-09-28 19:38:28.244,0.86141616,-9.877572,-0.72263247,-0.028481571,0.32841617,-1.3509275,-44.193752,-9.993751,-23.643751,0.5432354,-0.4765997,0.54322076,995.70184, , , , 
2025-09-28 19:38:28.264,-0.2943172,-10.449456,-1.052842,-0.014431681,0.2135736,-0.67103493,-44.5125,-10.762501,-23.1,0.54546654,-0.47124395,0.5412657,995.69794, , , , 
2025-09-28 19:38:28.284,-1.3160524,-9.722038,-1.3543376,-0.06146827,-0.01244637,0.09010255,-43.65,-11.55,-23.1375,0.5454969,-0.4704078,0.541206,995.69794, , , , 
2025-09-28 19:38:28.304,-0.6556334,-7.8867435,-0.42592242,-0.15004367,-0.09613484,1.1554507,-43.8375,-10.950001,-22.3875,0.54164857,-0.47634423,0.5437222,995.69086, , , , 
2025-09-28 19:38:28.324,0.44027936,-7.223932,0.023928227,-0.11827869,0.06940951,1.7162246,-44.362503,-10.875,-24.337502,0.5340588,-0.48541352,0.5493054,995.69086, , , , 
2025-09-28 19:38:28.344,1.8687944,-7.8604226,-0.22492532,0.056428634,0.17386739,2.1762059,-43.78125,-7.9500003,-24.112501,0.5231,-0.49586445,0.55824,995.685, , , , 
2025-09-28 19:38:28.364,2.9072795,-9.722038,-1.052842,0.20731224,-0.14744748,2.4981315,-44.5125,-7.1625004,-23.456251,0.51107407,-0.5073993,0.56892926,995.685, , , , 
2025-09-28 19:38:28.384,3.9433718,-10.549955,-1.1653047,0.40339983,-0.76747525,2.9129088,-44.643753,-4.0687504,-22.06875,0.5000809,-0.5216362,0.5792174,995.67694, , , , 
2025-09-28 19:38:28.404,5.9557357,-11.08834,-1.7228323,0.6123156,-1.1804198,3.299586,-44.7,0.01875,-21.525002,0.4882806,-0.5424288,0.5908527,995.67694, , , , 
2025-09-28 19:38:28.424,6.2811594,-10.765309,-2.184647,0.56955504,-1.0228167,3.426646,-43.3875,-0.09375,-22.275002,0.48070887,-0.55513513,0.59771967,995.65765, , , , 
2025-09-28 19:38:28.444,6.151947,-10.313066,-2.3306093,0.39973465,-0.74792755,3.5610363,-41.550003,3.8437502,-23.475,0.46786857,-0.5718357,0.60698014,995.65765, , , , 
2025-09-28 19:38:28.464,7.015756,-9.949356,-1.4931214,0.18776456,-0.48464483,3.692372,-45.54375,9.1125,-18.712502,0.44688934,-0.59279215,0.6181042,995.6379, , , , 
2025-09-28 19:38:28.484,7.288538,-10.059426,-1.1389836,0.18532111,-0.4993056,3.7003133,-45.975002,11.4375,-17.8875,0.43289983,-0.6050025,0.62422085,995.6379, , , , 
2025-09-28 19:38:28.504,8.111669,-10.336994,-1.0576276,0.3117701,-0.6000983,3.7375762,-42.037502,17.925001,-17.118752,0.40456334,-0.62762904,0.6351728,995.6225, , , , 
2025-09-28 19:38:28.524,8.6141615,-10.537991,-1.3830515,0.3655262,-0.5579486,3.7082546,-41.268753,18.4125,-21.862501,0.3903902,-0.6377121,0.64020705,995.6225, , , , 
2025-09-28 19:38:28.544,9.006584,-10.648061,-2.0961127,0.36858055,-0.42722356,3.7168067,-40.612503,22.575,-20.475,0.36586398,-0.65277606,0.6480603,995.6076, , , , 
2025-09-28 19:38:28.565,9.506684,-10.375279,-2.6368906,0.2861138,-0.37957612,3.7204719,-40.350002,22.35,-20.475,0.35047325,-0.66123384,0.6521112,995.6076, , , , 
2025-09-28 19:38:28.584,10.286744,-9.7196455,-2.57707,0.09308052,-0.29772022,3.6367834,-38.550003,25.518751,-19.931252,0.32945684,-0.67234194,0.6560328,995.5861, , , , 
2025-09-28 19:38:28.604,11.227124,-9.123833,-1.2251252,0.008781182,-0.2543488,3.3686137,-38.287502,29.1375,-18.150002,0.3033941,-0.68566203,0.65843636,995.5861, , , , 
2025-09-28 19:38:28.624,11.710474,-9.090333,-0.8039884,0.20547964,-0.3588067,3.196961,-35.850002,30.393751,-18.018751,0.28406644,-0.6942429,0.6598846,995.5678, , , , 
2025-09-28 19:38:28.644,12.942778,-8.276773,-1.1581261,0.49502954,-0.6300307,2.9196281,-33.768753,31.85625,-19.556252,0.26353207,-0.70112103,0.6623786,995.5678, , , , 
2025-09-28 19:38:28.664,13.897514,-7.793423,-1.4955142,0.61842424,-0.68378675,2.617861,-31.181252,34.48125,-19.96875,-0.25351074,0.7033729,-0.6640763,995.5644, , , , 
2025-09-28 19:38:28.684,14.287544,-7.2670026,-1.7036897,0.71677345,-0.7589231,2.3185372,-30.300001,33.7125,-20.325,-0.2426342,0.7045302,-0.66655755,995.5644, , , , 
2025-09-28 19:38:28.704,15.464812,-6.3960147,-2.428715,0.9000329,-1.044197,1.8823798,-28.0125,34.29375,-18.28125,-0.23375961,0.7031113,-0.6699936,995.56, , , , 
2025-09-28 19:38:28.724,16.541582,-6.7573314,-3.4456646,0.84994197,-1.2054653,1.4107922,-28.500002,37.612503,-19.35,-0.23177703,0.7008708,-0.6719634,995.56, , , , 
2025-09-28 19:38:28.744,16.917255,-7.5732837,-3.7806597,0.5115229,-1.3337469,0.69241524,-27.206251,37.3875,-20.550001,-0.2347608,0.6965392,-0.6735321,995.5461, , , , 
2025-09-28 19:38:28.764,17.417356,-8.874979,-2.3856442,0.18654284,-1.4241549,0.10354158,-27.150002,36.393753,-18.956251,-0.24245346,0.69360083,-0.67253757,995.5461, , , , 
2025-09-28 19:38:28.784,16.981863,-9.315259,-1.0169497,0.09063706,-1.364901,-0.29290965,-26.437502,37.818752,-18.1875,-0.25113732,0.6913905,-0.6709117,995.5634, , , , 
2025-09-28 19:38:28.804,15.53899,-7.594819,0.33738798,-0.033368487,-0.7858012,-0.94164807,-26.025002,38.362503,-18.88125,-0.27121127,0.6858151,-0.6684546,995.5634, , , , 
2025-09-28 19:38:28.824,14.163117,-7.4416785,1.0719845,-0.11217005,-0.3606393,-1.4083488,-29.156252,36.787502,-16.9125,-0.28119805,0.68270326,-0.668114,995.5954, , , , 
2025-09-28 19:38:28.844,11.837294,-8.506484,1.2729816,-0.07063124,-0.24885105,-1.9471315,-30.862501,35.49375,-17.75625,-0.2985328,0.67631114,-0.66885114,995.5954, , , , 
2025-09-28 19:38:28.864,10.356136,-9.4229355,1.1916257,0.020998476,-0.68439764,-2.1670427,-31.66875,35.268753,-15.637501,-0.3154037,0.66931593,-0.6694641,995.6237, , , , 
2025-09-28 19:38:28.884,9.183653,-10.102497,0.7704889,0.006948587,-1.1853068,-2.2330163,-33.3375,34.237503,-16.181252,-0.33079082,0.6630268,-0.6689705,995.6237, , , , 
2025-09-28 19:38:28.904,8.970692,-10.442278,1.8687944,-0.27649269,-1.8523711,-2.17926,-34.331253,32.1375,-16.725,-0.36020643,0.652727,-0.6645523,995.6464, , , , 
2025-09-28 19:38:28.924,10.207782,-10.080962,4.8287163,-0.3351357,-2.3147957,-2.261116,-36.1875,31.181252,-14.00625,-0.38729954,0.64495885,-0.65708196,995.6464, , , , 
2025-09-28 19:38:28.944,11.406586,-9.389436,7.8317084,-0.06391173,-2.5328743,-2.6471825,-38.71875,31.800001,-13.1625,-0.41766638,0.6344965,-0.64874274,995.695, , , , 
2025-09-28 19:38:28.964,11.054841,-9.626326,9.131011,0.55061823,-2.3483932,-3.1676393,-40.55625,27.862501,-11.19375,-0.45016882,0.6185654,-0.64255035,995.695, , , , 
2025-09-28 19:38:28.984,9.920643,-10.119247,7.391429,0.976391,-1.9458334,-3.4999497,-40.29375,27.13125,-9.95625,-0.48236066,0.59670496,-0.64014345,995.7382, , , , 
2025-09-28 19:38:29.004,8.633304,-10.796415,5.1589255,1.138881,-1.3282491,-3.7467391,-41.325,22.1625,-8.475,-0.5196772,0.564403,-0.6407271,995.7382, , , , 
2025-09-28 19:38:29.024,8.389236,-11.631511,4.0007997,1.1315507,-0.9660063,-3.801106,-42.975002,19.10625,-7.05,-0.539638,0.5438167,-0.6423413,995.75116, , , , 
2025-09-28 19:38:29.044,8.221739,-12.466606,2.8354948,1.0362557,-0.7283799,-3.8249297,-45.9,15.58125,-6.39375,-0.56350154,0.51603585,-0.6450583,995.75116, , , , 
2025-09-28 19:38:29.064,8.647661,-12.294323,2.7565317,0.86460274,-0.5762746,-3.8395905,-49.10625,9.4875,-2.15625,0.59059286,-0.4817052,0.64735764,995.7409, , , , 
2025-09-28 19:38:29.084,9.18126,-11.696117,3.2183464,0.8933134,-0.4314996,-3.955044,-49.818752,5.925,-1.8750001,0.61524755,-0.44686702,0.64878196,995.7409, , , , 
2025-09-28 19:38:29.104,9.128618,-11.540584,2.9072795,1.0283145,-0.31604618,-4.1285295,-50.4,1.63125,-1.8750001,0.63367397,-0.41687474,0.65002126,995.7316, , , , 
2025-09-28 19:38:29.124,8.477771,-12.007184,1.7491534,1.0906227,-0.20547964,-4.2268786,-51.3375,-1.575,-2.0625,0.6467714,-0.39288738,0.6509988,995.7316, , , , 
2025-09-28 19:38:29.144,7.3579297,-12.449856,0.41874397,0.96478456,-0.19631667,-4.1969466,-49.500004,-1.0125,-0.28125,0.6630496,-0.36040357,0.6515594,995.70575, , , , 
2025-09-28 19:38:29.164,5.237889,-11.861222,0.55034924,0.7057779,-0.21403174,-3.9605417,-49.068752,-9.918751,-1.81875,0.6814304,-0.322031,0.64964,995.70575,37.88833903,127.73971525,142.6385498046875,1.46
2025-09-28 19:38:29.184,4.1611185,-11.69851,0.72502524,0.6654608,-0.15844305,-3.702757,-48.0,-14.6625,-1.2,0.69104934,-0.30054003,0.6476474,995.6857, , , , 
2025-09-28 19:38:29.204,1.8711873,-11.236695,0.16271193,0.65813047,-0.06436988,-3.0399685,-47.568752,-18.243752,0.1875,0.7061166,-0.261784,0.64397275,995.6857, , , , 
2025-09-28 19:38:29.224,0.77766734,-10.447063,-0.13878371,0.63369584,-0.066813335,-2.5769331,-44.925003,-19.087502,-1.4250001,0.7118313,-0.24537092,0.6423456,995.6728, , , , 
2025-09-28 19:38:29.244,-0.57427746,-9.846465,-0.9954142,0.50541425,0.0712421,-1.7284418,-46.050003,-23.7,1.2750001,0.718733,-0.22376442,0.64034927,995.6728, , , , 
2025-09-28 19:38:29.264,-0.9068798,-10.492527,-1.672583,0.35269806,0.17508912,-1.0070106,-43.237503,-23.75625,-1.03125,0.72131455,-0.21263856,0.64026195,995.65326, , , , 
2025-09-28 19:38:29.284,-1.7419748,-10.794023,-2.105684,0.19326234,0.1164461,-0.31551164,-43.03125,-24.975,-1.7437501,0.7218815,-0.20832773,0.6408603,995.65326, , , , 
2025-09-28 19:38:29.304,-2.3545375,-9.236296,-1.0839486,-0.03642281,-0.055817768,0.8854485,-43.0125,-24.618752,1.1625,0.72129416,-0.21046384,0.6418147,995.63617, , , , 
2025-09-28 19:38:29.324,-1.0480564,-7.8221374,0.47856453,-0.0028252497,-0.021609342,1.6447535,-43.725002,-25.425001,-0.41250002,0.7188603,-0.22042194,0.643251,995.63617, , , , 
2025-09-28 19:38:29.344,1.5122639,-6.8602223,1.3591232,0.42416924,0.17936517,2.3295329,-46.537502,-21.13125,0.41250002,0.7139269,-0.23416123,0.64689136,995.63275, , , , 
2025-09-28 19:38:29.365,2.6368906,-7.4177504,0.33499518,0.7418189,0.19708025,2.5164576,-47.7,-21.112501,0.375,0.70718217,-0.24806091,0.65267783,995.63275, , , , 
2025-09-28 19:38:29.384,3.141776,-8.630911,-1.7371893,0.9586759,-0.0692568,2.740645,-46.706253,-19.78125,0.3375,0.7004355,-0.261346,0.658316,995.6174, , , , 
2025-09-28 19:38:29.404,3.9553359,-9.645468,-3.0819557,0.9409608,-0.4870883,3.0124795,-48.3375,-16.21875,1.3875,0.696364,-0.27219018,0.6606041,995.6174, , , , 
2025-09-28 19:38:29.424,5.8265233,-10.817951,-3.6107693,0.7583123,-0.7900772,3.376555,-48.9,-13.05,3.2812502,0.6910734,-0.29368275,0.65969944,995.5915, , , , 
2025-09-28 19:38:29.444,6.5659056,-10.920842,-3.4169507,0.4314996,-0.5481748,3.6508334,-48.24375,-7.6312504,2.7562501,-0.6838188,0.31916004,-0.6561141,995.5915, , , , 
2025-09-28 19:38:29.465,7.0348988,-11.038091,-2.792424,0.14256057,-0.24274239,3.815156,-49.725002,-3.9562502,5.0062504,-0.67454416,0.34238026,-0.65310556,995.5688, , , , 
2025-09-28 19:38:29.484,7.173682,-11.339586,-2.0554347,-0.008933897,-0.047876526,3.9269443,-51.487503,-2.4,5.8875003,-0.6653962,0.36120546,-0.65097815,995.5688, , , , 
2025-09-28 19:38:29.504,8.161918,-11.566905,-0.9451649,-0.057192214,0.021762058,4.126697,-51.7125,5.2875004,7.6312504,-0.6424918,0.40084824,-0.64636797,995.56366, , , , 
2025-09-28 19:38:29.524,9.016156,-11.459228,-0.76331043,0.0570395,-0.046654798,4.118756,-49.612503,7.6312504,5.8875003,-0.6299275,0.4202004,-0.64329165,995.56366, , , , 
2025-09-28 19:38:29.544,9.7196455,-11.229517,-1.5864414,0.26106834,-0.14072797,3.9831438,-50.5125,13.031251,2.8875,-0.6086889,0.44927636,-0.63731706,995.56586, , , , 
2025-09-28 19:38:29.565,9.645468,-11.054841,-2.5316064,0.29038984,-0.19509494,3.8579166,-48.600002,13.856251,3.1125002,-0.59604615,0.4649012,-0.63318926,995.56586, , , , 
2025-09-28 19:38:29.584,9.628718,-10.7844515,-3.211168,0.21281002,-0.43638653,3.7497935,-46.706253,17.400002,3.3187501,-0.57988304,0.4843523,-0.6263257,995.5517, , , , 
2025-09-28 19:38:29.604,10.296316,-9.595219,-3.0867412,0.016722424,-0.58360493,3.6538877,-45.45,22.25625,3.8437502,-0.56180817,0.50723803,-0.6142029,995.5517, , , , 
2025-09-28 19:38:29.624,11.026127,-8.927621,-2.548356,-0.117056966,-0.47426015,3.503615,-43.55625,23.56875,3.1125002,-0.5478461,0.5249866,-0.6031368,995.5444, , , , 
2025-09-28 19:38:29.644,12.390036,-8.370093,-1.1030912,-0.052305296,-0.44127345,3.2049022,-40.0125,26.6625,3.4875002,-0.53074646,0.5453726,-0.5896009,995.5444, , , , 
2025-09-28 19:38:29.664,14.036298,-8.190632,-0.71306115,0.17615813,-0.45226902,2.9605563,-37.0125,29.85,2.2125,-0.52090514,0.55539215,-0.58241445,995.55316, , , , 
2025-09-28 19:38:29.684,15.799808,-7.6139617,-1.0193424,0.41317368,-0.4418843,2.5928156,-40.4625,30.45,6.39375,-0.5086,0.5653068,-0.57477987,995.55316, , , , 
2025-09-28 19:38:29.704,17.144575,-6.6568327,-2.0051854,0.56955504,-0.35941756,1.628871,-35.11875,33.506252,4.275,-0.49640924,0.5718209,-0.5691417,995.5595, , , , 
2025-09-28 19:38:29.724,16.867006,-6.6975107,-2.5316064,0.53290313,-0.416228,1.0571015,-36.2625,35.025,2.9250002,-0.49195236,0.57274544,-0.5677138,995.5595, , , , 
2025-09-28 19:38:29.744,15.921842,-6.7740808,-2.5459633,0.42844528,-0.50541425,0.45478883,-35.49375,33.956253,5.53125,-0.49024868,0.5710477,-0.56693554,995.5588, , , , 
2025-09-28 19:38:29.764,14.55554,-8.415557,-2.024328,0.25862488,-0.5616138,-0.24281874,-33.9,34.5,4.40625,-0.49383703,0.56558716,-0.5671555,995.5588, , , , 
2025-09-28 19:38:29.784,13.897514,-9.049655,-1.2514462,0.24457498,-0.71555173,-0.4816669,-32.86875,35.11875,2.5500002,-0.49980932,0.55929726,-0.5678368,995.5639, , , , 
2025-09-28 19:38:29.804,14.031512,-8.762517,-0.8207382,0.26290092,-0.8737657,-0.66003937,-33.881252,33.881252,4.89375,-0.50571114,0.5532854,-0.5682615,995.5639, , , , 
2025-09-28 19:38:29.824,14.108083,-7.795816,-0.19381863,0.20853396,-0.84810936,-1.2153155,-34.21875,35.2125,5.625,-0.5183923,0.54062605,-0.5696388,995.5944, , , , 
2025-09-28 19:38:29.844,12.397214,-8.611769,0.6891329,0.18898629,-0.94035,-1.8707734,-38.68125,33.375,5.4375,-0.5344293,0.52464277,-0.5732907,995.5944, , , , 
2025-09-28 19:38:29.864,11.382657,-9.497113,1.2442678,0.32154396,-1.5396084,-2.1731515,-38.662502,32.1375,6.58125,-0.54618025,0.5126184,-0.57558745,995.6225, , , , 
2025-09-28 19:38:29.884,10.758131,-10.707881,1.8257236,0.5445096,-2.4504077,-2.4425428,-40.3125,30.056252,10.275001,-0.5714663,0.4859988,-0.5759664,995.6225, , , , 
2025-09-28 19:38:29.904,10.803595,-11.459228,1.3399807,0.53901184,-2.4950008,-2.64535,-35.081253,29.625002,7.425,-0.59540236,0.4595648,-0.57323134,995.6462, , , , 
2025-09-28 19:38:29.924,10.348958,-11.454442,1.119841,0.348422,-1.9775983,-2.7314818,-39.375,29.437502,8.043751,-0.6185167,0.43273252,-0.5708445,995.6462, , , , 
2025-09-28 19:38:29.944,9.95175,-10.782059,1.8257236,0.12301289,-1.2457824,-2.8163922,-42.2625,26.362501,12.075001,-0.63339716,0.41450095,-0.5709838,995.65765, , , , 
2025-09-28 19:38:29.964,9.628718,-10.004392,3.089134,0.18226677,-0.46570805,-3.0356925,-39.61875,21.91875,10.35,-0.6564887,0.38110095,-0.5778816,995.65765, , , , 
2025-09-28 19:38:29.984,9.82493,-10.057034,2.656033,0.2861138,-0.21036656,-3.1951282,-41.2125,22.743752,11.400001,-0.6654789,0.3639225,-0.5842046,995.66547, , , , 
2025-09-28 19:38:30.004,10.633704,-10.693524,1.835295,0.4406626,0.067576915,-3.6129596,-44.7,19.5,14.118751,-0.67829674,0.33310083,-0.597513,995.66547, , , , 
2025-09-28 19:38:30.024,10.925629,-11.227124,1.1389836,0.44616038,0.14698933,-3.8719664,-43.050003,15.95625,12.750001,-0.6853025,0.31281608,-0.6064933,995.6701, , , , 
2025-09-28 19:38:30.044,10.820344,-12.047862,0.9667004,0.393626,0.15737404,-4.23482,-46.0875,13.500001,16.143751,-0.69437784,0.28389513,-0.6186722,995.6701, , , , 
2025-09-28 19:38:30.064,9.186047,-12.803994,0.96909314,0.33681557,0.0956767,-4.471225,-47.68125,8.38125,13.968751,-0.70552856,0.24497208,-0.632858,995.6667, , , , 
2025-09-28 19:38:30.084,8.047063,-12.861422,1.3806586,0.35819584,0.13171771,-4.448012,-45.393753,6.0,14.962501,-0.7134592,0.21311752,-0.6427921,995.6667, , , , 
2025-09-28 19:38:30.104,7.1617184,-12.634104,1.2586247,0.47120583,0.2636645,-4.288576,-46.875,-2.7562501,15.6,-0.72050244,0.17365968,-0.654255,995.6591, , , , 
2025-09-28 19:38:30.124,6.6711893,-12.452249,0.85184485,0.55489427,0.383394,-4.1749554,-47.30625,-4.3875003,12.356251,-0.72301644,0.15031925,-0.6608646,995.6591, , , , 
2025-09-28 19:38:30.144,5.3503513,-12.150753,0.021535404,0.5976548,0.48846275,-4.0210176,-47.49375,-7.9125004,16.275002,-0.7244538,0.119685,-0.6694702,995.65594, , , , 
2025-09-28 19:38:30.164,3.2542388,-11.765509,-0.634098,0.55917037,0.48357582,-3.7626216,-45.45,-11.90625,12.1125,-0.7243675,0.090346895,-0.6772172,995.65594,37.88832457,127.73970488,142.87213134765625,1.71
2025-09-28 19:38:30.184,0.78723866,-11.188839,-0.9882358,0.4956404,0.33085963,-3.2403321,-45.2625,-15.88125,14.493751,-0.72356874,0.06366435,-0.68333447,995.64496, , , , 
2025-09-28 19:38:30.204,-0.5766702,-9.961321,-0.6364908,0.46387544,0.106672265,-2.2214098,-45.9375,-20.56875,15.6,-0.7229011,0.03227525,-0.6881509,995.64496, , , , 
2025-09-28 19:38:30.224,-0.85902333,-9.205189,-0.81595254,0.45532334,0.14698933,-1.6954552,-44.287502,-22.85625,11.55,-0.7226013,0.020805795,-0.68935156,995.6386, , , , 
2025-09-28 19:38:30.244,-1.2370893,-8.463413,-1.5601203,0.3276526,0.30825764,-0.88789195,-43.331253,-22.40625,13.425,-0.7207924,0.007937734,-0.69186366,995.6386, , , , 
2025-09-28 19:38:30.264,-0.89730847,-9.434899,-1.969293,0.20609051,0.19646938,-0.35216355,-43.537502,-22.78125,12.225,-0.7191402,0.0032934938,-0.69367236,995.64105, , , , 
2025-09-28 19:38:30.284,-1.4356936,-10.430314,-2.6321049,0.105908684,-0.042378742,0.18845178,-43.21875,-23.25,13.14375,-0.71879053,0.002836359,-0.69395703,995.64105, , , , 
2025-09-28 19:38:30.304,-1.605584,-9.533006,-2.3018954,-0.1702022,-0.27817255,1.1890483,-43.518753,-21.056252,14.2875,-0.7206133,0.009563957,-0.69155115,995.633, , , , 
2025-09-28 19:38:30.324,-0.28953153,-9.004191,-1.2011969,-0.25816673,-0.2164752,1.7198898,-45.43125,-21.862501,13.462501,-0.722173,0.018692939,-0.6892118,995.633, , , , 
2025-09-28 19:38:30.344,2.605784,-8.939586,-0.35653058,-0.14637847,-0.016111558,2.355189,-44.34375,-18.018751,12.825001,-0.7228547,0.03977767,-0.68608,995.6342, , , , 
2025-09-28 19:38:30.364,4.2257247,-9.659825,-1.1174482,0.042378742,-0.07475458,2.5812092,-46.800003,-16.9125,14.700001,-0.72180414,0.058819685,-0.68380505,995.6342, , , , 
2025-09-28 19:38:30.384,5.2546387,-10.482956,-2.1248264,0.10957387,-0.30443972,2.7143776,-45.600002,-17.643751,13.2375,-0.7210189,0.0780372,-0.679878,995.62006, , , , 
2025-09-28 19:38:30.404,6.5371914,-10.79163,-3.141776,-0.044364054,-0.5121338,2.8273876,-47.943752,-10.950001,15.562501,-0.7216354,0.102986164,-0.6712713,995.62006, , , , 
2025-09-28 19:38:30.424,6.649654,-10.913664,-3.182454,-0.32719445,-0.34414595,2.8457136,-45.61875,-11.08125,14.718751,-0.7219559,0.119035825,-0.66521484,995.59174, , , , 
