Time,Accel_X,Accel_Y,Accel_Z,Gyro_X,Gyro_Y,Gyro_Z,Mag_X,Mag_Y,Mag_Z,Orient_X,Orient_Y,Orient_Z,Pressure,Lat,Lng,Alt,Speed
2026-03-20 17:34:33.703,2.5603201,5.575277,5.895915,0.12156209,0.31505352,0.0074830935,-40.125,-17.4375,-42.43125,0.2948871,0.12890287,0.6356692,1000.9077,37.88753046,127.73735925,168.78802490234375,0.39
2026-03-20 17:34:33.724,0.8135597,6.101698,7.618747,-0.07269291,0.6620247,-0.03405571,-40.93125,-17.56875,-41.11875,0.2878164,0.13743195,0.63779217,1000.9077, , , , 
2026-03-20 17:34:33.743,0.47856453,5.977271,7.3746796,-0.20219624,0.3846921,0.20540328,-41.100002,-17.268751,-40.85625,0.28358996,0.14028142,0.6400112,1000.9077, , , , 
2026-03-20 17:34:33.763,1.3208381,5.7667027,6.541977,-0.44409868,0.16844596,0.33001968,-41.23125,-17.25,-40.85625,0.2801234,0.1393135,0.643173,1000.90967, , , , 
2026-03-20 17:34:33.783,1.8424734,5.651847,6.0011992,-0.6847794,0.32971427,0.29458955,-41.2125,-17.4375,-41.081253,0.27522564,0.13623886,0.6467698,1000.90967, , , , 
2026-03-20 17:34:33.803,2.053042,5.7523456,6.9726853,-0.85826504,0.8489493,0.2848157,-40.95,-17.362501,-41.268753,0.26638317,0.13459386,0.6514129,1000.90967, , , , 
2026-03-20 17:34:33.823,2.2492533,5.8624153,8.595019,-0.89247346,1.0248784,0.32146758,-40.6875,-16.96875,-41.5125,0.25440365,0.13477434,0.65714693,1000.90967, , , , 
2026-03-20 17:34:33.843,2.321038,5.5274205,9.241081,-0.8497129,1.0554216,0.39843655,-40.40625,-16.29375,-41.925003,0.24204768,0.13521704,0.6634116,1000.9103, , , , 
2026-03-20 17:34:33.863,1.5218352,5.221139,9.2075815,-0.8179479,1.2447897,0.49739665,-39.91875,-15.225,-42.487503,0.22930907,0.13650507,0.67038155,1000.9103, , , , 
2026-03-20 17:34:33.883,1.1533405,4.895715,9.52822,-0.8118393,1.3058761,0.52793986,-39.393753,-14.2875,-43.29375,0.21553804,0.13901809,0.67802554,1000.9103, , , , 
2026-03-20 17:34:33.903,1.9286151,4.182654,9.834501,-0.8362739,1.2264638,0.4338667,-39.018753,-13.500001,-44.268753,0.20197701,0.1408157,0.6852013,1000.9103, , , , 
2026-03-20 17:34:33.923,1.402194,3.9960139,10.27478,-0.695775,1.3217586,0.23228133,-38.756252,-12.6,-45.525,0.1882386,0.14351945,0.691156,1000.90625, , , , 
2026-03-20 17:34:33.943,0.4354937,5.0536413,10.140782,-0.5882628,0.8965968,0.052687086,-38.79375,-11.962501,-47.0625,0.17628737,0.14666875,0.6950155,1000.90625, , , , 
2026-03-20 17:34:33.963,-0.16749759,4.2352962,8.685946,-0.71410096,-0.05146536,-0.19165882,-39.2625,-11.6625,-48.581253,0.16893475,0.14535499,0.6962579,1000.90625, , , , 
2026-03-20 17:34:33.983,-0.023928227,2.9479575,7.704889,-0.9596686,-0.47784898,-0.36270097,-39.9375,-11.8125,-50.04375,0.16471611,0.13806346,0.6950204,1000.90625, , , , 
2026-03-20 17:34:34.003,-1.2729816,3.6131623,8.690732,-1.0671808,-0.3752237,-0.42867437,-40.3125,-12.468751,-51.487503,0.16048686,0.12819175,0.69271034,1000.90796, , , , 
2026-03-20 17:34:34.023,-0.7609176,3.8285162,9.537791,-1.1783582,-0.28848088,-0.34681848,-39.693752,-13.1625,-52.48125,0.15388216,0.119383454,0.6909988,1000.90796, , , , 
2026-03-20 17:34:34.043,-0.82313097,2.115255,8.336594,-1.4617994,-1.092379,-0.1574504,-38.11875,-13.181251,-52.893753,0.14907624,0.1059959,0.6895609,1000.90796, , , , 
2026-03-20 17:34:34.063,-0.4833502,2.3114667,9.169296,-1.6132939,-0.90667605,0.17119485,-36.16875,-12.4125,-52.631252,0.14561354,0.08731527,0.68944025,1000.90796, , , , 
2026-03-20 17:34:34.083,1.564906,4.867001,11.485549,-1.2198969,-0.17730351,0.17363831,-34.537502,-10.837501,-51.54375,0.1387947,0.073640406,0.69153804,1000.91455, , , , 
2026-03-20 17:34:34.103,-0.6412765,3.3020952,11.12184,-0.5503892,-0.66233015,0.083230324,-33.825,-8.6625,-49.85625,0.13582082,0.06470263,0.69204605,1000.91455, , , , 
2026-03-20 17:34:34.123,1.3112668,2.0147567,10.949556,0.20341797,-0.7368556,0.39721483,-33.9,-6.58125,-48.075,0.13935322,0.05859976,0.693125,1000.91455, , , , 
2026-03-20 17:34:34.143,1.3734802,1.5170496,9.068798,0.7128792,-0.42775807,0.4827359,-34.2,-4.8,-46.59375,0.14770421,0.056275267,0.6950193,1000.91455, , , , 
2026-03-20 17:34:34.163,2.9575288,3.0580273,7.800602,0.91812974,0.8196278,0.21273366,-34.706253,-3.45,-45.54375,0.15226232,0.06303693,0.6975437,1000.9205, , , , 
2026-03-20 17:34:34.183,1.5409778,2.8713872,10.356136,1.1710278,1.158047,0.041691523,-35.2125,-2.8312502,-45.112503,0.15193017,0.07366599,0.6987095,1000.9205, , , , 
2026-03-20 17:34:34.203,1.9908284,0.971486,12.825529,2.0946553,0.4970912,0.22495095,-35.53125,-2.71875,-45.16875,0.15669642,0.09485884,0.70010716,1000.9205, , , , 
2026-03-20 17:34:34.223,3.0436704,1.5409778,4.1874394,2.0885468,0.4225657,-0.10491603,-35.475002,-3.0,-45.300003,0.17036122,0.112235904,0.69913656,1000.9205, , , , 
2026-03-20 17:34:34.243,1.7706888,3.1489546,3.4121652,0.21441354,0.5398517,-0.59605134,-35.006252,-3.5812502,-45.600002,0.17320663,0.12507518,0.69613755,1000.91943, , , , 
2026-03-20 17:34:34.263,2.5698915,4.3357944,10.920842,-0.33169958,-0.110108376,-0.5532908,-34.59375,-4.5375004,-45.99375,0.17014374,0.12491075,0.6928635,1000.91943, , , , 
2026-03-20 17:34:34.283,-0.29671,4.197011,10.380065,0.4159989,-0.01970039,-0.39080074,-34.3125,-5.625,-46.256252,0.1704152,0.12495253,0.68893,1000.91943, , , , 
2026-03-20 17:34:34.303,-0.2727818,5.0775695,7.2023964,0.7959568,0.6534726,-0.058490302,-34.275,-6.675,-46.5,0.17275503,0.13193615,0.68718964,1000.91943, , , , 
2026-03-20 17:34:34.323,0.79441714,4.23051,7.1018977,0.637132,1.1384993,0.01725693,-34.3875,-7.5937505,-46.518753,0.17131692,0.14368795,0.68776894,1000.909, , , , 
2026-03-20 17:34:34.343,0.043070808,4.996214,8.41795,0.6163626,1.672395,-0.11957678,-34.237503,-8.19375,-46.59375,0.16763087,0.15349165,0.68861043,1000.909, , , , 
2026-03-20 17:34:34.363,-1.6223338,5.0775695,8.370093,0.34391686,1.9155192,0.013591741,-33.862503,-8.775001,-47.11875,0.1557432,0.17642495,0.6904823,1000.909, , , , 
2026-03-20 17:34:34.383,-0.02871387,3.3786657,9.652647,0.037262753,-0.14553854,-0.16478078,-33.018753,-9.3,-47.850002,0.15062432,0.1837698,0.69157887,1000.909, , , , 
2026-03-20 17:34:34.403,-0.4977071,3.6849468,9.30808,-0.14844014,-1.1815652,-0.61437726,-31.7625,-9.675,-48.843754,0.15489744,0.17806804,0.6875521,1000.89417, , , , 
2026-03-20 17:34:34.423,-1.5361922,5.3312087,8.149954,0.04459313,-0.866359,-0.47387835,-30.843752,-10.012501,-49.593754,0.1593498,0.17257288,0.6831685,1000.89417, , , , 
2026-03-20 17:34:34.443,-1.0719845,5.690132,6.393622,0.11911863,0.013286309,-0.15012002,-30.50625,-10.33125,-49.725002,0.16424298,0.1691765,0.67858326,1000.89417, , , , 
2026-03-20 17:34:34.463,0.0,4.699504,7.446464,0.14966187,0.9552398,0.06368265,-30.712502,-10.63125,-49.575,0.16154061,0.17382611,0.67910373,1000.89417, , , , 
2026-03-20 17:34:34.483,1.0432707,3.6227336,6.6999035,0.262061,1.2056943,-0.046273008,-31.331251,-11.0625,-49.350002,0.15548705,0.18319838,0.6807213,1000.888, , , , 
2026-03-20 17:34:34.503,0.25842485,2.9910283,11.772687,-0.045814857,0.8342886,-0.29550585,-31.518751,-11.56875,-49.29375,0.14758806,0.19278246,0.68115485,1000.888, , , , 
2026-03-20 17:34:34.523,-2.1966112,5.1732826,11.12184,-0.23029602,-0.46196648,-0.37125307,-31.031252,-11.90625,-49.575,0.14396708,0.19394597,0.6795012,1000.888, , , , 
2026-03-20 17:34:34.543,-1.6510476,5.15414,9.738789,-0.21074834,-1.2389865,-0.18310672,-30.337502,-12.1125,-50.04375,0.14786024,0.18669708,0.67651284,1000.888, , , , 
2026-03-20 17:34:34.563,0.91884387,4.23051,7.52782,-0.2290743,-1.0679444,-0.06459895,-29.812502,-12.20625,-50.41875,0.15479997,0.17652911,0.6743811,1000.8835, , , , 
2026-03-20 17:34:34.584,0.41635114,4.125226,8.207381,-0.25595233,-0.13820815,-0.2490801,-29.718752,-12.093751,-50.568752,0.15664205,0.17100725,0.6728788,1000.8835, , , , 
2026-03-20 17:34:34.603,-0.3924229,4.8047876,9.772287,-0.13744457,0.063377224,-0.2771799,-30.000002,-11.83125,-50.49375,0.15481462,0.16997132,0.6712591,1000.8835, , , , 
2026-03-20 17:34:34.623,-0.41635114,4.316652,11.265409,0.23396121,0.14278965,-0.19410229,-30.35625,-11.700001,-50.287502,0.15361223,0.17147094,0.6698018,1000.8835, , , , 
2026-03-20 17:34:34.643,-0.6987042,4.369294,8.9013,0.49541134,-0.13698642,-0.25030184,-30.6375,-11.775001,-50.081253,0.15627228,0.17436115,0.6675425,1000.8714, , , , 
2026-03-20 17:34:34.663,-1.7850457,5.235496,7.192825,0.10567961,-0.56703526,-0.13179408,-30.862501,-12.0,-49.912502,0.15936646,0.17533217,0.66536504,1000.8714, , , , 
2026-03-20 17:34:34.683,-1.2155539,5.1206403,6.5611196,-0.44409868,-0.9921971,0.15164718,-31.050001,-12.450001,-49.66875,0.16459043,0.16836214,0.6637452,1000.8714, , , , 
2026-03-20 17:34:34.703,1.0145568,3.5892339,7.9537425,-0.7287617,-0.9775364,0.23594652,-31.406252,-12.712501,-49.3875,0.16738315,0.15662655,0.6646758,1000.8714,37.88753046,127.73735925,168.78802490234375,0.39
2026-03-20 17:34:34.723,1.1389836,4.426722,10.724631,-0.4905244,-0.38255405,-0.091477,-31.931252,-12.675,-48.99375,0.16738679,0.14716166,0.66507816,1000.8614, , , , 
2026-03-20 17:34:34.743,-0.9284152,5.259424,10.083355,0.20708317,0.12935062,0.01970039,-32.568752,-12.618751,-48.525,0.16683932,0.14603303,0.6643854,1000.8614, , , , 
2026-03-20 17:34:34.763,-0.3924229,4.895715,8.221739,0.34636033,0.28817546,0.34468046,-33.16875,-12.39375,-48.075,0.16788341,0.14961253,0.6655815,1000.8614, , , , 
2026-03-20 17:34:34.783,0.9379865,3.991228,6.838687,0.116675176,0.15012002,0.32024586,-33.581253,-11.962501,-47.625,0.1689033,0.15214938,0.66811705,1000.8614, , , , 
2026-03-20 17:34:34.803,0.6412765,4.2592244,7.594819,-0.22785257,0.2612974,0.07589995,-33.825,-11.7375,-47.325,0.16721393,0.15280306,0.66993177,1000.8506, , , , 
2026-03-20 17:34:34.823,-0.4211368,4.8047876,9.346365,-0.24495678,0.16478078,0.07345649,-33.75,-11.512501,-47.2125,0.16391665,0.15251751,0.6709909,1000.8506, , , , 
2026-03-20 17:34:34.843,1.105484,3.5605202,9.930214,-0.24862197,-0.33124143,0.006261364,-33.45,-11.231251,-47.1375,0.16290535,0.1500128,0.67172927,1000.8506, , , , 
2026-03-20 17:34:34.863,0.95712906,4.0390844,9.135797,-0.17043127,-0.41187558,-0.21853687,-33.206253,-11.15625,-47.15625,0.16431856,0.14568561,0.670367,1000.8506, , , , 
2026-03-20 17:34:34.883,0.6652047,4.4602213,9.202796,-0.11178826,-0.23228133,-0.2112065,-32.831253,-10.9875,-47.0625,0.16499448,0.14284174,0.6684962,1000.84863, , , , 
2026-03-20 17:34:34.903,0.6987042,4.4458647,8.293523,-0.056810424,-0.033139415,-0.1867719,-32.60625,-10.6125,-46.725002,0.16547792,0.1415231,0.66689306,1000.84863, , , , 
2026-03-20 17:34:34.923,-0.3062813,4.7808595,10.432707,0.07513637,0.3431533,-0.054825112,-32.49375,-10.3125,-46.331253,0.16375086,0.14303593,0.66631675,1000.84863, , , , 
2026-03-20 17:34:34.943,-0.7752745,4.718646,9.710074,0.34025168,0.020616686,0.12476913,-32.193752,-9.993751,-45.862503,0.16409001,0.14595838,0.6666122,1000.84863, , , , 
2026-03-20 17:34:34.963,1.0001999,3.225525,8.178668,0.21807873,-0.27870706,0.15531237,-31.893751,-9.675,-45.61875,0.16744356,0.14679065,0.6671775,1000.84845, , , , 
2026-03-20 17:34:34.983,0.5072784,4.2927237,8.327023,-0.048258316,-0.59513503,-0.20631959,-31.556252,-9.3,-45.6375,0.17101751,0.14353727,0.6661355,1000.84845, , , , 
2026-03-20 17:34:35.003,-0.038285162,4.45065,8.925228,-0.045814857,-0.39721483,-0.11957678,-31.237501,-9.075001,-45.75,0.17402075,0.1395958,0.6640104,1000.84845, , , , 
2026-03-20 17:34:35.023,-0.23928227,4.4075794,9.341579,0.12156209,-0.27504188,-0.062155493,-31.125002,-8.962501,-45.956253,0.1760276,0.13787417,0.66275173,1000.84845, , , , 
2026-03-20 17:34:35.043,0.08135597,4.5224347,7.8484583,0.18997894,-0.20906848,0.022143848,-31.125002,-8.925,-45.99375,0.17913629,0.1372619,0.6619565,1000.84546, , , , 
2026-03-20 17:34:35.063,0.21535404,4.5128636,7.7096744,0.055588696,0.20631959,0.0697913,-31.125002,-8.94375,-45.825,0.18038732,0.13779147,0.6620237,1000.84546, , , , 
2026-03-20 17:34:35.083,0.32542387,4.249653,8.456235,0.11178826,0.68890274,0.07223476,-31.031252,-8.90625,-45.675003,0.17795098,0.14140365,0.6632685,1000.84546, , , , 
2026-03-20 17:34:35.103,0.2009971,3.9864426,7.958528,0.23396121,0.61071205,-0.026725333,-31.031252,-9.0375,-45.487503,0.17462301,0.14754204,0.66450226,1000.84546, , , , 
2026-03-20 17:34:35.123,-0.6364908,3.9768713,7.580462,0.027488915,0.018173227,0.06856957,-30.843752,-9.0375,-45.393753,0.17301047,0.15163131,0.6647628,1000.8408, , , , 
2026-03-20 17:34:35.143,0.40677986,4.666004,8.532805,-0.3158171,-0.4827359,-0.018173227,-30.54375,-9.075001,-45.61875,0.17356211,0.1491089,0.6649283,1000.8408, , , , 
2026-03-20 17:34:35.163,0.5312066,4.2017965,8.877372,-0.39645123,-0.8993457,-0.0377209,-30.375002,-9.28125,-46.0875,0.17569558,0.14136997,0.6639531,1000.8408, , , , 
2026-03-20 17:34:35.183,0.7178468,3.991228,8.49452,-0.26450446,-0.5731439,-0.04382955,-30.150002,-9.243751,-46.443752,0.17842291,0.13366772,0.6626875,1000.8408, , , , 
2026-03-20 17:34:35.203,-0.10049855,4.130012,9.772287,0.043371398,0.15256348,-0.063377224,-30.243752,-9.262501,-46.48125,0.17858033,0.13191912,0.6621444,1000.8374, , , , 
2026-03-20 17:34:35.223,-0.33499518,4.082155,9.336794,0.43065968,0.3810269,0.13209951,-30.675001,-9.375,-46.237503,0.17809878,0.13618368,0.6625619,1000.8374, , , , 
2026-03-20 17:34:35.243,0.76570326,4.3118663,7.7623167,0.43799004,0.4885391,0.19196425,-31.031252,-9.262501,-45.73125,0.17879954,0.14203107,0.66391283,1000.8374, , , , 
2026-03-20 17:34:35.263,0.32063824,4.6899323,7.52782,0.21563527,0.5752819,0.16264275,-31.29375,-9.28125,-45.525,0.17791899,0.1476637,0.6655891,1000.8374, , , , 
2026-03-20 17:34:35.283,-0.8709874,4.479364,8.657232,0.08002329,0.49464774,0.26282457,-31.2,-9.39375,-45.73125,0.1759888,0.15122569,0.66722935,1000.8368, , , , 
2026-03-20 17:34:35.303,1.5457634,2.4646072,8.106883,0.032375835,0.063377224,0.2554942,-30.862501,-9.46875,-46.0875,0.174401,0.15412506,0.6704449,1000.8368, , , , 
2026-03-20 17:34:35.323,1.4069797,4.9866424,9.312865,-0.2254091,-0.3336849,-0.18066326,-30.6,-9.525001,-46.575,0.1745692,0.15201347,0.6705983,1000.8368, , , , 
2026-03-20 17:34:35.343,-0.5886344,4.723432,8.9348,-0.07147118,-0.3715585,-0.029168794,-30.468752,-9.4125,-46.893753,0.17581265,0.14855601,0.66912353,1000.8368, , , , 
2026-03-20 17:34:35.363,-0.83748794,4.814359,7.7671022,-0.033597562,-0.07589995,0.16875139,-30.393751,-9.28125,-47.04375,0.17700341,0.14689721,0.6691217,1000.84125, , , , 
2026-03-20 17:34:35.383,-0.06699903,4.9770713,7.5996046,-0.0042760535,0.64247704,0.40332347,-30.300001,-9.28125,-46.96875,0.17562984,0.14790922,0.6719708,1000.84125, , , , 
2026-03-20 17:34:35.403,1.0289137,4.5224347,8.5423765,0.10567961,1.3571888,0.5059488,-30.281252,-9.31875,-46.893753,0.16983193,0.15454514,0.67696226,1000.84125, , , , 
2026-03-20 17:34:35.423,1.5218352,2.9479575,10.8682,0.26939136,1.3706279,0.35567603,-30.093752,-9.375,-46.987503,0.16152775,0.1660154,0.68242913,1000.84125, , , , 
2026-03-20 17:34:35.443,0.8709874,3.3164523,9.638289,0.102014415,0.28328854,-0.23319763,-29.7,-9.262501,-47.268753,0.15810007,0.17046553,0.68403894,1000.8536, , , , 
2026-03-20 17:34:35.463,-0.8135597,4.9052863,8.135597,-0.2131918,-0.27504188,-0.4091267,-29.04375,-8.962501,-47.756252,0.15756069,0.17077915,0.6811019,1000.8536, , , , 
2026-03-20 17:34:35.483,-1.0289137,4.9674997,8.877372,-0.39400777,-0.79061174,-0.15256348,-28.06875,-8.7375,-48.16875,0.15861109,0.1650025,0.6787383,1000.8536, , , , 
2026-03-20 17:34:35.503,0.18185452,4.6372905,8.700303,-0.31703883,-0.5022836,0.0368046,-27.487501,-8.587501,-48.206253,0.16073954,0.15770966,0.67794436,1000.8536, , , , 
2026-03-20 17:34:35.523,0.31585258,4.3405805,8.52802,-0.051923506,0.19654575,0.07956514,-27.431252,-8.418751,-48.16875,0.16053042,0.15538743,0.67846274,1000.85846, , , , 
2026-03-20 17:34:35.543,-0.11006984,4.254439,8.384451,0.026267186,0.3932442,0.08567379,-27.806252,-8.325001,-48.037502,0.15839502,0.15775199,0.679586,1000.85846, , , , 
2026-03-20 17:34:35.563,-0.32542387,3.8668015,7.838887,-0.15332706,-0.108886644,0.01847866,-28.3875,-8.26875,-47.775,0.15702946,0.15856953,0.6803273,1000.85846, , , , 
2026-03-20 17:34:35.583,0.31106696,4.3645086,8.609376,-0.5699368,-0.7026472,-0.13668099,-28.575,-8.34375,-47.756252,0.15729634,0.15281284,0.67981344,1000.85846, , , , 
2026-03-20 17:34:35.603,-0.6987042,4.5224347,8.891729,-0.5552761,-0.9750929,-0.095142186,-28.593752,-8.325001,-47.775,0.15808532,0.14579253,0.67856175,1000.85333, , , , 
2026-03-20 17:34:35.623,0.14356937,4.8861437,9.265009,-0.37323838,-0.43875363,0.034361143,-28.706251,-8.08125,-47.5125,0.16023077,0.13492273,0.6776346,1000.85333, , , , 
2026-03-20 17:34:35.643,0.4019942,4.56072,8.85823,0.0067195124,-0.023365578,0.0820086,-29.025002,-7.7250004,-47.268753,0.16069362,0.13195953,0.6779235,1000.85333, , , , 
2026-03-20 17:34:35.663,0.5024927,4.5894337,8.41795,0.19120067,0.5532908,0.1357647,-29.550001,-7.275,-46.987503,0.15995045,0.13465297,0.6789425,1000.85333, , , , 
2026-03-20 17:34:35.683,0.37328035,3.8476589,10.442278,0.17043127,0.53129965,0.14065161,-30.112501,-6.95625,-46.6875,0.15737903,0.1399088,0.6806573,1000.84656, , , , 
2026-03-20 17:34:35.703,0.32542387,4.048656,9.647861,0.22052218,-0.19685118,-0.023060145,-30.4125,-6.9187503,-46.912502,0.15819542,0.14181311,0.6809872,1000.84656,37.88753046,127.73735925,168.78802490234375,0.39
2026-03-20 17:34:35.723,-0.3589234,4.4458647,8.19781,0.19486587,-0.3752237,-0.0035124724,-30.337502,-6.8812504,-47.287502,0.16176434,0.1411361,0.6799998,1000.84656, , , , 
2026-03-20 17:34:35.743,-0.033499517,5.0344987,7.288538,0.055588696,-0.14065161,0.09666935,-30.150002,-6.8625,-47.4375,0.16484095,0.139935,0.67965126,1000.84656, , , , 
2026-03-20 17:34:35.763,0.44506502,4.469793,9.987641,0.09346231,0.44089165,0.19685118,-29.812502,-6.8625,-47.34375,0.16392273,0.14133625,0.6810367,1000.84546, , , , 
2026-03-20 17:34:35.783,0.91405827,3.9481573,10.155139,0.45020735,0.28939718,0.053908817,-29.7,-6.9750004,-46.96875,0.16323514,0.14569981,0.68236876,1000.84546, , , , 
2026-03-20 17:34:35.803,0.5407779,4.3501515,8.01117,0.5442805,0.002290743,-0.15378521,-29.6625,-7.14375,-46.66875,0.16602181,0.15026498,0.6813563,1000.84546, , , , 
2026-03-20 17:34:35.823,-1.0193424,5.3790655,6.9678993,0.2791652,-0.034361143,-0.07192933,-29.550001,-7.33125,-46.7625,0.16837037,0.15269713,0.67996377,1000.84546, , , , 
2026-03-20 17:34:35.843,-0.44985065,5.3982077,8.111669,0.021380268,0.025503604,0.31902415,-29.475,-7.6875005,-47.025,0.17012167,0.1539393,0.680326,1000.8542, , , , 
2026-03-20 17:34:35.863,0.9379865,4.4985065,8.149954,0.058032155,-0.04780017,0.4094321,-29.212502,-8.00625,-47.268753,0.17103712,0.1534714,0.68299365,1000.8542, , , , 
2026-03-20 17:34:35.883,1.6271194,4.115655,7.4943204,0.054366965,-0.008704823,0.23228133,-29.118752,-8.306251,-47.34375,0.17228678,0.15314457,0.68517715,1000.8542, , , , 
2026-03-20 17:34:35.903,0.94277215,4.6755753,8.279166,0.009162972,-0.16875139,-0.06582068,-29.23125,-8.55,-47.30625,0.17307258,0.15265176,0.685503,1000.8542, , , , 
2026-03-20 17:34:35.923,-0.2009971,5.005785,7.7814593,0.13988803,-0.15164718,-0.054825112,-29.2875,-8.475,-47.25,0.17509842,0.15178856,0.6842019,1000.8682, , , , 
2026-03-20 17:34:35.943,-0.6364908,5.139783,7.3363943,0.13133593,0.06093376,0.030695954,-29.5125,-8.306251,-47.2125,0.17635888,0.15255702,0.6838249,1000.8682, , , , 
2026-03-20 17:34:35.963,-1.3112668,5.7762737,6.422336,0.07269291,0.39813113,0.23716825,-29.718752,-8.212501,-47.2125,0.17588273,0.15483436,0.684876,1000.8682, , , , 
2026-03-20 17:34:35.983,-0.9954142,5.881558,6.7429743,-0.1960876,0.7170025,0.5206095,-29.75625,-8.08125,-47.23125,0.17331769,0.15728925,0.6874583,1000.8682, , , , 
2026-03-20 17:34:36.003,0.16271193,5.1254263,8.408379,-0.34025168,0.7903063,0.59391326,-29.643751,-7.9875,-47.25,0.16554059,0.16041589,0.6945035,1000.89417, , , , 
2026-03-20 17:34:36.023,1.4069797,4.0103707,9.74836,-0.31337363,0.40668324,0.20051636,-29.2875,-7.7812505,-47.34375,0.15959099,0.16179682,0.6990438,1000.89417, , , , 
2026-03-20 17:34:36.043,-0.28235307,4.8095737,10.083355,-0.16554436,-0.27259842,-0.27473643,-28.800001,-7.3875003,-47.475002,0.15738972,0.16046903,0.69887537,1000.89417, , , , 
2026-03-20 17:34:36.063,-0.8757731,5.623133,9.059227,-0.1508836,-0.66110843,-0.21242823,-28.275002,-7.05,-47.550003,0.1587613,0.15772513,0.69703114,1000.89417, , , , 
2026-03-20 17:34:36.083,0.5168497,5.3647084,8.178668,-0.18875721,-0.82359844,-0.14401138,-27.900002,-6.80625,-47.643753,0.1635149,0.15033308,0.69440603,1000.90607, , , , 
2026-03-20 17:34:36.103,1.0815558,5.3503513,7.4129643,-0.11300998,-0.61223924,-0.20876303,-27.937502,-6.61875,-47.71875,0.16746128,0.14445797,0.69218606,1000.90607, , , , 
2026-03-20 17:34:36.123,0.8757731,5.4699926,6.5754766,-0.031154104,-0.20173809,-0.26374087,-28.087502,-6.4125004,-47.79375,0.16967008,0.14178851,0.6899354,1000.90607, , , , 
2026-03-20 17:34:36.143,-0.38763726,6.058627,7.2119675,-0.03970621,0.20265439,-0.19410229,-28.368752,-6.24375,-47.662502,0.1689971,0.14234585,0.6882771,1000.90607, , , , 
2026-03-20 17:34:36.163,-0.41635114,5.948557,7.60439,-0.029932374,0.32116216,-0.008399391,-28.875002,-6.15,-47.381252,0.16682434,0.14439395,0.6880348,1000.9101, , , , 
2026-03-20 17:34:36.183,0.23928227,5.4699926,7.5469627,-0.007941242,0.21609342,0.014813471,-29.1375,-6.1875005,-47.193752,0.16493197,0.14629921,0.68863034,1000.9101, , , , 
2026-03-20 17:34:36.203,0.32542387,5.6279187,7.8580294,0.0030543238,0.14278965,-0.051159926,-29.325,-6.43125,-47.0625,0.16381069,0.14758104,0.6887451,1000.9101, , , , 
2026-03-20 17:34:36.224,0.11485548,5.8480587,7.853244,0.10690133,0.020616686,-0.14889829,-29.437502,-6.5625005,-47.23125,0.16364107,0.14879397,0.6880618,1000.9101, , , , 
2026-03-20 17:34:36.243,-0.39720857,6.431907,7.216753,0.115453444,-0.13942988,-0.114689864,-29.38125,-6.61875,-47.475002,0.16473058,0.14974426,0.6867675,1000.9107, , , , 
2026-03-20 17:34:36.263,-0.7513463,6.8243303,6.7573314,-0.037262753,-0.22250749,0.01970039,-29.23125,-6.6937504,-47.568752,0.16647822,0.14909956,0.6859285,1000.9107, , , , 
2026-03-20 17:34:36.283,0.062213387,6.546763,7.925029,-0.15821397,-0.10644319,0.13454297,-29.062502,-6.7875004,-47.4375,0.1671752,0.14712246,0.68641824,1000.9107, , , , 
2026-03-20 17:34:36.303,1.2873386,6.2883377,10.112068,0.076358095,0.1452331,-0.04016436,-29.081251,-7.0125003,-47.15625,0.16672733,0.14670618,0.6870836,1000.9107, , , , 
2026-03-20 17:34:36.323,0.4977071,6.7238317,9.934999,0.50029826,0.27473643,-0.29917103,-29.062502,-7.2187505,-47.04375,0.1671267,0.15054059,0.6857827,1000.91095, , , , 
2026-03-20 17:34:36.343,-1.0241281,7.513463,8.685946,0.6261364,0.18555018,-0.2612974,-29.156252,-7.2000003,-47.081253,0.16920201,0.15708655,0.6830918,1000.91095, , , , 
2026-03-20 17:34:36.363,-0.9236295,7.475178,8.140383,0.3817905,-0.090560704,-0.0377209,-29.081251,-7.3500004,-47.25,0.17245032,0.16135633,0.68125606,1000.91095, , , , 
2026-03-20 17:34:36.383,-0.19621146,6.9296145,8.355737,0.08002329,-0.2848157,0.0697913,-28.875002,-7.6312504,-47.381252,0.1755514,0.16163053,0.6807348,1000.91095, , , , 
2026-03-20 17:34:36.403,-0.2632105,6.8913293,8.41795,-0.1753182,-0.25671592,0.11866048,-28.706251,-7.8187504,-47.4,0.17750064,0.15931104,0.68085665,1000.91327, , , , 
2026-03-20 17:34:36.423,-0.22492532,6.661618,9.217153,-0.30115634,0.03527744,0.2554942,-28.7625,-8.15625,-47.193752,0.17697157,0.15653817,0.68227,1000.91327, , , , 
2026-03-20 17:34:36.443,0.57906306,6.0011992,10.686346,-0.18509203,0.43966994,0.34712392,-29.062502,-8.25,-46.912502,0.17392562,0.15611227,0.68531054,1000.91327, , , , 
2026-03-20 17:34:36.463,2.6751757,4.4410787,11.514262,0.1386663,0.3639227,0.123547405,-29.23125,-8.118751,-46.725002,0.17093004,0.15875393,0.68817085,1000.91327, , , , 
2026-03-20 17:34:36.483,2.6895328,4.254439,10.179068,0.33414304,-0.21639885,-0.39813113,-29.343752,-8.025001,-46.55625,0.17201607,0.16088554,0.68703127,1000.9171, , , , 
2026-03-20 17:34:36.503,0.9619147,4.709075,7.9680996,0.40133816,-0.3678933,-0.63148147,-29.118752,-7.8750005,-46.6875,0.17619668,0.16196203,0.6820607,1000.9171, , , , 
2026-03-20 17:34:36.523,-0.61734825,5.1206403,7.3028946,0.262061,-0.15775582,-0.48609564,-28.725,-7.9500003,-46.85625,0.1792856,0.16363424,0.6770132,1000.9171, , , , 
2026-03-20 17:34:36.543,1.119841,5.206782,7.800602,0.31459537,-0.15042545,-0.19532402,-28.706251,-8.306251,-46.893753,0.18140289,0.16522653,0.67449605,1000.9171, , , , 
2026-03-20 17:34:36.563,1.119841,4.211368,7.135397,0.1960876,-0.09300416,-0.15256348,-28.743752,-8.775001,-46.7625,0.18378864,0.16650945,0.672574,1000.91943, , , , 
2026-03-20 17:34:36.583,0.19621146,4.3118663,7.6953177,0.08613193,-0.18341215,-0.15134175,-28.837502,-9.337501,-46.537502,0.18533427,0.16682285,0.6709677,1000.91943, , , , 
2026-03-20 17:34:36.603,-0.5982057,4.6899323,7.786245,0.03848448,-0.3507891,0.022143848,-29.081251,-9.69375,-46.48125,0.18744561,0.16544124,0.66987705,1000.91943, , , , 
2026-03-20 17:34:36.623,-0.45942193,4.694718,6.5659056,-0.04459313,-0.3911062,0.31413722,-29.025002,-9.84375,-46.425003,0.19041891,0.16244882,0.6702788,1000.91943, , , , 
2026-03-20 17:34:36.643,1.1150553,4.0534415,6.4558353,-0.1838703,-0.16997312,0.47296205,-28.968752,-9.95625,-46.3875,0.19216108,0.15903553,0.6727122,1000.92114, , , , 
2026-03-20 17:34:36.663,1.8089739,3.804588,7.216753,-0.19486587,0.10491603,0.18096869,-29.212502,-10.05,-46.275,0.19167875,0.15659939,0.67534935,1000.92114, , , , 
2026-03-20 17:34:36.683,0.8757731,3.9481573,7.2263246,-0.14110976,0.22708899,-0.057268575,-29.437502,-10.05,-46.10625,0.19004448,0.15650962,0.6761968,1000.92114, , , , 
2026-03-20 17:34:36.703,0.67477596,4.005585,7.149754,-0.2535089,0.08659008,-0.20265439,-29.75625,-9.9375,-46.143753,0.18676062,0.15684073,0.675964,1000.92114,37.88753046,127.73735925,168.78802490234375,0.39
2026-03-20 17:34:36.723,-0.02871387,4.23051,8.451449,-0.27427828,0.00962112,-0.26740605,-29.925001,-9.731251,-46.3125,0.1841694,0.1555938,0.6747539,1000.919, , , , 
2026-03-20 17:34:36.743,-0.90448695,4.465007,9.150154,-0.022601997,0.09758565,-0.14645483,-29.681252,-9.543751,-46.3875,0.18230598,0.15538937,0.67356336,1000.919, , , , 
2026-03-20 17:34:36.763,-0.22492532,4.182654,8.968299,0.15699224,0.048716467,0.027030766,-29.475,-9.525001,-46.4625,0.18205212,0.15637098,0.6732773,1000.919, , , , 
2026-03-20 17:34:36.783,1.416551,4.1635113,8.571091,0.1802051,-0.24572036,-0.09636392,-29.268751,-9.6,-46.537502,0.18424107,0.15696916,0.6727416,1000.919, , , , 
2026-03-20 17:34:36.803,1.105484,4.5942197,8.465807,0.28527385,-0.29458955,-0.30772313,-29.062502,-9.900001,-46.3875,0.18745708,0.1567637,0.6704296,1000.92474, , , , 
2026-03-20 17:34:36.823,0.11006984,5.355137,7.8963146,0.4318814,-0.20418155,-0.28328854,-29.062502,-10.200001,-46.21875,0.19126028,0.15807788,0.6671572,1000.92474, , , , 
2026-03-20 17:34:36.843,0.2727818,5.3216376,6.63769,0.44409868,-0.123547405,-0.18188499,-29.19375,-10.33125,-46.0125,0.19429554,0.15985858,0.66511995,1000.92474, , , , 
2026-03-20 17:34:36.863,0.55513483,5.4795637,6.058627,0.2669479,0.08170316,-0.16844596,-29.268751,-10.668751,-45.693752,0.19779211,0.16306964,0.66270965,1000.92474, , , , 
2026-03-20 17:34:36.883,-0.16749759,5.8337016,6.4462643,0.108123064,0.2686278,-0.09269873,-29.325,-11.0625,-45.46875,0.19779783,0.16606316,0.6617308,1000.9309, , , , 
2026-03-20 17:34:36.903,-0.24885355,5.6470613,7.6953177,0.018936807,0.27229297,0.044134982,-29.475,-11.4375,-45.318752,0.19635656,0.168508,0.66204655,1000.9309, , , , 
2026-03-20 17:34:36.923,-0.023928227,5.465207,9.150154,0.11911863,0.2771799,0.10766492,-29.456251,-11.925,-45.2625,0.19527546,0.17011786,0.6628301,1000.9309, , , , 
2026-03-20 17:34:36.943,0.10049855,5.6949177,8.422736,0.1508836,0.108581215,0.09544762,-29.437502,-12.337501,-45.1875,0.19515023,0.17307223,0.66391104,1000.9309, , , , 
2026-03-20 17:34:36.963,0.0526421,6.087341,8.212168,-0.102014415,-0.057574004,0.15409064,-29.456251,-12.543751,-45.15,0.19552086,0.17322911,0.6647014,1000.9411, , , , 
2026-03-20 17:34:36.983,0.56470615,6.0346985,7.9298143,-0.411112,0.07192933,0.22739442,-29.250002,-12.50625,-45.300003,0.19427992,0.17104653,0.6664758,1000.9411, , , , 
2026-03-20 17:34:37.003,-0.526421,5.666204,9.628718,-0.7703005,0.38713557,0.2591594,-29.04375,-12.262501,-45.393753,0.19053026,0.16902108,0.66873515,1000.9411, , , , 
2026-03-20 17:34:37.023,-1.7754744,5.312066,12.677175,-0.91812974,0.48120874,0.46196648,-28.800001,-11.8125,-45.46875,0.18215773,0.16593732,0.67315423,1000.9411, , , , 
2026-03-20 17:34:37.043,-0.30149564,4.0869412,15.94577,-0.5198459,0.20143266,0.5878046,-28.3875,-11.19375,-45.581253,0.17271803,0.16140921,0.6804115,1000.9583, , , , 
2026-03-20 17:34:37.063,1.5361922,3.3547373,14.548362,0.16554436,-0.29092434,0.25793764,-28.10625,-10.650001,-45.6375,0.17259052,0.15886913,0.6836622,1000.9583, , , , 
2026-03-20 17:34:37.083,1.2011969,3.8524444,10.049855,0.45020735,-0.52671814,-0.107359484,-27.806252,-10.05,-45.80625,0.17666687,0.15809095,0.6831183,1000.9583, , , , 
2026-03-20 17:34:37.103,-0.29671,4.3645086,7.432107,0.171653,-0.42164943,-0.15256348,-27.618752,-9.431251,-46.050003,0.18380895,0.15693226,0.68007046,1000.9583, , , , 
2026-03-20 17:34:37.123,-0.57427746,4.5655055,8.106883,-0.031154104,-0.108886644,0.066126116,-27.862501,-9.09375,-46.143753,0.18579839,0.15558247,0.6791541,1000.9696, , , , 
2026-03-20 17:34:37.143,0.25842485,4.0151563,8.221739,-0.020158539,0.13423753,0.17363831,-28.125002,-8.8125,-46.10625,0.18550967,0.15542881,0.68024594,1000.9696, , , , 
2026-03-20 17:34:37.163,0.124426775,3.7663028,8.250452,-0.01282816,0.1782198,0.14920372,-28.275002,-8.625,-45.75,0.18436597,0.1562288,0.681733,1000.9696, , , , 
2026-03-20 17:34:37.183,-0.37328035,3.8093736,8.140383,0.043371398,0.002290743,0.19074252,-28.368752,-8.587501,-45.43125,0.18393578,0.15668525,0.6830334,1000.9696, , , , 
2026-03-20 17:34:37.203,-0.06699903,3.8380876,6.9966135,0.116675176,-0.16508621,0.28603745,-28.368752,-8.512501,-45.35625,0.18553886,0.15618351,0.6843708,1000.97363, , , , 
2026-03-20 17:34:37.223,0.42592242,3.790231,6.3361945,0.12522727,-0.07101303,0.3006982,-28.48125,-8.7375,-45.3375,0.18776876,0.1555407,0.68597656,1000.97363, , , , 
2026-03-20 17:34:37.243,1.1533405,3.6083765,6.111269,0.20952661,0.13179408,0.19440772,-28.593752,-9.0375,-45.318752,0.18907759,0.15643182,0.68757856,1000.97363, , , , 
2026-03-20 17:34:37.263,1.0145568,3.7423747,6.04427,0.26572618,0.21364996,0.022143848,-28.725,-9.262501,-45.300003,0.18965535,0.15914594,0.68831635,1000.97363, , , , 
2026-03-20 17:34:37.283,0.31585258,4.1635113,5.345566,0.16676609,0.047494736,-0.0707076,-28.743752,-9.50625,-45.2625,0.19030139,0.16178647,0.68794256,1000.9664, , , , 
2026-03-20 17:34:37.303,-0.31106696,4.699504,5.814559,6.108648E-4,-0.030695954,-0.016951498,-28.556252,-9.50625,-45.24375,0.19080754,0.16239941,0.6874167,1000.9664, , , , 
2026-03-20 17:34:37.323,-0.019142581,4.7952166,6.5850477,-0.01282816,0.058490302,0.11499529,-28.462502,-9.5625,-45.43125,0.19078876,0.16232784,0.6878247,1000.9664, , , , 
2026-03-20 17:34:37.343,0.2632105,4.9674997,7.288538,0.048258316,0.115911596,0.09666935,-28.368752,-9.58125,-45.487503,0.19039965,0.16293186,0.68875366,1000.9664, , , , 
2026-03-20 17:34:37.363,0.4833502,5.2977095,7.3842506,0.09834923,0.03405571,0.033139415,-28.312502,-9.69375,-45.45,0.19055994,0.16401662,0.68920636,1000.9534, , , , 
2026-03-20 17:34:37.383,0.5455636,5.7427745,7.125826,0.0042760535,-0.14920372,-0.051159926,-28.44375,-9.993751,-45.43125,0.19154176,0.1640909,0.68885744,1000.9534, , , , 
2026-03-20 17:34:37.403,0.148355,6.4845495,8.255239,-0.09346231,-0.27015495,-0.09269873,-28.5375,-10.125,-45.28125,0.19267519,0.16229472,0.6879104,1000.9534, , , , 
2026-03-20 17:34:37.423,-0.22492532,6.7094746,9.82493,0.102014415,-0.07467822,-0.0035124724,-28.500002,-10.087501,-45.393753,0.19383581,0.16108118,0.6871525,1000.9534, , , , 
2026-03-20 17:34:37.443,0.4019942,6.518049,9.317652,0.3536907,0.082924895,0.04535671,-28.312502,-9.95625,-45.318752,0.19544676,0.16311306,0.6869999,1000.919, , , , 
2026-03-20 17:34:37.463,1.416551,6.192625,8.441878,0.19120067,-0.10033454,-0.0707076,-28.0125,-9.8625,-45.206253,0.19749689,0.16524647,0.68648946,1000.919, , , , 
2026-03-20 17:34:37.483,0.6987042,6.719046,9.19801,-0.09957096,-0.30436337,-0.26251915,-27.712502,-10.03125,-45.318752,0.19911401,0.16418152,0.6846887,1000.919, , , , 
2026-03-20 17:34:37.503,-0.8279166,7.503892,9.82493,-0.17287473,-0.01847866,-0.10491603,-27.393751,-10.21875,-45.16875,0.1992443,0.16240704,0.6830205,1000.919, , , , 
2026-03-20 17:34:37.523,-0.023928227,7.082755,11.054841,-0.26450446,0.4470003,0.18096869,-27.281252,-10.275001,-45.05625,0.19620234,0.16259377,0.6841771,1000.9105, , , , 
2026-03-20 17:34:37.543,1.1916257,5.790631,12.514462,-0.28038692,0.48243046,0.19440772,-27.45,-10.087501,-45.16875,0.19242516,0.16344488,0.68636054,1000.9105, , , , 
2026-03-20 17:34:37.563,1.2299109,4.503292,13.304094,-0.09346231,-0.014813471,0.009926553,-27.54375,-9.675,-45.225002,0.188059,0.16368206,0.6886267,1000.9105, , , , 
2026-03-20 17:34:37.583,1.2729816,4.3405805,11.136196,0.13255766,-0.49739665,-0.10613775,-27.69375,-9.39375,-45.393753,0.19000378,0.16184805,0.6877179,1000.9105, , , , 
2026-03-20 17:34:37.603,1.3974084,4.3118663,8.853444,0.20586143,-0.47296205,-0.10491603,-27.825,-9.13125,-45.54375,0.19467641,0.15953398,0.6856954,1000.92175, , , , 
2026-03-20 17:34:37.623,1.5553347,4.4889355,7.60439,0.16920954,-0.011148282,-0.10980295,-27.69375,-8.85,-45.412502,0.19713148,0.15918727,0.68448913,1000.92175, , , , 
2026-03-20 17:34:37.643,1.1676974,4.316652,7.6666036,0.027488915,0.2075413,-0.107359484,-27.750002,-8.868751,-45.037502,0.19698846,0.16135354,0.6836362,1000.92175, , , , 
2026-03-20 17:34:37.663,0.8805587,4.1587257,7.408179,-0.12767074,0.08170316,-0.08414663,-28.0125,-9.056251,-44.831253,0.19550914,0.16218954,0.683361,1000.92175, , , , 
2026-03-20 17:34:37.683,0.24885355,4.139583,7.786245,-0.22663084,-0.0025961753,-0.04138609,-27.993752,-9.243751,-44.775,0.19388524,0.1611581,0.6832814,1000.9279, , , , 
2026-03-20 17:34:37.703,0.15792629,4.034299,7.972885,-0.10567961,0.025503604,0.04657844,-28.0125,-9.4875,-44.850002,0.19287618,0.1601816,0.68349373,1000.9279,37.88753487,127.7373697,169.8546142578125,0.73
2026-03-20 17:34:37.723,0.5838487,3.737589,7.623533,0.09224058,0.12568542,0.07101303,-28.125002,-9.450001,-45.1875,0.19221316,0.16034795,0.6842563,1000.9279, , , , 
2026-03-20 17:34:37.743,0.8805587,3.7806597,6.838687,0.22174391,0.09269873,-0.012064579,-28.087502,-9.09375,-45.43125,0.19257258,0.16225749,0.6844645,1000.9279, , , , 
2026-03-20 17:34:37.763,0.32542387,4.2927237,5.9246287,0.0971275,-0.020922119,-0.058490302,-28.125002,-8.8125,-45.6375,0.1935727,0.16372137,0.6839005,1000.9315, , , , 
2026-03-20 17:34:37.783,-0.11485548,4.546363,6.8099732,-0.031154104,0.018173227,0.061239194,-28.218752,-8.700001,-45.80625,0.19380671,0.16378705,0.68374217,1000.9315, , , , 
2026-03-20 17:34:37.803,0.31106696,4.125226,8.001599,0.1875355,0.22708899,0.19196425,-28.10625,-8.587501,-45.61875,0.19349171,0.16479278,0.6849531,1000.9315, , , , 
2026-03-20 17:34:37.823,1.268196,3.6370904,7.652247,0.41722065,0.19654575,0.10644319,-28.10625,-8.64375,-45.45,0.1942837,0.16820583,0.6860534,1000.9315, , , , 
2026-03-20 17:34:37.843,1.2155539,3.9481573,6.613762,0.42210758,-0.044134982,-0.09758565,-28.143751,-8.887501,-45.43125,0.19678837,0.17159651,0.6854461,1000.92645, , , , 
2026-03-20 17:34:37.863,0.4019942,4.723432,6.1830535,0.30604327,-0.1565341,-0.16478078,-28.031252,-9.337501,-45.45,0.19917998,0.173074,0.6840352,1000.92645, , , , 
2026-03-20 17:34:37.883,-0.3924229,5.369494,6.4606214,0.262061,-0.01847866,0.03924806,-27.7875,-9.825001,-45.61875,0.2023964,0.17491235,0.6823337,1000.92645, , , , 
2026-03-20 17:34:37.903,-0.15314065,5.5704913,7.1976104,0.17409647,0.1867719,0.2591594,-27.468752,-10.125,-45.7125,0.2036295,0.17684661,0.6831527,1000.92645, , , , 
2026-03-20 17:34:37.923,0.56470615,5.4029937,8.863015,0.13377939,0.21731515,0.38744098,-27.225,-10.425,-45.600002,0.20368475,0.17871933,0.6856475,1000.916, , , , 
2026-03-20 17:34:37.943,1.5744773,5.139783,9.446864,0.17043127,-1.527162E-4,0.28603745,-27.000002,-10.387501,-45.5625,0.20458205,0.17976794,0.68804336,1000.916, , , , 
2026-03-20 17:34:37.963,1.2586247,5.3982077,9.23151,0.03848448,-0.102778,0.12110394,-26.962502,-10.35,-45.5625,0.20627806,0.17965092,0.68906134,1000.916, , , , 
2026-03-20 17:34:37.983,0.13399807,5.986842,11.203196,6.108648E-4,0.002290743,0.14553854,-26.94375,-10.5,-45.768753,0.2068091,0.17890583,0.6897258,1000.916, , , , 
2026-03-20 17:34:38.003,0.16749759,5.5800624,11.4903345,0.11056653,0.08048143,0.24816382,-26.98125,-10.44375,-45.975002,0.2071334,0.17930521,0.69113827,1000.91327, , , , 
2026-03-20 17:34:38.023,0.52163535,5.0823555,11.064412,0.089797124,-0.028252495,0.15286891,-27.243752,-10.387501,-46.10625,0.2078974,0.1797721,0.6924611,1000.91327, , , , 
2026-03-20 17:34:38.043,0.38763726,4.421936,10.695917,-0.01282816,-0.18463388,0.038026333,-27.45,-10.35,-46.275,0.20898277,0.17900318,0.69282943,1000.91327, , , , 
2026-03-20 17:34:38.063,0.5312066,3.818945,10.930414,0.04459313,-0.22128576,-0.09025527,-27.487501,-10.293751,-46.36875,0.21018676,0.17750189,0.6922839,1000.91327, , , , 
2026-03-20 17:34:38.083,0.66041905,3.6131623,9.925428,0.24495678,-0.13942988,-0.2771799,-27.6,-10.275001,-46.537502,0.2120359,0.17747392,0.69041556,1000.91754, , , , 
2026-03-20 17:34:38.103,-0.31106696,4.5942197,7.838887,0.30237806,0.114689864,-0.35781404,-27.806252,-10.25625,-46.65,0.21348229,0.18019247,0.68754077,1000.91754, , , , 
2026-03-20 17:34:38.123,-1.0097711,5.0823555,7.058827,0.018936807,0.28817546,-0.18066326,-27.937502,-10.40625,-46.55625,0.21264979,0.18356413,0.6857326,1000.91754, , , , 
2026-03-20 17:34:38.143,-0.7848458,4.8861437,7.0301127,-0.35124725,0.29061893,0.052687086,-28.06875,-10.575001,-46.36875,0.20927458,0.18462081,0.6862789,1000.91754, , , , 
2026-03-20 17:34:38.163,-1.0863415,4.6085763,8.063812,-0.57482374,0.17699806,0.27504188,-27.956251,-10.81875,-46.237503,0.20447709,0.18263303,0.68873686,1000.9226, , , , 
2026-03-20 17:34:38.183,-0.17706887,3.8955152,8.216953,-0.5064069,0.07192933,0.3752237,-27.525002,-10.9875,-46.237503,0.2004186,0.17896773,0.69225794,1000.9226, , , , 
2026-03-20 17:34:38.203,0.34456646,3.7663028,7.4129643,-0.4062251,0.03527744,0.2848157,-27.093752,-10.856251,-46.237503,0.19756168,0.175432,0.69543386,1000.9226, , , , 
2026-03-20 17:34:38.223,0.2536392,3.991228,6.245267,-0.39767298,0.004734202,0.19074252,-26.75625,-10.575001,-46.237503,0.19521494,0.1724274,0.69769657,1000.9226, , , , 
2026-03-20 17:34:38.243,-0.14356937,4.4315076,6.1830535,-0.5198459,-0.0050396346,0.19440772,-26.812502,-10.087501,-46.3875,0.19245826,0.16890198,0.6996711,1000.93024, , , , 
2026-03-20 17:34:38.263,-0.09092726,4.5128636,7.3028946,-0.50029826,-0.060017463,0.3006982,-26.962502,-9.525001,-46.631252,0.1895972,0.16449687,0.7021256,1000.93024, , , , 
2026-03-20 17:34:38.283,1.1964114,4.115655,8.394022,-0.13988803,0.10980295,0.24449863,-27.0375,-9.0375,-46.912502,0.18765803,0.1615524,0.7046768,1000.93024, , , , 
2026-03-20 17:34:38.303,1.2634103,4.139583,7.5756764,0.25717407,0.1904371,-0.013286309,-27.112501,-8.475,-47.2125,0.18724973,0.16303171,0.7056393,1000.93024, , , , 
2026-03-20 17:34:38.323,0.52163535,4.7377887,6.4701924,0.33169958,0.020616686,-0.13057235,-26.812502,-7.93125,-47.25,0.18808068,0.1654836,0.7050176,1000.9275, , , , 
2026-03-20 17:34:38.343,0.6556334,5.130212,5.953343,0.14966187,-0.16386448,-0.15622866,-26.531252,-7.6687503,-47.1375,0.19064425,0.16771832,0.703134,1000.9275, , , , 
2026-03-20 17:34:38.363,0.6939186,5.56092,6.6281185,0.076358095,-0.11988221,-0.18921536,-26.5125,-7.65,-47.04375,0.1922857,0.1677587,0.7014672,1000.9275, , , , 
2026-03-20 17:34:38.383,0.43070808,5.8911295,7.288538,0.12034036,-0.061239194,-0.18066326,-26.625002,-7.8375,-46.8375,0.1933469,0.16835566,0.6998752,1000.9275, , , , 
2026-03-20 17:34:38.403,0.5312066,6.0394845,7.8963146,0.216857,0.008399391,-0.15989386,-26.775002,-8.0625,-46.631252,0.19422735,0.16919556,0.6987234,1000.9173, , , , 
2026-03-20 17:34:38.423,1.253839,5.5657053,8.590233,0.3744601,0.23564109,-0.2283107,-26.85,-8.3625,-46.631252,0.19542585,0.17276083,0.69689745,1000.9173, , , , 
2026-03-20 17:34:38.443,1.052842,5.4125648,8.063812,0.40011644,0.3394881,-0.37858346,-26.831251,-8.606251,-46.725002,0.19564685,0.178255,0.69473916,1000.9173, , , , 
2026-03-20 17:34:38.463,-0.35413775,6.1639113,8.513663,0.06291907,0.14889829,-0.36636615,-26.681252,-8.962501,-46.96875,0.1948247,0.18253659,0.69214123,1000.9173, , , , 
2026-03-20 17:34:38.483,-0.043070808,6.4366927,10.140782,-0.2706131,-0.07956514,-0.20387612,-26.550001,-9.525001,-47.362503,0.19378498,0.182609,0.6908127,1000.9139, , , , 
2026-03-20 17:34:38.503,0.9523434,6.355337,11.873186,-0.40133816,0.1122464,-0.2319759,-26.550001,-9.900001,-47.49375,0.19061264,0.18001403,0.6898522,1000.9139, , , , 
2026-03-20 17:34:38.523,0.009571291,6.235696,13.366307,-0.32681265,0.23686282,-0.27229297,-26.60625,-10.05,-47.49375,0.18619993,0.17918104,0.6891288,1000.9139, , , , 
2026-03-20 17:34:38.543,-0.4833502,5.575277,13.208381,-0.17898338,0.06582068,-0.16966769,-26.531252,-10.03125,-47.643753,0.18287027,0.17891036,0.6883647,1000.9139, , , , 
2026-03-20 17:34:38.563,0.11964113,4.9435716,11.442478,-0.1508836,-0.14553854,-0.07925971,-26.437502,-9.900001,-47.643753,0.18202274,0.17808491,0.6879073,1000.9171, , , , 
2026-03-20 17:34:38.583,0.38763726,4.465007,10.04507,-0.27427828,-0.32879797,-0.091477,-26.268751,-9.712501,-47.60625,0.18205105,0.17447951,0.6872154,1000.9171, , , , 
2026-03-20 17:34:38.603,-0.14356937,4.6899323,9.906285,-0.31337363,-0.36422813,-0.03527744,-26.118752,-9.6,-47.662502,0.18218608,0.17003632,0.68659407,1000.9171, , , , 
2026-03-20 17:34:38.623,0.009571291,4.56072,9.360723,-0.216857,-0.30558512,0.066126116,-26.04375,-9.6,-47.5875,0.18266302,0.16583236,0.6865772,1000.9171, , , , 
2026-03-20 17:34:38.643,0.5886344,4.316652,8.279166,-0.115453444,-0.16508621,0.08078687,-26.118752,-9.543751,-47.5875,0.18334402,0.16293648,0.687002,1000.92834, , , , 
2026-03-20 17:34:38.663,0.4881358,4.254439,7.867601,-0.06658426,-0.044134982,0.04291325,-26.306252,-9.431251,-47.5125,0.18353473,0.16143659,0.6873928,1000.92834, , , , 
2026-03-20 17:34:38.683,0.3924229,4.125226,7.513463,0.009162972,0.002290743,0.01847866,-26.5125,-9.262501,-47.41875,0.18351875,0.16103423,0.6876201,1000.92834, , , , 
2026-03-20 17:34:38.703,0.49292147,4.101298,7.216753,0.10445788,0.03161225,-0.030390523,-26.868752,-9.056251,-47.34375,0.18380636,0.16157697,0.68751955,1000.92834,37.88754033,127.73738493,170.183837890625,1.66
2026-03-20 17:34:38.724,1.0480564,4.0677986,7.140183,0.23029602,0.1452331,-0.09636392,-27.206251,-9.1125,-47.15625,0.1844301,0.16331992,0.68697596,1000.9324, , , , 
2026-03-20 17:34:38.743,1.3399807,3.8380876,7.3603225,0.3573559,0.2197586,-0.22953244,-27.243752,-9.243751,-47.15625,0.18493986,0.16685529,0.68579584,1000.9324, , , , 
2026-03-20 17:34:38.763,0.7704889,3.6753755,7.259824,0.4489856,0.09269873,-0.3688096,-27.112501,-9.39375,-47.30625,0.18609972,0.17130913,0.6833687,1000.9324, , , , 
2026-03-20 17:34:38.783,-0.3924229,4.3645086,6.8195443,0.4734202,-0.10644319,-0.34681848,-26.925001,-9.712501,-47.362503,0.18875468,0.17509006,0.67993253,1000.9324, , , , 
2026-03-20 17:34:38.803,-0.47377887,4.723432,5.852844,0.41355544,-0.20051636,-0.07925971,-26.7,-9.918751,-47.4,0.19267584,0.17748448,0.6772558,1000.9279, , , , 
2026-03-20 17:34:38.823,0.29671,4.4985065,5.393422,0.27427828,-0.12721258,0.10399973,-26.6625,-10.200001,-47.381252,0.1963737,0.17868479,0.6764321,1000.9279, , , , 
2026-03-20 17:34:38.843,0.53599226,4.4315076,5.9150577,0.13377939,0.069485866,0.15042545,-26.775002,-10.668751,-47.25,0.19831562,0.17963104,0.67689574,1000.9279, , , , 
2026-03-20 17:34:38.863,0.57427746,4.125226,7.925029,0.1423315,0.19288056,0.110108376,-26.831251,-10.96875,-47.23125,0.19836836,0.18113622,0.677951,1000.9279, , , , 
2026-03-20 17:34:38.884,0.5072784,4.2257247,9.265009,0.46608981,0.19532402,-0.019394957,-26.831251,-11.212501,-47.175003,0.19892779,0.18434502,0.6781926,1000.9216, , , , 
2026-03-20 17:34:38.903,0.44027936,4.5942197,8.078169,0.67378384,0.15256348,-0.12324197,-26.79375,-11.45625,-47.1375,0.20165586,0.1895881,0.6769325,1000.9216, , , , 
2026-03-20 17:34:38.923,-0.17228323,5.3312087,7.1976104,0.49541134,0.12202024,-0.14889829,-26.812502,-11.700001,-47.081253,0.20458823,0.19500789,0.67503905,1000.9216, , , , 
2026-03-20 17:34:38.943,-0.6029913,5.9964137,8.030313,0.115453444,-0.07834341,0.012370012,-26.7,-12.1125,-46.93125,0.20619957,0.19737886,0.6740179,1000.9216, , , , 
2026-03-20 17:34:38.963,0.15792629,5.986842,9.662218,-0.11178826,-0.3178024,0.15897755,-26.531252,-12.543751,-46.987503,0.20769873,0.1954177,0.6743113,1000.91583, , , , 
2026-03-20 17:34:38.983,0.47377887,5.962914,10.250853,-0.053145237,-0.22006404,0.16019928,-26.41875,-12.975,-47.175003,0.20940945,0.19236138,0.6749982,1000.91583, , , , 
2026-03-20 17:34:39.003,-0.047856454,6.0251274,10.671989,-0.04459313,0.002290743,0.17974696,-26.362501,-13.35,-47.2125,0.21000795,0.19111224,0.6760445,1000.91583, , , , 
2026-03-20 17:34:39.023,0.0,5.7762737,11.030912,-0.19120067,-0.011148282,0.21762058,-26.56875,-13.44375,-47.287502,0.20945407,0.18995632,0.6776645,1000.91583, , , , 
2026-03-20 17:34:39.044,0.37806597,5.0775695,12.567104,-0.22663084,-0.17363831,0.117438756,-26.8875,-13.181251,-47.41875,0.20860429,0.1871471,0.6792399,1000.91473, , , , 
2026-03-20 17:34:39.063,-0.019142581,4.895715,12.265609,0.028710645,-0.16508621,-0.002290743,-27.13125,-12.88125,-47.25,0.20904611,0.18481745,0.67945755,1000.91473, , , , 
2026-03-20 17:34:39.083,-0.19621146,4.642076,10.092926,0.27550003,0.029168794,-0.062155493,-27.31875,-12.58125,-47.11875,0.21047525,0.1854633,0.67878217,1000.91473, , , , 
2026-03-20 17:34:39.103,-0.5982057,4.6468616,8.221739,0.23029602,0.23075417,-0.076816246,-27.2625,-12.31875,-47.1375,0.21106054,0.18847437,0.6780762,1000.91473, , , , 
2026-03-20 17:34:39.123,-1.253839,4.546363,7.3028946,-0.020158539,0.15012002,0.057574004,-27.187502,-12.337501,-47.025,0.21011706,0.19082387,0.678188,1000.92175, , , , 
2026-03-20 17:34:39.143,-0.8662018,4.354937,6.0155563,-0.3536907,-0.055130545,0.21762058,-27.112501,-12.356251,-47.025,0.20880988,0.18975776,0.6795193,1000.92175, , , , 
2026-03-20 17:34:39.163,-0.08135597,3.9098723,5.814559,-0.74464417,-0.18585561,0.3263545,-26.79375,-12.3,-47.0625,0.20641099,0.18448274,0.6821862,1000.92175, , , , 
2026-03-20 17:34:39.183,0.57427746,3.426522,6.4845495,-0.8643737,-0.19196425,0.2762636,-26.587502,-12.187501,-46.93125,0.2026487,0.17672454,0.6854464,1000.92175, , , , 
2026-03-20 17:34:39.203,0.4881358,3.4360933,6.580262,-0.7189878,-0.030695954,0.16386448,-26.60625,-11.962501,-46.893753,0.19845045,0.16980863,0.68810844,1000.9288, , , , 
2026-03-20 17:34:39.223,-0.8853444,4.0773697,7.719246,-0.46120292,0.27595815,0.16386448,-26.775002,-11.64375,-46.893753,0.19368525,0.16620247,0.69033283,1000.9288, , , , 
2026-03-20 17:34:39.243,-0.66999036,4.182654,7.4033933,-0.14599667,0.35659233,0.3349066,-27.000002,-11.231251,-46.8375,0.1897519,0.16615242,0.69317496,1000.9288, , , , 
2026-03-20 17:34:39.264,0.57906306,4.005585,7.140183,-0.045814857,0.14156792,0.32268932,-26.98125,-10.725,-46.725002,0.1879116,0.16670217,0.69619375,1000.9288, , , , 
2026-03-20 17:34:39.283,1.0145568,3.9625144,6.876972,0.07880156,-0.18463388,0.16264275,-26.75625,-10.200001,-46.631252,0.18846643,0.16628224,0.6978764,1000.9273, , , , 
2026-03-20 17:34:39.303,0.9379865,4.3836513,5.517849,-0.0018325944,-0.46807513,-0.023060145,-26.456251,-9.675,-46.7625,0.19147272,0.1642457,0.6975691,1000.9273, , , , 
2026-03-20 17:34:39.323,0.17228323,5.1254263,5.6949177,-0.20097451,-0.5389354,-0.046273008,-26.343752,-9.28125,-46.96875,0.19442847,0.16015933,0.6963511,1000.9273, , , , 
2026-03-20 17:34:39.343,0.02871387,5.517849,7.01097,-0.2498437,-0.46440995,0.06368265,-26.56875,-9.01875,-47.25,0.19593893,0.15637954,0.69584626,1000.9273, , , , 
2026-03-20 17:34:39.363,1.1533405,5.5657053,8.159525,0.028710645,-0.0697913,0.053908817,-26.962502,-8.868751,-47.362503,0.19771317,0.1522179,0.6959232,1000.9224, , , , 
2026-03-20 17:34:39.383,0.91884387,5.881558,8.346166,0.320704,0.31749696,-0.10613775,-27.4125,-8.75625,-47.04375,0.19809976,0.1545181,0.69570833,1000.9224, , , , 
2026-03-20 17:34:39.403,0.014356935,6.599405,8.1738825,0.28893903,0.4714349,-0.07192933,-27.675001,-8.55,-46.65,0.19736044,0.1601003,0.6952433,1000.9224, , , , 
2026-03-20 17:34:39.423,-0.41156548,6.4845495,9.370294,-0.033597562,0.23686282,0.044134982,-27.806252,-8.400001,-46.3875,0.19605584,0.16313411,0.6954956,1000.9224, , , , 
2026-03-20 17:34:39.443,-0.37806597,6.3457656,11.112268,-0.31703883,-0.01725693,0.16386448,-27.750002,-8.418751,-46.425003,0.19384183,0.1625108,0.6968585,1000.90985, , , , 
2026-03-20 17:34:39.463,0.27756742,6.4941206,12.643675,-0.21197008,-0.117438756,0.21395539,-27.431252,-8.38125,-46.6875,0.19257814,0.15968062,0.69853234,1000.90985, , , , 
2026-03-20 17:34:39.483,1.2107682,6.498906,11.609976,0.0030543238,-0.13209951,0.110108376,-27.13125,-8.38125,-47.025,0.1932231,0.15779898,0.69954884,1000.90985, , , , 
2026-03-20 17:34:39.503,1.5218352,6.498906,11.174481,0.011606431,-0.041691523,-0.012064579,-26.8875,-8.2875,-47.11875,0.19388202,0.15739542,0.69967985,1000.90985, , , , 
2026-03-20 17:34:39.523,1.3591232,5.7427745,10.9352,0.059253883,-0.09789108,-0.082924895,-26.737501,-8.0625,-47.025,0.19465841,0.15713249,0.6991563,1000.9139, , , , 
2026-03-20 17:34:39.543,1.1676974,4.895715,10.279566,0.13255766,-0.025809037,-0.1036943,-26.925001,-7.9500003,-46.96875,0.19565128,0.15743305,0.69821686,1000.9139, , , , 
2026-03-20 17:34:39.563,1.2299109,4.45065,9.786645,0.19120067,0.06459895,-0.076816246,-27.187502,-7.9125004,-46.95,0.19637738,0.15890352,0.6974221,1000.9139, , , , 
2026-03-20 17:34:39.583,1.5170496,4.2927237,9.068798,0.16432263,0.046273008,-0.12079851,-27.337502,-7.9500003,-46.893753,0.19709595,0.1606689,0.6966857,1000.9139, , , , 
2026-03-20 17:34:39.603,1.253839,4.5655055,8.705089,0.13255766,-1.527162E-4,-0.15989386,-27.431252,-8.137501,-46.631252,0.1976971,0.16205464,0.6955412,1000.929, , , , 
2026-03-20 17:34:39.623,1.3639089,4.5559344,7.6666036,-0.01282816,0.026725333,-0.15989386,-27.468752,-8.606251,-46.2,0.19794759,0.16284935,0.69436044,1000.929, , , , 
2026-03-20 17:34:39.643,1.2777673,4.3070807,8.145168,-0.22663084,0.11957678,-0.20265439,-27.300001,-9.0375,-45.975002,0.19630025,0.16269188,0.6935402,1000.929, , , , 
2026-03-20 17:34:39.663,1.1964114,3.8093736,9.360723,-0.16065744,0.19410229,-0.2698495,-27.150002,-9.243751,-46.068752,0.19321533,0.16268682,0.69271785,1000.929, , , , 
2026-03-20 17:34:39.683,1.105484,3.4504502,9.2075815,0.054366965,0.056046844,-0.3932442,-27.093752,-9.3,-46.36875,0.19125219,0.16366762,0.6909208,1000.93536, , , , 
2026-03-20 17:34:39.703,0.80877405,3.2590244,7.8580294,0.27794346,-0.052687086,-0.5215258,-26.8875,-9.243751,-46.631252,0.19172132,0.16551316,0.6875095,1000.93536,37.88754656,127.73739954,170.3826904296875,1.52
2026-03-20 17:34:39.723,0.047856454,3.5318062,6.7812595,0.49663305,0.059712034,-0.57650363,-26.737501,-9.31875,-46.74375,0.19348232,0.16917287,0.6830158,1000.93536, , , , 
2026-03-20 17:34:39.743,-0.93320084,4.3070807,5.0009995,0.5112938,0.058490302,-0.42134398,-26.587502,-9.50625,-46.59375,0.19570449,0.1746196,0.67871124,1000.93536, , , , 
2026-03-20 17:34:39.763,-0.91884387,4.8909297,5.15414,0.22418737,-0.110108376,-0.13912445,-26.268751,-9.618751,-46.331253,0.19787684,0.1777401,0.6759915,1000.93835, , , , 
2026-03-20 17:34:39.783,0.19621146,4.536792,5.761917,0.15210533,-0.15164718,0.025809037,-25.987501,-9.731251,-46.3125,0.20004655,0.17797904,0.6751229,1000.93835, , , , 
2026-03-20 17:34:39.803,1.2203395,4.3262234,6.2644095,0.33902994,0.15989386,-0.008399391,-25.968752,-10.03125,-46.29375,0.20190632,0.1794504,0.67480814,1000.93835, , , , 
2026-03-20 17:34:39.823,0.23928227,4.4075794,6.652047,0.6200278,0.6033817,-0.11957678,-26.00625,-10.44375,-46.350002,0.20242798,0.18580468,0.67420083,1000.93835, , , , 
2026-03-20 17:34:39.843,-0.7082755,4.867001,6.838687,0.59437144,0.49342602,0.006261364,-26.175001,-10.9875,-46.3875,0.20254368,0.1943514,0.67370677,1000.93066, , , , 
2026-03-20 17:34:39.863,-0.033499517,4.761717,6.8339014,0.34758207,-0.11133011,0.13698642,-26.362501,-11.4375,-46.350002,0.20463341,0.19873668,0.6737549,1000.93066, , , , 
2026-03-20 17:34:39.883,0.5168497,4.910072,6.762117,0.19364414,-0.45341438,0.14065161,-26.400002,-11.75625,-46.425003,0.20897257,0.19776098,0.67352253,1000.93066, , , , 
2026-03-20 17:34:39.903,0.31585258,5.2642097,7.058827,0.19853105,-0.14798199,0.15897755,-26.343752,-12.150001,-46.4625,0.21281311,0.19647956,0.67341655,1000.93066, , , , 
2026-03-20 17:34:39.923,0.6269195,5.407779,7.8484583,0.10079269,0.25396705,0.22861615,-26.2875,-12.3,-46.631252,0.21387963,0.19763047,0.6745861,1000.92706, , , , 
2026-03-20 17:34:39.943,1.0863415,5.288138,9.547362,-0.060475614,0.1989892,0.17363831,-26.325,-12.3,-46.6875,0.21258052,0.1989987,0.67659205,1000.92706, , , , 
2026-03-20 17:34:39.963,1.1916257,5.4843497,10.226924,-0.09224058,-0.10766492,0.041691523,-26.325,-12.262501,-46.5,0.21201478,0.19820516,0.6775576,1000.92706, , , , 
2026-03-20 17:34:39.983,0.37806597,5.8241305,10.499705,-0.04214967,-0.033139415,-0.046273008,-26.362501,-12.225,-46.350002,0.21217415,0.19685501,0.6774068,1000.92706, , , , 
2026-03-20 17:34:40.003,-0.49292147,6.04427,9.882358,0.06536253,0.2600757,0.008704823,-26.19375,-12.39375,-46.21875,0.21152808,0.19771248,0.67735755,1000.9328, , , , 
2026-03-20 17:34:40.023,-0.8279166,5.9581285,9.059227,-0.20952661,0.4384482,0.17608178,-25.743752,-12.525001,-46.18125,0.20963004,0.19945939,0.6783739,1000.9328, , , , 
2026-03-20 17:34:40.043,-0.5886344,5.178068,12.08854,-0.6688969,0.048716467,0.29092434,-25.425001,-12.525001,-46.3875,0.2048178,0.19843368,0.6815001,1000.9328, , , , 
2026-03-20 17:34:40.063,0.5982057,4.3645086,13.418949,-0.42088583,-0.25427246,0.19196425,-25.331251,-12.337501,-46.425003,0.20091735,0.19142964,0.6850849,1000.9328, , , , 
2026-03-20 17:34:40.083,1.1246266,4.1491547,10.561919,0.022601997,-0.2933678,-0.11713332,-25.368752,-11.94375,-46.3125,0.20156114,0.18794222,0.6852355,1000.94025, , , , 
2026-03-20 17:34:40.103,-0.2009971,4.3932223,6.666404,-0.04459313,-0.25671592,-0.29184064,-25.406252,-11.56875,-46.3125,0.20327464,0.18668807,0.6830445,1000.94025, , , , 
2026-03-20 17:34:40.123,-1.0193424,4.6229334,6.943971,-0.5039635,0.16111559,-0.16966769,-25.35,-11.306251,-46.050003,0.20224103,0.18530394,0.6818706,1000.94025, , , , 
2026-03-20 17:34:40.143,-0.57427746,4.1635113,9.68136,-0.53206325,0.5752819,-0.049938194,-25.3875,-11.212501,-45.787502,0.19411014,0.1840183,0.6831395,1000.94025, , , , 
2026-03-20 17:34:40.163,-0.971486,4.2687955,9.805787,-0.31093016,0.3028362,-0.053603385,-25.518751,-11.043751,-45.600002,0.18763994,0.18451284,0.68449265,1000.9479, , , , 
2026-03-20 17:34:40.183,-0.8566305,4.642076,8.030313,-0.20219624,-0.19318599,-0.019394957,-25.5375,-10.762501,-45.393753,0.18559693,0.18313713,0.6847148,1000.9479, , , , 
2026-03-20 17:34:40.203,-0.44985065,4.7952166,6.5659056,-0.0971275,-0.35201082,0.064904384,-25.462502,-10.51875,-45.45,0.18625087,0.18079388,0.68457943,1000.9479, , , , 
2026-03-20 17:34:40.223,-0.4019942,4.74736,5.211568,-0.0067195124,-0.22250749,0.15409064,-25.29375,-10.2375,-45.7125,0.18865755,0.17757122,0.68473923,1000.9479, , , , 
2026-03-20 17:34:40.243,-0.043070808,4.5272202,5.1014977,-0.03604102,-0.062460925,0.2554942,-25.10625,-10.14375,-45.99375,0.18999736,0.17619626,0.6858908,1000.956, , , , 
2026-03-20 17:34:40.263,0.6987042,4.302295,6.058627,0.03970621,0.15500695,0.21151192,-25.368752,-10.200001,-46.18125,0.19001357,0.17614558,0.6876799,1000.956, , , , 
2026-03-20 17:34:40.283,0.55034924,4.570291,6.71426,0.13500112,0.18066326,0.08933897,-25.743752,-10.03125,-46.237503,0.18960936,0.17780437,0.6888906,1000.956, , , , 
2026-03-20 17:34:40.303,0.52163535,5.0009995,6.1399827,0.16432263,-0.066126116,0.024587307,-25.893751,-9.8625,-46.21875,0.19040321,0.17939661,0.6891037,1000.956, , , , 
2026-03-20 17:34:40.323,0.4642076,5.503492,5.8337016,-0.0030543238,-0.22861615,-0.008399391,-25.9125,-9.84375,-46.050003,0.19232392,0.17892636,0.6885987,1000.95154, , , , 
2026-03-20 17:34:40.343,0.52163535,5.5704913,7.2693954,-0.007941242,-0.16508621,-0.002290743,-25.687502,-9.84375,-45.9,0.19364908,0.17736806,0.6881969,1000.95154, , , , 
2026-03-20 17:34:40.363,0.3924229,5.8097734,7.618747,0.18875721,0.015729768,-0.06459895,-25.425001,-9.900001,-45.73125,0.19483596,0.17762913,0.6876768,1000.95154, , , , 
2026-03-20 17:34:40.383,0.18185452,6.3074803,7.4033933,0.11300998,0.08048143,-0.08170316,-25.29375,-9.900001,-45.375,0.19562529,0.1794691,0.6869244,1000.95154, , , , 
2026-03-20 17:34:40.403,-0.20578274,6.2213387,8.896515,-0.049480047,0.08170316,-0.091477,-25.25625,-9.9375,-45.300003,0.1951287,0.18041478,0.6864154,1000.93854, , , , 
2026-03-20 17:34:40.423,-0.57906306,6.259624,10.844273,0.011606431,0.075594515,-0.052381653,-25.087502,-10.125,-45.300003,0.19411387,0.18096922,0.6861201,1000.93854, , , , 
2026-03-20 17:34:40.443,0.40677986,6.364908,10.025927,0.025045456,-0.116217025,-0.057268575,-24.825,-10.21875,-45.318752,0.19424012,0.18132147,0.685889,1000.93854, , , , 
2026-03-20 17:34:40.463,0.7609176,6.704689,9.408579,-0.30115634,-0.06368265,-0.18432845,-24.656252,-10.425,-45.375,0.19447903,0.17955993,0.6848273,1000.93854, , , , 
2026-03-20 17:34:40.483,0.33499518,6.8051877,12.361321,-0.37201664,0.27351472,-0.23686282,-24.45,-10.44375,-45.1875,0.1907093,0.17818722,0.6842497,1000.9364, , , , 
2026-03-20 17:34:40.503,-0.10049855,6.101698,13.600804,-0.116675176,0.45677415,-0.18799363,-24.50625,-10.3125,-44.850002,0.18589436,0.17957829,0.68396217,1000.9364, , , , 
2026-03-20 17:34:40.523,0.38285163,5.020142,12.260823,0.11300998,0.15989386,-0.11102467,-24.750002,-10.3125,-44.662502,0.18329968,0.18225388,0.6836335,1000.9364, , , , 
2026-03-20 17:34:40.543,1.038485,4.5128636,10.102497,0.01527162,-0.14798199,-0.107359484,-24.7875,-10.2375,-44.79375,0.1837388,0.18278146,0.68278205,1000.9364, , , , 
2026-03-20 17:34:40.563,1.1629118,4.321438,9.600004,-0.083688475,-0.13209951,-0.13545926,-24.69375,-10.200001,-45.0,0.18428692,0.18144651,0.6817941,1000.94025, , , , 
2026-03-20 17:34:40.583,1.0241281,4.4171505,9.083155,-0.08857539,0.03894263,-0.16111559,-24.525002,-10.21875,-45.131252,0.18372412,0.18069413,0.6808859,1000.94025, , , , 
2026-03-20 17:34:40.603,0.44027936,4.421936,8.585447,-0.16920954,0.108581215,-0.18555018,-24.375002,-10.2375,-45.15,0.18190216,0.1807855,0.6801022,1000.94025, , , , 
2026-03-20 17:34:40.623,-0.023928227,4.493721,8.427522,-0.2083049,-0.029474225,-0.14767656,-24.31875,-10.106251,-45.037502,0.17989595,0.1800751,0.6793634,1000.94025, , , , 
2026-03-20 17:34:40.643,0.35413775,4.4075794,7.9011,-0.14355323,-0.20418155,-0.06459895,-24.2625,-9.900001,-44.98125,0.17928314,0.17815569,0.6787685,1000.9532, , , , 
2026-03-20 17:34:40.663,0.66041905,4.0773697,6.9583282,-0.0140498895,-0.2762636,-0.042607818,-24.31875,-9.8625,-45.037502,0.18049662,0.17590727,0.6781154,1000.9532, , , , 
2026-03-20 17:34:40.683,0.9284152,3.8380876,6.259624,0.077579826,0.00962112,-0.08048143,-24.31875,-9.8625,-45.018753,0.1818244,0.17511779,0.67738783,1000.9532, , , , 
2026-03-20 17:34:40.703,0.7800602,3.5653057,7.331609,0.2131918,0.3639227,-0.18799363,-24.225,-9.918751,-44.831253,0.18130894,0.17746538,0.6766335,1000.9532,37.8875533,127.73741302,170.5543212890625,1.46
2026-03-20 17:34:40.723,0.22492532,3.6466618,7.771888,0.41844237,0.39446592,-0.31749696,-24.225,-10.087501,-44.643753,0.18026206,0.18301,0.67504877,1000.956, , , , 
2026-03-20 17:34:40.743,-0.93320084,4.182654,7.207182,0.40378162,-0.04780017,-0.32360563,-23.962502,-10.14375,-44.41875,0.18137586,0.1877061,0.6722333,1000.956, , , , 
2026-03-20 17:34:40.763,-1.2873386,4.5415773,6.814759,0.30970845,-0.3837758,-0.1036943,-23.56875,-10.200001,-44.381252,0.18509956,0.18863137,0.669518,1000.956, , , , 
2026-03-20 17:34:40.783,-0.15314065,4.2687955,6.5898337,0.3866774,-0.27748534,0.04780017,-23.34375,-10.40625,-44.475002,0.18969649,0.18857528,0.66813445,1000.956, , , , 
2026-03-20 17:34:40.803,0.8422736,3.9673,5.623133,0.4856375,-0.066126116,-0.004734202,-23.118752,-10.725,-44.4,0.19406138,0.19036475,0.6671954,1000.9498, , , , 
2026-03-20 17:34:40.823,0.8566305,3.9720855,5.163711,0.3830122,0.09269873,-0.1782198,-23.025002,-11.025001,-44.1375,0.19638595,0.19282737,0.6661545,1000.9498, , , , 
2026-03-20 17:34:40.843,-0.06699903,4.5128636,6.096912,0.19364414,0.1574504,-0.2686278,-22.931252,-11.231251,-43.800003,0.19746421,0.19698495,0.6637725,1000.9498, , , , 
2026-03-20 17:34:40.863,-1.4548361,5.3742795,7.058827,0.14355323,0.07925971,-0.089033544,-22.743752,-11.3625,-43.40625,0.19742317,0.19935586,0.6622386,1000.9498, , , , 
2026-03-20 17:34:40.883,-0.7896315,5.288138,7.542177,0.15821397,0.08659008,0.19562945,-22.63125,-11.700001,-43.29375,0.198064,0.20087151,0.6625746,1000.943, , , , 
2026-03-20 17:34:40.903,0.9379865,4.9292145,8.16431,0.08124501,0.20387612,0.15897755,-22.725,-11.962501,-43.40625,0.19841135,0.20189546,0.66371214,1000.943, , , , 
2026-03-20 17:34:40.923,0.60777694,5.1254263,9.178867,-0.010384701,0.17333288,-0.15989386,-22.95,-12.150001,-43.48125,0.19734403,0.20373753,0.6643673,1000.943, , , , 
2026-03-20 17:34:40.943,-1.6510476,6.3122663,10.8251295,-0.010384701,0.14156792,-0.13301581,-23.15625,-12.31875,-43.48125,0.19559813,0.20505425,0.66346544,1000.943, , , , 
2026-03-20 17:34:40.963,-1.9334008,6.2117677,9.877572,-0.037262753,0.10002911,0.19196425,-23.118752,-12.337501,-43.443752,0.1947719,0.20584753,0.6639031,1000.9392, , , , 
2026-03-20 17:34:40.983,-1.4979069,5.733203,8.848659,-0.43554658,0.1660025,0.43997535,-22.78125,-12.4125,-43.443752,0.1936559,0.20527825,0.66589695,1000.9392, , , , 
2026-03-20 17:34:41.003,-0.9236295,4.7282176,11.174481,-0.92179495,0.0377209,0.6012437,-22.40625,-12.281251,-43.518753,0.18795045,0.19971868,0.672372,1000.9392, , , , 
2026-03-20 17:34:41.023,0.19142582,4.024728,12.528819,-0.87170404,-0.12965605,0.5377137,-21.862501,-11.868751,-43.74375,0.18300772,0.19171607,0.678155,1000.9392, , , , 
2026-03-20 17:34:41.043,0.56470615,3.5318062,12.361321,-0.5577195,-0.0013744457,0.27015495,-21.487501,-11.2875,-43.987503,0.17924726,0.18533008,0.68221176,1000.9407, , , , 
2026-03-20 17:34:41.063,-0.52163535,3.9673,11.542976,-0.21807873,0.17333288,0.056352276,-21.45,-10.44375,-44.11875,0.17681561,0.1833454,0.683732,1000.9407, , , , 
2026-03-20 17:34:41.083,-1.1485549,4.1635113,9.609575,-0.22052218,-0.025809037,0.060017463,-21.45,-9.65625,-44.175003,0.1740523,0.18259698,0.6848816,1000.9407, , , , 
2026-03-20 17:34:41.103,-0.971486,4.1347976,8.499306,-0.4196641,-0.3752237,0.10033454,-21.65625,-9.1875,-44.25,0.17333013,0.17881975,0.6856646,1000.9407, , , , 
2026-03-20 17:34:41.123,-0.5168497,4.1108694,7.9920278,-0.44409868,-0.36178467,0.09544762,-21.88125,-8.64375,-44.268753,0.17312118,0.17275494,0.68644416,1000.9454, , , , 
2026-03-20 17:34:41.143,-0.20578274,4.0965123,7.771888,-0.25961754,0.051159926,0.062460925,-22.0125,-8.212501,-44.287502,0.17229246,0.16968523,0.687098,1000.9454, , , , 
2026-03-20 17:34:41.163,-0.21535404,4.0438704,7.192825,0.018936807,0.2930624,0.027030766,-22.050001,-7.9125004,-44.325,0.1696103,0.16995029,0.68814814,1000.9454, , , , 
2026-03-20 17:34:41.183,-0.1052842,4.125226,5.5369916,0.09590577,0.17211115,0.056352276,-22.06875,-7.51875,-44.287502,0.16855226,0.17222771,0.68867797,1000.9454, , , , 
2026-03-20 17:34:41.203,-0.5072784,4.2592244,4.4458647,-0.13255766,-0.057574004,0.1443168,-21.993752,-7.2000003,-44.1375,0.16846827,0.17238878,0.68937707,1000.94727, , , , 
2026-03-20 17:34:41.223,-0.55034924,4.45065,5.938986,-0.2535089,0.0010690134,0.33124143,-21.806252,-7.0312505,-44.0625,0.16795671,0.17082404,0.69068843,1000.94727, , , , 
2026-03-20 17:34:41.243,0.66999036,3.8668015,7.1976104,-0.08491021,0.052381653,0.36300638,-21.675001,-6.8625,-44.0625,0.1667815,0.1687548,0.6942829,1000.94727, , , , 
2026-03-20 17:34:41.263,1.2251252,3.871587,6.9296145,0.07880156,-0.0368046,0.17119485,-21.525002,-6.5062504,-44.081253,0.16704565,0.16839334,0.69584525,1000.94727, , , , 
2026-03-20 17:34:41.283,0.28235307,4.6372905,6.795616,0.09957096,-0.14187334,0.04291325,-21.50625,-6.01875,-44.175003,0.16886397,0.16829917,0.69640833,1000.9443, , , , 
2026-03-20 17:34:41.303,-0.32542387,5.312066,7.2502527,-0.005497783,-0.19318599,0.10155627,-21.581251,-5.4375,-44.268753,0.17020275,0.16776478,0.6963659,1000.9443, , , , 
2026-03-20 17:34:41.323,0.32542387,5.278567,8.260024,-0.005497783,-0.16752967,0.13332124,-21.618752,-5.11875,-44.25,0.17209697,0.16592048,0.6969834,1000.9443, , , , 
2026-03-20 17:34:41.343,1.2777673,5.144569,8.810373,0.18631376,-0.14798199,-0.014508039,-21.712502,-4.93125,-44.4,0.17389716,0.16537364,0.69708145,1000.9443, , , , 
2026-03-20 17:34:41.363,1.1772687,5.608776,8.671589,0.3158171,-0.09544762,-0.22098033,-21.862501,-4.89375,-44.71875,0.17649749,0.16658077,0.69553655,1000.9388, , , , 
2026-03-20 17:34:41.383,0.14356937,6.1160545,8.709874,0.2999346,0.03527744,-0.3394881,-22.125,-4.8187504,-44.925003,0.1784943,0.16919842,0.692928,1000.9388, , , , 
2026-03-20 17:34:41.403,-1.2777673,6.719046,9.226724,0.15577053,0.19288056,-0.18921536,-22.2,-4.6125,-44.98125,0.1788654,0.17223088,0.6907243,1000.9388, , , , 
2026-03-20 17:34:41.423,-0.8327023,6.7669024,10.107283,-0.011606431,0.1989892,0.090560704,-22.181252,-4.6125,-44.90625,0.1777453,0.17447601,0.6906987,1000.9388, , , , 
2026-03-20 17:34:41.443,0.49292147,6.503692,10.336994,-0.21197008,-0.025809037,0.14798199,-22.125,-4.5375004,-44.7,0.17674103,0.17405754,0.69196993,1000.93024, , , , 
2026-03-20 17:34:41.463,0.6364908,6.2213387,11.5621195,-0.40255988,-0.117438756,0.052687086,-22.03125,-4.51875,-44.5875,0.17579634,0.1718142,0.6928074,1000.93024, , , , 
2026-03-20 17:34:41.483,-0.30149564,5.7140603,13.57209,-0.28527385,0.14767656,0.12965605,-22.125,-4.40625,-44.90625,0.1728963,0.16812673,0.69413966,1000.93024, , , , 
2026-03-20 17:34:41.503,0.7322037,4.4602213,13.663017,0.033597562,0.20265439,0.17119485,-22.237501,-3.9562502,-45.15,0.17071095,0.16831003,0.6959451,1000.93024, , , , 
2026-03-20 17:34:41.523,1.2155539,4.1778684,11.624332,0.24495678,-0.08078687,-0.054825112,-22.275002,-3.54375,-45.318752,0.17150185,0.16948658,0.69617325,1000.9339, , , , 
2026-03-20 17:34:41.543,0.46899325,4.6037908,9.5665045,0.23640467,-0.16264275,-0.20876303,-22.40625,-3.3750002,-45.5625,0.17401367,0.17034541,0.69444263,1000.9339, , , , 
2026-03-20 17:34:41.563,0.1052842,4.8909297,8.240881,0.13377939,-0.023365578,-0.13912445,-22.59375,-3.35625,-45.581253,0.17579876,0.17131479,0.69266564,1000.9339, , , , 
2026-03-20 17:34:41.583,0.076570325,4.847859,7.7001033,-0.13255766,0.115911596,-0.019394957,-22.81875,-3.6562502,-45.61875,0.17535952,0.17187947,0.692218,1000.9339, , , , 
2026-03-20 17:34:41.603,0.42592242,4.354937,8.547162,-0.32559094,0.19776747,0.056352276,-22.95,-4.0125003,-45.61875,0.17254865,0.17116448,0.69317335,1000.9417, , , , 
2026-03-20 17:34:41.623,0.6125626,3.8333018,9.169296,-0.22663084,0.1660025,-0.014508039,-23.00625,-4.1062503,-45.600002,0.169243,0.17023987,0.6942316,1000.9417, , , , 
2026-03-20 17:34:41.643,0.5407779,3.6993039,8.685946,0.032375835,0.076816246,-0.14034618,-22.987501,-3.99375,-45.75,0.16751248,0.1703792,0.6941265,1000.9417, , , , 
2026-03-20 17:34:41.663,0.062213387,3.7998023,7.5086775,0.28893903,0.048716467,-0.18310672,-22.96875,-3.8625002,-46.068752,0.16798623,0.17218408,0.6927654,1000.9417, , , , 
2026-03-20 17:34:41.683,-0.59342,3.7998023,5.8672013,0.32314748,0.019394957,-0.12202024,-22.95,-3.825,-46.443752,0.16930228,0.17440732,0.6915242,1000.94324, , , , 
2026-03-20 17:34:41.703,-0.47377887,3.790231,6.690332,0.16798781,-0.008704823,0.023365578,-22.893751,-3.9562502,-46.725002,0.17119496,0.17684032,0.6904433,1000.94324,37.88756062,127.73742685,170.7786865234375,1.5
2026-03-20 17:34:41.723,0.31585258,3.4313076,8.111669,0.28405213,-0.116217025,0.07956514,-22.95,-4.03125,-46.893753,0.17300743,0.17775904,0.6904415,1000.94324, , , , 
2026-03-20 17:34:41.743,0.9379865,3.0532417,7.838887,0.5247328,-0.33124143,-0.06826414,-23.118752,-3.9375002,-46.96875,0.17741166,0.17886364,0.6894372,1000.94324, , , , 
2026-03-20 17:34:41.763,0.55513483,3.3786657,6.7334027,0.8167262,-0.35567603,-0.27595815,-23.493752,-4.0687504,-47.006252,0.18239066,0.1803537,0.68726903,1000.9405, , , , 
2026-03-20 17:34:41.783,-0.148355,4.6707897,4.584648,0.8289435,-0.13820815,-0.22464553,-23.868752,-4.3125,-46.987503,0.19138578,0.18580854,0.68241066,1000.9405, , , , 
2026-03-20 17:34:41.803,-0.4211368,5.288138,4.0103707,0.49174616,0.052381653,0.006261364,-24.243752,-4.8,-46.800003,0.19615133,0.1905541,0.6802045,1000.9405, , , , 
2026-03-20 17:34:41.823,0.526421,5.0775695,5.828916,0.16432263,0.2234238,0.20662501,-24.69375,-5.625,-46.55625,0.19754426,0.19348435,0.6807555,1000.9405, , , , 
2026-03-20 17:34:41.843,1.0193424,4.7138605,7.9393854,0.12034036,0.23564109,0.15409064,-24.843752,-6.1687503,-46.331253,0.19727926,0.1950081,0.6819923,1000.9258, , , , 
2026-03-20 17:34:41.863,-0.25842485,5.072784,9.944571,0.34269515,0.23075417,0.07223476,-24.768751,-6.4875,-46.275,0.1971471,0.19745295,0.6828859,1000.9258, , , , 
2026-03-20 17:34:41.883,-0.28713873,5.584848,9.111869,0.47586367,0.19654575,0.14065161,-24.562502,-6.7312503,-46.29375,0.19906142,0.20277977,0.68322843,1000.9258, , , , 
2026-03-20 17:34:41.903,-0.20578274,5.800202,8.973084,0.2498437,0.047494736,0.19562945,-24.056252,-6.7125,-46.40625,0.20095877,0.20580633,0.6838483,1000.9258, , , , 
2026-03-20 17:34:41.923,0.44985065,5.5704913,9.078369,-0.009162972,-0.117438756,0.21273366,-23.71875,-6.76875,-46.706253,0.20218985,0.20602301,0.68467766,1000.92175, , , , 
2026-03-20 17:34:41.943,0.37328035,6.111269,9.2075815,-0.2498437,-0.055130545,0.16019928,-23.643751,-6.9,-46.95,0.20282437,0.20384243,0.6862787,1000.92175, , , , 
2026-03-20 17:34:41.963,-0.72263247,6.202196,10.298709,-0.45509425,0.13790272,0.23228133,-23.7,-7.05,-47.193752,0.20050327,0.20120136,0.68827254,1000.92175, , , , 
2026-03-20 17:34:41.983,-0.6029913,5.2737813,12.9021,-0.28893903,0.32849252,0.34101525,-23.962502,-7.33125,-47.4,0.19648823,0.1993657,0.69162023,1000.92175, , , , 
2026-03-20 17:34:42.003,-0.17228323,4.3740797,11.370693,0.053145237,0.4958695,0.20784675,-24.13125,-7.4625,-47.456253,0.19421634,0.20019451,0.6939409,1000.92816, , , , 
2026-03-20 17:34:42.023,-0.8709874,4.072584,9.446864,-0.20341797,0.40423977,0.08689552,-24.093752,-7.5750003,-47.475002,0.19009559,0.20360753,0.6965036,1000.92816, , , , 
2026-03-20 17:34:42.043,-0.7896315,3.818945,9.8632145,-0.637132,-0.050243627,0.01847866,-23.94375,-7.65,-47.456253,0.18581082,0.20155364,0.6981039,1000.92816, , , , 
2026-03-20 17:34:42.063,-0.47856453,3.5126636,9.930214,-0.76052666,-0.29092434,-0.059712034,-23.8125,-7.51875,-47.475002,0.18220104,0.1949752,0.6990707,1000.92816, , , , 
2026-03-20 17:34:42.083,-0.8327023,3.6083765,9.580862,-0.49174616,-0.16386448,-0.08536835,-23.831251,-7.3125005,-47.550003,0.17928167,0.18879035,0.6993236,1000.93665, , , , 
2026-03-20 17:34:42.103,-1.4213367,3.9625144,8.556734,-0.17043127,0.025503604,0.04046979,-23.8875,-6.9375005,-47.550003,0.177317,0.18606685,0.69955885,1000.93665, , , , 
2026-03-20 17:34:42.123,-0.7704889,4.034299,6.9056864,0.04092794,0.09880738,0.26526803,-24.0,-6.3750005,-47.550003,0.1766602,0.18613134,0.7008112,1000.93665, , , , 
2026-03-20 17:34:42.143,0.32542387,3.6610186,5.771488,-0.06658426,-0.13332124,0.3251328,-24.056252,-6.0,-47.550003,0.17725834,0.18557492,0.7028898,1000.93665, , , , 
2026-03-20 17:34:42.163,0.02871387,3.751946,5.85763,-0.19364414,-0.33612835,0.28603745,-24.0375,-5.83125,-47.550003,0.17844786,0.18313831,0.70424366,1000.93665, , , , 
2026-03-20 17:34:42.183,-0.25842485,4.249653,6.4606214,0.07024945,-0.058795735,0.42775807,-24.187502,-5.775,-47.475002,0.1805405,0.1794673,0.7066826,1000.94556, , , , 
2026-03-20 17:34:42.203,1.3160524,3.9625144,5.541777,0.29626942,0.35292712,0.39843655,-24.487501,-5.7000003,-47.30625,0.18163213,0.18119796,0.7094737,1000.94556, , , , 
2026-03-20 17:34:42.223,1.942972,3.842873,5.1924253,0.2131918,0.51419544,0.102778,-24.69375,-5.4375,-47.100002,0.18072802,0.18573998,0.7114811,1000.94556, , , , 
2026-03-20 17:34:42.243,0.9762716,4.2448673,6.0251274,0.023823727,0.27473643,-0.240528,-24.806252,-5.11875,-46.987503,0.17849815,0.18931742,0.71144545,1000.953, , , , 
2026-03-20 17:34:42.263,0.023928227,4.6372905,6.2644095,-0.07513637,0.063377224,-0.36636615,-24.806252,-4.8375,-47.15625,0.17711802,0.19050734,0.7102067,1000.953, , , , 
2026-03-20 17:34:42.283,-1.3399807,5.680561,8.23131,-0.01282816,0.004734202,-0.26374087,-24.618752,-4.875,-47.53125,0.17528638,0.19111013,0.7076665,1000.953, , , , 
2026-03-20 17:34:42.303,-1.0241281,6.2787666,8.346166,0.1924224,-0.11255184,-0.06582068,-24.393751,-5.0437503,-47.831253,0.17608805,0.19185342,0.70631933,1000.953, , , , 
2026-03-20 17:34:42.323,0.02871387,6.6855464,7.298109,0.2535089,-0.08078687,0.0368046,-24.281252,-5.30625,-48.037502,0.17861181,0.19298519,0.7055921,1000.9498, , , , 
2026-03-20 17:34:42.343,0.5838487,6.6855464,7.853244,0.1301142,0.11346813,0.020922119,-24.31875,-5.9625,-48.16875,0.18004733,0.19448648,0.7054542,1000.9498, , , , 
2026-03-20 17:34:42.363,-0.25842485,6.6089764,9.097511,0.10567961,0.19165882,-0.0108428495,-24.281252,-6.39375,-48.112503,0.17969513,0.19645552,0.7054892,1000.9498, , , , 
2026-03-20 17:34:42.383,-0.7609176,6.5084777,10.030712,0.06902772,0.12324197,0.052687086,-24.243752,-6.6375003,-48.093754,0.17910527,0.19825421,0.705746,1000.9498, , , , 
2026-03-20 17:34:42.403,0.18185452,6.5946193,10.0881405,0.058032155,-0.17241658,0.003817905,-24.150002,-6.8250003,-48.075,0.179692,0.19855563,0.7058987,1000.9454, , , , 
2026-03-20 17:34:42.423,0.5455636,7.240681,8.456235,-0.09834923,-0.432645,-0.11346813,-23.831251,-6.4875,-48.0,0.18193145,0.19661129,0.70491815,1000.9454, , , , 
2026-03-20 17:34:42.443,0.5072784,7.365108,8.12124,-0.46120292,-0.2921461,-0.09269873,-23.681252,-6.3375,-48.131252,0.1828522,0.19233856,0.7039439,1000.9454, , , , 
2026-03-20 17:34:42.463,-0.038285162,6.6855464,10.8969145,-0.61514086,0.23686282,0.03924806,-23.737501,-6.43125,-48.187504,0.17918065,0.18832612,0.70482886,1000.9454, , , , 
2026-03-20 17:34:42.483,-0.16749759,5.4125648,13.840086,-0.3817905,0.48120874,0.22739442,-24.0,-6.4500003,-48.112503,0.17290862,0.18706566,0.7074714,1000.94727, , , , 
2026-03-20 17:34:42.503,1.3064811,4.130012,13.567305,0.011606431,0.13301581,0.15775582,-24.31875,-6.58125,-48.15,0.16958436,0.187381,0.7099359,1000.94727, , , , 
2026-03-20 17:34:42.523,1.579263,3.8955152,11.069198,0.19975278,-0.31413722,-0.10491603,-24.468752,-6.5437503,-48.206253,0.17125341,0.18725707,0.70969474,1000.94727, , , , 
2026-03-20 17:34:42.543,1.268196,4.23051,8.657232,0.126449,-0.43997535,-0.28084508,-24.45,-6.3750005,-48.393753,0.17408067,0.18632703,0.70798343,1000.94727, , , , 
2026-03-20 17:34:42.563,0.8279166,4.4171505,7.5469627,-0.08002329,-0.26160285,-0.3346012,-24.300001,-6.3375,-48.581253,0.17713095,0.18417212,0.70453465,1000.9566, , , , 
2026-03-20 17:34:42.583,0.15792629,4.2592244,8.116454,-0.17287473,-0.084452055,-0.29917103,-24.281252,-6.525,-48.487503,0.17678715,0.18260281,0.7023664,1000.9566, , , , 
2026-03-20 17:34:42.603,0.26799613,3.8524444,8.106883,-0.08857539,-0.06856957,-0.28817546,-24.562502,-6.675,-48.318752,0.17577153,0.18170051,0.70061564,1000.9566, , , , 
2026-03-20 17:34:42.623,0.2727818,3.6131623,7.556534,0.048258316,-0.16386448,-0.35048366,-24.975,-6.675,-48.037502,0.17568138,0.18133682,0.6989846,1000.9566, , , , 
2026-03-20 17:34:42.643,-0.038285162,3.7663028,6.489335,0.13988803,-0.17119485,-0.38347036,-25.181252,-6.5625005,-48.0,0.17707293,0.18134968,0.69535154,1000.97235, , , , 
2026-03-20 17:34:42.663,-0.6125626,4.1491547,6.1639113,0.0971275,-0.057574004,-0.31505352,-25.25625,-6.43125,-48.112503,0.17809303,0.18211713,0.6924889,1000.97235, , , , 
2026-03-20 17:34:42.683,-0.9284152,4.278367,6.6041903,0.054366965,-0.023365578,-0.17944153,-25.237501,-6.5437503,-48.037502,0.17838225,0.18287498,0.6906051,1000.97235, , , , 
2026-03-20 17:34:42.703,-0.6221339,4.0773697,6.771688,0.12156209,-0.012370012,-0.07315106,-25.125002,-6.8625,-47.943752,0.17864169,0.18336822,0.68980724,1000.97235,37.88756736,127.73744147,171.48187255859375,1.55
2026-03-20 17:34:42.723,-0.44506502,4.0151563,6.474978,0.21074834,0.03894263,-0.06582068,-25.2,-7.3125005,-47.850002,0.17976002,0.1849253,0.68885344,1000.97253, , , , 
2026-03-20 17:34:42.743,-1.0145568,4.412365,6.5946193,0.24862197,0.13057235,-0.018173227,-25.25625,-7.51875,-47.850002,0.18063174,0.18729194,0.68819815,1000.97253, , , , 
2026-03-20 17:34:42.763,-0.971486,4.5224347,7.183254,0.29260424,0.12568542,0.10522146,-25.2,-7.5937505,-47.98125,0.18151975,0.1901075,0.6882454,1000.97253, , , , 
2026-03-20 17:34:42.783,-0.4546363,4.503292,7.0492554,0.35491243,0.07437278,0.18585561,-25.237501,-7.65,-48.112503,0.18342982,0.19269854,0.6887619,1000.97253, , , , 
2026-03-20 17:34:42.803,-0.28713873,4.5942197,7.2550383,0.37934703,0.18188499,0.23350306,-25.237501,-7.65,-48.15,0.1854718,0.19572845,0.6896605,1000.96173, , , , 
2026-03-20 17:34:42.823,-0.09092726,4.6803613,7.5086775,0.27794346,0.13668099,0.2689332,-25.181252,-7.8562503,-48.187504,0.18704873,0.19879813,0.69103825,1000.96173, , , , 
2026-03-20 17:34:42.843,0.076570325,5.072784,8.374879,0.10567961,-0.020922119,0.24449863,-24.937502,-8.025001,-48.281254,0.18839307,0.19993044,0.6925042,1000.96173, , , , 
2026-03-20 17:34:42.863,0.4354937,5.2929235,9.509077,0.14844014,-0.029474225,0.2102902,-24.581251,-8.25,-48.43125,0.18956387,0.19969948,0.6934385,1000.96173, , , , 
2026-03-20 17:34:42.883,1.5409778,4.9579287,10.499705,0.42210758,0.2319759,0.053908817,-24.075,-8.3625,-48.487503,0.19138983,0.2018099,0.6944182,1000.95447, , , , 
2026-03-20 17:34:42.903,1.0097711,5.4699926,9.083155,0.4734202,0.21853687,-0.18555018,-23.7,-8.4375,-48.43125,0.1928013,0.20683014,0.69344026,1000.95447, , , , 
2026-03-20 17:34:42.923,-0.6795616,5.895915,8.12124,0.04459313,0.002290743,-0.2197586,-23.6625,-8.8125,-48.393753,0.19345014,0.20980962,0.691594,1000.95447, , , , 
2026-03-20 17:34:42.943,-2.5411777,6.1399827,9.006584,-0.4318814,0.020616686,0.12232567,-23.587502,-9.150001,-48.375004,0.19205661,0.20832515,0.6913725,1000.95447, , , , 
2026-03-20 17:34:42.963,-2.507678,5.2833524,11.227124,-0.6627883,0.34559676,0.54626584,-23.85,-9.4875,-48.43125,0.18750954,0.2051274,0.6950916,1000.9526, , , , 
2026-03-20 17:34:42.983,-1.416551,4.316652,12.97867,-0.6139191,0.3810269,0.7808379,-24.16875,-9.637501,-48.54375,0.18151948,0.20189826,0.70170474,1000.9526, , , , 
2026-03-20 17:34:43.003,-0.16271193,3.6275191,13.131811,-0.35613418,0.102472566,0.6317869,-24.093752,-9.356251,-48.7125,0.17779139,0.19848676,0.7079658,1000.9526, , , , 
2026-03-20 17:34:43.023,-0.29671,4.168297,10.447063,-0.08613193,-0.12476913,0.3507891,-24.093752,-8.887501,-48.80625,0.17750107,0.19583124,0.7114418,1000.9526, , , , 
2026-03-20 17:34:43.043,-0.66041905,4.3932223,8.154739,-0.07269291,-0.14920372,0.25671592,-23.85,-8.2875,-48.768753,0.17856236,0.19383611,0.7132302,1000.9609, , , , 
2026-03-20 17:34:43.063,-0.38285163,4.1491547,6.7334027,-0.13377939,-0.029474225,0.23594652,-23.550001,-7.5937505,-48.750004,0.17905426,0.19206579,0.71484417,1000.9609, , , , 
2026-03-20 17:34:43.083,-0.15792629,3.9242291,5.8097734,-0.2498437,0.1574504,0.17608178,-23.79375,-7.2187505,-48.73125,0.17775422,0.1908608,0.7166445,1000.9609, , , , 
2026-03-20 17:34:43.103,-0.22492532,3.9673,6.407979,-0.4807506,0.2112065,0.14187334,-24.093752,-7.0125003,-48.843754,0.17404939,0.18936487,0.71871567,1000.9609, , , , 
2026-03-20 17:34:43.123,0.18185452,3.991228,7.0540414,-0.6298016,0.045051277,0.14309508,-24.225,-7.0125003,-49.162502,0.16968864,0.1860113,0.72095466,1000.9649, , , , 
2026-03-20 17:34:43.143,0.61734825,3.952943,7.5517483,-0.61269736,-0.090560704,0.083230324,-24.337502,-6.9375005,-49.36875,0.16615222,0.1809079,0.72280777,1000.9649, , , , 
2026-03-20 17:34:43.163,0.57906306,4.063013,8.188239,-0.33414304,0.014508039,-0.0377209,-24.093752,-6.4125004,-49.3875,0.16344862,0.17679743,0.7237799,1000.9649, , , , 
2026-03-20 17:34:43.183,0.12921242,4.465007,8.030313,0.04703659,0.12690715,-0.08781181,-23.71875,-5.83125,-49.237503,0.16178349,0.17629154,0.72374755,1000.9649, , , , 
2026-03-20 17:34:43.203,0.35413775,4.627719,6.7094746,0.24251331,-0.014813471,-0.107359484,-23.681252,-5.25,-49.125004,0.1621636,0.17818174,0.72297,1000.96387, , , , 
2026-03-20 17:34:43.223,0.5694918,4.766503,5.8097734,0.2706131,-0.14798199,-0.18799363,-23.71875,-4.8187504,-49.125004,0.1644258,0.17969331,0.7213632,1000.96387, , , , 
2026-03-20 17:34:43.243,0.2440679,5.020142,5.733203,0.35246897,0.13423753,-0.23319763,-23.6625,-4.70625,-49.0875,0.16642892,0.18211047,0.7193,1000.96387, , , , 
2026-03-20 17:34:43.263,-0.37328035,5.5226345,5.7858453,0.40133816,0.5361866,-0.17211115,-23.75625,-4.74375,-49.162502,0.16602299,0.18803714,0.71777093,1000.96387, , , , 
2026-03-20 17:34:43.283,-0.70348984,5.905486,6.6089764,0.11423171,0.31261006,-0.059712034,-23.925001,-4.89375,-49.350002,0.16428053,0.19347252,0.7172267,1000.95935, , , , 
2026-03-20 17:34:43.303,0.047856454,5.948557,8.384451,-0.14477496,-0.2848157,-0.008399391,-24.056252,-5.26875,-49.36875,0.16409245,0.19328968,0.7171237,1000.95935, , , , 
2026-03-20 17:34:43.323,1.2011969,6.0155563,9.413364,0.011606431,-0.47784898,-0.14889829,-24.206251,-5.775,-49.593754,0.16583823,0.19066119,0.7165193,1000.95935, , , , 
2026-03-20 17:34:43.343,0.64606214,6.45105,8.992228,0.32559094,-0.12232567,-0.35781404,-24.093752,-6.2250004,-49.818752,0.16980797,0.189579,0.7134434,1000.95935, , , , 
2026-03-20 17:34:43.363,-0.91884387,6.795616,8.212168,0.32925612,0.23808455,-0.2942841,-23.85,-6.58125,-49.612503,0.1711212,0.19326234,0.7105593,1000.95276, , , , 
2026-03-20 17:34:43.383,-1.3160524,6.9391856,9.241081,0.06291907,0.42867437,-0.07437278,-23.75625,-6.76875,-49.425003,0.16964528,0.19741008,0.7095152,1000.95276, , , , 
2026-03-20 17:34:43.403,-0.5407779,6.7334027,11.002198,-0.15210533,0.6864593,0.07467822,-23.71875,-6.76875,-49.331253,0.16664791,0.2000355,0.71025515,1000.95276, , , , 
2026-03-20 17:34:43.423,-0.4546363,6.3888364,13.457234,-0.40011644,0.39935285,0.052687086,-23.681252,-6.7875004,-49.0875,0.15911,0.20269318,0.7127777,1000.95276, , , , 
2026-03-20 17:34:43.443,-0.526421,5.493921,14.481362,-0.45142907,-0.24449863,0.008704823,-23.456251,-6.80625,-49.2,0.15556912,0.199823,0.7140321,1000.95, , , , 
2026-03-20 17:34:43.463,0.19621146,4.7377887,13.452449,-0.13377939,-0.64278245,-0.042607818,-22.96875,-6.8437505,-49.518753,0.15689847,0.19424924,0.7138116,1000.95, , , , 
2026-03-20 17:34:43.483,1.1246266,4.388437,9.700503,0.1386663,-0.51327914,-0.16233732,-22.59375,-6.99375,-49.65,0.16154893,0.19030724,0.7121405,1000.95, , , , 
2026-03-20 17:34:43.503,1.0001999,4.26401,8.762517,0.102014415,-0.023365578,-0.29917103,-22.575,-7.1062503,-49.687504,0.16402183,0.18960316,0.7099665,1000.95, , , , 
2026-03-20 17:34:43.523,0.019142581,4.426722,9.375079,0.07880156,0.23564109,-0.31749696,-22.931252,-7.1062503,-49.65,0.16298014,0.19156359,0.7079205,1000.9566, , , , 
2026-03-20 17:34:43.543,-0.11964113,4.1204405,9.131011,-0.01527162,0.09880738,-0.24663666,-23.400002,-7.0687504,-49.518753,0.16131373,0.19348091,0.7063478,1000.9566, , , , 
2026-03-20 17:34:43.563,0.014356935,3.8763726,8.992228,-0.1545488,-0.22739442,-0.22464553,-23.8125,-6.99375,-49.4625,0.16072494,0.1925551,0.7049011,1000.9566, , , , 
2026-03-20 17:34:43.583,0.11964113,3.7280176,8.906086,-0.009162972,-0.27137667,-0.25396705,-23.90625,-6.9187503,-49.631252,0.16141577,0.19028085,0.70313907,1000.9566, , , , 
2026-03-20 17:34:43.603,-0.18185452,3.7663028,7.82453,0.27672175,-0.102778,-0.3028362,-23.868752,-6.95625,-49.818752,0.16312592,0.19033262,0.70071745,1000.9681, , , , 
2026-03-20 17:34:43.623,-0.6364908,3.9146578,6.5084777,0.4196641,0.06582068,-0.2942841,-23.90625,-7.2187505,-49.95,0.16504896,0.19337884,0.69797224,1000.9681, , , , 
2026-03-20 17:34:43.643,-1.0719845,4.058227,5.7954164,0.37934703,0.054825112,-0.21487169,-23.8875,-7.5375004,-50.006252,0.16631398,0.19633903,0.6961081,1000.9681, , , , 
2026-03-20 17:34:43.663,-1.3830515,4.278367,6.1591253,0.2254091,-0.033139415,-0.019394957,-23.85,-7.8375,-50.04375,0.16842097,0.19966337,0.6941336,1000.9681, , , , 
2026-03-20 17:34:43.683,-0.74177504,3.9481573,6.4797635,0.20708317,-0.13209951,0.13820815,-23.75625,-8.1,-49.987503,0.17056543,0.2004433,0.6940209,1000.96875, , , , 
2026-03-20 17:34:43.703,-0.11964113,3.9050865,6.8721867,0.30726498,-0.07101303,0.15897755,-23.6625,-8.306251,-49.800003,0.17327157,0.20116712,0.69437265,1000.96875,37.88757418,127.73745511,171.58575439453125,1.48
2026-03-20 17:34:43.723,0.23449662,4.26401,6.5515485,0.43799004,0.032833982,0.10644319,-23.587502,-8.55,-49.65,0.17554952,0.20276976,0.6944924,1000.96875, , , , 
2026-03-20 17:34:43.743,0.05742774,4.718646,6.503692,0.4477639,-0.01970039,0.11377356,-23.6625,-8.94375,-49.4625,0.17938846,0.2066173,0.69429183,1000.96875, , , , 
2026-03-20 17:34:43.763,0.08135597,4.9579287,6.350551,0.34391686,-0.15286891,0.15409064,-23.7,-9.262501,-49.29375,0.18301043,0.20857243,0.6941598,1000.96576, , , , 
2026-03-20 17:34:43.783,0.47377887,4.9052863,6.4558353,0.1960876,-0.28359398,0.20662501,-23.7,-9.375,-49.425003,0.18683852,0.20865093,0.69441384,1000.96576, , , , 
2026-03-20 17:34:43.803,0.85184485,4.895715,7.1018977,0.058032155,-0.37033677,0.17363831,-23.85,-9.525001,-49.537502,0.19051741,0.2066901,0.69482297,1000.96576, , , , 
2026-03-20 17:34:43.823,0.71306115,4.85743,7.628319,0.025045456,-0.20418155,0.14187334,-24.056252,-9.58125,-49.537502,0.19318421,0.20472226,0.6952645,1000.96576, , , , 
2026-03-20 17:34:43.843,-0.13399807,5.1206403,8.355737,-0.0030543238,-0.21151192,0.16997312,-24.375002,-9.825001,-49.631252,0.19485648,0.20323457,0.6958293,1000.9517, , , , 
2026-03-20 17:34:43.863,0.23449662,4.991428,8.547162,-0.027488915,-0.16386448,0.22617269,-24.69375,-10.181251,-49.3875,0.19663514,0.20124799,0.69683266,1000.9517, , , , 
2026-03-20 17:34:43.883,0.9523434,4.962714,10.188639,0.115453444,0.101250835,0.09544762,-24.825,-10.3125,-49.068752,0.19719239,0.20086576,0.6979744,1000.9517, , , , 
2026-03-20 17:34:43.903,0.9906286,5.15414,9.499506,0.23884813,0.047494736,-0.13301581,-24.937502,-10.275001,-48.825,0.19785291,0.20268011,0.69768506,1000.9517, , , , 
2026-03-20 17:34:43.923,0.019142581,5.3359947,9.025727,0.060475614,0.08048143,-0.31505352,-24.975,-10.125,-48.43125,0.19799808,0.20457487,0.69594836,1000.94745, , , , 
2026-03-20 17:34:43.943,-2.321038,5.8863435,9.753145,-0.15577053,0.2112065,-0.17577635,-24.825,-9.95625,-48.375004,0.19591503,0.20567454,0.6945055,1000.94745, , , , 
2026-03-20 17:34:43.963,-1.7515461,5.221139,10.652846,-0.31459537,0.32849252,0.24449863,-24.750002,-9.900001,-48.61875,0.19216129,0.20592397,0.69593835,1000.94745, , , , 
2026-03-20 17:34:43.983,-0.43070808,4.316652,11.169696,-0.33047783,0.23441936,0.2591594,-24.50625,-10.05,-48.693752,0.18830253,0.20490018,0.69902116,1000.94745, , , , 
2026-03-20 17:34:44.003,-0.043070808,4.130012,10.786844,-0.25106543,0.16233732,0.08811724,-24.112501,-10.125,-48.881252,0.1852258,0.20366241,0.70119435,1000.95575, , , , 
2026-03-20 17:34:44.023,-0.6269195,4.493721,9.365508,-0.26450446,0.07925971,-0.04382955,-23.925001,-10.087501,-49.0125,0.18266724,0.20261668,0.70195407,1000.95575, , , , 
2026-03-20 17:34:44.043,-0.60777694,4.469793,8.221739,-0.45998117,0.030390523,-0.047494736,-23.643751,-9.95625,-48.881252,0.17977507,0.20047155,0.7024483,1000.95575, , , , 
2026-03-20 17:34:44.063,-0.44506502,4.197011,8.236095,-0.56627166,0.048716467,-0.062155493,-23.475,-9.637501,-49.0125,0.1759096,0.19707252,0.7032321,1000.95575, , , , 
2026-03-20 17:34:44.083,-0.5694918,4.1778684,8.925228,-0.3903426,0.11346813,-0.07192933,-23.4375,-9.225,-49.143753,0.17178246,0.19421373,0.70388514,1000.963, , , , 
2026-03-20 17:34:44.103,-0.38763726,3.938586,7.6331043,-0.102014415,0.018173227,-0.09758565,-23.400002,-8.981251,-49.18125,0.16955319,0.19324815,0.7039003,1000.963, , , , 
2026-03-20 17:34:44.123,-0.72741807,4.2687955,5.4556355,-0.13377939,-0.07345649,-0.08536835,-23.456251,-8.8125,-49.218754,0.16917542,0.19258736,0.7032737,1000.963, , , , 
2026-03-20 17:34:44.143,-0.9092726,4.694718,5.9916277,-0.24862197,0.03405571,0.04657844,-23.4375,-8.587501,-49.275,0.1679848,0.19113193,0.70342404,1000.963, , , , 
2026-03-20 17:34:44.163,-0.28235307,4.469793,6.4845495,-0.17898338,0.07192933,0.12599087,-23.4375,-8.3625,-49.48125,0.16622174,0.18998647,0.7046098,1000.9683, , , , 
2026-03-20 17:34:44.183,0.10049855,4.4554358,5.608776,-0.109344795,-0.012370012,0.060017463,-23.41875,-8.00625,-49.575,0.1654302,0.18912584,0.7055539,1000.9683, , , , 
2026-03-20 17:34:44.203,-0.2632105,4.8047876,5.556134,-0.11056653,-0.014813471,0.0368046,-23.400002,-7.6875005,-49.537502,0.16501045,0.18822275,0.70599586,1000.9683, , , , 
2026-03-20 17:34:44.223,-0.71306115,5.072784,6.3744793,-0.06536253,0.0035124724,0.055130545,-23.550001,-7.5750003,-49.48125,0.16447721,0.18764766,0.70643693,1000.9683, , , , 
2026-03-20 17:34:44.243,-0.91405827,5.3982077,6.3888364,-0.031154104,-0.057574004,0.1443168,-23.587502,-7.55625,-49.331253,0.16464297,0.18724029,0.70707244,1000.9717, , , , 
2026-03-20 17:34:44.263,-0.6556334,5.6853466,6.6759753,-0.10567961,-0.15409064,0.23350306,-23.60625,-7.6125,-49.2,0.16524297,0.18627062,0.7079104,1000.9717, , , , 
2026-03-20 17:34:44.283,0.44985065,5.919843,8.068598,-0.058032155,-0.008704823,0.23716825,-23.868752,-7.6312504,-49.275,0.16604301,0.18413435,0.70991844,1000.9717, , , , 
2026-03-20 17:34:44.303,1.3782659,6.1447687,9.030513,0.10690133,0.13912445,0.084452055,-24.056252,-7.4062505,-49.443752,0.16615722,0.18451864,0.71111405,1000.9717, , , , 
2026-03-20 17:34:44.323,1.5409778,6.111269,9.265009,0.2547306,0.13912445,-0.16722423,-24.187502,-7.0687504,-49.406254,0.16644801,0.18692572,0.7107348,1000.9679, , , , 
2026-03-20 17:34:44.343,0.19142582,6.6089764,9.078369,0.23640467,0.021838415,-0.3101666,-24.300001,-6.8625,-49.36875,0.16705318,0.18905087,0.7092244,1000.9679, , , , 
2026-03-20 17:34:44.363,-0.8757731,6.786045,9.288938,0.06902772,0.04138609,-0.17211115,-24.16875,-6.7875004,-49.425003,0.16785218,0.1914039,0.70658493,1000.9679, , , , 
2026-03-20 17:34:44.383,-0.5455636,6.9391856,11.002198,-0.056810424,0.30405796,-0.012064579,-24.0,-6.8812504,-49.350002,0.16655795,0.19265583,0.7062619,1000.9679, , , , 
2026-03-20 17:34:44.403,0.086141616,6.6281185,12.490534,-0.03970621,0.44822204,0.011148282,-23.8875,-7.1250005,-49.4625,0.16333662,0.19505045,0.7071542,1000.9696, , , , 
2026-03-20 17:34:44.423,-0.1052842,6.422336,13.150953,-0.08613193,0.15989386,-0.07803798,-23.71875,-7.275,-49.725002,0.16114843,0.1964724,0.707539,1000.9696, , , , 
2026-03-20 17:34:44.443,-0.9379865,5.7523456,13.16531,0.009162972,-0.23838998,-0.03894263,-23.5125,-7.36875,-49.7625,0.16041474,0.1958768,0.7070428,1000.9696, , , , 
2026-03-20 17:34:44.463,-0.15314065,5.063213,10.9352,0.17043127,-0.40332347,0.11866048,-23.400002,-7.4437504,-49.8375,0.16352403,0.19415765,0.7065702,1000.9696, , , , 
2026-03-20 17:34:44.483,1.1485549,4.1874394,8.551949,0.11423171,-0.2689332,0.20662501,-23.362501,-7.5000005,-49.93125,0.1674821,0.1925914,0.7068598,1000.9783, , , , 
2026-03-20 17:34:44.503,2.6608188,3.5365918,8.79123,-0.12767074,0.03405571,0.08689552,-23.38125,-7.6125,-49.93125,0.1685761,0.19154334,0.70760566,1000.9783, , , , 
2026-03-20 17:34:44.523,2.2971098,3.062813,10.499705,-0.051923506,0.16844596,-0.3358229,-23.53125,-7.51875,-49.987503,0.166444,0.1911689,0.707586,1000.9783, , , , 
2026-03-20 17:34:44.543,0.17228323,3.7280176,10.083355,0.18875721,0.09636392,-0.5862775,-23.643751,-7.4062505,-49.93125,0.1649563,0.19313839,0.7045179,1000.9783, , , , 
2026-03-20 17:34:44.563,-1.3064811,4.4745784,8.595019,0.24495678,0.013286309,-0.46654797,-23.737501,-7.4625,-49.8375,0.16502161,0.19602919,0.7005233,1000.9866, , , , 
2026-03-20 17:34:44.583,-0.971486,4.254439,7.4512496,0.1472184,-0.2102902,-0.27351472,-23.625,-7.6875005,-49.66875,0.1661728,0.19745217,0.69760793,1000.9866, , , , 
2026-03-20 17:34:44.603,-0.0526421,4.331009,6.317052,0.10079269,-0.31413722,-0.2527453,-23.493752,-8.025001,-49.631252,0.16847666,0.19684933,0.6951668,1000.9866, , , , 
2026-03-20 17:34:44.623,0.148355,4.517649,5.7667027,0.13255766,-0.14553854,-0.28695372,-23.362501,-8.19375,-49.74375,0.1704081,0.1964809,0.69272697,1000.9866, , , , 
2026-03-20 17:34:44.643,-0.44985065,4.694718,5.680561,0.15821397,0.095142186,-0.24785839,-23.306252,-8.306251,-49.706253,0.17103703,0.19800767,0.6905405,1000.997, , , , 
2026-03-20 17:34:44.663,-0.8709874,4.5272202,6.178268,0.14844014,0.063377224,-0.07192933,-23.53125,-8.418751,-49.687504,0.17106673,0.2002502,0.6892719,1000.997, , , , 
2026-03-20 17:34:44.683,-0.11964113,4.0295134,6.3314085,0.1178969,-0.11255184,-0.023060145,-23.681252,-8.587501,-49.66875,0.17201692,0.20114323,0.68875504,1000.997, , , , 
2026-03-20 17:34:44.703,0.3924229,3.9960139,6.474978,0.12156209,-0.18096869,-0.082924895,-23.7,-8.793751,-49.537502,0.17382659,0.20089689,0.6879288,1000.997,37.88757975,127.7374674,172.36492919921875,1.47
2026-03-20 17:34:44.723,0.31106696,4.034299,5.962914,0.20097451,-0.12599087,-0.16966769,-23.625,-8.962501,-49.406254,0.1758604,0.2011751,0.6864281,1000.993, , , , 
2026-03-20 17:34:44.743,-0.7752745,4.4554358,6.2309103,0.16920954,0.03405571,-0.14401138,-23.5125,-9.056251,-49.256252,0.17712456,0.2025626,0.68476474,1000.993, , , , 
2026-03-20 17:34:44.763,-0.9523434,4.642076,7.1210403,0.13744457,-0.030695954,0.06368265,-23.5125,-9.31875,-49.050003,0.17785126,0.20394677,0.6841675,1000.993, , , , 
2026-03-20 17:34:44.783,0.26799613,4.3932223,6.991828,0.08124501,-0.19929464,0.13332124,-23.475,-9.712501,-48.91875,0.17967847,0.20369731,0.68452454,1000.993, , , , 
2026-03-20 17:34:44.803,0.71306115,4.479364,7.580462,0.054366965,-0.24572036,0.07467822,-23.4375,-10.03125,-48.937504,0.18199499,0.20224667,0.68469185,1000.9751, , , , 
2026-03-20 17:34:44.823,1.3878372,4.479364,8.623733,0.13255766,-0.09544762,-0.06093376,-23.4375,-10.125,-48.975002,0.18396145,0.2014306,0.6843402,1000.9751, , , , 
2026-03-20 17:34:44.843,1.1724831,4.962714,8.456235,0.21930045,-0.012370012,-0.27351472,-23.325,-10.125,-49.125004,0.1852017,0.20258355,0.68280476,1000.9751, , , , 
2026-03-20 17:34:44.863,-0.38285163,5.9724855,8.322237,0.16187917,0.020616686,-0.30527967,-23.53125,-10.275001,-49.0125,0.18593055,0.20446967,0.6802901,1000.9751, , , , 
2026-03-20 17:34:44.883,-0.59342,6.623333,8.322237,-0.0042760535,0.062155493,-0.047494736,-23.90625,-10.368751,-48.9,0.18586978,0.20579226,0.67899823,1000.9692, , , , 
2026-03-20 17:34:44.903,0.56470615,5.8097734,8.465807,-0.36346453,-0.0013744457,0.0074830935,-24.093752,-10.51875,-48.862503,0.18457824,0.20485704,0.67954075,1000.9692, , , , 
2026-03-20 17:34:44.923,-0.6652047,5.986842,10.399207,-0.8484912,0.03161225,-0.032833982,-24.187502,-10.63125,-48.600002,0.18028356,0.20089932,0.68060654,1000.9692, , , , 
2026-03-20 17:34:44.943,-1.7659031,5.3790655,14.586647,-0.91812974,-0.19562945,0.12476913,-24.150002,-10.51875,-48.656254,0.17426424,0.19376189,0.6826227,1000.9692, , , , 
2026-03-20 17:34:44.963,0.06699903,4.278367,15.031712,-0.24251331,-0.27504188,0.17363831,-24.075,-10.3125,-48.73125,0.17214036,0.18869099,0.6842031,1000.9685, , , , 
2026-03-20 17:34:44.983,1.2203395,3.9242291,10.9017,0.3280344,-0.033139415,-0.15622866,-24.093752,-9.993751,-48.73125,0.1741789,0.18671021,0.6841937,1000.9685, , , , 
2026-03-20 17:34:45.003,0.18664017,4.666004,8.685946,0.14110976,0.22464553,-0.3394881,-24.337502,-9.543751,-48.80625,0.17473428,0.1898087,0.6820708,1000.9685, , , , 
2026-03-20 17:34:45.023,-0.124426775,4.570291,9.571291,-0.23396121,0.16722423,-0.30039275,-24.618752,-9.225,-48.80625,0.17215519,0.19134608,0.68036103,1000.9685, , , , 
2026-03-20 17:34:45.043,-0.2536392,4.206582,11.112268,-0.35246897,-0.027030766,-0.26374087,-24.806252,-9.13125,-48.787502,0.16962756,0.190458,0.67950165,1000.97766, , , , 
2026-03-20 17:34:45.063,-0.07178468,4.0295134,11.126625,-0.04214967,-0.2848157,-0.20876303,-24.69375,-9.09375,-48.9,0.16794246,0.1876066,0.67778975,1000.97766, , , , 
2026-03-20 17:34:45.083,0.76570326,3.9098723,8.518449,0.15699224,-0.4790707,-0.23075417,-24.487501,-9.28125,-48.975002,0.17066258,0.18561423,0.67555976,1000.97766, , , , 
2026-03-20 17:34:45.103,1.0815558,3.900301,6.34098,0.20341797,-0.51816607,-0.3260491,-24.375002,-9.375,-49.068752,0.17497274,0.1837328,0.67240685,1000.97766, , , , 
2026-03-20 17:34:45.123,0.6556334,4.063013,5.005785,0.19120067,-0.42042768,-0.37614,-24.337502,-9.431251,-49.050003,0.17809644,0.182648,0.6696115,1000.984, , , , 
2026-03-20 17:34:45.143,0.71306115,4.063013,4.910072,0.1508836,-0.07956514,-0.30527967,-24.675001,-9.731251,-48.787502,0.18139996,0.18240388,0.66550535,1000.984, , , , 
2026-03-20 17:34:45.163,1.105484,3.641876,5.6949177,0.09590577,0.027947064,-0.33093598,-25.050001,-9.993751,-48.54375,0.18175246,0.1838135,0.6631475,1000.984, , , , 
2026-03-20 17:34:45.183,1.3351951,3.507878,6.202196,0.083688475,-0.110108376,-0.46654797,-25.218752,-10.2375,-48.281254,0.18198888,0.18472044,0.6601468,1000.984, , , , 
2026-03-20 17:34:45.203,1.052842,3.7950168,6.489335,0.1545488,-0.2432769,-0.6339249,-25.275002,-10.51875,-48.05625,0.18268475,0.18504629,0.6569213,1000.9783, , , , 
2026-03-20 17:34:45.223,0.26799613,4.546363,6.216553,0.18631376,-0.42653632,-0.719446,-25.237501,-10.78125,-47.850002,0.18536098,0.18513256,0.64975184,1000.9783, , , , 
2026-03-20 17:34:45.243,0.44506502,5.087141,5.977271,0.16798781,-0.4045452,-0.6656899,-25.181252,-11.025001,-47.68125,0.1883229,0.18445835,0.64360994,1000.9783, , , , 
2026-03-20 17:34:45.263,1.3208381,5.0823555,6.6185474,0.16798781,-0.15042545,-0.66324645,-25.2,-11.418751,-47.568752,0.19020654,0.18479554,0.6380709,1000.9783, , , , 
2026-03-20 17:34:45.283,1.8520447,5.139783,8.551949,0.1508836,-0.08078687,-0.80741054,-25.2,-11.981251,-47.381252,0.19057018,0.18668059,0.6324436,1000.97235, , , , 
2026-03-20 17:34:45.303,2.306681,5.1158547,10.236495,0.20708317,-0.3923279,-1.0395391,-25.25625,-12.562501,-47.287502,0.19161423,0.18757081,0.6251222,1000.97235, , , , 
2026-03-20 17:34:45.323,1.8376877,5.6757755,10.466207,0.40500334,-0.49739665,-1.2899936,-25.25625,-13.14375,-47.25,0.19470517,0.18794152,0.61502856,1000.97235, , , , 
2026-03-20 17:34:45.343,0.7322037,6.1878395,9.781859,0.6017018,-0.23472479,-1.355967,-25.29375,-13.837501,-47.15625,0.19841836,0.19081134,0.6033531,1000.97235, , , , 
2026-03-20 17:34:45.363,0.4977071,6.7525454,9.126225,0.54916745,-0.014813471,-1.211803,-25.575,-14.587501,-47.006252,0.20107459,0.19637504,0.59234494,1000.9668, , , , 
2026-03-20 17:34:45.383,0.59342,6.8099732,8.3174515,0.12156209,-0.27382013,-1.094517,-25.725,-15.543751,-46.706253,0.20243222,0.20001714,0.5826381,1000.9668, , , , 
2026-03-20 17:34:45.403,0.4642076,6.4175506,9.513863,-0.46731156,-0.6378955,-0.9674571,-25.875002,-16.63125,-46.36875,0.20181148,0.19730048,0.57418936,1000.9668, , , , 
2026-03-20 17:34:45.423,0.57427746,5.541777,11.68176,-0.63224506,-0.64156073,-0.8135192,-25.968752,-17.2875,-46.125,0.19926138,0.1903827,0.5672455,1000.9668, , , , 
2026-03-20 17:34:45.443,1.6558332,4.6229334,12.303894,-0.33902994,-0.3593412,-0.8184061,-26.025002,-17.60625,-46.125,0.19664682,0.18484971,0.5610895,1000.9636, , , , 
2026-03-20 17:34:45.463,1.7371893,4.3118663,11.289337,-0.10690133,-0.2933678,-0.9601267,-26.175001,-17.71875,-46.125,0.19502844,0.18274502,0.55402166,1000.9636, , , , 
2026-03-20 17:34:45.483,1.4644074,4.5559344,10.116854,-0.16187917,-0.5071705,-1.0774127,-26.38125,-17.550001,-46.0125,0.19440852,0.18067484,0.5454212,1000.9636, , , , 
2026-03-20 17:34:45.503,1.2729816,4.627719,9.504292,-0.23884813,-0.6342304,-1.1275036,-26.475,-17.625,-45.787502,0.19402687,0.17666104,0.5358591,1000.9636, , , , 
2026-03-20 17:34:45.523,0.5072784,4.6372905,9.293723,-0.2254091,-0.35689774,-1.1018473,-26.343752,-17.98125,-45.412502,0.19292212,0.17322002,0.5262504,1000.9692, , , , 
2026-03-20 17:34:45.543,0.12921242,4.220939,9.695718,-0.15577053,-0.297033,-1.0114393,-26.23125,-18.46875,-45.206253,0.19100693,0.17176022,0.51746815,1000.9692, , , , 
2026-03-20 17:34:45.563,0.33020952,3.7328033,9.111869,0.0018325944,-0.67943436,-1.0163263,-26.1375,-19.181252,-45.24375,0.19104148,0.16914557,0.5084622,1000.9692, , , , 
2026-03-20 17:34:45.583,0.44506502,3.5796626,7.1018977,0.19975278,-0.95310175,-1.0822997,-26.250002,-19.95,-45.1875,0.19450624,0.16451107,0.49795744,1000.9692, , , , 
2026-03-20 17:34:45.603,0.5838487,3.7423747,4.699504,0.2877173,-0.7564033,-1.0713041,-26.437502,-20.550001,-45.05625,0.1995282,0.16038021,0.48672292,1000.97363, , , , 
2026-03-20 17:34:45.623,0.7513463,3.6993039,5.599205,0.22785257,-0.22128576,-1.0590868,-26.531252,-21.09375,-44.8875,0.20245054,0.15955573,0.4764527,1000.97363, , , , 
2026-03-20 17:34:45.643,0.44027936,3.9290147,6.9344,0.24617851,-0.053908817,-1.0089959,-26.737501,-21.618752,-44.456253,0.20338103,0.16181353,0.46712494,1000.97363, , , , 
2026-03-20 17:34:45.663,0.47377887,3.9960139,7.446464,0.216857,-0.3092503,-0.94057906,-26.737501,-22.125,-44.100002,0.20457757,0.16348456,0.45822176,1000.97363, , , , 
2026-03-20 17:34:45.683,0.42592242,4.1778684,7.556534,0.1545488,-0.5865829,-0.9112575,-26.868752,-22.706251,-43.74375,0.20670931,0.1622839,0.449131,1000.9679, , , , 
2026-03-20 17:34:45.703,0.076570325,4.4602213,8.025527,0.20952661,-0.5450441,-0.8184061,-27.056252,-23.19375,-43.3875,0.20945536,0.15962714,0.44016492,1000.9679,37.88758538,127.73748048,172.5545654296875,1.49
2026-03-20 17:34:45.723,0.0526421,4.465007,8.9348,0.38912088,-0.28970262,-0.6998983,-27.075,-23.75625,-43.275,0.21260685,0.15888067,0.43234822,1000.9679, , , , 
2026-03-20 17:34:45.743,0.5599205,4.2448673,9.288938,0.59803665,-0.22861615,-0.67912894,-27.187502,-24.225,-43.18125,0.2168658,0.16034475,0.4252547,1000.9679, , , , 
2026-03-20 17:34:45.763,0.3589234,4.4841495,8.346166,0.6921098,-0.38499752,-0.7841977,-27.16875,-24.6,-43.125,0.22277457,0.16190544,0.4171738,1000.95935, , , , 
2026-03-20 17:34:45.783,0.11006984,4.709075,8.427522,0.6139191,-0.42653632,-0.8110757,-27.13125,-25.181252,-43.0125,0.2288184,0.1627338,0.40829223,1000.95935, , , , 
2026-03-20 17:34:45.803,-0.09571291,4.881358,8.513663,0.59437144,-0.37033677,-0.7988584,-27.000002,-25.706251,-42.693752,0.23433611,0.16337581,0.39937344,1000.95935, , , , 
2026-03-20 17:34:45.823,-0.4977071,5.259424,7.556534,0.55894125,-0.2677115,-0.6986766,-26.79375,-26.7,-42.24375,0.2395245,0.16470313,0.3910436,1000.95935, , , , 
2026-03-20 17:34:45.843,-0.18664017,5.7140603,6.9391856,0.33169958,-0.19929464,-0.54473865,-26.775002,-27.843752,-41.643753,0.24355504,0.1658988,0.3842327,1000.94214, , , , 
2026-03-20 17:34:45.863,-0.009571291,5.709275,7.5086775,-0.034819294,-0.062460925,-0.42867437,-26.718752,-28.837502,-41.006252,0.2447202,0.16649655,0.37947083,1000.94214, , , , 
2026-03-20 17:34:45.883,-0.2105684,5.5800624,9.226724,-0.46242464,-0.056352276,-0.40057456,-26.625002,-29.75625,-40.518753,0.24199606,0.1660685,0.376242,1000.94214, , , , 
2026-03-20 17:34:45.903,-0.95712906,5.259424,11.672189,-0.7495311,-0.31413722,-0.34926194,-26.550001,-30.281252,-40.162502,0.23784527,0.16396402,0.3741885,1000.94214, , , , 
2026-03-20 17:34:45.923,-0.17706887,4.4841495,12.658031,-0.6139191,-0.5572614,-0.32116216,-26.362501,-30.50625,-40.068752,0.23097529,0.15659294,0.37082225,1000.93835, , , , 
2026-03-20 17:34:45.943,0.8662018,3.8237305,11.557333,-0.25961754,-0.5487093,-0.48976085,-26.1375,-30.4125,-40.256252,0.22834511,0.15060332,0.36679888,1000.93835, , , , 
2026-03-20 17:34:45.963,0.86141616,3.871587,9.853643,-0.0067195124,-0.39477137,-0.7304416,-26.156252,-30.206251,-40.425003,0.22801857,0.14712605,0.36042804,1000.93835, , , , 
2026-03-20 17:34:45.983,-0.02871387,4.2017965,8.79123,6.108648E-4,-0.30314165,-0.8648318,-26.306252,-30.093752,-40.537502,0.22818613,0.14582595,0.35237375,1000.93835, , , , 
2026-03-20 17:34:46.003,-0.67477596,4.4075794,8.7673025,-0.07880156,-0.39477137,-0.8037453,-26.5125,-30.093752,-40.612503,0.22770855,0.14455977,0.34408262,1000.9443, , , , 
2026-03-20 17:34:46.023,-0.5838487,4.4075794,8.389236,-0.12034036,-0.549931,-0.68035066,-26.6625,-30.431252,-40.518753,0.22727714,0.14155655,0.33646765,1000.9443, , , , 
2026-03-20 17:34:46.043,0.16271193,4.287938,7.82453,-0.09468404,-0.56337005,-0.59482956,-26.550001,-30.806252,-40.443752,0.22727953,0.13735165,0.32966673,1000.9443, , , , 
2026-03-20 17:34:46.064,0.8039884,4.106084,7.001399,-0.056810424,-0.42409286,-0.6510291,-26.362501,-30.975,-40.331253,0.22751208,0.13386986,0.32314223,1000.9443, , , , 
2026-03-20 17:34:46.083,0.25842485,4.278367,6.795616,-0.103236146,-0.38988444,-0.69745487,-26.306252,-31.181252,-40.18125,0.22728342,0.13146678,0.31615537,1000.94556, , , , 
2026-03-20 17:34:46.103,-0.07178468,4.2975097,7.111469,-0.15699224,-0.47174034,-0.6571378,-26.343752,-31.425001,-39.91875,0.22652201,0.1285979,0.30916145,1000.94556, , , , 
2026-03-20 17:34:46.123,0.15792629,3.991228,7.322037,-0.07513637,-0.43875363,-0.6388118,-26.343752,-31.650002,-39.581253,0.22604094,0.12529947,0.30243105,1000.94556, , , , 
2026-03-20 17:34:46.143,0.4546363,3.8093736,7.5326056,0.08735366,-0.30314165,-0.70967215,-26.38125,-32.04375,-39.24375,0.22641104,0.123464264,0.2954545,1000.94556, , , , 
2026-03-20 17:34:46.163,0.0,4.2017965,7.025327,0.1301142,-0.35323256,-0.8636101,-26.306252,-32.53125,-38.925003,0.22760817,0.12270058,0.28728157,1000.94495, , , , 
2026-03-20 17:34:46.183,-0.79920274,4.910072,7.0540414,0.023823727,-0.5548179,-0.8355103,-26.19375,-32.86875,-38.8875,0.22859314,0.12067114,0.27818272,1000.94495, , , , 
2026-03-20 17:34:46.203,-0.7752745,5.2833524,7.4656067,0.03970621,-0.5719221,-0.6852376,-26.175001,-33.206253,-38.925003,0.2295052,0.1170829,0.26979682,1000.94495, , , , 
2026-03-20 17:34:46.223,-0.0526421,5.2307105,7.068398,0.17409647,-0.43631017,-0.6571378,-26.025002,-33.61875,-38.9625,0.23124851,0.11418111,0.26246494,1000.94495, , , , 
2026-03-20 17:34:46.243,0.4881358,5.5130634,7.068398,0.13377939,-0.34834564,-0.7377719,-25.725,-34.03125,-38.98125,0.23316762,0.112623766,0.25499803,1000.94025, , , , 
2026-03-20 17:34:46.263,0.57427746,5.790631,8.049456,0.007941242,-0.4949532,-0.868497,-25.462502,-34.518753,-38.737503,0.23406562,0.11073119,0.24650648,1000.94025, , , , 
2026-03-20 17:34:46.283,0.4211368,5.977271,9.111869,0.07024945,-0.48029244,-0.94913113,-25.331251,-35.081253,-38.325,0.2346078,0.107953474,0.23673514,1000.94025, , , , 
2026-03-20 17:34:46.303,0.14356937,5.757131,9.762716,0.3536907,-0.041691523,-0.9784527,-25.312502,-35.568752,-38.006252,0.23619641,0.108116284,0.22687235,1000.94025, , , , 
2026-03-20 17:34:46.323,-0.3684947,5.8911295,9.485149,0.4575377,0.11835505,-0.9747875,-25.3875,-36.075,-37.537502,0.23907124,0.11208682,0.21738748,1000.93964, , , , 
2026-03-20 17:34:46.343,-0.5455636,6.4558353,8.762517,0.064140804,-0.37888888,-0.8489493,-25.312502,-36.6375,-37.143753,0.24108638,0.11399525,0.20819978,1000.93964, , , , 
2026-03-20 17:34:46.363,0.74177504,6.45105,10.576276,-0.40133816,-0.6476694,-0.7231112,-24.862501,-37.10625,-37.0125,0.23942822,0.10970576,0.19981565,1000.93964, , , , 
2026-03-20 17:34:46.383,1.2442678,5.9294147,13.270595,-0.24006985,-0.33735007,-0.75854135,-24.16875,-37.518753,-36.956253,0.23613164,0.10571106,0.19216159,1000.93964, , , , 
2026-03-20 17:34:46.403,0.80877405,5.087141,13.552947,0.083688475,-0.31413722,-0.80741054,-23.34375,-37.74375,-37.10625,0.23502399,0.104416415,0.1842115,1000.95154, , , , 
2026-03-20 17:34:46.423,1.052842,4.575077,11.423335,0.216857,-0.7221949,-0.85505795,-22.800001,-38.04375,-37.3125,0.23661575,0.10153787,0.17497548,1000.95154, , , , 
2026-03-20 17:34:46.443,1.1102697,4.4841495,9.49472,0.13622284,-0.879798,-0.87827086,-22.743752,-38.5875,-37.350002,0.2388168,0.095652804,0.16456167,1000.95154, , , , 
2026-03-20 17:34:46.463,1.1676974,4.436293,8.6141615,0.082466744,-0.6672171,-0.8672753,-22.893751,-39.09375,-37.237503,0.24024704,0.090175405,0.15430382,1000.95154, , , , 
2026-03-20 17:34:46.483,1.2059826,4.503292,7.8628154,-0.033597562,-0.41798422,-0.8770491,-22.987501,-39.600002,-36.956253,0.2407021,0.086980805,0.14473847,1000.9626, , , , 
2026-03-20 17:34:46.503,0.34456646,4.4841495,8.226524,-0.26083925,-0.33246315,-0.8929316,-22.78125,-40.050003,-36.65625,0.2390449,0.08528624,0.13552773,1000.9626, , , , 
2026-03-20 17:34:46.523,-0.56470615,4.479364,9.513863,-0.36468628,-0.4338667,-0.868497,-22.331251,-40.350002,-36.45,0.23552491,0.08328986,0.12649855,1000.9626, , , , 
2026-03-20 17:34:46.543,-0.8039884,4.3932223,9.552148,-0.16798781,-0.67821264,-0.7732021,-21.7875,-40.518753,-36.1875,0.23274827,0.07940578,0.11751352,1000.9626, , , , 
2026-03-20 17:34:46.563,0.32063824,3.9481573,8.695518,0.13622284,-0.72952527,-0.7707586,-21.4125,-40.78125,-36.018753,0.2326902,0.07411549,0.108604625,1000.9715, , , , 
2026-03-20 17:34:46.583,0.9092726,3.9098723,7.7096744,0.49418962,-0.64156073,-0.9845613,-21.150002,-41.0625,-35.90625,0.2358588,0.069626525,0.09839721,1000.9715, , , , 
2026-03-20 17:34:46.603,-0.08135597,4.517649,7.1162543,0.8668171,-0.38988444,-1.1091777,-20.8875,-41.25,-35.756252,0.24237679,0.06777865,0.08634788,1000.9715, , , , 
2026-03-20 17:34:46.623,-0.6412765,4.867001,5.508278,0.9963204,-0.22617269,-0.98211783,-20.643751,-41.68125,-35.625,0.2515225,0.06840665,0.07482936,1000.9715, , , , 
2026-03-20 17:34:46.643,-0.83748794,5.2259245,5.757131,0.72265303,-0.28970262,-0.80863225,-20.212502,-42.112503,-35.325,0.25959662,0.06901701,0.06495291,1000.98083, , , , 
2026-03-20 17:34:46.663,-0.59342,5.3216376,6.5850477,0.4477639,-0.3678933,-0.61193377,-19.81875,-42.54375,-34.95,0.26496533,0.067978084,0.056973442,1000.98083, , , , 
2026-03-20 17:34:46.683,-0.4211368,4.9196434,7.475178,0.37323838,-0.43508843,-0.49953467,-19.275002,-43.10625,-34.575,0.26773882,0.06640008,0.05198099,1000.98083, , , , 
2026-03-20 17:34:46.703,-0.18185452,4.5942197,7.173682,0.44532043,-0.3752237,-0.45799586,-18.69375,-43.6875,-34.10625,0.27241176,0.063061334,0.0444914,1000.98083,37.88758635,127.73749415,172.8475341796875,1.44
2026-03-20 17:34:46.723,-0.3589234,4.4841495,7.331609,0.5222894,-0.091782436,-0.41890052,-18.4125,-44.325,-33.61875,0.2768661,0.06206528,0.039295796,1000.97894, , , , 
2026-03-20 17:34:46.743,-0.5694918,4.359723,7.7479596,0.605367,0.08659008,-0.33337945,-18.0,-44.90625,-33.15,0.28205505,0.06351666,0.035412453,1000.97894, , , , 
2026-03-20 17:34:46.763,-0.4354937,4.2592244,7.7383885,0.5858193,0.004734202,-0.24663666,-17.60625,-45.28125,-32.662502,0.28624243,0.06479582,0.03318424,1000.97894, , , , 
2026-03-20 17:34:46.783,-0.3062813,4.3357944,7.446464,0.47952884,-0.08689552,-0.23441936,-17.306252,-45.5625,-32.100002,0.29256207,0.065366074,0.029752957,1000.97894, , , , 
2026-03-20 17:34:46.803,-0.6939186,4.6899323,7.499106,0.3500255,-0.077121675,-0.20998476,-16.893751,-45.84375,-31.687502,0.29634154,0.06529305,0.027053477,1000.9715, , , , 
2026-03-20 17:34:46.823,-0.4546363,5.1876397,7.891529,0.18631376,-0.029474225,-0.14156792,-16.6875,-46.050003,-31.125002,0.29873145,0.06535847,0.025115628,1000.9715, , , , 
2026-03-20 17:34:46.843,-0.32542387,5.6757755,7.958528,0.023823727,-0.14065161,-0.15622866,-16.5375,-46.331253,-30.618752,0.2995443,0.065199144,0.023907276,1000.9715, , , , 
2026-03-20 17:34:46.863,-0.8566305,6.0251274,7.9011,-0.32559094,-0.14676027,-0.114689864,-16.462502,-46.631252,-30.393751,0.29820392,0.06374294,0.021673553,1000.9715, , , , 
2026-03-20 17:34:46.883,-1.4548361,5.8097734,10.365707,-0.54183704,0.0059559317,0.020922119,-16.40625,-46.93125,-30.2625,0.29376304,0.06311631,0.021260843,1000.96936, , , , 
2026-03-20 17:34:46.903,-1.0145568,4.8526444,12.428321,-0.33414304,0.12202024,0.08933897,-16.29375,-47.23125,-30.31875,0.2891595,0.063473225,0.02246301,1000.96936, , , , 
2026-03-20 17:34:46.923,0.07178468,3.9864426,11.485549,0.059253883,0.12079851,-0.09025527,-16.331251,-47.325,-30.45,0.28766733,0.06453642,0.023167813,1000.96936, , , , 
2026-03-20 17:34:46.943,-0.29192436,4.0869412,9.150154,0.089797124,-0.0490219,-0.3346012,-16.331251,-47.2125,-30.6375,0.28831127,0.06558539,0.021221543,1000.96936, , , , 
2026-03-20 17:34:46.963,-1.0289137,4.211368,7.570891,-0.21563527,-0.36911505,-0.41890052,-16.25625,-46.818752,-30.806252,0.28749934,0.06462597,0.01694634,1000.97363, , , , 
2026-03-20 17:34:46.983,-2.2827528,4.776074,7.475178,-0.5027417,-0.42653632,-0.27351472,-16.181252,-46.425003,-31.0125,0.28364542,0.061492417,0.012418955,1000.97363, , , , 
2026-03-20 17:34:47.003,-2.07697,4.709075,8.283952,-0.58215415,-0.13820815,0.04291325,-16.125,-46.3125,-31.25625,0.27959514,0.05955144,0.011011099,1000.97363, , , , 
2026-03-20 17:34:47.023,-0.66041905,4.091727,9.23151,-0.4905244,0.04382955,0.11866048,-16.050001,-46.275,-31.425001,0.2729093,0.05884407,0.01252064,1000.97363, , , , 
2026-03-20 17:34:47.043,-0.56470615,4.1347976,8.695518,-0.35246897,-0.19196425,0.020922119,-15.918751,-46.3125,-31.66875,0.26880777,0.05796342,0.013274002,1000.98083, , , , 
2026-03-20 17:34:47.063,-0.59342,4.3932223,7.1545396,-0.2669479,-0.38988444,0.0013744457,-15.918751,-46.3875,-31.95,0.26590753,0.054829527,0.012636192,1000.98083, , , , 
2026-03-20 17:34:47.083,-0.7513463,4.575077,6.1160545,-0.1924224,-0.28237224,0.04046979,-15.918751,-46.36875,-32.193752,0.2637695,0.051259674,0.011944423,1000.98083, , , , 
2026-03-20 17:34:47.103,-0.67477596,4.7712884,5.9007006,-0.19120067,-0.003817905,0.116217025,-15.918751,-46.29375,-32.4,0.26213217,0.049591824,0.01238853,1000.98083, , , , 
2026-03-20 17:34:47.123,-0.4211368,4.613362,7.025327,-0.17898338,0.102472566,0.13942988,-16.087502,-46.237503,-32.5875,0.26042214,0.049996853,0.014017107,1000.98126, , , , 
2026-03-20 17:34:47.143,-0.49292147,4.7712884,7.3268228,-0.115453444,-0.11255184,0.10766492,-15.993751,-46.03125,-32.79375,0.25913715,0.049661867,0.01527361,1000.98126, , , , 
2026-03-20 17:34:47.163,-0.7322037,5.163711,6.71426,-0.0971275,-0.33246315,0.07589995,-15.88125,-45.7125,-32.8875,0.2582883,0.04697738,0.015524756,1000.98126, , , , 
2026-03-20 17:34:47.183,-0.7609176,5.5800624,6.5276203,-0.07391464,-0.19929464,0.108886644,-16.10625,-45.412502,-33.112503,0.25767905,0.04394142,0.015698394,1000.98126, , , , 
2026-03-20 17:34:47.203,-0.7513463,5.9724855,7.331609,-0.03848448,-0.012370012,0.15409064,-16.48125,-45.1875,-33.375,0.25735506,0.04279579,0.016776491,1000.97534, , , , 
2026-03-20 17:34:47.223,-0.66999036,6.15434,7.920243,-0.04703659,-0.21151192,0.16630794,-17.00625,-45.131252,-33.46875,0.25721785,0.041506175,0.01815028,1000.97534, , , , 
2026-03-20 17:34:47.243,-0.23928227,6.350551,8.456235,-0.089797124,-0.49250972,0.1357647,-17.643751,-45.206253,-33.600002,0.2567257,0.037284702,0.01866823,1000.97534, , , , 
2026-03-20 17:34:47.264,0.32063824,6.4558353,9.623933,0.1924224,-0.20418155,0.07223476,-17.98125,-45.35625,-33.65625,0.2571148,0.033182222,0.018732239,1000.97534, , , , 
2026-03-20 17:34:47.283,0.47856453,6.5228343,8.705089,0.49907652,0.1867719,-0.048716467,-18.075,-45.506252,-33.61875,0.26089332,0.033352997,0.018832352,1000.97107, , , , 
2026-03-20 17:34:47.303,-0.41635114,6.814759,7.776674,0.3536907,0.22220206,-0.12202024,-18.056252,-45.5625,-33.6375,0.26533213,0.03583834,0.018318165,1000.97107, , , , 
2026-03-20 17:34:47.323,-0.8662018,7.149754,8.997013,0.064140804,0.14034618,-0.014508039,-18.09375,-45.6375,-33.61875,0.26724377,0.03793377,0.018017974,1000.97107, , , , 
2026-03-20 17:34:47.343,-0.39720857,6.9822564,9.442079,-0.11300998,-0.0025961753,0.06368265,-18.0,-45.7125,-33.487503,0.26719365,0.038498156,0.018518442,1000.97107, , , , 
2026-03-20 17:34:47.363,-0.42592242,6.867401,10.131211,-0.33047783,-0.0697913,0.10522146,-18.018751,-45.881252,-33.35625,0.26513565,0.03776052,0.01928017,1000.97, , , , 
2026-03-20 17:34:47.383,-0.11006984,6.04427,11.653047,-0.37934703,0.06826414,0.2310596,-18.243752,-46.125,-33.15,0.26152146,0.037001297,0.020998854,1000.97, , , , 
2026-03-20 17:34:47.403,1.0241281,4.6564326,12.514462,-0.116675176,0.17333288,0.17974696,-18.2625,-46.2,-32.90625,0.25876436,0.037550684,0.02370651,1000.97, , , , 
2026-03-20 17:34:47.423,1.4404793,4.240082,10.849058,0.17287473,0.0010690134,-0.08781181,-18.300001,-46.162502,-32.86875,0.2589847,0.038195934,0.024502479,1000.97, , , , 
2026-03-20 17:34:47.443,0.83748794,4.493721,8.52802,0.103236146,-0.11133011,-0.27351472,-18.206251,-45.975002,-32.98125,0.26041505,0.037847526,0.022371013,1000.97424, , , , 
2026-03-20 17:34:47.463,0.11485548,4.8622155,8.216953,-0.11056653,0.057268575,-0.25641048,-18.0,-45.881252,-33.16875,0.2604275,0.037820183,0.020176578,1000.97424, , , , 
2026-03-20 17:34:47.483,-0.086141616,4.5128636,9.71486,-0.21930045,0.28451028,-0.16111559,-17.868752,-46.0125,-33.487503,0.258239,0.04044465,0.018304544,1000.97424, , , , 
2026-03-20 17:34:47.503,0.124426775,4.2592244,10.451849,-0.19853105,0.108581215,-0.19288056,-17.681252,-46.143753,-33.75,0.2559265,0.042922016,0.017354762,1000.97424, , , , 
2026-03-20 17:34:47.523,0.37806597,4.0677986,10.193424,-0.102014415,-0.25305074,-0.32238388,-17.493752,-46.18125,-33.956253,0.25415966,0.042662505,0.014772875,1000.97723, , , , 
2026-03-20 17:34:47.543,0.2105684,4.1491547,9.040084,0.12889247,-0.42042768,-0.44577858,-17.400002,-46.0875,-34.2,0.2538681,0.040730618,0.01136542,1000.97723, , , , 
2026-03-20 17:34:47.563,-0.043070808,4.278367,7.0348988,0.39400777,-0.27504188,-0.48609564,-17.212502,-45.881252,-34.36875,0.25659096,0.037590384,0.0044406075,1000.97723, , , , 
2026-03-20 17:34:47.583,-0.5694918,4.331009,5.895915,0.45509425,-0.033139415,-0.45799586,-16.96875,-45.73125,-34.29375,0.26071498,0.037283264,-7.25028E-4,1000.97723, , , , 
2026-03-20 17:34:47.603,-0.9284152,4.3357944,6.2787666,0.40133816,0.076816246,-0.3346012,-16.725,-45.73125,-34.068752,0.26478943,0.038871374,-0.004602118,1000.9749, , , , 
2026-03-20 17:34:47.623,-0.6221339,4.15394,6.647261,0.35613418,-0.20173809,-0.25030184,-16.181252,-45.975002,-33.787502,0.2674499,0.039336514,-0.0068501704,1000.9749, , , , 
2026-03-20 17:34:47.643,-0.41156548,4.240082,6.1208405,0.35857764,-0.43020153,-0.16233732,-15.69375,-46.350002,-33.525,0.27156734,0.036163714,-0.01069075,1000.9749, , , , 
2026-03-20 17:34:47.663,-0.18664017,4.273581,6.101698,0.45875946,-0.15897755,-0.114689864,-15.525001,-46.7625,-33.24375,0.27535072,0.033209164,-0.013009612,1000.9749, , , , 
2026-03-20 17:34:47.683,-0.16271193,4.3357944,6.4175506,0.64812756,0.36514443,-0.06459895,-15.543751,-47.23125,-32.8125,0.28079915,0.034668945,-0.013627184,1000.9702, , , , 
2026-03-20 17:34:47.703,-0.38763726,4.436293,6.1878395,0.5442805,0.34681848,-0.016951498,-15.618751,-47.625,-32.30625,0.2854429,0.037653647,-0.013255261,1000.9702,37.88757904,127.73750942,172.946044921875,1.45
2026-03-20 17:34:47.723,-0.44985065,4.5559344,6.6329045,0.19730933,-0.17486005,0.060017463,-15.6,-48.15,-31.781252,0.29026914,0.039223563,-0.012721451,1000.9702, , , , 
2026-03-20 17:34:47.743,0.10049855,4.74736,7.164111,0.108123064,-0.33735007,0.11988221,-15.468751,-48.61875,-31.331251,0.29148814,0.035981074,-0.0127345575,1000.9702, , , , 
2026-03-20 17:34:47.763,0.52163535,4.6899323,7.446464,0.18875721,-0.034361143,0.052687086,-15.20625,-48.9,-31.2,0.29294017,0.03371037,-0.012425616,1000.963, , , , 
2026-03-20 17:34:47.783,0.06699903,5.235496,7.4656067,0.010384701,0.34926194,-0.0035124724,-15.1125,-48.956253,-31.1625,0.29441863,0.035132706,-0.011835885,1000.963, , , , 
2026-03-20 17:34:47.803,-0.91405827,5.962914,10.691132,-0.42943794,0.41034842,-0.014508039,-15.093751,-48.768753,-30.937502,0.29235908,0.03913967,-0.010712036,1000.963, , , , 
2026-03-20 17:34:47.823,-0.971486,6.1830535,13.768302,-0.31337363,-0.027030766,0.12110394,-15.000001,-48.73125,-31.050001,0.2882435,0.041031443,-0.009436608,1000.963, , , , 
2026-03-20 17:34:47.843,0.2440679,6.0394845,12.461821,-0.07147118,-0.37766716,0.06368265,-14.925,-48.787502,-31.2,0.28640857,0.038315486,-0.008955027,1000.95386, , , , 
