Time,Accel_X,Accel_Y,Accel_Z,Gyro_X,Gyro_Y,Gyro_Z,Mag_X,Mag_Y,Mag_Z,Orient_X,Orient_Y,Orient_Z,Pressure,Lat,Lng,Alt,Speed
2026-03-20 18:06:03.079,2.1918256,6.8195443,5.1828537,0.17379104,0.6667589,0.37171122,-35.8875,-16.181252,-29.400002,0.3664476,-0.05682289,0.12728791,1001.27747,37.88751788,127.73726068,167.7742919921875,0.0
2026-03-20 18:06:03.099,1.5266209,6.7238317,5.3742795,-0.7999274,0.88789195,0.43524116,-36.075,-15.76875,-29.75625,0.35966894,-0.047522526,0.13807651,1001.27747, , , , 
2026-03-20 18:06:03.119,1.4596218,6.101698,7.288538,-0.96730435,0.901331,0.46822786,-36.0,-15.4875,-30.187502,0.35016912,-0.04205658,0.1450355,1001.27454, , , , 
2026-03-20 18:06:03.139,1.4979069,5.4987063,8.848659,-0.7999274,0.69241524,0.4071414,-35.8125,-15.20625,-30.581251,0.33783513,-0.036181014,0.15323745,1001.27454, , , , 
2026-03-20 18:06:03.159,1.9094725,5.5369916,8.169097,-0.61422455,0.51159924,0.33628106,-35.5125,-14.587501,-31.181252,0.3320557,-0.033700243,0.15720351,1001.27454, , , , 
2026-03-20 18:06:03.179,2.4311078,5.508278,6.987042,-0.6692024,0.4346303,0.2593121,-35.1375,-13.837501,-31.987501,0.3254338,-0.031374324,0.16150677,1001.27454, , , , 
2026-03-20 18:06:03.199,2.804388,5.2307105,6.876972,-0.83780104,0.59467685,0.08949169,-34.65,-13.012501,-32.643753,0.31779397,-0.028884957,0.16476493,1001.2713, , , , 
2026-03-20 18:06:03.219,3.0867412,5.1349974,7.9011,-0.883005,0.87200946,-0.15729769,-34.0875,-12.0,-33.225002,0.3085053,-0.023877019,0.16675028,1001.2713, , , , 
2026-03-20 18:06:03.239,2.7469604,5.4221363,8.71466,-0.7486148,1.1884375,-0.377209,-33.6375,-11.25,-33.75,0.2990263,-0.015468127,0.16726398,1001.2713, , , , 
2026-03-20 18:06:03.259,1.713261,5.881558,8.690732,-0.6423243,1.5256348,-0.422413,-33.375,-10.8,-34.050003,0.29023582,-0.0033068948,0.16725796,1001.2713, , , , 
2026-03-20 18:06:03.279,0.56470615,6.3074803,9.298509,-0.6130028,1.6734641,-0.28435755,-33.018753,-10.387501,-34.575,0.28163478,0.011854328,0.16825959,1001.269, , , , 
2026-03-20 18:06:03.299,0.32542387,5.6757755,9.762716,-0.5555815,1.5121957,-0.124310985,-32.381252,-10.012501,-35.41875,0.27125198,0.030226644,0.17155859,1001.269, , , , 
2026-03-20 18:06:03.319,-0.2440679,6.1160545,10.155139,-0.5006037,1.2568543,-0.04856375,-31.44375,-9.637501,-36.46875,0.26563212,0.039893687,0.17394388,1001.269, , , , 
2026-03-20 18:06:03.339,-1.8281165,6.125626,9.552148,-0.422413,0.6423243,0.18600832,-30.187502,-9.3,-37.74375,0.25952956,0.04868677,0.17693406,1001.269, , , , 
2026-03-20 18:06:03.359,-1.2873386,5.1493545,8.623733,-0.5726857,0.6863066,0.5403099,-29.04375,-9.075001,-38.925003,0.25419945,0.053153165,0.18176249,1001.2701, , , , 
2026-03-20 18:06:03.379,-0.6029913,4.8622155,9.245867,-0.82436204,0.7290671,0.7223476,-28.218752,-9.168751,-40.256252,0.24451041,0.05876093,0.19240248,1001.2701, , , , 
2026-03-20 18:06:03.399,-0.40677986,5.020142,10.097712,-0.95386535,0.19761476,0.50121456,-27.393751,-9.168751,-41.625,0.23772572,0.059883613,0.19831774,1001.2701, , , , 
2026-03-20 18:06:03.419,-0.4019942,4.6564326,9.585648,-1.1273509,-0.59650946,0.1517999,-26.775002,-9.01875,-42.75,0.22843908,0.05656832,0.20241837,1001.2701, , , , 
2026-03-20 18:06:03.439,-1.0097711,3.3882368,8.848659,-1.4120139,-1.4724896,-0.08888082,-26.250002,-8.6625,-43.7625,0.21872732,0.04489418,0.20129196,1001.279, , , , 
2026-03-20 18:06:03.459,-0.7082755,1.2729816,7.6666036,-1.8481714,-1.470046,-0.011911863,-25.81875,-7.8375,-44.287502,0.20299385,0.022501986,0.19694398,1001.279, , , , 
2026-03-20 18:06:03.479,1.0863415,3.9146578,8.944371,-2.0460916,-0.7308997,0.03573559,-25.968752,-6.5625005,-44.0625,0.19053963,0.010945681,0.195741,1001.279, , , , 
2026-03-20 18:06:03.500,0.7896315,4.508078,9.533006,-1.9434663,-0.022296565,-0.32956156,-26.56875,-4.96875,-43.331253,0.16711882,0.0016916351,0.19364604,1001.279, , , , 
2026-03-20 18:06:03.519,-0.5455636,2.1008983,9.853643,-1.6319252,-0.3460549,-0.5225948,-27.35625,-3.1312501,-42.24375,0.15407749,-9.964415E-4,0.19039322,1001.2911, , , , 
2026-03-20 18:06:03.539,-0.06699903,1.3639089,10.403993,-1.0723732,-1.443168,-0.48349947,-28.1625,-1.2,-41.025,0.14123884,-0.010113639,0.18418327,1001.2911, , , , 
2026-03-20 18:06:03.559,0.9667004,2.4263222,10.542776,-0.37110037,-2.0405939,-0.4468476,-28.875002,0.50625,-39.881252,0.1359437,-0.027383592,0.177199,1001.2911, , , , 
2026-03-20 18:06:03.579,1.6319051,2.225325,9.633504,0.34483317,-1.4957024,-0.37476555,-29.531252,1.95,-38.71875,0.13830778,-0.045793332,0.17030966,1001.2911, , , , 
2026-03-20 18:06:03.599,1.0336994,0.9667004,9.647861,1.009454,-0.8090904,-0.28069237,-30.337502,2.79375,-37.425003,0.14625098,-0.05612023,0.1656108,1001.2896, , , , 
2026-03-20 18:06:03.619,-0.11006984,2.928815,11.404193,1.9000949,-0.046731155,-0.10720677,-31.35,3.0937502,-36.15,0.15962762,-0.05817624,0.16368239,1001.2896, , , , 
2026-03-20 18:06:03.639,1.698904,2.9479575,13.442878,3.137707,-0.14813471,-0.024129158,-32.25,3.1125002,-35.025,0.18166167,-0.054767065,0.16422333,1001.2896, , , , 
2026-03-20 18:06:03.659,2.4311078,1.8424734,1.7180467,3.8805184,0.6508764,-0.17684536,-32.8125,2.625,-34.162502,0.2165347,-0.04938008,0.16448143,1001.2896, , , , 
2026-03-20 18:06:03.679,2.900101,5.7140603,2.804388,0.84085536,3.0418012,0.5732966,-33.0,1.7062501,-33.6375,0.23800686,-0.02512843,0.17266163,1001.27216, , , , 
2026-03-20 18:06:03.699,-0.9236295,5.474778,7.733603,0.58062696,2.0595305,0.5696314,-32.8875,0.3375,-33.45,0.23977844,-0.0011035366,0.1841398,1001.27216, , , , 
2026-03-20 18:06:03.719,0.11485548,4.914858,7.216753,0.24953826,1.9654574,0.7651081,-32.49375,-1.25625,-33.73125,0.2408338,0.017929845,0.19489792,1001.27216, , , , 
2026-03-20 18:06:03.739,1.5218352,3.938586,8.456235,-0.011911863,1.4792091,0.69058263,-31.743752,-2.5125,-34.55625,0.23875105,0.033448126,0.20655574,1001.27216, , , , 
2026-03-20 18:06:03.759,0.3589234,3.306881,11.442478,-0.29290965,-0.4071414,-0.060781047,-30.73125,-3.2250001,-35.775,0.23506445,0.04126582,0.2136142,1001.24646, , , , 
2026-03-20 18:06:03.779,-0.49292147,4.302295,11.030912,-0.15851942,-0.8518509,-0.030237807,-29.587502,-3.3750002,-37.0875,0.23416194,0.03570698,0.2113101,1001.24646, , , , 
2026-03-20 18:06:03.799,1.6414764,3.5605202,10.107283,0.28619015,-0.5525272,-0.041233372,-28.593752,-3.16875,-38.0625,0.23546982,0.02799018,0.20936278,1001.24646, , , , 
2026-03-20 18:06:03.819,2.416751,3.9338005,8.427522,0.57940525,0.118202336,-0.30757043,-28.10625,-2.9625,-38.60625,0.24005422,0.026063254,0.20725828,1001.24646, , , , 
2026-03-20 18:06:03.839,0.64606214,4.3501515,8.815159,0.684474,0.87078774,-0.49205157,-28.143751,-2.7562501,-38.7,0.24591185,0.034618147,0.20378247,1001.19507, , , , 
2026-03-20 18:06:03.859,0.0526421,3.4887354,8.427522,0.8176425,1.5500693,-0.6044507,-28.1625,-2.625,-38.475002,0.24913162,0.04534852,0.20230076,1001.19507, , , , 
2026-03-20 18:06:03.880,-2.1296122,5.910272,6.920043,0.92148954,1.5708388,-0.2770272,-27.91875,-2.8875,-38.325,0.25439882,0.064002916,0.20009921,1001.19507, , , , 
2026-03-20 18:06:03.899,0.014356935,4.4458647,7.3028946,0.48777553,0.78893185,-0.060781047,-27.16875,-3.4875002,-38.41875,0.25852355,0.07911438,0.20254923,1001.19507, , , , 
2026-03-20 18:06:03.919,-0.4546363,4.240082,6.6089764,-0.041233372,-0.11148282,-0.065667965,-26.00625,-4.275,-38.756252,0.26056975,0.083222315,0.20240703,1001.18274, , , , 
2026-03-20 18:06:03.939,0.0047856453,5.029713,7.159325,-0.38698283,-0.4816669,-0.092546016,-24.975,-5.175,-39.3375,0.259519,0.08093632,0.20143236,1001.18274, , , , 
2026-03-20 18:06:03.959,1.1246266,5.278567,8.465807,-0.43218684,-0.36926776,-0.2122755,-24.281252,-5.90625,-39.825,0.25635114,0.075716875,0.19945243,1001.18274, , , , 
2026-03-20 18:06:03.979,0.33499518,3.938586,8.475378,-0.09376775,0.2244928,-0.3271181,-23.925001,-6.2812505,-40.068752,0.25304514,0.07438486,0.19624208,1001.18274, , , , 
2026-03-20 18:06:03.999,-0.72263247,4.6037908,9.466006,0.06750056,-0.113926284,-0.3601048,-23.75625,-6.2812505,-40.18125,0.25243106,0.07670903,0.19333583,1001.16974, , , , 
2026-03-20 18:06:04.019,-1.1629118,4.8765726,8.815159,0.16890411,-0.48777553,-0.23915356,-23.71875,-6.01875,-40.143753,0.25342238,0.075299256,0.19033974,1001.16974, , , , 
2026-03-20 18:06:04.041,-0.07178468,4.7952166,7.7383885,0.22143848,-0.46822786,-0.1499673,-23.71875,-5.7375,-40.0875,0.25673106,0.07048931,0.18629979,1001.16974, , , , 
2026-03-20 18:06:04.059,-0.17706887,5.1589255,7.173682,0.09926552,-0.4987711,-0.13164136,-23.7,-5.68125,-40.050003,0.2586625,0.06782165,0.18431783,1001.16974, , , , 
2026-03-20 18:06:04.079,0.11485548,5.302495,6.896115,-0.2403753,-0.70768684,-0.09987639,-23.90625,-5.83125,-39.956253,0.25939092,0.06070224,0.18097691,1001.1604,37.88752776,127.73729178,166.4488525390625,0.0
2026-03-20 18:06:04.099,-1.6462619,3.1633115,8.025527,-0.29657486,-0.43524116,-0.013133593,-24.187502,-6.20625,-39.768753,0.25800672,0.056097236,0.17932343,1001.1604, , , , 
2026-03-20 18:06:04.119,0.038285162,5.9150577,8.877372,-0.04612029,0.062002774,-0.014355322,-24.581251,-6.5062504,-39.46875,0.25665626,0.0522664,0.1787367,1001.1604, , , , 
2026-03-20 18:06:04.139,-0.5072784,5.144569,8.221739,0.11270455,0.066889696,0.1933387,-25.25625,-6.6562505,-39.075,0.25677833,0.05327341,0.17959131,1001.1604, , , , 
2026-03-20 18:06:04.159,1.4213367,4.7377887,8.188239,0.14813471,0.16707152,0.15302163,-25.650002,-6.8250003,-38.8125,0.2582956,0.054200612,0.1823453,1001.14954, , , , 
2026-03-20 18:06:04.179,0.83748794,5.221139,8.001599,0.18845178,0.22327107,-0.035124727,-25.893751,-6.76875,-38.625,0.25926206,0.05566591,0.18306406,1001.14954, , , , 
2026-03-20 18:06:04.199,-1.2011969,6.0107703,6.9248285,-0.022907428,0.118202336,0.094378605,-26.081251,-6.7125,-38.5125,0.26026088,0.057796538,0.18334231,1001.14954, , , , 
2026-03-20 18:06:04.219,-0.37806597,5.704489,7.1880393,-0.46761698,-0.12492185,0.32162032,-26.081251,-6.6937504,-38.625,0.25874606,0.057477936,0.18541266,1001.14954, , , , 
2026-03-20 18:06:04.239,0.8566305,4.6707897,9.647861,-0.7217367,-0.1847866,0.25320345,-26.025002,-6.525,-38.775,0.2519352,0.0527488,0.18890987,1001.13873, , , , 
2026-03-20 18:06:04.259,0.18664017,4.273581,11.078769,-0.39064804,0.1621846,0.11759147,-26.081251,-6.5062504,-39.0,0.24761291,0.05108007,0.19034417,1001.13873, , , , 
2026-03-20 18:06:04.279,-0.18185452,4.4410787,10.370493,0.1273653,0.30146176,0.06017018,-26.1375,-6.4125004,-39.2625,0.24512614,0.052709524,0.19197528,1001.13873, , , , 
2026-03-20 18:06:04.299,0.5455636,4.9052863,8.16431,0.3753764,0.25870124,0.00763581,-26.118752,-6.24375,-39.393753,0.24691233,0.05567772,0.19288702,1001.13873, , , , 
2026-03-20 18:06:04.319,-0.32542387,5.6757755,7.135397,0.32039857,0.41263917,-0.06444623,-25.987501,-6.01875,-39.43125,0.24984616,0.05927794,0.19314778,1001.1455, , , , 
2026-03-20 18:06:04.339,-0.5694918,5.359923,7.408179,0.15913028,0.21471897,0.040622506,-25.556252,-5.625,-39.5625,0.2518249,0.06362684,0.19370171,1001.1455, , , , 
2026-03-20 18:06:04.359,0.033499517,5.063213,8.073383,-0.07910699,-0.4486802,-0.01924224,-25.143751,-5.5687504,-39.75,0.25261942,0.06368155,0.19388914,1001.1455, , , , 
2026-03-20 18:06:04.379,0.2105684,4.991428,9.221938,-0.0754418,-0.39614582,-0.04978548,-24.975,-5.68125,-39.99375,0.25246683,0.059122343,0.19250675,1001.1455, , , , 
2026-03-20 18:06:04.399,-0.42592242,4.278367,9.202796,0.1725693,-0.011300999,-0.015577052,-25.0125,-5.83125,-40.2,0.25301197,0.057165917,0.19155578,1001.1683, , , , 
2026-03-20 18:06:04.419,-0.15792629,4.651647,10.01157,0.15424335,-0.23854269,-0.097432934,-25.181252,-6.01875,-40.256252,0.25468123,0.05666155,0.19085933,1001.1683, , , , 
2026-03-20 18:06:04.439,-0.37328035,5.0249276,9.001799,0.23121232,-0.548862,-0.13286309,-25.312502,-6.0750003,-40.10625,0.25710592,0.053650253,0.18866955,1001.1683, , , , 
2026-03-20 18:06:04.459,0.2440679,5.288138,7.5469627,0.309403,-0.16279547,-0.10476331,-25.368752,-6.1875005,-39.80625,0.26113448,0.049960434,0.18581007,1001.1683, , , , 
2026-03-20 18:06:04.479,0.0047856453,5.6470613,7.1976104,0.3008509,0.2770272,-0.11209369,-25.425001,-6.3375,-39.487503,0.26336336,0.05092583,0.18500805,1001.18207, , , , 
2026-03-20 18:06:04.499,-0.34456646,5.3982077,7.661818,0.19089524,0.1915061,-0.13041963,-25.593752,-6.58125,-39.16875,0.2653679,0.054540973,0.1845881,1001.18207, , , , 
2026-03-20 18:06:04.520,-0.72263247,5.575277,7.60439,-0.008246674,-0.26542073,-0.13286309,-25.781252,-6.8250003,-39.018753,0.2664739,0.055474114,0.18328063,1001.18207, , , , 
2026-03-20 18:06:04.539,-0.9523434,5.613562,7.5996046,-0.19883649,-0.60872674,-0.026572619,-25.987501,-6.9187503,-39.0,0.26641816,0.051748816,0.18118869,1001.18207, , , , 
2026-03-20 18:06:04.559,-0.37806597,5.8193445,7.618747,-0.228158,-0.5183188,0.13225223,-26.118752,-7.0312505,-39.05625,0.26557308,0.045717124,0.17987433,1001.1914, , , , 
2026-03-20 18:06:04.579,1.0241281,5.235496,7.8867435,-0.20127994,-0.15546508,0.15424335,-26.23125,-7.1062503,-38.9625,0.26435387,0.040994186,0.18036427,1001.1914, , , , 
2026-03-20 18:06:04.599,1.0624132,4.8526444,8.657232,-0.06811142,0.28313583,-0.029016078,-26.362501,-6.9750004,-38.756252,0.26291648,0.040336035,0.18130273,1001.1914, , , , 
2026-03-20 18:06:04.619,-0.65084773,5.206782,9.212367,0.0980438,0.3442223,3.054324E-4,-26.41875,-6.8625,-38.5125,0.262168,0.044017006,0.18190014,1001.1914, , , , 
2026-03-20 18:06:04.639,0.18664017,5.0344987,8.571091,0.03695732,-0.13713914,0.06017018,-26.493752,-6.76875,-38.23125,0.26265338,0.046060573,0.18266277,1001.2008, , , , 
2026-03-20 18:06:04.659,0.27756742,5.020142,8.657232,-0.0754418,-0.3460549,-0.010690134,-26.5125,-6.7312503,-38.23125,0.26298666,0.04363686,0.18235162,1001.2008, , , , 
2026-03-20 18:06:04.680,0.0,5.0536413,8.891729,0.03451386,-0.15057817,0.022296565,-26.2875,-6.675,-38.4,0.26306057,0.040814213,0.18157007,1001.2008, , , , 
2026-03-20 18:06:04.699,-0.18664017,4.9579287,8.346166,0.11148282,0.014355322,0.06627883,-26.062502,-6.5062504,-38.53125,0.26421997,0.040208656,0.1818258,1001.2008, , , , 
2026-03-20 18:06:04.719,0.09571291,4.761717,8.786445,0.0980438,0.040011644,0.094378605,-25.95,-6.3562503,-38.68125,0.26485965,0.040461317,0.18246716,1001.20544, , , , 
2026-03-20 18:06:04.739,0.4881358,4.7042894,8.968299,0.17379104,0.011911863,0.05650499,-25.837502,-6.1875005,-38.643753,0.26591855,0.040755127,0.18331705,1001.20544, , , , 
2026-03-20 18:06:04.759,0.14356937,4.7425747,8.829515,0.25076,-0.044287696,-0.024129158,-25.85625,-6.15,-38.456253,0.2677859,0.041012213,0.18346976,1001.20544, , , , 
2026-03-20 18:06:04.779,-0.22492532,5.245067,7.9968133,0.2678642,-0.11148282,-0.04734202,-25.837502,-6.0937505,-38.381252,0.27119535,0.040392086,0.18267973,1001.20544, , , , 
2026-03-20 18:06:04.799,-0.44985065,5.178068,7.9633136,0.20677772,-0.11026109,0.055283263,-25.687502,-5.90625,-38.287502,0.2730425,0.04003189,0.18236169,1001.21246, , , , 
2026-03-20 18:06:04.819,0.014356935,5.0440702,7.8149586,0.16279547,-0.14691298,0.10537417,-25.63125,-5.86875,-38.23125,0.2751127,0.039145436,0.18268892,1001.21246, , , , 
2026-03-20 18:06:04.840,0.35413775,5.2833524,7.2215385,0.082161315,-0.100487255,0.0736092,-25.66875,-6.05625,-38.30625,0.27703142,0.037379537,0.18319046,1001.21246, , , , 
2026-03-20 18:06:04.859,-0.09571291,5.2689953,7.6139617,0.019853106,0.12797616,0.09682207,-25.81875,-6.3375,-38.2125,0.2774625,0.03748614,0.1839778,1001.21246, , , , 
2026-03-20 18:06:04.879,-0.32063824,5.0775695,8.336594,0.016187917,0.24159703,0.18845178,-25.81875,-6.6375003,-38.193752,0.27736744,0.038614836,0.18528287,1001.2178, , , , 
2026-03-20 18:06:04.899,0.26799613,5.020142,8.642876,0.0650571,0.13530655,0.22632541,-25.706251,-6.8437505,-38.287502,0.27729663,0.04016697,0.1878587,1001.2178, , , , 
2026-03-20 18:06:04.919,0.5312066,5.0344987,8.260024,0.08949169,0.07422007,0.15790854,-25.48125,-6.8625,-38.30625,0.27787372,0.040711645,0.19004726,1001.2178, , , , 
2026-03-20 18:06:04.939,0.20578274,5.096712,8.647661,0.1065959,0.04367683,0.1395826,-25.3875,-6.9187503,-38.362503,0.27884552,0.04119341,0.19192491,1001.2178, , , , 
2026-03-20 18:06:04.959,0.13399807,5.163711,8.843872,0.20311254,0.044898562,0.16890411,-25.575,-7.0312505,-38.362503,0.2798161,0.04135507,0.19300327,1001.22266, , , , 
2026-03-20 18:06:04.979,0.67477596,5.2737813,8.01117,0.28985533,0.060781047,0.1640172,-25.781252,-7.05,-38.325,0.2812495,0.04154569,0.19427226,1001.22266, , , , 
2026-03-20 18:06:05.000,0.59342,5.460421,7.3986077,0.1640172,0.15241076,0.13225223,-26.025002,-6.99375,-38.25,0.28465694,0.042895414,0.19669671,1001.22266, , , , 
2026-03-20 18:06:05.019,0.53599226,5.235496,7.891529,0.07971785,0.19639303,0.11759147,-25.968752,-6.9750004,-38.268753,0.28526995,0.04399235,0.19790061,1001.22266, , , , 
2026-03-20 18:06:05.039,0.29671,5.0344987,8.906086,0.15790854,0.2073886,0.09560034,-25.687502,-6.9,-38.34375,0.28573933,0.045843966,0.1995265,1001.2303, , , , 
2026-03-20 18:06:05.059,0.19142582,5.4221363,7.891529,0.28252497,0.17806709,0.07116575,-25.331251,-6.76875,-38.4375,0.28734234,0.047734827,0.20070985,1001.2303, , , , 
2026-03-20 18:06:05.080,0.2105684,5.8863435,6.8721867,0.22021675,0.42607817,0.15790854,-24.993752,-6.80625,-38.68125,0.28983155,0.051423836,0.20279334,1001.2303,37.88752022,127.73731966,170.9385986328125,0.0
2026-03-20 18:06:05.099,1.6031911,4.723432,7.3363943,0.08460477,0.45906487,-0.01924224,-24.88125,-6.8250003,-38.925003,0.29040146,0.05463159,0.20487681,1001.2303, , , , 
2026-03-20 18:06:05.119,-0.5599205,5.790631,7.537391,-0.004581486,0.16707152,-0.11209369,-24.618752,-6.9,-39.0,0.29009113,0.05825595,0.20495284,1001.23285, , , , 
2026-03-20 18:06:05.139,-1.0863415,6.101698,7.470392,-0.05589413,0.19883649,0.1432478,-24.300001,-7.0687504,-39.05625,0.28953382,0.06002123,0.20523684,1001.23285, , , , 
2026-03-20 18:06:05.159,0.086141616,5.493921,7.4129643,-0.14508039,0.06444623,0.33505934,-24.16875,-7.0687504,-39.131252,0.28833574,0.060552295,0.20872328,1001.23285, , , , 
2026-03-20 18:06:05.179,1.134198,5.1589255,7.4416785,-0.2073886,0.10598504,0.21532984,-24.018751,-7.0312505,-39.225002,0.28716788,0.059956256,0.21103725,1001.23285, , , , 
2026-03-20 18:06:05.199,0.971486,4.948357,8.427522,-0.17195843,0.36987862,0.05650499,-23.98125,-6.9750004,-39.3375,0.2849697,0.06095457,0.2133287,1001.2324, , , , 
2026-03-20 18:06:05.219,0.57906306,4.9340005,8.60459,-0.26358816,-0.34483317,-0.19761476,-24.112501,-6.9,-39.43125,0.28272906,0.061297547,0.21348254,1001.2324, , , , 
2026-03-20 18:06:05.239,1.0767702,5.206782,8.04467,-0.3601048,-0.9935716,-0.30879214,-24.093752,-6.8812504,-39.46875,0.28066763,0.0533081,0.20833753,1001.2324, , , , 
2026-03-20 18:06:05.259,0.23928227,5.359923,8.1020975,-0.3442223,-0.87262034,-0.36621344,-24.056252,-6.61875,-39.375,0.27956215,0.046145882,0.20383342,1001.2324, , , , 
2026-03-20 18:06:05.279,-0.5312066,5.599205,8.949157,-0.091324285,-0.4401281,-0.16584979,-24.337502,-6.3187504,-39.225002,0.27834636,0.039785687,0.19901669,1001.232, , , , 
2026-03-20 18:06:05.299,0.46899325,5.3359947,8.7577305,0.08460477,-0.2886336,-0.026572619,-24.750002,-6.05625,-39.112503,0.2788479,0.036773976,0.19710208,1001.232, , , , 
2026-03-20 18:06:05.320,1.402194,5.3312087,7.6953177,0.094378605,-0.36193737,-0.10598504,-25.275002,-5.9437504,-38.90625,0.28084472,0.033280674,0.19529623,1001.232, , , , 
2026-03-20 18:06:05.339,0.8662018,5.4556355,7.580462,-0.011911863,-0.25809038,-0.18539746,-25.725,-6.1125,-38.71875,0.28168133,0.031326763,0.19355534,1001.232, , , , 
2026-03-20 18:06:05.359,0.5407779,5.369494,8.733803,3.054324E-4,-0.19211698,-0.14874557,-25.85625,-6.2812505,-38.53125,0.28190354,0.029643666,0.19128911,1001.23395, , , , 
2026-03-20 18:06:05.379,1.105484,5.197211,8.676374,0.1065959,-0.20433427,-0.1621846,-26.00625,-6.4875,-38.23125,0.28259277,0.028237194,0.18935925,1001.23395, , , , 
2026-03-20 18:06:05.399,1.1724831,5.4221363,7.5230346,0.160352,-0.09071342,-0.2696968,-26.175001,-6.6562505,-37.93125,0.28459728,0.027243538,0.18620005,1001.23395, , , , 
2026-03-20 18:06:05.419,0.124426775,5.7284174,7.3746796,0.11026109,0.1707367,-0.24159703,-26.437502,-6.6937504,-37.74375,0.2855419,0.028176628,0.18429016,1001.23395, , , , 
2026-03-20 18:06:05.439,0.44027936,5.919843,8.609376,0.24465135,0.24281874,-0.123089254,-26.718752,-6.8437505,-37.66875,0.28625423,0.031280823,0.183353,1001.239, , , , 
2026-03-20 18:06:05.459,0.65084773,5.5226345,7.9968133,0.15790854,0.07177661,-0.12553272,-26.643751,-6.99375,-37.818752,0.28793764,0.03374837,0.18259855,1001.239, , , , 
2026-03-20 18:06:05.480,0.15314065,5.623133,7.4129643,0.057726722,-0.03329213,-0.15363249,-26.343752,-7.1062503,-38.006252,0.28904665,0.034518346,0.18122047,1001.239, , , , 
2026-03-20 18:06:05.499,-0.22013968,5.6757755,7.8197446,-0.011911863,0.04978548,-0.053450666,-26.00625,-7.33125,-37.987503,0.28928608,0.034903977,0.18004319,1001.239, , , , 
2026-03-20 18:06:05.519,0.12921242,5.45085,8.001599,-0.008246674,0.009468404,0.0051923506,-25.743752,-7.6125,-37.95,0.2891015,0.03544761,0.17992976,1001.2426, , , , 
2026-03-20 18:06:05.539,0.26799613,5.5465627,7.556534,-0.030237807,-0.068722285,0.012522728,-25.593752,-7.8562503,-37.875,0.2890305,0.03522164,0.17991415,1001.2426, , , , 
2026-03-20 18:06:05.559,0.47377887,5.6183476,7.2263246,-0.10354158,-0.022296565,0.003970621,-25.462502,-7.9125004,-37.66875,0.28851315,0.034403224,0.17984274,1001.2426, , , , 
2026-03-20 18:06:05.579,0.4642076,5.355137,8.087741,-0.12186752,0.060781047,-0.015577052,-25.425001,-7.9125004,-37.59375,0.2876147,0.034384497,0.179899,1001.2426, , , , 
2026-03-20 18:06:05.599,0.0526421,5.45085,8.389236,0.00641408,0.13041963,-0.030237807,-25.518751,-7.8187504,-37.59375,0.28666073,0.03506432,0.17993131,1001.2471, , , , 
2026-03-20 18:06:05.619,-0.16749759,5.757131,7.3268228,0.0858265,0.2159407,0.022296565,-25.837502,-7.7812505,-37.55625,0.28683504,0.036778733,0.18023925,1001.2471, , , , 
2026-03-20 18:06:05.639,0.18185452,5.7140603,6.843473,-0.037568185,0.25870124,0.06383537,-26.118752,-7.70625,-37.631252,0.28682706,0.03960228,0.1816419,1001.2471, , , , 
2026-03-20 18:06:05.659,0.0047856453,5.666204,7.422536,-0.14630212,0.21349724,0.074830934,-26.325,-7.7250004,-37.6875,0.2862427,0.041135296,0.18260485,1001.2471, , , , 
2026-03-20 18:06:05.679,0.047856454,5.5465627,8.068598,-0.12553272,0.1291979,0.11148282,-26.56875,-7.8562503,-37.7625,0.2845818,0.0424438,0.18403383,1001.2492, , , , 
2026-03-20 18:06:05.699,0.3924229,5.642276,7.7623167,-0.09376775,-0.010079269,0.10415245,-26.475,-7.7812505,-37.800003,0.28351068,0.042658046,0.18534368,1001.2492, , , , 
2026-03-20 18:06:05.719,0.38285163,5.8767724,7.283752,-0.118202336,-0.025961753,0.12247839,-26.250002,-7.6687503,-37.818752,0.28274262,0.041850988,0.18625502,1001.2492, , , , 
2026-03-20 18:06:05.739,0.7513463,5.8672013,7.082755,-0.1499673,0.09498947,0.1517999,-26.025002,-7.3875003,-38.0625,0.28165007,0.041304506,0.18759754,1001.2492, , , , 
2026-03-20 18:06:05.759,0.72741807,5.7858453,7.2358956,-0.20616686,0.20861033,0.15668681,-25.7625,-7.1250005,-38.23125,0.27997756,0.04184513,0.18950313,1001.2505, , , , 
2026-03-20 18:06:05.779,0.7704889,5.5274205,7.853244,-0.24159703,0.15607595,0.14813471,-25.593752,-6.9750004,-38.325,0.2770466,0.04303206,0.19214275,1001.2505, , , , 
2026-03-20 18:06:05.799,0.6843473,5.3503513,8.298309,-0.228158,0.06811142,0.113926284,-25.518751,-6.8812504,-38.550003,0.27523303,0.043205515,0.19343059,1001.2505, , , , 
2026-03-20 18:06:05.819,0.5982057,5.221139,8.350951,-0.14508039,0.0632245,0.074830934,-25.312502,-6.6562505,-38.5875,0.2732681,0.043020003,0.19463813,1001.2505, , , , 
2026-03-20 18:06:05.839,0.3062813,5.3359947,7.920243,-0.053450666,0.17562363,0.032070402,-24.993752,-6.20625,-38.5875,0.27209282,0.04357042,0.1955102,1001.25305, , , , 
2026-03-20 18:06:05.859,0.086141616,5.5369916,7.948957,-0.04856375,0.1707367,0.03084867,-24.843752,-5.925,-38.49375,0.2716408,0.045391433,0.19630508,1001.25305, , , , 
2026-03-20 18:06:05.879,0.2632105,5.680561,7.8149586,-0.09010255,0.033902995,0.0027488915,-24.900002,-5.8125,-38.193752,0.2717214,0.04652683,0.19683142,1001.25305, , , , 
2026-03-20 18:06:05.899,0.29671,5.881558,7.475178,-0.1499673,-0.05894845,-0.026572619,-25.031252,-5.8875003,-38.025,0.27204302,0.04640337,0.19675511,1001.25305, , , , 
2026-03-20 18:06:05.919,-0.10049855,6.125626,7.5661054,-0.21349724,-0.050396346,-0.014355322,-24.975,-5.7375,-38.175003,0.27222922,0.046048205,0.19641583,1001.25494, , , , 
2026-03-20 18:06:05.939,0.05742774,6.1974106,7.7383885,-0.2855793,-0.06627883,0.019853106,-24.956251,-5.4187503,-38.568752,0.26976123,0.04495594,0.19632241,1001.25494, , , , 
2026-03-20 18:06:05.959,0.2440679,6.206982,7.9346,-0.3197877,-0.10293072,0.016187917,-24.993752,-5.15625,-38.850002,0.26720208,0.043492552,0.19638212,1001.25494, , , , 
2026-03-20 18:06:05.979,0.4642076,6.068198,8.097312,-0.27091852,-0.0772744,-0.021685699,-24.91875,-4.9500003,-38.925003,0.26460078,0.04194563,0.19630778,1001.25494, , , , 
2026-03-20 18:06:05.999,0.3924229,5.953343,8.097312,-0.16462806,-0.05650499,-0.065667965,-24.937502,-5.0437503,-38.850002,0.262589,0.04097123,0.19587378,1001.25836, , , , 
2026-03-20 18:06:06.020,-0.10049855,6.0825553,7.6713896,-0.060781047,0.0058032153,-0.11942407,-24.956251,-5.0062504,-38.643753,0.2614622,0.040600687,0.19466938,1001.25836, , , , 
2026-03-20 18:06:06.039,-0.37328035,6.2117677,7.537391,3.054324E-4,0.027794348,-0.091324285,-24.7875,-4.6875,-38.53125,0.2612564,0.04103802,0.19395265,1001.25836, , , , 
2026-03-20 18:06:06.059,-0.526421,6.2644095,7.4177504,0.012522728,-0.044287696,-0.07666353,-24.675001,-4.2937503,-38.5875,0.2613832,0.041435663,0.1931399,1001.25836, , , , 
2026-03-20 18:06:06.079,-0.60777694,6.2548385,6.838687,0.00763581,-0.13713914,-0.040011644,-24.900002,-4.125,-38.643753,0.2618153,0.040950626,0.19228442,1001.2605,37.88752022,127.73731966,170.9385986328125,0.0
2026-03-20 18:06:06.099,-0.81834537,6.398408,6.843473,-0.08032872,-0.10415245,0.032070402,-25.125002,-4.2562504,-38.7,0.26195356,0.039525766,0.19168937,1001.2605, , , , 
2026-03-20 18:06:06.119,-0.46899325,6.3314085,7.355537,-0.10720677,-0.046731155,0.100487255,-25.218752,-4.6125,-38.850002,0.26168898,0.03901695,0.19185597,1001.2605, , , , 
2026-03-20 18:06:06.139,-0.023928227,6.1878395,8.001599,-0.04367683,-0.00763581,0.07849612,-25.312502,-5.0437503,-38.86875,0.26150197,0.038606334,0.19278733,1001.2605, , , , 
2026-03-20 18:06:06.159,-0.11485548,6.422336,7.776674,0.07116575,0.033902995,0.0051923506,-25.29375,-5.1937504,-38.737503,0.261643,0.038622357,0.19326748,1001.26196, , , , 
2026-03-20 18:06:06.179,-0.39720857,6.853044,7.8293157,0.0736092,0.032681264,-0.0033597562,-25.29375,-5.0625,-38.625,0.26265314,0.03938355,0.19326632,1001.26196, , , , 
2026-03-20 18:06:06.199,0.10049855,6.963114,8.1020975,0.076052666,-0.03940078,0.003970621,-25.462502,-4.89375,-38.4375,0.26329863,0.039601754,0.19328561,1001.26196, , , , 
2026-03-20 18:06:06.219,0.23449662,7.111469,8.193025,0.09926552,-0.09315688,-0.041233372,-25.593752,-4.8187504,-38.4,0.26438537,0.03924023,0.19293346,1001.26196, , , , 
2026-03-20 18:06:06.239,0.14356937,7.312466,8.365308,0.1725693,-0.014966187,-0.041233372,-25.593752,-4.6687503,-38.49375,0.26590344,0.03896397,0.19223355,1001.2639, , , , 
2026-03-20 18:06:06.259,0.35413775,7.207182,8.370093,0.21044292,0.10598504,-0.026572619,-25.518751,-4.70625,-38.53125,0.2683587,0.040104847,0.19190559,1001.2639, , , , 
2026-03-20 18:06:06.279,0.27756742,7.082755,8.571091,0.12858704,0.09987639,-0.059559315,-25.518751,-4.93125,-38.662502,0.2695746,0.041336507,0.19182546,1001.2639, , , , 
2026-03-20 18:06:06.299,-0.043070808,6.987042,8.762517,0.0027488915,-0.05894845,-0.06444623,-25.687502,-5.0437503,-38.68125,0.27038643,0.042182874,0.19129187,1001.2639, , , , 
2026-03-20 18:06:06.319,0.14356937,6.623333,8.973084,-0.11575887,-0.17134757,-0.030237807,-25.650002,-5.34375,-38.5125,0.27026242,0.041296717,0.19051434,1001.26514, , , , 
2026-03-20 18:06:06.339,0.94755775,5.8480587,9.126225,-0.1414152,-0.19944735,-0.05589413,-25.518751,-5.775,-38.41875,0.26920232,0.038743313,0.1895135,1001.26514, , , , 
2026-03-20 18:06:06.359,1.1246266,5.6039906,9.145369,-0.065667965,-0.12370012,-0.13041963,-25.462502,-5.9625,-38.41875,0.26862302,0.03750366,0.18858024,1001.26514, , , , 
2026-03-20 18:06:06.379,0.89013004,5.4125648,8.169097,-0.04367683,-0.044287696,-0.19394957,-25.331251,-6.1125,-38.325,0.2683534,0.03683572,0.18688732,1001.26514, , , , 
2026-03-20 18:06:06.399,-0.17706887,4.895715,9.652647,-0.1744019,0.30024004,-0.13164136,-25.406252,-6.1312504,-38.362503,0.2672235,0.037439987,0.18526186,1001.2684, , , , 
2026-03-20 18:06:06.419,-0.47377887,4.211368,9.040084,-0.30146176,0.07177661,-0.04978548,-25.48125,-6.01875,-38.325,0.26518416,0.039052527,0.18481754,1001.2684, , , , 
2026-03-20 18:06:06.439,0.3924229,3.8476589,10.3848505,-0.01924224,-0.022296565,-0.08155045,-25.35,-5.9812503,-38.081253,0.26273373,0.03928969,0.18464065,1001.2684, , , , 
2026-03-20 18:06:06.459,0.5599205,4.503292,9.236296,0.4951059,-0.1188132,-0.21716243,-25.275002,-5.83125,-38.006252,0.26417252,0.03910369,0.18309705,1001.2684, , , , 
2026-03-20 18:06:06.479,0.27756742,5.4125648,6.1495543,0.716239,0.07299834,-0.21105379,-25.368752,-5.68125,-37.875,0.27005392,0.04018036,0.18049037,1001.2694, , , , 
2026-03-20 18:06:06.499,0.5982057,5.7379885,4.3932223,0.40469792,0.18173227,-0.097432934,-25.48125,-5.7562504,-37.74375,0.27605546,0.043006357,0.1788806,1001.2694, , , , 
2026-03-20 18:06:06.519,0.76570326,5.608776,5.642276,-0.060781047,0.12553272,-0.060781047,-25.612501,-5.9437504,-37.631252,0.27823737,0.04532632,0.17851214,1001.2694, , , , 
2026-03-20 18:06:06.539,0.6939186,5.2019963,6.9009004,-0.34910923,-0.025961753,-0.05589413,-25.500002,-6.3187504,-37.3875,0.2765752,0.045748748,0.17825736,1001.2694, , , , 
2026-03-20 18:06:06.559,-0.05742774,4.8095737,8.370093,-0.47372565,-0.03329213,-0.022907428,-25.218752,-6.7500005,-37.29375,0.2717072,0.04450115,0.17782997,1001.2677, , , , 
2026-03-20 18:06:06.579,-0.076570325,4.3788652,9.724431,-0.34666577,-0.029626941,0.047952887,-24.956251,-7.0125003,-37.350002,0.268535,0.043766107,0.17800531,1001.2677, , , , 
2026-03-20 18:06:06.599,0.6029913,4.1587257,9.394221,-0.14508039,-0.076052666,0.003970621,-24.825,-7.0312505,-37.55625,0.26586968,0.042716205,0.17841662,1001.2677, , , , 
2026-03-20 18:06:06.619,0.45942193,4.517649,8.743374,0.016187917,-0.09560034,-0.09010255,-24.88125,-6.8812504,-37.800003,0.26511124,0.04176119,0.17793126,1001.2677, , , , 
2026-03-20 18:06:06.639,0.22013968,4.900501,7.8197446,0.1517999,-0.062613636,-0.10354158,-24.975,-6.7312503,-37.95,0.26590022,0.04127285,0.17671841,1001.26306, , , , 
2026-03-20 18:06:06.659,0.23928227,5.1062837,6.977471,0.19578215,0.024129158,-0.0632245,-25.10625,-6.525,-37.893753,0.2676122,0.041559257,0.17570366,1001.26306, , , , 
2026-03-20 18:06:06.679,0.31106696,5.2689953,6.3314085,0.1517999,0.0632245,-0.02535089,-25.29375,-6.5062504,-37.7625,0.26939842,0.04242023,0.17524709,1001.26306, , , , 
2026-03-20 18:06:06.699,0.5982057,5.3886366,6.4558353,0.023518294,0.029016078,0.0015271619,-25.48125,-6.6375003,-37.518753,0.2704431,0.04316343,0.17522076,1001.26306, , , , 
2026-03-20 18:06:06.720,0.53599226,5.2737813,7.7814593,-0.004581486,-0.113926284,-0.010690134,-25.650002,-6.7125,-37.18125,0.2705204,0.042774715,0.17506474,1001.25964, , , , 
2026-03-20 18:06:06.739,0.6652047,5.2259245,7.82453,0.094378605,-0.17012584,-0.029016078,-25.706251,-6.8250003,-37.162502,0.2709931,0.0417356,0.17463921,1001.25964, , , , 
2026-03-20 18:06:06.759,0.37806597,5.5226345,7.685746,0.20189081,-0.03451386,-0.037568185,-25.593752,-6.9375005,-37.18125,0.27249753,0.04077534,0.1739083,1001.25964, , , , 
2026-03-20 18:06:06.779,0.033499517,5.8241305,7.570891,0.27763805,0.123089254,0.012522728,-25.406252,-6.99375,-37.18125,0.2746971,0.04150961,0.17366448,1001.25964, , , , 
2026-03-20 18:06:06.799,0.18185452,5.814559,7.499106,0.2678642,0.17562363,0.076052666,-25.2,-7.05,-37.143753,0.27779764,0.04381197,0.17459218,1001.25775, , , , 
2026-03-20 18:06:06.819,0.23928227,5.6183476,7.925029,0.19822562,0.085215636,0.07971785,-25.087502,-7.1062503,-36.9375,0.2793816,0.04505495,0.17543112,1001.25775, , , , 
2026-03-20 18:06:06.839,0.11964113,5.6997037,8.221739,0.11636974,-0.17867795,0.0858265,-25.031252,-7.2000003,-36.9,0.28105342,0.045085255,0.17608999,1001.25775, , , , 
2026-03-20 18:06:06.859,0.3589234,5.962914,7.8723865,0.03329213,-0.24342962,0.13469568,-24.862501,-7.33125,-37.03125,0.2823745,0.042827535,0.17634365,1001.25775, , , , 
2026-03-20 18:06:06.879,0.8757731,6.2117677,8.394022,-0.058337588,-0.022296565,0.15546508,-24.712502,-7.3500004,-37.10625,0.28272972,0.040775683,0.17726319,1001.2582, , , , 
2026-03-20 18:06:06.899,0.7704889,6.5611196,9.092726,-0.085215636,0.23060146,0.16279547,-24.50625,-7.4437504,-37.162502,0.28204134,0.040937226,0.17899904,1001.2582, , , , 
2026-03-20 18:06:06.919,0.8135597,6.3696938,8.863015,-0.21349724,0.29901832,0.1310305,-24.54375,-7.4437504,-37.143753,0.28064382,0.042746205,0.18132368,1001.2582, , , , 
2026-03-20 18:06:06.939,-0.05742774,6.0346985,9.930214,-0.51159924,0.18051054,0.016187917,-24.562502,-7.2937503,-37.143753,0.27717403,0.04439555,0.18303286,1001.2582, , , , 
2026-03-20 18:06:06.959,-1.4452649,5.680561,11.743974,-0.54702944,0.06444623,0.07238748,-24.675001,-7.3125005,-37.350002,0.27022785,0.04443045,0.18399236,1001.2592, , , , 
2026-03-20 18:06:06.979,-0.95712906,4.9674997,12.107682,-0.27214026,0.12797616,0.18234314,-24.825,-7.2000003,-37.518753,0.26685795,0.044261836,0.18523891,1001.2592, , , , 
2026-03-20 18:06:06.999,-0.26799613,4.479364,11.514262,0.13469568,0.13408482,0.15913028,-24.6,-6.95625,-37.612503,0.26513496,0.044839773,0.18735315,1001.2592, , , , 
2026-03-20 18:06:07.020,-0.086141616,4.4458647,9.288938,0.5280926,0.22571453,0.08704823,-24.525002,-6.76875,-37.800003,0.26845312,0.04708319,0.18919754,1001.2592, , , , 
2026-03-20 18:06:07.039,-1.0193424,4.7952166,7.01097,0.5684097,0.41752607,0.1273653,-24.45,-6.525,-38.006252,0.27335075,0.05108994,0.1906665,1001.26306, , , , 
2026-03-20 18:06:07.059,-1.0671989,4.7712884,6.5371914,0.23854269,0.35766134,0.2800815,-24.243752,-6.3375,-38.193752,0.27597192,0.054491743,0.19274044,1001.26306, , , , 
2026-03-20 18:06:07.080,-0.2009971,4.197011,7.594819,-0.14019346,-0.043065965,0.34483317,-24.0375,-6.2625003,-38.23125,0.2764348,0.055818096,0.1970563,1001.26306,37.88752022,127.73731966,170.9385986328125,0.0
2026-03-20 18:06:07.099,0.5694918,3.7615173,8.322237,-0.20127994,-0.16279547,0.2715294,-23.85,-6.3,-38.006252,0.27535123,0.054018833,0.19917943,1001.26306, , , , 
2026-03-20 18:06:07.119,0.023928227,3.6514473,8.327023,-0.0962112,-0.044287696,0.14446951,-23.53125,-6.3375,-37.85625,0.27401593,0.051702604,0.2009298,1001.2647, , , , 
2026-03-20 18:06:07.139,-0.60777694,3.991228,8.255239,0.10293072,0.14630212,0.22143848,-23.175001,-6.2812505,-37.78125,0.273543,0.051450245,0.20250851,1001.2647, , , , 
2026-03-20 18:06:07.159,0.9092726,4.1635113,6.987042,0.21655156,0.0962112,0.19456044,-23.175001,-6.24375,-37.6875,0.27475598,0.052480944,0.20502111,1001.2647, , , , 
2026-03-20 18:06:07.179,0.7369894,4.709075,6.45105,0.23121232,-0.014966187,0.010079269,-23.25,-6.15,-37.78125,0.27680072,0.052973878,0.20619714,1001.2647, , , , 
2026-03-20 18:06:07.199,0.33499518,5.326423,5.814559,0.2751946,-0.054061532,-0.053450666,-23.400002,-6.0,-37.7625,0.27925295,0.053153727,0.20576416,1001.2675, , , , 
2026-03-20 18:06:07.219,-0.086141616,5.8337016,4.8765726,0.18845178,0.01802051,-0.038789913,-23.41875,-5.925,-37.725002,0.28188106,0.053554364,0.20499621,1001.2675, , , , 
2026-03-20 18:06:07.239,-0.043070808,5.8672013,5.221139,-0.010690134,0.057115857,0.03573559,-23.4375,-6.0,-37.800003,0.28310305,0.054288942,0.20492777,1001.2675, , , , 
2026-03-20 18:06:07.259,0.57427746,5.4173503,6.680761,-0.12553272,-0.047952887,0.055283263,-23.53125,-6.1125,-37.912502,0.28234148,0.054118108,0.20565681,1001.2675, , , , 
2026-03-20 18:06:07.279,1.1533405,5.0823555,7.240681,-0.032681264,-0.1273653,-0.062002774,-23.475,-6.20625,-38.006252,0.28185046,0.053203136,0.20561872,1001.2675, , , , 
2026-03-20 18:06:07.299,0.2727818,5.345566,7.456035,0.11148282,-0.047952887,-0.1951713,-23.475,-6.1875005,-38.100002,0.28216335,0.05248184,0.2042644,1001.2675, , , , 
2026-03-20 18:06:07.319,-0.52163535,5.790631,7.5517483,0.23365578,0.032681264,-0.18661919,-23.4375,-6.0937505,-38.0625,0.28360742,0.05327957,0.20226954,1001.2675, , , , 
2026-03-20 18:06:07.339,-0.043070808,6.0107703,7.355537,0.3179551,-0.05894845,-0.17195843,-23.23125,-6.05625,-37.93125,0.2860974,0.054518674,0.20051804,1001.2675, , , , 
2026-03-20 18:06:07.359,-0.22013968,6.613762,6.9056864,0.30329436,-0.24831653,-0.23915356,-23.23125,-6.0937505,-37.800003,0.28936285,0.05446261,0.19802527,1001.2658, , , , 
2026-03-20 18:06:07.379,-0.55034924,7.058827,7.2358956,0.24465135,-0.17623448,-0.16462806,-23.362501,-6.39375,-37.631252,0.2925259,0.053464364,0.1950434,1001.2658, , , , 
2026-03-20 18:06:07.399,-0.2105684,7.2550383,7.60439,0.18845178,0.04734202,-0.059559315,-23.400002,-6.80625,-37.537502,0.29494548,0.053411394,0.19343838,1001.2658, , , , 
2026-03-20 18:06:07.419,0.09092726,7.192825,8.188239,0.023518294,0.14385866,-0.009468404,-23.41875,-7.1250005,-37.4625,0.2961,0.054915342,0.19339143,1001.2658, , , , 
2026-03-20 18:06:07.439,0.062213387,7.4416785,8.819944,-0.27214026,-0.14202607,-0.014355322,-23.268751,-7.5375004,-37.3125,0.2953033,0.055290684,0.19344778,1001.26324, , , , 
2026-03-20 18:06:07.459,-0.22971097,7.7144604,9.107083,-0.54947287,-0.19822562,0.044287696,-23.15625,-7.74375,-37.40625,0.2924029,0.05283409,0.19303441,1001.26324, , , , 
2026-03-20 18:06:07.479,0.30149564,6.9726853,11.145768,-0.70951945,-0.06994402,0.09560034,-22.95,-7.6687503,-37.48125,0.2869191,0.050172463,0.19361871,1001.26324, , , , 
2026-03-20 18:06:07.499,0.94277215,5.5657053,12.949956,-0.50304717,-0.0858265,-0.021685699,-22.7625,-7.5375004,-37.4625,0.27945626,0.04742161,0.19435357,1001.26324, , , , 
2026-03-20 18:06:07.519,1.1150553,4.699504,12.916456,-0.054672398,0.0070249448,-0.18906265,-22.85625,-7.2000003,-37.48125,0.27703798,0.046664476,0.1937099,1001.2624, , , , 
2026-03-20 18:06:07.539,1.1150553,4.5559344,10.633704,0.35705048,0.04734202,-0.30879214,-22.95,-6.61875,-37.4625,0.2775671,0.04766029,0.19156526,1001.2624, , , , 
2026-03-20 18:06:07.559,0.8039884,4.914858,7.5182486,0.42913252,-0.027183482,-0.38331765,-23.081251,-6.1687503,-37.575,0.2811785,0.04938989,0.18819466,1001.2624, , , , 
2026-03-20 18:06:07.579,0.16749759,5.316852,6.0777693,0.120034926,0.051007207,-0.30879214,-23.325,-6.1125,-37.8375,0.28457314,0.051369876,0.18384948,1001.2624, , , , 
2026-03-20 18:06:07.599,0.043070808,4.9770713,7.135397,-0.18539746,0.092546016,-0.1744019,-23.325,-6.2625003,-37.95,0.28419924,0.05246793,0.18228523,1001.2639, , , , 
2026-03-20 18:06:07.619,0.3924229,4.240082,8.001599,-0.29779658,-0.016187917,-0.13164136,-23.268751,-6.5437503,-37.96875,0.2817733,0.05304474,0.18115626,1001.2639, , , , 
2026-03-20 18:06:07.639,0.4211368,3.8380876,8.260024,-0.25625777,-0.18967351,-0.17684536,-23.19375,-6.7312503,-37.875,0.2789722,0.052114755,0.17972052,1001.2639, , , , 
2026-03-20 18:06:07.659,0.5072784,3.8811584,7.393822,-0.029016078,-0.23732096,-0.17928882,-22.96875,-6.6000004,-37.59375,0.27742368,0.049510345,0.17689501,1001.2639, , , , 
2026-03-20 18:06:07.679,0.59342,4.0534415,6.3074803,0.12370012,0.027794348,-0.19883649,-22.81875,-6.4875,-37.537502,0.27785903,0.048965335,0.17529298,1001.2639, , , , 
2026-03-20 18:06:07.699,0.2440679,4.316652,5.9724855,0.16890411,0.24281874,-0.19394957,-22.66875,-6.43125,-37.518753,0.27897498,0.05088711,0.1736809,1001.2639, , , , 
2026-03-20 18:06:07.719,-0.06699903,4.666004,5.8432727,0.041844238,0.08155045,-0.1744019,-22.575,-6.3375,-37.40625,0.2798205,0.053585883,0.172416,1001.2639, , , , 
2026-03-20 18:06:07.739,-0.27756742,4.900501,6.4175506,-0.17562363,-0.11759147,-0.083993904,-22.5,-6.3,-37.575,0.2790818,0.05350592,0.1706995,1001.2639, , , , 
2026-03-20 18:06:07.759,-0.076570325,4.7856455,7.9106717,-0.110871956,-0.016187917,0.0027488915,-22.462502,-6.3750005,-37.725002,0.2779402,0.052762832,0.17030585,1001.26434, , , , 
2026-03-20 18:06:07.779,-0.06699903,4.8095737,8.389236,0.120034926,0.083993904,0.03695732,-22.48125,-6.5437503,-37.74375,0.27753073,0.052948948,0.17057322,1001.26434, , , , 
2026-03-20 18:06:07.799,-0.05742774,5.144569,7.3028946,0.20922118,9.162972E-4,0.044287696,-22.425001,-6.6937504,-37.800003,0.27905598,0.053725928,0.17102444,1001.26434, , , , 
2026-03-20 18:06:07.819,0.11964113,5.3359947,6.7812595,0.13225223,-0.1065959,0.05650499,-22.5375,-6.8625,-37.818752,0.28093103,0.05339709,0.17126326,1001.26434, , , , 
2026-03-20 18:06:07.839,0.13399807,5.4173503,7.001399,0.113926284,0.027794348,0.07238748,-22.6875,-6.99375,-37.800003,0.28223753,0.052698165,0.17158942,1001.2645, , , , 
2026-03-20 18:06:07.859,-0.37806597,5.6039906,7.4129643,0.120034926,0.18784092,0.13225223,-22.7625,-7.0687504,-37.78125,0.28328946,0.053552795,0.17261766,1001.2645, , , , 
2026-03-20 18:06:07.880,-0.4977071,5.680561,8.073383,-0.0021380268,0.15241076,0.23609924,-22.85625,-7.2937503,-38.006252,0.28387937,0.05543448,0.17537199,1001.2645, , , , 
2026-03-20 18:06:07.899,-0.0526421,5.6949177,8.9826565,-0.06933315,-0.07971785,0.25686863,-22.9125,-7.5000005,-38.268753,0.28360316,0.055233456,0.17727032,1001.2645, , , , 
2026-03-20 18:06:07.919,0.124426775,6.0394845,8.872586,-0.031459536,-0.029626941,0.27397284,-22.85625,-7.4437504,-38.325,0.28336957,0.053560656,0.17949854,1001.2664, , , , 
2026-03-20 18:06:07.939,0.28713873,6.4941206,9.2793665,-0.04612029,0.2196059,0.29840744,-22.7625,-7.3125005,-38.53125,0.28313157,0.053312805,0.18236564,1001.2664, , , , 
2026-03-20 18:06:07.959,0.15792629,6.71426,9.839287,-0.11942407,0.228158,0.2800815,-22.66875,-7.1250005,-38.662502,0.2822635,0.054610338,0.18585241,1001.2664, , , , 
2026-03-20 18:06:07.979,-0.6364908,6.245267,11.638689,-0.19028437,0.0962112,0.24465135,-22.462502,-6.80625,-38.568752,0.28060913,0.055481233,0.1890184,1001.2664, , , , 
2026-03-20 18:06:07.999,-0.7848458,5.651847,12.720245,0.013744458,-0.20799945,0.24465135,-22.425001,-6.4875,-38.79375,0.2792654,0.05454271,0.1913653,1001.2747, , , , 
2026-03-20 18:06:08.019,0.13399807,5.2259245,11.255837,0.29474226,-0.30207264,0.23487751,-22.48125,-6.1875005,-38.98125,0.28076032,0.051601086,0.19286032,1001.2747, , , , 
2026-03-20 18:06:08.039,1.1006985,5.0392847,8.863015,0.4499019,-0.094378605,0.12614357,-22.5375,-6.0,-38.850002,0.28574657,0.04925941,0.19413987,1001.2747, , , , 
2026-03-20 18:06:08.059,1.2634103,4.8526444,7.3603225,0.33139414,0.04612029,-0.015577052,-22.5375,-5.9625,-38.756252,0.28874588,0.049531415,0.1944549,1001.2747, , , , 
2026-03-20 18:06:08.079,0.29192436,4.924429,6.6185474,0.0027488915,0.022907428,-0.15729769,-22.425001,-6.2250004,-38.5875,0.29080483,0.050526734,0.19382273,1001.2811,37.88752337,127.73733716,171.4425048828125,0.95
2026-03-20 18:06:08.099,-0.6029913,4.7856455,6.556334,-0.38453937,-0.15790854,-0.07055488,-22.462502,-6.6000004,-38.4,0.2895803,0.05036068,0.19251789,1001.2811, , , , 
2026-03-20 18:06:08.119,-0.59342,4.345366,7.331609,-0.64354604,-0.21410811,0.083383046,-22.518751,-6.9750004,-38.34375,0.28518724,0.047719058,0.19209045,1001.2811, , , , 
2026-03-20 18:06:08.139,-0.15792629,3.6993039,7.6331043,-0.7009673,-0.14202607,0.09071342,-22.575,-7.3125005,-38.34375,0.27919585,0.044416033,0.19281653,1001.2811, , , , 
2026-03-20 18:06:08.159,-0.47856453,3.5605202,8.346166,-0.6411026,-0.054061532,0.068722285,-22.743752,-7.3500004,-38.381252,0.27281222,0.041718017,0.19352704,1001.28516, , , , 
2026-03-20 18:06:08.179,-0.24885355,3.4408789,9.293723,-0.34055713,0.10231985,0.06750056,-22.931252,-7.1062503,-38.325,0.2674749,0.040575974,0.19443294,1001.28516, , , , 
2026-03-20 18:06:08.200,0.21535404,3.8907297,7.618747,-0.016798781,0.15974113,0.013744458,-23.1,-6.6937504,-38.268753,0.26504478,0.041625153,0.19550478,1001.28516, , , , 
2026-03-20 18:06:08.219,0.25842485,4.3070807,6.6568327,0.012522728,0.13652828,-0.013133593,-23.362501,-6.20625,-38.362503,0.26487443,0.042722948,0.19579569,1001.28516, , , , 
2026-03-20 18:06:08.239,0.148355,4.4985065,6.7908306,-0.0058032153,0.0632245,-0.033902995,-23.681252,-5.8125,-38.475002,0.2646924,0.043863572,0.19589081,1001.2915, , , , 
2026-03-20 18:06:08.259,0.13878371,4.723432,7.0540414,0.11759147,0.0632245,-0.033902995,-23.681252,-5.4750004,-38.5875,0.26485088,0.044509035,0.1956847,1001.2915, , , , 
2026-03-20 18:06:08.279,0.0047856453,5.1254263,6.1639113,0.23854269,0.17928882,0.0027488915,-23.53125,-5.1937504,-38.86875,0.2668539,0.046685617,0.19581418,1001.2915, , , , 
2026-03-20 18:06:08.299,-0.41156548,5.4125648,6.1878395,0.1188132,0.040011644,0.03940078,-23.362501,-5.025,-39.09375,0.2681464,0.047920212,0.19609053,1001.2915, , , , 
2026-03-20 18:06:08.319,0.20578274,5.474778,7.140183,0.014966187,-0.08949169,0.076052666,-22.893751,-4.96875,-39.2625,0.2690083,0.047800712,0.19654568,1001.29236, , , , 
2026-03-20 18:06:08.339,0.55513483,5.608776,8.384451,0.049174614,-0.12492185,-0.022907428,-22.556252,-5.025,-39.393753,0.26947364,0.0467962,0.19669661,1001.29236, , , , 
2026-03-20 18:06:08.359,0.6029913,5.9437714,9.08794,0.21166465,-0.28741187,-0.13041963,-22.275002,-5.15625,-39.24375,0.2713626,0.04488272,0.19504026,1001.29236, , , , 
2026-03-20 18:06:08.379,0.124426775,6.3218374,8.762517,0.40347618,-0.12370012,-0.18539746,-22.050001,-5.25,-38.943752,0.27380082,0.043810174,0.19324219,1001.29236, , , , 
2026-03-20 18:06:08.399,-0.06699903,6.5228343,8.566305,0.5403099,0.286801,-0.11453715,-22.2,-5.4375,-38.71875,0.2780855,0.045411732,0.1915961,1001.2902, , , , 
2026-03-20 18:06:08.419,-0.2536392,6.613762,8.360522,0.38148504,0.34177884,-0.065667965,-22.368752,-5.64375,-38.53125,0.28221115,0.049970973,0.191426,1001.2902, , , , 
2026-03-20 18:06:08.439,-0.062213387,6.9583282,8.585447,-0.0632245,-0.18845178,-0.08155045,-22.5375,-6.0375004,-38.5125,0.2841159,0.051991228,0.19084588,1001.2902, , , , 
2026-03-20 18:06:08.459,0.28713873,6.910472,9.796216,-0.3197877,-0.3008509,-0.097432934,-22.800001,-6.4125004,-38.625,0.28309876,0.049700927,0.18958911,1001.2902, , , , 
2026-03-20 18:06:08.479,0.5455636,6.3792653,11.52862,-0.26847506,0.059559315,-0.10109812,-22.81875,-6.6562505,-38.68125,0.2803792,0.047686815,0.18830895,1001.2892, , , , 
2026-03-20 18:06:08.499,0.56470615,5.5369916,11.624332,-0.12797616,0.24281874,-0.15118903,-22.6875,-6.8437505,-38.850002,0.2779605,0.04889895,0.18773921,1001.2892, , , , 
2026-03-20 18:06:08.520,0.062213387,5.0679984,11.351551,-0.05589413,0.20861033,-0.18784092,-22.706251,-6.9375005,-39.05625,0.27634224,0.05143623,0.18685521,1001.2892, , , , 
2026-03-20 18:06:08.539,0.56470615,4.6803613,10.255638,0.003970621,-0.018631376,-0.20005822,-22.63125,-7.05,-39.112503,0.27557364,0.053033747,0.18543854,1001.2892, , , , 
2026-03-20 18:06:08.559,0.7369894,4.7569313,8.834301,-0.01802051,-0.03451386,-0.22937973,-22.612501,-7.18125,-39.05625,0.27541962,0.053092938,0.1833259,1001.2885, , , , 
2026-03-20 18:06:08.579,-0.2105684,5.058427,8.068598,-0.026572619,0.17684536,-0.1621846,-22.743752,-7.2187505,-38.98125,0.2748799,0.05436995,0.18101516,1001.2885, , , , 
2026-03-20 18:06:08.599,-0.11485548,4.938786,7.6809607,-0.07422007,0.2941314,-0.04856375,-22.650002,-7.18125,-38.850002,0.27422494,0.056330096,0.1807897,1001.2885, , , , 
2026-03-20 18:06:08.619,-0.39720857,4.6229334,7.312466,-0.2367101,0.14874557,-0.0070249448,-22.368752,-7.1625004,-38.90625,0.2725997,0.058647238,0.18122014,1001.2885, , , , 
2026-03-20 18:06:08.639,-0.6987042,4.2257247,7.8053875,-0.34544402,-0.06383537,0.08460477,-22.143751,-7.05,-39.15,0.26970652,0.05877929,0.18176864,1001.2883, , , , 
2026-03-20 18:06:08.659,-0.09571291,3.7663028,7.8149586,-0.23182319,-0.1065959,0.15302163,-21.88125,-6.8625,-39.300003,0.2668902,0.056975815,0.18277939,1001.2883, , , , 
2026-03-20 18:06:08.680,0.7322037,3.7040894,7.097112,0.019853106,0.038789913,0.0650571,-21.768751,-6.6562505,-39.393753,0.26569006,0.055830155,0.18400563,1001.2883, , , , 
2026-03-20 18:06:08.699,0.5407779,4.0773697,6.1734824,0.14202607,0.07055488,-0.06811142,-21.825,-6.3750005,-39.487503,0.26622143,0.056419216,0.18431261,1001.2883, , , , 
2026-03-20 18:06:08.719,-0.60777694,4.5559344,5.986842,0.109039366,0.035124727,-0.030237807,-21.75,-6.05625,-39.5625,0.26738948,0.057379216,0.18367587,1001.28687, , , , 
2026-03-20 18:06:08.739,0.11006984,4.4171505,6.168697,0.0650571,-0.05650499,0.06750056,-21.73125,-5.9812503,-39.581253,0.26853725,0.05759407,0.18395557,1001.28687, , , , 
2026-03-20 18:06:08.759,0.4977071,4.575077,6.652047,0.062613636,-0.109039366,0.05650499,-21.75,-6.0937505,-39.600002,0.26911974,0.05685049,0.18420632,1001.28687, , , , 
2026-03-20 18:06:08.779,0.31585258,4.8047876,7.092326,0.1847866,0.038789913,0.057726722,-21.806252,-6.24375,-39.54375,0.27026996,0.056169454,0.18446533,1001.28687, , , , 
2026-03-20 18:06:08.799,0.124426775,4.85743,7.5182486,0.26664248,0.116980605,0.09682207,-21.91875,-6.5437503,-39.375,0.27224728,0.057166956,0.18525508,1001.2828, , , , 
2026-03-20 18:06:08.819,0.17706887,4.9292145,7.9968133,0.25320345,0.01802051,0.13469568,-21.84375,-6.7500005,-39.225002,0.27463657,0.05814265,0.18639642,1001.2828, , , , 
2026-03-20 18:06:08.839,0.8997013,4.962714,8.260024,0.29474226,-0.0650571,0.12492185,-21.581251,-6.8437505,-39.131252,0.27724546,0.05798773,0.18751416,1001.2828, , , , 
2026-03-20 18:06:08.859,0.8662018,5.302495,7.9968133,0.3179551,0.022907428,0.06627883,-21.4125,-6.8812504,-39.24375,0.28027353,0.057760797,0.1882079,1001.2828, , , , 
2026-03-20 18:06:08.879,0.4546363,5.56092,8.537591,0.24587308,0.1084285,0.06017018,-21.337502,-7.0312505,-39.3375,0.28292918,0.058694277,0.18881026,1001.2807, , , , 
2026-03-20 18:06:08.899,0.8327023,5.6757755,8.896515,0.16890411,0.021685699,0.07849612,-21.431252,-7.18125,-39.600002,0.2852699,0.05977766,0.18979408,1001.2807, , , , 
2026-03-20 18:06:08.919,1.2777673,5.709275,8.920443,0.074830934,-0.043065965,0.016187917,-21.69375,-7.2562504,-39.862503,0.28619358,0.059607834,0.19009034,1001.2807, , , , 
2026-03-20 18:06:08.939,1.1294123,6.0729837,9.360723,0.010079269,0.01802051,-0.060781047,-21.768751,-7.36875,-39.84375,0.28659767,0.059356157,0.18985565,1001.2807, , , , 
2026-03-20 18:06:08.959,0.18664017,6.2213387,8.504091,-0.110871956,0.2403753,-0.06933315,-21.712502,-7.4437504,-39.693752,0.2862879,0.060227107,0.18948138,1001.28, , , , 
2026-03-20 18:06:08.979,-0.94277215,5.85763,10.41835,-0.37110037,0.28069237,0.0015271619,-21.768751,-7.51875,-39.393753,0.28267726,0.06338225,0.1903347,1001.28, , , , 
2026-03-20 18:06:08.999,-1.0815558,5.355137,12.600604,-0.37598726,-0.028405212,0.008857539,-21.65625,-7.55625,-39.018753,0.27944648,0.0638564,0.1909331,1001.28, , , , 
2026-03-20 18:06:09.019,-1.268196,5.245067,12.8686,0.022296565,-0.13713914,-0.041233372,-21.45,-7.5937505,-38.8125,0.27689514,0.062627345,0.19075763,1001.28, , , , 
2026-03-20 18:06:09.039,-1.3112668,5.393422,10.260424,0.36193737,0.06933315,-0.029016078,-21.35625,-7.3875003,-38.8875,0.27840576,0.0624161,0.19004686,1001.28156, , , , 
2026-03-20 18:06:09.059,-1.4069797,5.6183476,8.049456,0.32772896,0.3026835,0.05650499,-21.150002,-7.2375,-39.15,0.28225258,0.06572615,0.19049177,1001.28156, , , , 
2026-03-20 18:06:09.079,-1.1724831,5.369494,7.3268228,0.052839804,0.2037234,0.16890411,-21.112501,-7.3125005,-39.393753,0.28342262,0.06798592,0.19172187,1001.28156,37.88752899,127.73735374,171.838134765625,1.53
2026-03-20 18:06:09.099,-0.3684947,4.642076,7.0301127,-0.23182319,-0.050396346,0.21166465,-21.206251,-7.3500004,-39.61875,0.2828853,0.068424836,0.19384675,1001.28156, , , , 
2026-03-20 18:06:09.119,-0.33020952,4.1443686,7.2646093,-0.33444846,-0.03573559,0.19089524,-21.2625,-7.6125,-39.73125,0.2804583,0.06663717,0.19574378,1001.2826, , , , 
2026-03-20 18:06:09.139,-0.10049855,3.8668015,7.9680996,-0.24770567,0.10109812,0.24220788,-21.337502,-7.8187504,-39.73125,0.2768606,0.06567544,0.1987195,1001.2826, , , , 
2026-03-20 18:06:09.159,0.60777694,3.737589,7.6809607,-0.1744019,0.0632245,0.16890411,-21.337502,-7.6312504,-39.7125,0.27528086,0.065479405,0.2005707,1001.2826, , , , 
2026-03-20 18:06:09.179,0.23449662,3.9481573,7.752745,-0.07910699,0.035124727,0.057726722,-21.206251,-7.2562504,-39.61875,0.27381444,0.06520559,0.20200293,1001.2826, , , , 
2026-03-20 18:06:09.199,-0.062213387,4.182654,7.867601,0.0858265,-3.054324E-4,0.019853106,-21.0375,-6.95625,-39.581253,0.27348545,0.06528888,0.20249678,1001.2826, , , , 
2026-03-20 18:06:09.219,0.09092726,4.517649,6.843473,0.205556,-0.094378605,-0.027794348,-20.85,-6.58125,-39.6375,0.27484274,0.06516415,0.20230523,1001.2826, , , , 
2026-03-20 18:06:09.239,0.2009971,4.8287163,5.460421,0.23243405,-0.0980438,-0.07177661,-20.6625,-6.24375,-39.65625,0.27722916,0.06472023,0.20142409,1001.2826, , , , 
2026-03-20 18:06:09.259,-0.043070808,5.0679984,5.5944195,0.21166465,0.015577052,-0.08155045,-20.643751,-6.3187504,-39.61875,0.27947837,0.064847544,0.20036066,1001.2826, , , , 
2026-03-20 18:06:09.279,-0.23928227,5.2402816,5.656633,0.19822562,0.07055488,-0.060781047,-20.71875,-6.5062504,-39.393753,0.28143725,0.06591852,0.19963539,1001.28156, , , , 
2026-03-20 18:06:09.299,-0.55513483,5.5274205,5.7379885,0.06994402,-0.0980438,-0.038789913,-20.8125,-6.675,-39.09375,0.2829883,0.06676182,0.19909856,1001.28156, , , , 
2026-03-20 18:06:09.319,-0.2105684,5.6183476,6.5084777,-0.01924224,-0.2629773,-0.0033597562,-20.962502,-6.9187503,-39.0,0.28369665,0.06540811,0.19837846,1001.28156, , , , 
2026-03-20 18:06:09.339,0.038285162,5.85763,7.771888,0.100487255,-0.08460477,-0.051007207,-21.09375,-7.0312505,-39.075,0.28424218,0.06342841,0.19757645,1001.28156, , , , 
2026-03-20 18:06:09.359,-0.20578274,6.422336,7.7001033,0.29840744,0.11453715,-0.10476331,-21.1875,-7.0687504,-39.318752,0.28600517,0.06407819,0.19678418,1001.2803, , , , 
2026-03-20 18:06:09.379,-0.81834537,6.8243303,7.207182,0.22876886,0.0632245,-0.08155045,-21.31875,-7.2375,-39.5625,0.28858224,0.06605825,0.1959099,1001.2803, , , , 
2026-03-20 18:06:09.399,-0.8279166,6.5228343,8.054241,0.052839804,0.035124727,-0.024129158,-21.375,-7.51875,-39.65625,0.29012868,0.067153685,0.19536924,1001.2803, , , , 
2026-03-20 18:06:09.419,-0.9284152,6.259624,9.52822,-0.032681264,0.040011644,-0.029016078,-21.28125,-7.5375004,-39.5625,0.2902078,0.06765252,0.19521531,1001.2803, , , , 
2026-03-20 18:06:09.439,-0.32063824,6.8339014,10.49492,0.052839804,-0.16157374,-0.05589413,-21.0,-7.4625,-39.35625,0.29009703,0.06749469,0.19468606,1001.27875, , , , 
2026-03-20 18:06:09.459,0.6125626,7.556534,9.178867,0.07238748,-0.22632541,-0.118202336,-20.681252,-7.3875003,-39.2625,0.29095116,0.066164725,0.19356526,1001.27875, , , , 
2026-03-20 18:06:09.479,1.038485,7.5661054,9.255438,0.03695732,-0.03695732,-0.1744019,-20.56875,-7.275,-39.112503,0.2918808,0.06508042,0.19176182,1001.27875, , , , 
2026-03-20 18:06:09.499,0.5838487,6.7238317,9.887143,0.029626941,0.07666353,-0.20983206,-20.71875,-7.3875003,-39.037502,0.29211855,0.06566366,0.19001505,1001.27875, , , , 
2026-03-20 18:06:09.519,0.2105684,5.5369916,9.930214,-0.0070249448,0.18173227,-0.1621846,-21.075,-7.5937505,-39.037502,0.29191804,0.0673543,0.18856491,1001.28, , , , 
2026-03-20 18:06:09.539,-0.31585258,4.699504,10.930414,-0.041233372,0.20005822,-0.1084285,-21.337502,-7.93125,-38.86875,0.29099742,0.06955888,0.18779899,1001.28, , , , 
2026-03-20 18:06:09.559,0.39720857,4.1778684,10.753345,0.0980438,0.07422007,-0.08032872,-21.54375,-8.38125,-38.7,0.29041436,0.07126843,0.18746531,1001.28, , , , 
2026-03-20 18:06:09.579,0.55034924,4.5224347,8.556734,0.0858265,-0.06139191,-0.14752385,-21.54375,-8.475,-38.737503,0.29118413,0.071860045,0.18647116,1001.28, , , , 
2026-03-20 18:06:09.599,0.10049855,5.139783,6.829116,-0.16707152,-0.09682207,-0.14385866,-21.35625,-8.475,-38.775,0.29100072,0.07128004,0.18438546,1001.2839, , , , 
2026-03-20 18:06:09.619,-0.27756742,5.072784,7.1545396,-0.41630435,-0.14813471,-0.07910699,-21.0375,-8.493751,-38.8125,0.28905687,0.070373096,0.18348931,1001.2839, , , , 
2026-03-20 18:06:09.639,-0.11006984,4.546363,7.618747,-0.4566214,-0.2751946,-0.065667965,-20.550001,-8.325001,-38.90625,0.28517047,0.0679428,0.18259937,1001.2839, , , , 
2026-03-20 18:06:09.659,0.009571291,4.421936,7.34118,-0.28802276,-0.28619015,-0.097432934,-20.306252,-8.26875,-38.850002,0.2817753,0.064634435,0.18131551,1001.2839, , , , 
2026-03-20 18:06:09.679,-0.29671,4.718646,6.058627,-0.118202336,-0.12370012,-0.0632245,-20.400002,-8.137501,-38.756252,0.27992725,0.06194533,0.17964035,1001.28516, , , , 
2026-03-20 18:06:09.699,-0.11006984,4.6755753,5.7667027,-0.092546016,0.032681264,0.0015271619,-20.56875,-7.74375,-38.60625,0.279351,0.061501537,0.17935972,1001.28516, , , , 
2026-03-20 18:06:09.719,-0.15314065,4.4171505,6.2117677,-0.058337588,0.123089254,0.023518294,-20.98125,-7.5000005,-38.4375,0.27847597,0.06204782,0.1797456,1001.28516, , , , 
2026-03-20 18:06:09.739,-0.63170516,4.517649,6.1591253,-0.010690134,0.08032872,0.022296565,-21.243752,-7.4437504,-38.25,0.27793616,0.06297625,0.18026744,1001.28516, , , , 
2026-03-20 18:06:09.759,-1.2107682,4.948357,6.3218374,0.03695732,0.04734202,0.12858704,-21.28125,-7.3125005,-38.15625,0.2780091,0.06362003,0.18117917,1001.2847, , , , 
2026-03-20 18:06:09.779,-0.9236295,4.8622155,6.7669024,0.08949169,0.098654665,0.28619015,-21.4125,-7.2375,-38.193752,0.2784517,0.06388604,0.18267699,1001.2847, , , , 
2026-03-20 18:06:09.799,-0.23449662,4.6468616,7.0731835,0.120034926,-0.03329213,0.37904158,-21.375,-7.14375,-38.11875,0.27953738,0.063828364,0.18578704,1001.2847, , , , 
2026-03-20 18:06:09.819,0.8422736,4.469793,7.499106,0.15302163,-0.16890411,0.3423897,-21.31875,-6.9750004,-38.11875,0.28112528,0.06212428,0.18898019,1001.2847, , , , 
2026-03-20 18:06:09.839,1.3591232,4.6564326,7.1449685,0.19944735,-0.14691298,0.22510368,-21.243752,-6.8812504,-38.15625,0.28389293,0.059348308,0.19165727,1001.2811, , , , 
2026-03-20 18:06:09.859,1.0241281,4.9435716,6.977471,0.1517999,-0.057726722,0.1273653,-21.2625,-6.80625,-38.15625,0.28546923,0.058469307,0.19263226,1001.2811, , , , 
2026-03-20 18:06:09.879,1.1581261,5.436493,7.920243,0.08704823,0.05589413,0.08093958,-21.5625,-6.8250003,-38.25,0.28675482,0.058073126,0.1935917,1001.2811, , , , 
2026-03-20 18:06:09.899,0.6939186,6.1447687,9.327223,0.094378605,0.26480988,0.014966187,-21.825,-6.99375,-38.081253,0.2873212,0.059342135,0.19445893,1001.2811, , , , 
2026-03-20 18:06:09.919,0.15314065,6.6185474,11.150554,0.029626941,0.15485422,-0.040011644,-21.9375,-7.1625004,-37.912502,0.28741187,0.062353533,0.19517945,1001.2792, , , , 
2026-03-20 18:06:09.939,-0.35413775,6.7764735,12.059826,0.03451386,-0.107817635,-0.054672398,-21.956251,-7.3125005,-37.875,0.28747523,0.062507205,0.19479808,1001.2792, , , , 
2026-03-20 18:06:09.959,-0.55034924,6.355337,12.782458,0.14935644,0.01924224,-0.011911863,-21.6375,-7.36875,-37.95,0.2881224,0.062046703,0.19415243,1001.2792, , , , 
2026-03-20 18:06:09.979,-0.42592242,5.800202,12.677175,0.3081813,-0.008857539,-0.02535089,-21.31875,-7.36875,-38.175003,0.2898373,0.062790215,0.1939879,1001.2792, , , , 
2026-03-20 18:06:09.999,-0.20578274,5.4125648,11.595618,0.35460702,-0.12858704,-0.098654665,-21.112501,-7.14375,-38.11875,0.29276758,0.062939264,0.19314198,1001.2843, , , , 
2026-03-20 18:06:10.019,-0.64606214,5.3407803,10.413564,0.45112363,-0.09315688,-0.118202336,-20.8875,-7.05,-37.96875,0.2963216,0.062850885,0.19148429,1001.2843, , , , 
2026-03-20 18:06:10.039,-0.3397808,5.4412785,8.039884,0.39736754,-0.045509428,-0.08155045,-20.79375,-7.0875,-37.78125,0.3004926,0.06336592,0.19000235,1001.2843, , , , 
2026-03-20 18:06:10.059,0.014356935,5.3312087,6.613762,0.054061532,-0.044287696,-0.06444623,-20.75625,-7.1625004,-37.55625,0.30323708,0.06377439,0.18898748,1001.2843, , , , 
2026-03-20 18:06:10.079,0.09092726,4.8095737,6.3074803,-0.23793183,-0.024740024,-0.041233372,-20.85,-7.6687503,-37.40625,0.30299976,0.063431635,0.18830611,1001.2896,37.88753691,127.73736965,172.1268310546875,1.52
2026-03-20 18:06:10.099,-0.124426775,4.3836513,6.9391856,-0.44929105,0.0754418,-0.031459536,-20.868752,-8.175,-37.275,0.300043,0.06299936,0.18817765,1001.2896, , , , 
2026-03-20 18:06:10.119,-0.23928227,4.1778684,7.6953177,-0.4847212,0.09498947,0.019853106,-20.85,-8.55,-37.18125,0.29536408,0.06306771,0.18866386,1001.2896, , , , 
2026-03-20 18:06:10.139,0.05742774,4.0390844,7.6570325,-0.44073895,-0.074830934,3.054324E-4,-20.94375,-8.793751,-37.21875,0.29073521,0.06251029,0.18927154,1001.2896, , , , 
2026-03-20 18:06:10.159,-0.05742774,4.1347976,7.092326,-0.36743516,-0.08460477,-0.053450666,-20.98125,-8.53125,-37.29375,0.2868809,0.060880955,0.18912008,1001.29425, , , , 
2026-03-20 18:06:10.179,-0.4881358,4.273581,7.1210403,-0.28924447,-0.018631376,-0.066889696,-21.056252,-8.0625,-37.36875,0.28371587,0.05989821,0.18860433,1001.29425, , , , 
2026-03-20 18:06:10.199,-0.31585258,4.3788652,7.594819,-0.123089254,-0.109039366,-0.085215636,-21.112501,-7.70625,-37.36875,0.28141612,0.059296165,0.18796647,1001.29425, , , , 
2026-03-20 18:06:10.219,-0.047856454,4.8191447,6.518049,0.055283263,-0.19211698,-0.12797616,-20.98125,-7.4062505,-37.21875,0.28117156,0.058067594,0.18660013,1001.29425, , , , 
2026-03-20 18:06:10.239,-0.6556334,5.503492,5.642276,0.1432478,-0.05650499,-0.09987639,-21.0375,-7.4062505,-37.0875,0.28240424,0.057192963,0.18488346,1001.29913, , , , 
2026-03-20 18:06:10.259,-0.47377887,5.575277,6.0825553,0.16279547,0.0033597562,-0.016798781,-21.2625,-7.425,-36.975002,0.28394553,0.057535786,0.18407956,1001.29913, , , , 
2026-03-20 18:06:10.279,-0.35413775,5.680561,5.9724855,0.14691298,-0.051618073,-0.032681264,-21.375,-7.275,-36.9,0.28562054,0.057814017,0.18374816,1001.29913, , , , 
2026-03-20 18:06:10.299,-1.1102697,5.9437714,6.489335,0.014966187,-0.12614357,0.025961753,-21.393751,-7.1062503,-36.975002,0.2869844,0.05721546,0.18318038,1001.29913, , , , 
2026-03-20 18:06:10.319,-0.7896315,5.7762737,7.743174,-0.029016078,-0.2837467,0.09682207,-21.150002,-6.99375,-37.050003,0.28717536,0.055784725,0.1832005,1001.2962, , , , 
2026-03-20 18:06:10.339,0.18185452,5.6949177,8.623733,0.17134757,-0.22266021,0.07849612,-20.8125,-6.9375005,-37.125,0.28794628,0.05294442,0.18330343,1001.2962, , , , 
2026-03-20 18:06:10.359,0.5407779,6.178268,7.647461,0.36071566,0.022907428,-0.053450666,-20.643751,-7.0312505,-37.050003,0.2906285,0.05199217,0.18311119,1001.2962, , , , 
2026-03-20 18:06:10.379,-0.8805587,6.7334027,6.695118,0.24220788,0.10476331,-0.1084285,-20.643751,-7.2000003,-36.825,0.29436737,0.054157,0.18206114,1001.2962, , , , 
2026-03-20 18:06:10.399,-2.0147567,6.786045,7.3746796,-0.083993904,0.07055488,0.054061532,-20.79375,-7.2937503,-36.581253,0.29504237,0.055170786,0.18174525,1001.2885, , , , 
2026-03-20 18:06:10.419,-0.5024927,6.556334,9.753145,-0.3149008,-0.13713914,0.205556,-20.962502,-7.3500004,-36.3375,0.29346067,0.05497045,0.18306245,1001.2885, , , , 
2026-03-20 18:06:10.439,1.0145568,6.647261,10.695917,-0.3649917,-0.4205804,0.049174614,-20.98125,-7.4625,-36.206253,0.29074755,0.051312298,0.18402548,1001.2885, , , , 
2026-03-20 18:06:10.459,1.5744773,6.9056864,11.452049,-0.20861033,-0.23609924,-0.10598504,-21.056252,-7.51875,-36.35625,0.28783005,0.04630417,0.18273866,1001.2885, , , , 
2026-03-20 18:06:10.479,1.3399807,6.652047,10.193424,-0.011911863,0.15118903,-0.2122755,-21.243752,-7.5375004,-36.506252,0.28717944,0.045840163,0.18151093,1001.28534, , , , 
2026-03-20 18:06:10.499,0.39720857,5.8863435,10.633704,-0.04734202,0.34544402,-0.20494513,-21.393751,-7.5375004,-36.412502,0.28639287,0.04878271,0.18025075,1001.28534, , , , 
2026-03-20 18:06:10.519,0.57427746,5.058427,10.427921,-0.12675445,0.059559315,-0.182954,-21.54375,-7.3125005,-36.2625,0.28505987,0.051439516,0.17920515,1001.28534, , , , 
2026-03-20 18:06:10.539,0.7752745,4.718646,10.131211,-0.16829325,-0.11026109,-0.20127994,-21.54375,-7.2000003,-36.037502,0.28299075,0.051198848,0.1769803,1001.28534, , , , 
2026-03-20 18:06:10.559,0.76570326,4.8622155,9.609575,-0.116980605,-0.03329213,-0.23060146,-21.31875,-7.18125,-35.831253,0.28182402,0.05074819,0.17534249,1001.2836, , , , 
2026-03-20 18:06:10.579,0.5694918,5.029713,8.145168,-0.1084285,0.08277218,-0.23060146,-21.09375,-7.18125,-35.8125,0.28066242,0.05127197,0.17325205,1001.2836, , , , 
2026-03-20 18:06:10.599,0.023928227,4.881358,7.4273214,-0.24281874,0.051007207,-0.18661919,-20.775002,-7.2000003,-35.737503,0.27839923,0.052573893,0.17110862,1001.2836, , , , 
2026-03-20 18:06:10.619,-0.07178468,4.508078,6.862615,-0.32833982,-0.13225223,-0.0962112,-20.75625,-7.1250005,-35.60625,0.2756488,0.052061405,0.16986634,1001.2836, , , , 
2026-03-20 18:06:10.639,0.5024927,4.0295134,6.9296145,-0.32589635,-0.18234314,-0.0962112,-20.8125,-6.9187503,-35.550003,0.27337855,0.050448593,0.16902162,1001.28345, , , , 
2026-03-20 18:06:10.659,0.47856453,3.7615173,7.245467,-0.09498947,0.09987639,-0.13530655,-20.94375,-6.80625,-35.568752,0.2710186,0.049302537,0.16785662,1001.28345, , , , 
2026-03-20 18:06:10.679,-0.55034924,4.072584,6.6568327,0.12614357,0.38820457,-0.10354158,-21.1875,-6.8250003,-35.625,0.27057096,0.051798638,0.1671859,1001.28345, , , , 
2026-03-20 18:06:10.699,-0.7800602,4.3070807,6.2979093,0.029626941,0.20494513,-0.0033597562,-21.0375,-6.7875004,-35.71875,0.2709612,0.055717874,0.16747804,1001.28345, , , , 
2026-03-20 18:06:10.719,-0.65084773,4.5272202,6.350551,-0.09987639,-0.18600832,0.06750056,-20.7,-6.8250003,-35.5875,0.2706981,0.05626868,0.16780351,1001.2832, , , , 
2026-03-20 18:06:10.739,-0.14356937,4.5128636,6.4414787,-0.02046397,-0.21655156,0.14691298,-20.34375,-6.8250003,-35.53125,0.27034885,0.05379931,0.16817175,1001.2832, , , , 
2026-03-20 18:06:10.760,0.8757731,4.503292,5.6470613,0.1847866,0.13041963,0.14446951,-20.04375,-6.61875,-35.53125,0.27158055,0.052496772,0.16973239,1001.2832, , , , 
2026-03-20 18:06:10.779,0.7322037,4.6325045,4.9435716,0.24342962,0.39431322,0.06383537,-20.025002,-6.4687505,-35.362503,0.27302042,0.05442547,0.17097184,1001.2832, , , , 
2026-03-20 18:06:10.799,0.076570325,4.7569313,5.3312087,0.05650499,0.33811367,0.027183482,-20.118752,-6.3375,-35.362503,0.27435213,0.05830253,0.17241651,1001.2794, , , , 
2026-03-20 18:06:10.819,-0.70348984,5.0344987,7.446464,-0.1084285,0.23915356,0.07238748,-20.1,-6.1875005,-35.4,0.27377552,0.061010018,0.17360534,1001.2794, , , , 
2026-03-20 18:06:10.839,-1.2203395,5.345566,9.044869,-0.085215636,0.22082762,0.18356487,-19.931252,-6.3750005,-35.34375,0.27237546,0.06280429,0.17531191,1001.2794, , , , 
2026-03-20 18:06:10.859,-0.18185452,5.4317074,9.652647,-0.0021380268,0.17806709,0.19700389,-19.556252,-6.39375,-35.4375,0.27162278,0.064085506,0.17780562,1001.2794, , , , 
2026-03-20 18:06:10.879,-0.18185452,5.790631,10.241281,0.09682207,0.24404047,0.14813471,-19.143751,-6.3187504,-35.568752,0.27161285,0.065377906,0.17994845,1001.2762, , , , 
2026-03-20 18:06:10.899,-0.4546363,6.1304116,10.475778,0.17745622,0.377209,0.16890411,-18.73125,-6.24375,-35.643753,0.27242434,0.068046845,0.18211544,1001.2762, , , , 
2026-03-20 18:06:10.919,-0.6125626,6.5228343,10.667203,0.0858265,0.16707152,0.21899502,-18.31875,-5.9625,-35.71875,0.27334803,0.07085265,0.1846066,1001.2762, , , , 
2026-03-20 18:06:10.939,-0.23928227,6.3074803,10.753345,-0.123089254,-0.05894845,0.29107708,-17.98125,-5.7562504,-35.831253,0.27346864,0.07079412,0.18714698,1001.2762, , , , 
2026-03-20 18:06:10.959,0.18185452,5.9246287,11.298908,-0.21105379,-0.06139191,0.27030766,-17.75625,-5.49375,-35.9625,0.27218327,0.06903647,0.18981741,1001.27454, , , , 
2026-03-20 18:06:10.979,-0.047856454,5.393422,11.318051,-0.29779658,-0.15057817,0.22021675,-17.71875,-5.34375,-36.037502,0.27013487,0.06717083,0.19218485,1001.27454, , , , 
2026-03-20 18:06:10.999,0.33020952,4.8095737,11.504691,-0.25625777,-0.4205804,0.17134757,-17.79375,-5.3250003,-36.09375,0.2672523,0.06213828,0.19380032,1001.27454, , , , 
2026-03-20 18:06:11.019,0.6221339,4.369294,10.820344,0.021074835,-0.1432478,0.11514801,-17.90625,-5.0062504,-36.206253,0.26665917,0.059101958,0.19422758,1001.27454, , , , 
2026-03-20 18:06:11.039,0.0,4.331009,9.269794,0.13347395,0.10354158,0.03695732,-18.09375,-4.65,-36.018753,0.26741025,0.05871752,0.1949766,1001.2741, , , , 
2026-03-20 18:06:11.059,-0.72263247,4.3740797,8.595019,-0.051007207,-0.054061532,0.06750056,-18.16875,-4.2937503,-35.756252,0.2679274,0.059281226,0.19547525,1001.2741, , , , 
2026-03-20 18:06:11.080,-0.5455636,4.0438704,8.853444,-0.19883649,-0.11636974,0.107817635,-18.225,-3.7687502,-35.68125,0.26652882,0.057492044,0.19628932,1001.2741,37.88754345,127.73738606,172.4832763671875,1.46
2026-03-20 18:06:11.099,-0.19621146,3.7040894,9.164511,-0.13652828,-0.05894845,0.06383537,-18.337502,-3.6000001,-35.5875,0.2652672,0.05643219,0.1968829,1001.2741, , , , 
2026-03-20 18:06:11.119,-0.31106696,3.751946,8.403593,0.023518294,-0.062613636,-0.013133593,-18.300001,-3.5625002,-35.756252,0.26445556,0.055592302,0.19710675,1001.2756, , , , 
2026-03-20 18:06:11.139,-0.36370903,3.9338005,6.6281185,0.109039366,-0.03451386,-0.02535089,-18.206251,-3.4687502,-36.0,0.26535857,0.055266757,0.19660422,1001.2756, , , , 
2026-03-20 18:06:11.159,-0.29192436,3.9433718,5.5130634,0.040622506,-0.03084867,-0.032681264,-18.1875,-3.4125001,-36.0,0.2661868,0.05536486,0.19621848,1001.2756, , , , 
2026-03-20 18:06:11.179,-0.22492532,3.9146578,5.355137,-0.02535089,-0.10537417,-0.041233372,-18.13125,-3.3750002,-35.90625,0.2663302,0.054966737,0.19583651,1001.2756, , , , 
2026-03-20 18:06:11.199,-0.4642076,4.2161536,5.345566,-0.04856375,-0.06994402,-0.027794348,-18.1875,-3.3937502,-35.8875,0.26618302,0.054129295,0.19520813,1001.2766, , , , 
2026-03-20 18:06:11.219,-0.38763726,4.5320063,5.4795637,-0.092546016,-0.008857539,0.013744458,-18.206251,-3.24375,-35.98125,0.26578847,0.053751282,0.19498856,1001.2766, , , , 
2026-03-20 18:06:11.239,0.124426775,4.776074,6.101698,-0.10354158,-0.08460477,0.013744458,-18.0375,-3.0187502,-36.16875,0.2648225,0.05284421,0.19509728,1001.2766, , , , 
2026-03-20 18:06:11.259,-0.19621146,5.163711,6.7669024,0.010079269,0.09010255,-0.014355322,-17.90625,-2.7562501,-36.375,0.26446638,0.05264412,0.19506872,1001.2766, , , , 
2026-03-20 18:06:11.279,-0.72741807,5.6039906,6.8817577,0.094378605,0.15729769,-0.008246674,-17.868752,-2.5125,-36.43125,0.2647528,0.054033436,0.19523908,1001.27496, , , , 
2026-03-20 18:06:11.299,-0.9906286,5.962914,7.082755,0.03573559,0.033902995,0.025961753,-17.90625,-2.4750001,-36.375,0.26536548,0.055415586,0.1955268,1001.27496, , , , 
2026-03-20 18:06:11.319,-0.95712906,6.1064835,8.623733,-0.040011644,-0.100487255,0.088269964,-18.075,-2.49375,-36.28125,0.26549155,0.055240657,0.1959382,1001.27496, , , , 
2026-03-20 18:06:11.339,0.043070808,6.0825553,10.57149,0.19211698,-0.18112141,0.040622506,-18.13125,-2.3625002,-36.16875,0.26607,0.053706642,0.1963061,1001.27496, , , , 
2026-03-20 18:06:11.359,0.19621146,6.489335,10.356136,0.6038398,-0.010079269,-0.0962112,-18.018751,-2.1750002,-36.09375,0.2694483,0.05311812,0.19568928,1001.27216, , , , 
2026-03-20 18:06:11.379,-0.3397808,7.092326,7.9680996,0.7137955,0.1951713,-0.15729769,-17.962502,-1.9875001,-36.3375,0.27571747,0.055502027,0.19432531,1001.27216, , , , 
2026-03-20 18:06:11.399,-1.564906,7.34118,7.757531,0.32162032,0.22937973,-0.054672398,-18.0375,-1.9875001,-36.73125,0.28171346,0.06014863,0.19324547,1001.27216, , , , 
2026-03-20 18:06:11.419,-0.6795616,7.192825,9.504292,0.046731155,-0.082161315,0.068722285,-18.431252,-2.1937501,-37.068752,0.28283495,0.06116889,0.19345276,1001.27216, , , , 
2026-03-20 18:06:11.439,0.5455636,7.1880393,10.427921,-0.004581486,-0.12858704,0.041844238,-18.65625,-2.34375,-37.237503,0.28332037,0.059920814,0.19372149,1001.269, , , , 
2026-03-20 18:06:11.459,1.0193424,7.04447,11.035698,0.08460477,-0.12858704,-0.038789913,-18.7875,-2.4562502,-37.10625,0.2840209,0.05850646,0.19336982,1001.269, , , , 
2026-03-20 18:06:11.479,0.75613195,6.0251274,9.868001,0.14569125,-0.0772744,-0.06811142,-18.975,-2.5125,-37.03125,0.28506583,0.05790151,0.1926418,1001.269, , , , 
2026-03-20 18:06:11.499,0.80877405,5.178068,9.169296,0.05650499,-3.054324E-4,-0.008246674,-18.993752,-2.5875,-37.050003,0.2862646,0.057745356,0.19198677,1001.269, , , , 
2026-03-20 18:06:11.519,1.2729816,4.254439,8.882157,-0.11331542,-0.06627883,0.019853106,-19.21875,-2.8312502,-37.125,0.2862002,0.057509705,0.19204116,1001.27026, , , , 
2026-03-20 18:06:11.539,1.7754744,3.804588,8.9826565,-0.2623664,-0.074830934,-0.060781047,-19.66875,-3.075,-37.21875,0.28399876,0.05580366,0.19181235,1001.27026, , , , 
2026-03-20 18:06:11.559,0.8709874,4.2687955,9.030513,-0.23548837,0.14019346,-0.14508039,-19.893751,-3.0375001,-37.162502,0.28202453,0.05551129,0.1911988,1001.27026, , , , 
2026-03-20 18:06:11.579,-0.18664017,4.8622155,8.441878,-0.27336198,0.2525926,-0.08032872,-20.025002,-2.8312502,-37.143753,0.27927518,0.057257593,0.19068299,1001.27026, , , , 
2026-03-20 18:06:11.599,-0.33020952,4.666004,8.628518,-0.41996953,9.162972E-4,-0.0070249448,-20.1,-2.6625001,-37.237503,0.27574757,0.058466464,0.19088821,1001.27454, , , , 
2026-03-20 18:06:11.619,-0.014356935,4.1108694,9.030513,-0.35766134,-0.3081813,0.012522728,-19.931252,-2.4,-37.40625,0.27198616,0.056419894,0.19083725,1001.27454, , , , 
2026-03-20 18:06:11.639,0.4881358,3.9050865,8.178668,-0.029016078,-0.2764163,-0.04612029,-19.650002,-2.23125,-37.575,0.27016467,0.05282563,0.19004194,1001.27454, , , , 
2026-03-20 18:06:11.659,0.55034924,4.331009,6.5228343,0.27030766,-0.06994402,-0.123089254,-19.63125,-2.1750002,-37.6875,0.2712302,0.051173083,0.18875791,1001.27454, , , , 
2026-03-20 18:06:11.679,0.11485548,4.7952166,5.087141,0.31184646,0.04978548,-0.14630212,-19.96875,-2.1375,-37.706253,0.27412313,0.051921565,0.18725458,1001.276, , , , 
2026-03-20 18:06:11.699,-0.019142581,4.7808595,5.4987063,0.23365578,0.037568185,-0.12553272,-20.362501,-2.15625,-37.518753,0.2772259,0.053685393,0.18568267,1001.276, , , , 
2026-03-20 18:06:11.719,-0.076570325,4.8287163,5.8241305,0.24831653,0.04367683,-0.11209369,-20.643751,-2.34375,-37.275,0.27884912,0.05449346,0.18479495,1001.276, , , , 
2026-03-20 18:06:11.739,-0.21535404,5.1254263,5.8911295,0.27763805,0.091324285,-0.08032872,-20.71875,-2.4750001,-37.21875,0.28124303,0.055855434,0.18382022,1001.276, , , , 
2026-03-20 18:06:11.759,-0.33499518,5.3359947,6.4797635,0.2837467,0.11942407,-0.0070249448,-20.681252,-2.5875,-37.3875,0.28372237,0.057560388,0.18341449,1001.2747, , , , 
2026-03-20 18:06:11.779,-0.062213387,5.2929235,6.8721867,0.32284203,0.07422007,0.11148282,-20.56875,-2.7375002,-37.6875,0.2871274,0.0592658,0.18413265,1001.2747, , , , 
2026-03-20 18:06:11.799,0.18185452,5.2689953,7.3698936,0.36315912,0.13530655,0.14813471,-20.737501,-2.86875,-37.987503,0.28945664,0.060063485,0.18513529,1001.2747, , , , 
2026-03-20 18:06:11.820,-0.2727818,5.517849,7.752745,0.43524116,0.2611447,0.18234314,-20.94375,-3.075,-38.0625,0.29288837,0.062036622,0.18688767,1001.2747, , , , 
2026-03-20 18:06:11.839,-0.24885355,5.6183476,7.3363943,0.34849834,0.19761476,0.20311254,-20.831251,-3.3375,-37.987503,0.29646602,0.06467201,0.18917672,1001.2694, , , , 
2026-03-20 18:06:11.859,-0.37806597,5.8767724,7.1306114,0.08949169,0.011911863,0.26419902,-20.643751,-3.5812502,-38.006252,0.29915717,0.06551643,0.19189686,1001.2694, , , , 
2026-03-20 18:06:11.879,0.28235307,5.8911295,8.159525,-0.057115857,0.17562363,0.3265072,-20.41875,-3.8437502,-38.081253,0.29928946,0.06529096,0.19409637,1001.2694, , , , 
2026-03-20 18:06:11.899,0.7800602,5.9724855,9.188439,-0.07910699,0.3979784,0.29596397,-20.23125,-4.14375,-38.006252,0.29836664,0.06651858,0.19794603,1001.2694, , , , 
2026-03-20 18:06:11.919,0.08135597,5.8911295,9.389436,-0.17562363,0.4847212,0.24098615,-20.2875,-4.36875,-38.025,0.29670674,0.06953933,0.20192826,1001.2671, , , , 
2026-03-20 18:06:11.939,-1.2969099,5.709275,11.52862,-0.46761698,0.17684536,0.21044292,-20.362501,-4.5,-38.1375,0.2919942,0.07230821,0.20615324,1001.2671, , , , 
2026-03-20 18:06:11.959,-0.971486,5.197211,12.2991085,-0.38331765,-0.18600832,0.25686863,-20.268751,-4.51875,-38.30625,0.28872225,0.07098893,0.20797049,1001.2671, , , , 
2026-03-20 18:06:11.979,-0.09092726,5.0679984,11.399407,-0.09376775,-0.040622506,0.20922118,-20.118752,-4.21875,-38.737503,0.28629884,0.06812258,0.20997968,1001.2671, , , , 
2026-03-20 18:06:11.999,0.05742774,5.1828537,9.413364,0.094378605,0.22693627,0.14691298,-20.025002,-3.91875,-39.018753,0.28610206,0.068178646,0.21193065,1001.269, , , , 
2026-03-20 18:06:12.019,-0.9236295,5.426922,7.618747,-0.15851942,0.27947062,0.13469568,-20.15625,-3.825,-39.131252,0.2858109,0.070395365,0.21389718,1001.269, , , , 
2026-03-20 18:06:12.039,-1.268196,4.8382874,8.867801,-0.61544627,0.040011644,0.29718572,-20.23125,-3.73125,-39.206253,0.28218305,0.07114798,0.21647528,1001.269, , , , 
2026-03-20 18:06:12.059,-0.16749759,3.8907297,10.365707,-0.6814197,-0.19211698,0.31551164,-20.34375,-3.6750002,-39.24375,0.2761281,0.06839613,0.219743,1001.269, , , , 
2026-03-20 18:06:12.080,0.31106696,3.455236,9.958928,-0.37843072,-0.10415245,0.20677772,-20.38125,-3.45,-39.318752,0.27002564,0.063761696,0.2227545,1001.2713,37.88754978,127.73740297,172.82855224609375,1.47
2026-03-20 18:06:12.099,0.22971097,3.5174494,8.178668,-0.110871956,0.091324285,0.11759147,-20.15625,-2.86875,-39.375,0.26789856,0.06291353,0.22438753,1001.2713, , , , 
2026-03-20 18:06:12.119,0.05742774,3.8237305,6.4127645,-0.07055488,0.09376775,0.05650499,-20.15625,-2.30625,-39.393753,0.2672417,0.06331746,0.22520888,1001.2713, , , , 
2026-03-20 18:06:12.139,0.3397808,3.9098723,5.5657053,-0.13530655,-0.07238748,-0.0021380268,-20.23125,-1.8375001,-39.43125,0.266317,0.06342913,0.22575729,1001.2713, , , , 
2026-03-20 18:06:12.159,0.44027936,4.0534415,4.991428,-0.2611447,-0.3167334,-0.07666353,-20.306252,-1.3312501,-39.487503,0.2650511,0.061591107,0.22516051,1001.27454, , , , 
2026-03-20 18:06:12.179,-0.28235307,4.5224347,5.0440702,-0.2941314,-0.3423897,-0.06933315,-20.5125,-1.10625,-39.412502,0.26322293,0.057631638,0.2235058,1001.27454, , , , 
2026-03-20 18:06:12.199,-0.16749759,4.7377887,6.355337,-0.16584979,0.15974113,0.06017018,-20.75625,-1.06875,-39.412502,0.26124874,0.05543379,0.22295195,1001.27454, , , , 
2026-03-20 18:06:12.219,0.05742774,4.718646,7.389036,0.014966187,0.3112356,0.05894845,-20.85,-0.8625,-39.46875,0.25986043,0.05746291,0.22431074,1001.27454, , , , 
2026-03-20 18:06:12.239,0.014356935,5.015356,7.111469,0.06627883,0.07422007,-0.004581486,-20.868752,-0.84375006,-39.525,0.25991148,0.059885845,0.22526923,1001.2783, , , , 
2026-03-20 18:06:12.259,-0.22971097,5.393422,6.6759753,-0.030237807,-0.09315688,-0.0070249448,-21.0,-0.8625,-39.693752,0.26028606,0.059731312,0.2250629,1001.2783, , , , 
2026-03-20 18:06:12.279,0.019142581,5.3647084,8.298309,-0.033902995,-0.07238748,0.013744458,-21.056252,-0.80625004,-39.73125,0.26015058,0.058824014,0.22488028,1001.2783, , , , 
2026-03-20 18:06:12.299,0.52163535,5.517849,8.963513,0.14935644,-0.11026109,-0.05589413,-21.075,-1.0875001,-39.5625,0.26057318,0.058099356,0.22461006,1001.2783, , , , 
2026-03-20 18:06:12.319,0.66999036,6.302695,8.1738825,0.23854269,-0.0650571,-0.1621846,-21.018751,-1.2375001,-39.45,0.26270115,0.057851907,0.22333066,1001.2779, , , , 
2026-03-20 18:06:12.339,0.43070808,7.183254,8.4705925,0.14080434,-0.03940078,-0.20250167,-20.71875,-1.0875001,-39.3375,0.26489496,0.058222085,0.2213171,1001.2779, , , , 
2026-03-20 18:06:12.359,0.2727818,7.135397,10.01157,0.11148282,-0.07116575,-0.1744019,-20.56875,-1.06875,-39.3375,0.26611415,0.058579315,0.2193129,1001.2779, , , , 
2026-03-20 18:06:12.379,0.3397808,6.71426,10.561919,0.24342962,0.09498947,-0.1951713,-20.6625,-1.10625,-39.506252,0.26756588,0.059081864,0.21747948,1001.2779, , , , 
2026-03-20 18:06:12.399,-0.2727818,6.771688,10.576276,0.39492407,0.3808742,-0.2122755,-20.90625,-1.21875,-39.487503,0.2698984,0.06232574,0.21596213,1001.279, , , , 
2026-03-20 18:06:12.419,-1.0719845,7.082755,10.006784,0.23976442,0.3112356,-0.20127994,-21.09375,-1.6125001,-39.46875,0.27232176,0.067429714,0.21481584,1001.279, , , , 
2026-03-20 18:06:12.439,-1.105484,6.9344,11.045269,-0.10109812,-0.2715294,-0.15118903,-21.075,-2.04375,-39.412502,0.2728317,0.069102325,0.21326432,1001.279, , , , 
2026-03-20 18:06:12.459,0.086141616,5.9581285,11.557333,-0.060781047,-0.40958482,-0.16584979,-20.831251,-2.34375,-39.28125,0.2723517,0.0658576,0.21093291,1001.279, , , , 
2026-03-20 18:06:12.479,0.70348984,5.3072805,10.202995,0.2715294,-0.15790854,-0.2367101,-20.456251,-2.7,-39.300003,0.27393806,0.06317547,0.20751312,1001.28, , , , 
2026-03-20 18:06:12.499,0.9667004,5.1206403,7.7814593,0.3594939,0.015577052,-0.2452622,-20.362501,-2.98125,-39.412502,0.27630305,0.063666925,0.20549652,1001.28, , , , 
2026-03-20 18:06:12.520,1.2251252,4.962714,6.71426,0.11636974,0.15485422,-0.25503606,-20.38125,-3.0937502,-39.525,0.2787694,0.065463156,0.20323741,1001.28, , , , 
2026-03-20 18:06:12.539,0.76570326,4.7425747,7.3172517,-0.12553272,0.15851942,-0.2855793,-20.587502,-3.2250001,-39.7125,0.278482,0.067666814,0.20120035,1001.28, , , , 
2026-03-20 18:06:12.559,-0.11485548,4.627719,7.7623167,-0.29901832,0.15363249,-0.25992295,-21.0375,-3.5062501,-39.7125,0.27537814,0.069831476,0.1986593,1001.28235, , , , 
2026-03-20 18:06:12.579,-1.0289137,4.4889355,8.628518,-0.36254823,0.18906265,-0.16584979,-21.0375,-3.7125,-39.525,0.27253982,0.07100351,0.19758378,1001.28235, , , , 
2026-03-20 18:06:12.599,-1.0289137,4.254439,8.690732,-0.27091852,0.09376775,-0.04856375,-20.94375,-3.9375002,-39.45,0.26883322,0.07227943,0.19710526,1001.28235, , , , 
2026-03-20 18:06:12.619,-0.6221339,4.1204405,7.623533,-0.1499673,-0.027183482,0.008857539,-20.775002,-4.0687504,-39.35625,0.26651275,0.07237025,0.19714895,1001.28235, , , , 
2026-03-20 18:06:12.639,-0.3924229,4.0295134,6.4271216,-0.066889696,-0.06627883,0.03573559,-20.400002,-3.8812501,-39.45,0.26540542,0.07141872,0.19733068,1001.28534, , , , 
2026-03-20 18:06:12.659,-0.3589234,4.048656,6.3218374,-0.021685699,-0.0772744,0.068722285,-20.493752,-3.80625,-39.84375,0.26516414,0.07077412,0.19758381,1001.28534, , , , 
2026-03-20 18:06:12.679,-0.22013968,4.197011,6.111269,0.045509428,-0.06383537,0.11514801,-20.6625,-3.7125,-40.068752,0.2654042,0.06983772,0.19815221,1001.28534, , , , 
2026-03-20 18:06:12.699,0.3924229,4.1204405,6.4366927,0.107817635,-0.00641408,0.06994402,-20.6625,-3.54375,-40.256252,0.26622173,0.06925461,0.19899721,1001.28534, , , , 
2026-03-20 18:06:12.719,0.44506502,4.173083,6.7908306,0.24953826,-0.0015271619,-0.01924224,-20.681252,-3.6000001,-40.3875,0.26774096,0.069399565,0.19922394,1001.2836, , , , 
2026-03-20 18:06:12.739,0.2536392,4.6707897,6.1495543,0.36315912,0.030237807,-0.09498947,-20.7,-3.6937501,-40.29375,0.27059463,0.07017441,0.19854814,1001.2836, , , , 
2026-03-20 18:06:12.759,-0.043070808,5.278567,5.9246287,0.32039857,0.033902995,-0.10231985,-20.681252,-3.6375,-40.125,0.27390468,0.0714109,0.19742444,1001.2836, , , , 
2026-03-20 18:06:12.779,-0.4019942,5.599205,6.6855464,0.21532984,-0.0027488915,-0.058337588,-20.8125,-3.91875,-40.0125,0.27654126,0.07251758,0.19646585,1001.2836, , , , 
2026-03-20 18:06:12.799,-0.5072784,5.6614184,7.8628154,0.23976442,0.013133593,0.018631376,-20.925001,-4.21875,-39.9375,0.27908185,0.07300137,0.19595642,1001.27704, , , , 
2026-03-20 18:06:12.819,-0.3493521,5.6327047,8.547162,0.3741547,0.2770272,0.10415245,-20.8125,-4.4437504,-39.881252,0.28104833,0.07421516,0.19648264,1001.27704, , , , 
2026-03-20 18:06:12.839,-0.52163535,5.8767724,8.537591,0.36804602,0.30024004,0.1640172,-20.56875,-4.70625,-39.9375,0.28414467,0.07756994,0.19822323,1001.27704, , , , 
2026-03-20 18:06:12.859,-0.06699903,6.216553,8.23131,0.11270455,0.014355322,0.22754712,-20.306252,-4.9125004,-40.125,0.28656295,0.0795042,0.20035833,1001.27704, , , , 
2026-03-20 18:06:12.879,0.7178468,6.513263,8.279166,-0.19394957,-0.07971785,0.25198174,-20.23125,-5.1375003,-40.331253,0.28689685,0.07814991,0.20241334,1001.27386, , , , 
2026-03-20 18:06:12.899,0.526421,6.2117677,9.533006,-0.4138609,0.14752385,0.26175556,-20.25,-5.3812504,-40.6875,0.28469935,0.076638356,0.20499523,1001.27386, , , , 
2026-03-20 18:06:12.919,-0.12921242,5.651847,11.5621195,-0.53236866,0.18539746,0.22021675,-20.400002,-5.5875,-40.96875,0.28010994,0.076683484,0.20825502,1001.27386, , , , 
2026-03-20 18:06:12.939,-0.7896315,5.0344987,12.973885,-0.5555815,-0.049174614,0.14569125,-20.550001,-5.64375,-40.96875,0.27468026,0.0759492,0.21078138,1001.27386, , , , 
2026-03-20 18:06:12.959,-1.3543376,4.398008,13.945371,-0.21105379,-0.18967351,0.113926284,-20.493752,-5.49375,-40.93125,0.2703565,0.073379755,0.21192414,1001.27216, , , , 
2026-03-20 18:06:12.979,-0.72741807,4.091727,11.638689,0.29352054,0.0754418,0.109039366,-20.34375,-5.15625,-40.74375,0.2699765,0.07186545,0.21271071,1001.27216, , , , 
2026-03-20 18:06:12.999,-0.27756742,4.3262234,8.140383,0.490219,0.33322674,0.082161315,-20.175001,-4.74375,-40.575,0.27313203,0.074064344,0.21383828,1001.27216, , , , 
2026-03-20 18:06:13.019,-0.47377887,4.8239303,4.7042894,0.18112141,0.40775225,0.10415245,-19.96875,-4.4625,-40.575,0.27632356,0.07827284,0.21534868,1001.27216, , , , 
2026-03-20 18:06:13.039,-0.8039884,4.599005,6.0777693,-0.6130028,0.18539746,0.1725693,-19.800001,-4.3125,-40.65,0.27465683,0.08106123,0.2176354,1001.2747, , , , 
2026-03-20 18:06:13.059,-0.8422736,3.9242291,9.446864,-0.8988875,-0.18356487,0.20066908,-19.81875,-4.40625,-40.85625,0.26764685,0.07952589,0.22010471,1001.2747, , , , 
2026-03-20 18:06:13.079,-0.20578274,3.4408789,11.030912,-0.56046844,-0.3081813,0.16646065,-19.81875,-4.55625,-41.100002,0.26052347,0.07478583,0.22188315,1001.2747,37.88755638,127.7374197,172.677490234375,1.47
2026-03-20 18:06:13.099,0.35413775,3.5557344,9.293723,0.040622506,-0.07849612,0.050396346,-19.85625,-4.2375,-41.287502,0.25775596,0.071321145,0.22271816,1001.2747, , , , 
2026-03-20 18:06:13.119,0.22013968,4.1108694,6.4127645,0.21410811,0.057115857,-0.04612029,-19.875,-3.7125,-41.287502,0.2588577,0.07127128,0.22275782,1001.2764, , , , 
2026-03-20 18:06:13.139,-0.05742774,4.5415773,5.5513487,0.12247839,-0.055283263,-0.066889696,-19.837502,-3.1125002,-41.2125,0.26054743,0.072165474,0.22220096,1001.2764, , , , 
2026-03-20 18:06:13.159,0.033499517,4.752146,4.895715,-0.027794348,-0.21899502,-0.083993904,-19.893751,-2.6437502,-41.081253,0.26158524,0.07130693,0.22115682,1001.2764, , , , 
2026-03-20 18:06:13.179,-0.43070808,4.8287163,5.460421,-0.053450666,-0.06994402,-0.07666353,-19.987501,-2.60625,-40.893753,0.261597,0.06950089,0.21964675,1001.2764, , , , 
2026-03-20 18:06:13.199,-0.7896315,4.9292145,5.9724855,0.03451386,0.1621846,0.003970621,-20.175001,-2.7562501,-40.7625,0.26147616,0.06988396,0.21940386,1001.2756, , , , 
2026-03-20 18:06:13.219,-0.60777694,4.9196434,6.9966135,0.107817635,0.2819141,0.03084867,-20.38125,-3.0375001,-40.66875,0.26158643,0.07204475,0.22008516,1001.2756, , , , 
2026-03-20 18:06:13.239,-0.43070808,5.1158547,7.1880393,0.1933387,0.12553272,-0.024129158,-20.5125,-3.2625,-40.5,0.26243722,0.07466792,0.22076485,1001.2756, , , , 
2026-03-20 18:06:13.259,-0.42592242,5.4221363,6.977471,0.20922118,-0.052839804,-0.098654665,-20.456251,-3.3000002,-40.4625,0.2647477,0.075746104,0.21989748,1001.2756, , , , 
2026-03-20 18:06:13.279,-0.19142582,5.6949177,7.5996046,0.33628106,0.1414152,-0.14019346,-20.41875,-3.43125,-40.537502,0.2665072,0.07641993,0.2189077,1001.2741, , , , 
2026-03-20 18:06:13.299,-0.06699903,6.1447687,7.513463,0.5378664,0.45417798,-0.19761476,-20.25,-3.54375,-40.631252,0.26977348,0.080158025,0.21781707,1001.2741, , , , 
2026-03-20 18:06:13.319,-1.1246266,6.8099732,7.1210403,0.41202828,0.45051277,-0.21471897,-20.1,-3.80625,-40.800003,0.2735372,0.086397044,0.2167053,1001.2741, , , , 
2026-03-20 18:06:13.339,-2.6081767,6.9248285,9.293723,0.025961753,0.20616686,-0.057115857,-20.04375,-4.2562504,-41.081253,0.27518913,0.09175816,0.21576773,1001.2741, , , , 
2026-03-20 18:06:13.359,-1.4835501,6.5515485,11.700903,-0.060781047,-0.120034926,0.1273653,-19.63125,-4.5375004,-41.268753,0.2747095,0.09226838,0.21621932,1001.2717, , , , 
2026-03-20 18:06:13.379,0.148355,6.5659056,10.734202,-0.051007207,-0.33139414,0.07849612,-19.275002,-4.70625,-41.4,0.2747513,0.08985645,0.21682946,1001.2717, , , , 
2026-03-20 18:06:13.399,0.7848458,6.8482585,10.336994,-0.15241076,-0.2629773,-0.02046397,-18.993752,-4.8375,-41.41875,0.2746542,0.08636835,0.21637261,1001.2717, , , , 
2026-03-20 18:06:13.419,0.94755775,6.0921264,12.007184,-0.116980605,0.058337588,-0.10720677,-18.825,-4.9125004,-41.34375,0.2730081,0.08481178,0.21555917,1001.2717, , , , 
2026-03-20 18:06:13.439,0.8662018,5.4460645,11.806187,0.107817635,-0.09315688,-0.21105379,-18.91875,-5.11875,-41.1375,0.27262387,0.0851778,0.2145639,1001.2726, , , , 
2026-03-20 18:06:13.459,1.1916257,5.2642097,9.327223,0.15790854,-0.15546508,-0.30757043,-19.21875,-5.2125,-41.0625,0.27395874,0.0845895,0.21181883,1001.2726, , , , 
2026-03-20 18:06:13.480,0.29671,5.4891353,9.059227,0.028405212,0.14630212,-0.3149008,-19.612501,-5.175,-41.0625,0.274839,0.08557862,0.20795138,1001.2726, , , , 
2026-03-20 18:06:13.499,-0.033499517,5.2498527,9.126225,-0.10476331,0.08032872,-0.28435755,-19.78125,-5.0625,-41.081253,0.27389652,0.08756082,0.20564921,1001.2726, , , , 
2026-03-20 18:06:13.519,-0.37328035,4.9674997,8.977871,-0.25503606,-0.062613636,-0.28069237,-20.025002,-5.1375003,-41.1375,0.272414,0.08782446,0.20378242,1001.27686, , , , 
2026-03-20 18:06:13.539,-1.268196,4.651647,9.480363,-0.2489274,-0.14569125,-0.19761476,-20.2875,-5.34375,-41.081253,0.2697498,0.087182604,0.20134857,1001.27686, , , , 
2026-03-20 18:06:13.559,-0.9284152,4.3070807,8.843872,-0.097432934,-0.27397284,-0.09010255,-20.19375,-5.4187503,-41.04375,0.2680193,0.08541236,0.19954991,1001.27686, , , , 
2026-03-20 18:06:13.579,0.0047856453,4.2831526,6.8865438,0.06994402,-0.3045161,-0.09010255,-20.025002,-5.53125,-40.95,0.26820672,0.0827209,0.19802901,1001.27686, , , , 
2026-03-20 18:06:13.599,-0.15314065,4.4315076,5.623133,0.10537417,-0.19456044,-0.110871956,-19.875,-5.6062503,-40.912502,0.26949844,0.08055659,0.19628009,1001.28345, , , , 
2026-03-20 18:06:13.619,-0.28235307,4.1347976,6.1495543,0.14202607,-0.017409647,-0.06933315,-19.725,-5.5687504,-40.93125,0.2707672,0.079771005,0.19492382,1001.28345, , , , 
2026-03-20 18:06:13.639,-0.12921242,3.7950168,6.250053,0.341168,0.1414152,-0.07422007,-19.837502,-5.6062503,-40.912502,0.273245,0.08135847,0.19417572,1001.28345, , , , 
2026-03-20 18:06:13.659,-0.22971097,4.1491547,5.144569,0.38148504,0.065667965,-0.13652828,-20.1,-5.83125,-40.85625,0.27568045,0.08294353,0.19348729,1001.28345, , , , 
2026-03-20 18:06:13.679,-0.6269195,4.402794,5.316852,0.32406378,-0.012522728,-0.10354158,-20.118752,-5.9437504,-40.6875,0.2789214,0.08442015,0.19206516,1001.2845, , , , 
2026-03-20 18:06:13.699,-0.28235307,4.5894337,5.2546387,0.29840744,-0.040622506,-0.027794348,-20.1,-6.15,-40.706253,0.2819506,0.08505628,0.19102691,1001.2845, , , , 
2026-03-20 18:06:13.719,0.32063824,4.9674997,4.996214,0.20189081,-0.06750056,-0.031459536,-19.96875,-6.4875,-41.025,0.28468308,0.08511867,0.19045198,1001.2845, , , , 
2026-03-20 18:06:13.739,-0.4211368,5.3886366,5.986842,0.0772744,0.058337588,-0.065667965,-19.837502,-6.7875004,-41.287502,0.2862371,0.08510443,0.18973297,1001.2845, , , , 
2026-03-20 18:06:13.759,-0.9379865,5.757131,7.259824,0.08093958,0.27580544,0.050396346,-19.837502,-7.14375,-41.475002,0.28675,0.08670074,0.18978861,1001.2826, , , , 
2026-03-20 18:06:13.779,-0.86141616,5.6327047,8.800801,0.043065965,0.2159407,0.082161315,-19.743752,-7.3875003,-41.381252,0.2868847,0.089274466,0.19115224,1001.2826, , , , 
2026-03-20 18:06:13.799,-0.7848458,5.723632,9.705289,0.08704823,0.0033597562,0.050396346,-19.650002,-7.51875,-41.100002,0.28729087,0.09049855,0.19230695,1001.2826, , , , 
2026-03-20 18:06:13.819,-0.49292147,6.029913,9.389436,0.14813471,-0.03451386,0.03695732,-19.575,-7.4812503,-40.93125,0.28813222,0.09033075,0.19246241,1001.2826, , , , 
2026-03-20 18:06:13.839,-0.28235307,6.498906,9.020942,0.1273653,0.07055488,0.032070402,-19.556252,-7.33125,-40.875,0.28955492,0.090602756,0.19268568,1001.27686, , , , 
2026-03-20 18:06:13.859,-0.27756742,6.963114,8.149954,-0.13286309,-0.013744458,0.023518294,-19.575,-7.3500004,-40.8375,0.29011855,0.09115429,0.19309933,1001.27686, , , , 
2026-03-20 18:06:13.879,-0.8757731,6.613762,9.868001,-0.63010705,-0.22510368,0.045509428,-19.3125,-7.4437504,-40.706253,0.2860273,0.08865558,0.19340655,1001.27686, , , , 
2026-03-20 18:06:13.899,-0.71306115,5.651847,12.552748,-0.56535536,-0.074830934,0.076052666,-19.03125,-7.55625,-40.7625,0.281736,0.08597206,0.19378833,1001.27686, , , , 
2026-03-20 18:06:13.919,-0.52163535,4.9196434,13.533805,-0.116980605,0.27580544,-0.0070249448,-18.975,-7.5000005,-40.8375,0.27738822,0.08552645,0.19486126,1001.2758, , , , 
2026-03-20 18:06:13.939,-0.8757731,5.048856,11.428121,0.26908594,0.31734425,-0.13652828,-18.806252,-7.2562504,-40.93125,0.276857,0.08849686,0.19512068,1001.2758, , , , 
2026-03-20 18:06:13.960,-1.5170496,5.3503513,8.312666,0.32406378,0.37110037,-0.14874557,-18.806252,-6.9187503,-41.25,0.2794633,0.09385122,0.19416517,1001.2758, , , , 
2026-03-20 18:06:13.979,-2.2636101,5.508278,6.6185474,-0.015577052,0.19394957,-0.035124727,-18.993752,-6.6375003,-41.34375,0.28036293,0.09673731,0.19389115,1001.2758, , , , 
2026-03-20 18:06:13.999,-2.1104696,5.130212,6.489335,-0.4896081,-0.12492185,0.13836087,-18.806252,-6.5625005,-41.362503,0.27859324,0.09726569,0.19445954,1001.2792, , , , 
2026-03-20 18:06:14.019,-1.6127625,4.3740797,7.743174,-0.73884094,-0.18967351,0.2837467,-18.50625,-6.6375003,-41.475002,0.2734415,0.094071984,0.19635512,1001.2792, , , , 
2026-03-20 18:06:14.039,-0.91884387,3.4600215,9.82493,-0.58245957,-0.15913028,0.32284203,-18.525002,-6.6937504,-41.34375,0.265834,0.089425676,0.20024984,1001.2792, , , , 
2026-03-20 18:06:14.059,-0.13878371,3.3020952,9.2075815,-0.22327107,-0.18967351,0.25198174,-18.525002,-6.58125,-41.2125,0.2631561,0.08688861,0.20228913,1001.2792, , , , 
2026-03-20 18:06:14.079,0.17228323,3.6275191,7.3698936,0.03940078,-0.14202607,0.13469568,-18.581251,-6.0750003,-41.362503,0.26241505,0.08433799,0.20390844,1001.2792,37.88756361,127.73743624,172.97442626953125,1.46
2026-03-20 18:06:14.099,-0.009571291,4.1204405,6.04427,0.12492185,-0.025961753,0.047952887,-18.825,-5.5125003,-41.325,0.26342356,0.08325152,0.20449632,1001.2792, , , , 
2026-03-20 18:06:14.120,-0.35413775,4.613362,4.8191447,0.0650571,-0.027183482,0.038179047,-18.862501,-4.96875,-41.4,0.26465595,0.08329953,0.20472702,1001.2792, , , , 
2026-03-20 18:06:14.139,-0.23449662,4.8095737,4.575077,-0.20005822,-0.15546508,0.046731155,-18.806252,-4.6125,-41.49375,0.26467213,0.08235004,0.20493676,1001.2792, , , , 
2026-03-20 18:06:14.159,-0.33499518,4.7425747,6.053841,-0.25747952,-0.101708986,0.045509428,-18.91875,-4.6875,-41.193752,0.26287892,0.08037413,0.20517842,1001.2779, , , , 
2026-03-20 18:06:14.179,-0.3062813,4.9531426,6.2404814,-0.12186752,-0.0051923506,0.03084867,-19.06875,-4.8562503,-41.100002,0.26119816,0.07927498,0.2055531,1001.2779, , , , 
2026-03-20 18:06:14.199,-0.33020952,5.6470613,6.096912,-0.116980605,-0.052839804,-0.010690134,-19.25625,-4.93125,-41.100002,0.26012787,0.078766175,0.2057388,1001.2779, , , , 
2026-03-20 18:06:14.219,-0.8470592,6.0251274,7.097112,-0.14508039,-0.113926284,-0.009468404,-19.3875,-4.9500003,-41.025,0.2593584,0.07802682,0.20553736,1001.2779, , , , 
2026-03-20 18:06:14.239,-1.0480564,6.168697,7.795816,-0.037568185,0.0021380268,0.017409647,-19.35,-4.8562503,-41.2125,0.25863877,0.07698591,0.20535806,1001.2726, , , , 
2026-03-20 18:06:14.259,-1.1629118,6.206982,8.800801,0.11026109,0.15485422,0.044287696,-19.44375,-4.7625003,-41.34375,0.2587792,0.07774405,0.20578693,1001.2726, , , , 
2026-03-20 18:06:14.279,-0.9284152,6.3888364,9.542577,0.13225223,-0.06139191,0.025961753,-19.44375,-4.7625003,-41.325,0.2598368,0.07912114,0.20635866,1001.2726, , , , 
2026-03-20 18:06:14.299,-0.13399807,6.355337,9.915857,0.08093958,-0.3167334,-0.04612029,-19.40625,-4.6875,-41.25,0.26124626,0.07772554,0.20586441,1001.2726, , , , 
2026-03-20 18:06:14.319,-0.11485548,6.1160545,10.212567,0.21777329,0.038789913,-0.11453715,-19.5,-4.425,-41.0625,0.26278347,0.07605181,0.2045089,1001.2711, , , , 
2026-03-20 18:06:14.339,-0.29671,6.068198,10.0881405,0.32039857,0.2611447,-0.1499673,-19.59375,-4.2000003,-40.912502,0.26487625,0.07850767,0.20356677,1001.2711, , , , 
2026-03-20 18:06:14.359,0.033499517,6.63769,9.083155,0.109039366,0.02535089,-0.24648394,-19.893751,-4.18125,-40.93125,0.2669171,0.08115153,0.20213851,1001.2711, , , , 
2026-03-20 18:06:14.379,-0.19621146,6.695118,11.12184,-0.042455103,-0.044287696,-0.30757043,-20.175001,-4.4437504,-41.175003,0.26704383,0.08190321,0.19955906,1001.2711, , , , 
2026-03-20 18:06:14.399,0.23449662,6.135197,11.734403,0.205556,0.11331542,-0.332005,-20.118752,-4.875,-41.53125,0.26724997,0.083002195,0.19584768,1001.2756, , , , 
2026-03-20 18:06:14.419,0.08135597,5.4460645,10.423136,0.36560258,0.23060146,-0.3356702,-19.893751,-5.25,-41.643753,0.26877907,0.085328676,0.19366124,1001.2756, , , , 
2026-03-20 18:06:14.439,0.22971097,5.063213,8.499306,0.21166465,0.14019346,-0.28435755,-19.518751,-5.5125003,-41.550003,0.2712263,0.08869275,0.19093375,1001.2756, , , , 
2026-03-20 18:06:14.459,0.3924229,4.5942197,8.054241,-0.1499673,0.07177661,-0.20494513,-19.1625,-5.6062503,-41.287502,0.27169043,0.09057583,0.18873718,1001.2756, , , , 
2026-03-20 18:06:14.479,0.90448695,3.9098723,9.298509,-0.42852163,-0.00763581,-0.182954,-19.087502,-5.7562504,-41.04375,0.26887396,0.09094254,0.18734649,1001.27985, , , , 
2026-03-20 18:06:14.499,1.1964114,3.5653057,10.27478,-0.4480693,-0.16768238,-0.29901832,-19.06875,-5.925,-40.912502,0.2643541,0.08974294,0.18554553,1001.27985, , , , 
2026-03-20 18:06:14.519,0.13878371,3.8955152,10.279566,-0.21105379,-0.1847866,-0.41141742,-19.087502,-5.925,-40.95,0.2607266,0.08802777,0.1820831,1001.27985, , , , 
2026-03-20 18:06:14.539,-1.3016955,4.551149,8.599805,0.11759147,-0.1188132,-0.3527744,-19.181252,-5.925,-41.100002,0.25981048,0.08745466,0.17788635,1001.27985, , , , 
2026-03-20 18:06:14.559,-0.94755775,4.8765726,6.513263,0.24709481,-0.16646065,-0.2159407,-19.1625,-5.8125,-41.2125,0.2614557,0.08734223,0.17455065,1001.28406, , , , 
2026-03-20 18:06:14.579,-0.6843473,4.9340005,5.096712,0.17134757,-0.13347395,-0.14508039,-18.975,-5.625,-41.4375,0.26436868,0.08660972,0.1716538,1001.28406, , , , 
2026-03-20 18:06:14.599,-1.0624132,4.699504,5.235496,0.018631376,-0.22632541,-0.08277218,-18.900002,-5.71875,-41.475002,0.26536113,0.08590277,0.17038202,1001.28406, , , , 
2026-03-20 18:06:14.619,-0.81834537,4.354937,6.101698,-0.02046397,-0.24587308,0.010079269,-18.9375,-6.01875,-41.4375,0.26573694,0.08377121,0.1692262,1001.28406, , , , 
2026-03-20 18:06:14.639,0.19142582,4.063013,6.489335,0.09560034,-0.10415245,0.013744458,-19.050001,-6.3187504,-41.34375,0.26631355,0.081781924,0.16886714,1001.28766, , , , 
2026-03-20 18:06:14.659,0.43070808,4.173083,6.7334027,0.25198174,9.162972E-4,-0.0754418,-19.25625,-6.6000004,-41.11875,0.2678545,0.08156944,0.16846955,1001.28766, , , , 
2026-03-20 18:06:14.679,0.11006984,4.6468616,5.9150577,0.2764163,-0.010079269,-0.14508039,-19.40625,-6.7500005,-40.96875,0.27044332,0.082203604,0.1672226,1001.28766, , , , 
2026-03-20 18:06:14.699,-0.2536392,4.881358,5.828916,0.17745622,0.0021380268,-0.12553272,-19.556252,-6.7875004,-40.7625,0.2727607,0.08293671,0.16566297,1001.28766, , , , 
2026-03-20 18:06:14.719,-0.0047856453,4.871787,6.4845495,0.054061532,-0.038179047,-0.07422007,-19.725,-6.9375005,-40.6875,0.27398756,0.08334027,0.16453609,1001.2875, , , , 
2026-03-20 18:06:14.739,0.49292147,4.800002,7.853244,0.03451386,-0.021074835,-0.10109812,-19.931252,-7.2000003,-40.706253,0.2743851,0.08308797,0.16340901,1001.2875, , , , 
2026-03-20 18:06:14.759,0.15792629,4.948357,9.131011,0.22754712,0.10598504,-0.13530655,-19.987501,-7.4437504,-40.725002,0.27495992,0.08362749,0.16258228,1001.2875, , , , 
2026-03-20 18:06:14.779,0.33020952,5.3982077,8.647661,0.37048948,0.1951713,-0.17562363,-19.837502,-7.5937505,-40.800003,0.2773259,0.08576141,0.16139741,1001.2875, , , , 
2026-03-20 18:06:14.799,0.17228323,6.0251274,8.111669,0.21532984,0.07788526,-0.20861033,-19.59375,-7.70625,-40.875,0.2800611,0.08829157,0.15977612,1001.286, , , , 
2026-03-20 18:06:14.819,0.21535404,6.3122663,8.906086,-0.08277218,-0.057726722,-0.21716243,-19.425001,-7.9875,-41.006252,0.2807362,0.08904677,0.15717398,1001.286, , , , 
2026-03-20 18:06:14.839,0.6891329,6.326623,10.734202,-0.08032872,0.060781047,-0.23182319,-19.25625,-8.2875,-41.100002,0.27979454,0.08913665,0.15572874,1001.286, , , , 
2026-03-20 18:06:14.859,0.3062813,6.3314085,10.169497,-0.07422007,0.19394957,-0.30024004,-19.10625,-8.4375,-41.1375,0.27881926,0.090635695,0.15375948,1001.286, , , , 
2026-03-20 18:06:14.879,-1.2969099,6.0777693,10.490134,-0.3808742,0.19761476,-0.30146176,-19.050001,-8.587501,-40.912502,0.27656114,0.09306624,0.1515966,1001.28577, , , , 
2026-03-20 18:06:14.899,-2.3018954,5.0344987,13.79223,-0.5665771,-0.11636974,-0.20005822,-18.975,-8.587501,-40.6875,0.2698377,0.09397051,0.14944123,1001.28577, , , , 
2026-03-20 18:06:14.919,-1.0863415,4.240082,14.361721,-0.14874557,-0.46334094,-0.18661919,-18.862501,-8.34375,-40.612503,0.2667339,0.091678336,0.14784561,1001.28577, , , , 
2026-03-20 18:06:14.939,0.019142581,4.421936,10.930414,0.3594939,-0.21777329,-0.3356702,-18.7875,-8.25,-40.6875,0.26724905,0.088327534,0.14450274,1001.28577, , , , 
2026-03-20 18:06:14.959,-0.93320084,4.9770713,7.6809607,0.4254673,-0.00641408,-0.41141742,-18.73125,-8.212501,-40.818752,0.271948,0.08922648,0.13916942,1001.2879, , , , 
2026-03-20 18:06:14.979,-1.0576276,4.991428,6.317052,0.13713914,-0.16157374,-0.33689192,-18.806252,-8.231251,-40.818752,0.27440804,0.08992686,0.13514301,1001.2879, , , , 
2026-03-20 18:06:14.999,-0.47856453,4.517649,6.518049,-0.13408482,-0.29107708,-0.286801,-19.03125,-8.55,-40.725002,0.27446932,0.08888831,0.1324699,1001.2879, , , , 
2026-03-20 18:06:15.019,-0.15792629,3.9960139,7.2502527,-0.1707367,-0.28985533,-0.28924447,-19.2,-8.925,-40.612503,0.27306807,0.08663121,0.12910943,1001.2879, , , , 
2026-03-20 18:06:15.039,-0.31106696,3.8285162,7.6426754,-0.0876591,-0.25320345,-0.29901832,-19.331251,-9.262501,-40.5,0.2716905,0.08462743,0.1256968,1001.2909, , , , 
2026-03-20 18:06:15.059,0.1052842,3.8380876,6.762117,0.025961753,-0.29840744,-0.29168794,-19.40625,-9.525001,-40.443752,0.2713642,0.08279251,0.12223605,1001.2909, , , , 
2026-03-20 18:06:15.079,0.6843473,3.8476589,5.910272,0.00641408,-0.33872452,-0.36132652,-19.3875,-9.5625,-40.3875,0.27172312,0.0805649,0.118434034,1001.2909,37.88757083,127.73745218,173.15673828125,1.45
2026-03-20 18:06:15.099,0.72741807,3.8620157,5.7762737,-0.0632245,-0.29840744,-0.45417798,-19.612501,-9.543751,-40.2,0.2716707,0.07830736,0.113814324,1001.2909, , , , 
2026-03-20 18:06:15.119,0.6412765,3.938586,6.8578296,-0.04978548,-0.21655156,-0.54947287,-20.00625,-9.6,-40.0875,0.27092353,0.07691606,0.10852689,1001.2902, , , , 
2026-03-20 18:06:15.139,0.64606214,4.278367,7.082755,0.11026109,-0.22266021,-0.67286754,-20.25,-9.675,-39.91875,0.2707337,0.076378435,0.10232991,1001.2902, , , , 
2026-03-20 18:06:15.159,0.5072784,4.85743,6.206982,0.17379104,-0.2593121,-0.7852667,-20.2875,-9.95625,-39.65625,0.2718255,0.076077856,0.09482927,1001.2902, , , , 
2026-03-20 18:06:15.179,-0.1052842,5.4412785,5.8911295,0.09071342,-0.3179551,-0.8023709,-20.118752,-10.40625,-39.45,0.27304056,0.07566909,0.08636106,1001.2902, , , , 
2026-03-20 18:06:15.199,-0.47377887,5.9007006,7.1545396,0.0051923506,-0.35705048,-0.7535017,-19.95,-10.8,-39.35625,0.27328283,0.074534394,0.07787407,1001.28766, , , , 
2026-03-20 18:06:15.219,0.023928227,6.020342,8.250452,0.13591741,-0.20311254,-0.7376192,-20.081251,-11.212501,-39.46875,0.27351663,0.07361947,0.069981225,1001.28766, , , , 
2026-03-20 18:06:15.239,-0.4211368,6.34098,8.34138,0.24342962,-0.1517999,-0.8268055,-20.4375,-11.625,-39.61875,0.27502984,0.074352644,0.06206834,1001.28766, , , , 
2026-03-20 18:06:15.259,-1.3686945,6.647261,8.547162,0.12247839,-0.4169152,-0.7950405,-20.681252,-11.94375,-39.581253,0.2766562,0.07442685,0.053325195,1001.28766, , , , 
2026-03-20 18:06:15.279,-0.6891329,6.4558353,9.638289,0.1725693,-0.44379327,-0.6533199,-20.6625,-12.31875,-39.393753,0.27779242,0.07138153,0.04289579,1001.2862, , , , 
2026-03-20 18:06:15.299,-0.31585258,6.34098,9.772287,0.29962918,-0.20189081,-0.6215549,-20.475,-12.7875,-39.05625,0.27926302,0.07037866,0.037598237,1001.2862, , , , 
2026-03-20 18:06:15.319,-0.65084773,6.7573314,9.346365,0.22388195,-0.3008509,-0.5873465,-20.362501,-13.25625,-38.68125,0.2817103,0.07007215,0.030942664,1001.2862, , , , 
2026-03-20 18:06:15.339,-0.5886344,6.762117,9.025727,-0.09498947,-0.40591964,-0.51526445,-20.550001,-13.931251,-38.41875,0.28268948,0.06827845,0.024523258,1001.2862, , , , 
2026-03-20 18:06:15.359,-0.047856454,6.178268,11.102697,-0.39920014,-0.60994846,-0.45051277,-20.8875,-14.475,-38.25,0.2793036,0.06394401,0.01728624,1001.28705, , , , 
2026-03-20 18:06:15.379,1.3351951,5.0823555,12.993027,-0.19639303,-0.6563742,-0.54092073,-21.16875,-14.775001,-38.0625,0.27638838,0.06004573,0.012752015,1001.28705, , , , 
2026-03-20 18:06:15.400,1.8951155,5.0536413,10.068997,0.2837467,-0.4657844,-0.7156281,-21.375,-15.056251,-37.912502,0.27613482,0.054606088,0.0033402538,1001.28705, , , , 
2026-03-20 18:06:15.419,1.6558332,5.3312087,7.9011,0.26175556,-0.28741187,-0.8268055,-21.54375,-15.225,-37.800003,0.27801904,0.053249106,-0.0030252144,1001.28705, , , , 
2026-03-20 18:06:15.439,0.4642076,5.3407803,8.863015,0.040622506,-0.21044292,-0.8634574,-21.69375,-15.39375,-37.65,0.2791842,0.053140745,-0.014124733,1001.2902, , , , 
2026-03-20 18:06:15.459,0.40677986,5.0536413,9.375079,0.017409647,-0.23976442,-0.82924896,-21.768751,-15.656251,-37.443752,0.2789448,0.053215925,-0.020646565,1001.2902, , , , 
2026-03-20 18:06:15.479,0.16271193,4.910072,9.265009,0.0015271619,-0.2678642,-0.82558376,-21.7875,-16.0125,-37.21875,0.27851102,0.05298558,-0.02926369,1001.2902, , , , 
2026-03-20 18:06:15.499,-0.31585258,4.546363,9.504292,0.023518294,-0.33017242,-0.77671456,-21.618752,-16.462502,-37.256252,0.27790338,0.052370958,-0.037803818,1001.2902, , , , 
2026-03-20 18:06:15.519,-0.2009971,4.0965123,8.963513,0.1517999,-0.43768463,-0.7021891,-21.46875,-16.96875,-37.256252,0.27790168,0.05076303,-0.046013474,1001.2926, , , , 
2026-03-20 18:06:15.539,0.3924229,3.6227336,7.436893,0.31062475,-0.5158753,-0.71318465,-21.5625,-17.4375,-37.18125,0.2792249,0.04789781,-0.05413205,1001.2926, , , , 
2026-03-20 18:06:15.559,0.4833502,3.871587,5.608776,0.3423897,-0.49388418,-0.7315106,-21.75,-18.0375,-37.143753,0.2817735,0.04468498,-0.06259915,1001.2926, , , , 
2026-03-20 18:06:15.579,0.44027936,4.197011,5.0009995,0.19089524,-0.40469792,-0.7034108,-22.03125,-18.6375,-36.881252,0.2839949,0.04190063,-0.07096642,1001.2926, , , , 
2026-03-20 18:06:15.599,0.17228323,4.125226,6.1304116,0.019853106,-0.3423897,-0.6496547,-22.29375,-19.331251,-36.46875,0.28460306,0.039745737,-0.08036658,1001.2938, , , , 
2026-03-20 18:06:15.619,0.2536392,3.9338005,7.3028946,-0.031459536,-0.39858928,-0.6203332,-22.35,-20.025002,-36.112503,0.28407604,0.038425118,-0.08560232,1001.2938, , , , 
2026-03-20 18:06:15.639,0.13399807,3.842873,8.250452,0.074830934,-0.4401281,-0.62399834,-22.3125,-20.41875,-35.8125,0.283306,0.03608277,-0.09268162,1001.2938, , , , 
2026-03-20 18:06:15.659,0.14356937,3.9481573,7.9537425,0.25320345,-0.33750278,-0.62766355,-22.275002,-20.737501,-35.5125,0.2839554,0.033703946,-0.09982237,1001.2938, , , , 
2026-03-20 18:06:15.679,-0.3589234,4.345366,7.436893,0.27030766,-0.24831653,-0.6130028,-22.1625,-20.925001,-35.362503,0.28660473,0.03206371,-0.1083772,1001.29236, , , , 
2026-03-20 18:06:15.699,-0.6652047,4.570291,8.01117,0.21044292,-0.36926776,-0.53236866,-22.03125,-21.225,-35.23125,0.2878869,0.030963365,-0.1132244,1001.29236, , , , 
2026-03-20 18:06:15.719,0.0526421,4.465007,8.384451,0.25442517,-0.4254673,-0.46761698,-21.88125,-21.618752,-35.175003,0.28929323,0.02824139,-0.11921186,1001.29236, , , , 
2026-03-20 18:06:15.739,0.34456646,4.723432,8.183454,0.3423897,-0.38637197,-0.5067123,-21.73125,-22.050001,-35.04375,0.2913172,0.025171146,-0.12502909,1001.29236, , , , 
2026-03-20 18:06:15.759,0.2009971,5.2546387,8.465807,0.42180213,-0.25686863,-0.51404274,-21.618752,-22.556252,-34.612503,0.29418373,0.022944609,-0.1309043,1001.28894, , , , 
2026-03-20 18:06:15.779,0.38285163,5.895915,7.456035,0.41813695,-0.14691298,-0.5018254,-21.581251,-22.987501,-34.162502,0.29785493,0.0215651,-0.13645838,1001.28894, , , , 
2026-03-20 18:06:15.799,-0.124426775,6.5228343,7.2502527,0.21777329,0.04612029,-0.4761691,-21.618752,-23.38125,-33.675003,0.30107564,0.021682383,-0.14139822,1001.28894, , , , 
2026-03-20 18:06:15.819,-0.8662018,6.5611196,8.183454,-0.08032872,0.06933315,-0.3857611,-21.487501,-23.775002,-33.3375,0.30219305,0.023504827,-0.14532624,1001.28894, , , , 
2026-03-20 18:06:15.839,-1.698904,6.2787666,9.265009,-0.45417798,-0.018631376,-0.286801,-21.375,-24.2625,-33.318752,0.30020356,0.025144009,-0.14846106,1001.2832, , , , 
2026-03-20 18:06:15.859,-2.1966112,5.288138,12.265609,-0.6948587,-0.17623448,-0.19639303,-21.337502,-24.73125,-33.300003,0.29478028,0.0263059,-0.15087798,1001.2832, , , , 
2026-03-20 18:06:15.879,-1.6893328,4.508078,13.8448715,-0.4761691,-0.6197223,-0.17318016,-21.31875,-25.218752,-33.35625,0.2878518,0.02477105,-0.15342616,1001.2832, , , , 
2026-03-20 18:06:15.899,-0.019142581,4.15394,11.179267,-0.092546016,-0.74433875,-0.2538143,-21.337502,-25.462502,-33.581253,0.282566,0.017407617,-0.15834565,1001.2832, , , , 
2026-03-20 18:06:15.919,0.59342,4.1922255,8.973084,0.13347395,-0.43890634,-0.40408704,-21.375,-25.3875,-33.75,0.28175002,0.013527004,-0.16190368,1001.2828, , , , 
2026-03-20 18:06:15.939,0.32542387,4.4458647,7.2119675,0.1188132,-0.27030766,-0.5213731,-21.54375,-25.331251,-33.881252,0.2824034,0.010997399,-0.16711558,1001.2828, , , , 
2026-03-20 18:06:15.959,-0.2632105,4.570291,6.8578296,-0.16707152,-0.43157595,-0.57879436,-21.69375,-25.181252,-33.956253,0.2820297,0.009408666,-0.17315717,1001.2828, , , , 
2026-03-20 18:06:15.979,-0.26799613,4.4315076,8.030313,-0.36621344,-0.62827444,-0.558025,-21.956251,-25.2,-33.73125,0.27860197,0.0066357665,-0.17994806,1001.2828, , , , 
2026-03-20 18:06:15.999,0.59342,4.2352962,8.504091,-0.25137085,-0.5513055,-0.58245957,-22.087502,-25.44375,-33.46875,0.27408794,0.002774802,-0.18695745,1001.28217, , , , 
2026-03-20 18:06:16.019,0.74177504,4.2448673,8.059027,-0.016798781,-0.29596397,-0.64721125,-22.10625,-25.593752,-33.225002,0.2714985,2.4344634E-4,-0.19389065,1001.28217, , , , 
2026-03-20 18:06:16.039,0.41635114,4.4458647,7.111469,0.03084867,-0.23121232,-0.69241524,-22.181252,-25.650002,-32.943752,0.27112675,-5.5825355E-4,-0.2008282,1001.28217, , , , 
2026-03-20 18:06:16.059,0.0047856453,4.613362,7.192825,-0.06811142,-0.3582722,-0.7034108,-22.275002,-25.612501,-32.79375,0.27051345,-0.0013842888,-0.20814064,1001.28217, , , , 
2026-03-20 18:06:16.079,-0.076570325,4.3357944,7.944171,-0.051007207,-0.4535671,-0.7119629,-22.331251,-25.575,-32.71875,0.26897317,-0.003089485,-0.21582206,1001.28174,37.88757757,127.7374687,173.222412109375,1.45
2026-03-20 18:06:16.099,-0.086141616,4.3501515,7.9633136,0.049174614,-0.49266243,-0.7547234,-22.3875,-25.7625,-32.60625,0.2677388,-0.0055468,-0.22385998,1001.28174, , , , 
2026-03-20 18:06:16.119,-0.148355,4.6372905,7.5900335,0.15790854,-0.4865538,-0.7706059,-22.237501,-26.04375,-32.381252,0.26746407,-0.0084057795,-0.23230945,1001.28174, , , , 
2026-03-20 18:06:16.139,-0.20578274,4.914858,6.987042,0.22143848,-0.42791077,-0.7999274,-21.91875,-26.362501,-32.0625,0.26850763,-0.01186742,-0.24294569,1001.28174, , , , 
2026-03-20 18:06:16.159,-0.74177504,5.2689953,7.5900335,0.25320345,-0.39858928,-0.765719,-21.6,-26.7,-31.81875,0.2694633,-0.013594325,-0.24929404,1001.2813, , , , 
2026-03-20 18:06:16.179,-0.23928227,5.8863435,8.130812,0.37659815,-0.43890634,-0.74250615,-21.2625,-27.093752,-31.593752,0.27128133,-0.016085796,-0.25732416,1001.2813, , , , 
2026-03-20 18:06:16.199,0.07178468,6.795616,7.4847493,0.4486802,-0.33139414,-0.77427113,-20.98125,-27.618752,-31.48125,0.2742175,-0.019249456,-0.26537725,1001.2813, , , , 
2026-03-20 18:06:16.219,-0.79920274,7.058827,8.432307,0.48044515,-0.074830934,-0.72662365,-20.868752,-28.331251,-31.462502,0.2782067,-0.020533493,-0.27288717,1001.2813, , , , 
2026-03-20 18:06:16.239,-1.2586247,6.652047,9.571291,0.5048797,-0.12125666,-0.61544627,-20.85,-29.1375,-31.331251,0.28278437,-0.020612705,-0.27919465,1001.2796, , , , 
2026-03-20 18:06:16.259,-1.2586247,6.364908,9.619147,0.44379327,-0.3252855,-0.57390743,-20.60625,-29.775002,-31.087502,0.2869117,-0.022056716,-0.2850841,1001.2796, , , , 
2026-03-20 18:06:16.279,-1.1916257,6.5371914,9.12144,0.32284203,-0.57696176,-0.5384773,-20.325,-30.2625,-30.712502,0.28953126,-0.025455225,-0.29133913,1001.2796, , , , 
2026-03-20 18:06:16.299,-0.6987042,6.5850477,8.695518,0.046731155,-0.54275334,-0.48594293,-20.04375,-30.69375,-30.281252,0.28986958,-0.03107647,-0.29927152,1001.2796, , , , 
2026-03-20 18:06:16.319,0.11964113,6.111269,10.150353,-0.06811142,-0.47555822,-0.4761691,-19.6875,-31.0125,-29.85,0.28864446,-0.033414952,-0.30356425,1001.28046, , , , 
2026-03-20 18:06:16.339,0.44506502,5.1062837,11.030912,-0.02535089,-0.46334094,-0.5885682,-19.518751,-31.29375,-29.5125,0.28667784,-0.036069833,-0.3095301,1001.28046, , , , 
2026-03-20 18:06:16.359,0.6987042,4.6755753,9.518648,0.21166465,-0.57818353,-0.6863066,-19.48125,-31.743752,-29.306252,0.2855895,-0.039259564,-0.3166388,1001.28046, , , , 
2026-03-20 18:06:16.379,1.3064811,4.74736,7.470392,0.19211698,-0.37659815,-0.733954,-19.425001,-32.0625,-28.9125,0.2861859,-0.04347688,-0.32622877,1001.28046, , , , 
2026-03-20 18:06:16.399,0.9379865,4.651647,7.570891,3.054324E-4,-0.13469568,-0.75961035,-19.48125,-32.41875,-28.612501,0.28655845,-0.043965932,-0.33173266,1001.283, , , , 
2026-03-20 18:06:16.419,0.6939186,4.354937,8.23131,-0.18051054,-0.20799945,-0.77549285,-19.462502,-32.90625,-28.3875,0.28570408,-0.043056425,-0.3389958,1001.283, , , , 
2026-03-20 18:06:16.439,0.18185452,4.197011,8.437093,-0.318566,-0.38637197,-0.80603606,-19.35,-33.375,-28.25625,0.28289032,-0.042555515,-0.34690014,1001.283, , , , 
2026-03-20 18:06:16.459,-0.36370903,4.1491547,8.800801,-0.34177884,-0.399811,-0.7547234,-19.25625,-33.881252,-28.25625,0.2786995,-0.04276701,-0.35523978,1001.283, , , , 
2026-03-20 18:06:16.479,-0.37328035,3.8380876,8.963513,-0.22327107,-0.40103272,-0.66065025,-18.993752,-34.125,-28.29375,0.27470845,-0.04315683,-0.36288512,1001.2836, , , , 
2026-03-20 18:06:16.499,0.17706887,3.6849468,8.006385,-0.07299834,-0.48533207,-0.6191115,-18.6375,-34.2,-28.218752,0.27176282,-0.044731114,-0.36983666,1001.2836, , , , 
2026-03-20 18:06:16.519,0.11485548,3.8237305,7.1880393,0.03573559,-0.4572323,-0.6411026,-18.2625,-34.2,-28.10625,0.2698895,-0.047290213,-0.3766961,1001.2836, , , , 
2026-03-20 18:06:16.539,-0.2009971,3.9720855,7.2693954,0.088269964,-0.4816669,-0.61544627,-17.868752,-34.18125,-28.143751,0.26889488,-0.04989406,-0.38348424,1001.2836, , , , 
2026-03-20 18:06:16.559,0.29192436,4.072584,6.9726853,0.19944735,-0.51221013,-0.5922334,-17.493752,-34.36875,-28.181252,0.26829848,-0.05323282,-0.39005324,1001.2843, , , , 
2026-03-20 18:06:16.579,0.5312066,4.4075794,5.986842,0.24098615,-0.4071414,-0.6203332,-17.306252,-34.74375,-28.218752,0.26866043,-0.056866616,-0.39647388,1001.2843, , , , 
2026-03-20 18:06:16.599,-0.37328035,4.761717,6.3314085,0.14813471,-0.25076,-0.61422455,-17.19375,-35.11875,-28.2,0.26946592,-0.059195753,-0.4027216,1001.2843, , , , 
2026-03-20 18:06:16.619,-1.0815558,4.7952166,7.8053875,0.18234314,-0.13713914,-0.5042689,-17.1,-35.49375,-28.031252,0.27035198,-0.06000058,-0.4081088,1001.2843, , , , 
2026-03-20 18:06:16.639,-0.94755775,4.7138605,8.52802,0.30329436,-0.22143848,-0.41263917,-16.893751,-35.925003,-27.862501,0.27198896,-0.060936753,-0.4123744,1001.2826, , , , 
2026-03-20 18:06:16.659,-0.75613195,4.9292145,8.130812,0.36804602,-0.36560258,-0.3930915,-16.59375,-36.206253,-27.581251,0.2738909,-0.06365961,-0.41645846,1001.2826, , , , 
2026-03-20 18:06:16.679,-0.6939186,5.259424,7.7479596,0.34849834,-0.341168,-0.33322674,-16.275002,-36.506252,-27.2625,0.27618343,-0.06831352,-0.42138243,1001.2826, , , , 
2026-03-20 18:06:16.699,-0.53599226,5.4987063,7.9968133,0.32039857,-0.18845178,-0.27580544,-15.843751,-36.956253,-26.868752,0.27759653,-0.070612036,-0.4237682,1001.2826, , , , 
2026-03-20 18:06:16.719,-0.3589234,5.6039906,8.848659,0.28741187,-0.029626941,-0.21471897,-15.50625,-37.237503,-26.38125,0.27988407,-0.07231966,-0.4260497,1001.2811, , , , 
2026-03-20 18:06:16.739,-0.2105684,5.7810597,9.025727,0.22021675,-0.15790854,-0.2122755,-15.356251,-37.518753,-26.00625,0.2820576,-0.07344447,-0.42780662,1001.2811, , , , 
2026-03-20 18:06:16.759,0.17706887,6.111269,9.08794,0.07849612,-0.29718572,-0.23060146,-15.262501,-37.7625,-25.706251,0.28251582,-0.07618011,-0.43083245,1001.2811, , , , 
2026-03-20 18:06:16.779,0.31106696,6.0921264,9.169296,0.049174614,-0.06994402,-0.24648394,-15.20625,-37.875,-25.5375,0.28224608,-0.07747134,-0.4327679,1001.2811, , , , 
2026-03-20 18:06:16.799,-0.26799613,5.9150577,9.614362,-0.05222894,0.15118903,-0.28069237,-15.243751,-37.95,-25.462502,0.2827047,-0.07673703,-0.43483073,1001.2811, , , , 
2026-03-20 18:06:16.819,-1.402194,5.5800624,10.782059,-0.25503606,-0.018631376,-0.29657486,-15.1125,-37.93125,-25.612501,0.282248,-0.0744448,-0.43708333,1001.2811, , , , 
2026-03-20 18:06:16.840,-1.875973,4.843073,12.447463,-0.3112356,-0.42668906,-0.26725334,-14.868751,-37.96875,-25.706251,0.27789837,-0.07380771,-0.44114915,1001.2811, , , , 
2026-03-20 18:06:16.859,-0.7609176,4.101298,11.820544,-0.036346454,-0.52564913,-0.28924447,-14.587501,-38.193752,-25.650002,0.27475208,-0.07578919,-0.44407666,1001.2811, , , , 
2026-03-20 18:06:16.879,-0.16749759,4.1204405,9.939785,0.2764163,-0.24098615,-0.40530878,-14.418751,-38.381252,-25.650002,0.27345794,-0.07887669,-0.44803348,1001.28235, , , , 
2026-03-20 18:06:16.899,-0.44985065,4.503292,7.164111,0.33261588,-0.16279547,-0.481056,-14.306251,-38.550003,-25.556252,0.27559245,-0.08077178,-0.45201918,1001.28235, , , , 
2026-03-20 18:06:16.919,-0.7704889,4.8382874,5.45085,-0.01924224,-0.2751946,-0.46761698,-14.231251,-38.71875,-25.462502,0.2768695,-0.0821926,-0.45647934,1001.28235, , , , 
2026-03-20 18:06:16.939,-0.9092726,4.7808595,6.3744793,-0.45906487,-0.42791077,-0.34910923,-14.175,-38.775,-25.612501,0.2741485,-0.08288894,-0.4611178,1001.28235, , , , 
2026-03-20 18:06:16.959,-0.44506502,4.3262234,8.456235,-0.54702944,-0.5232057,-0.26603162,-14.08125,-38.831253,-25.7625,0.2679078,-0.0835908,-0.4654536,1001.2839, , , , 
2026-03-20 18:06:16.979,0.20578274,4.0965123,9.288938,-0.2770272,-0.47067133,-0.28069237,-14.00625,-38.98125,-25.781252,0.26165622,-0.08510744,-0.46943086,1001.2839, , , , 
2026-03-20 18:06:16.999,-0.22013968,4.4554358,7.853244,0.0772744,-0.2678642,-0.31245732,-14.1,-39.131252,-25.743752,0.25861093,-0.087575406,-0.47392356,1001.2839, , , , 
2026-03-20 18:06:17.019,-0.7369894,4.694718,6.4366927,0.10293072,-0.24709481,-0.26480988,-14.250001,-39.24375,-25.612501,0.25872752,-0.08890458,-0.47613508,1001.2839, , , , 
2026-03-20 18:06:17.039,-0.7465607,4.709075,6.1304116,-0.0632245,-0.46700612,-0.182954,-14.343751,-39.318752,-25.406252,0.25793654,-0.091137886,-0.47883397,1001.28687, , , , 
2026-03-20 18:06:17.059,-0.42592242,4.5415773,6.04427,-0.2623664,-0.8298598,-0.1621846,-14.212501,-39.3375,-25.35,0.25419682,-0.0950001,-0.48187724,1001.28687, , , , 
2026-03-20 18:06:17.079,0.13399807,4.4171505,6.0777693,-0.37476555,-0.93981546,-0.16340633,-13.931251,-39.300003,-25.44375,0.24531448,-0.10234037,-0.48689148,1001.28687,37.88758003,127.73748642,173.3431396484375,1.39
2026-03-20 18:06:17.099,0.4211368,4.302295,7.393822,-0.22693627,-0.43035424,-0.17318016,-13.743751,-39.037502,-25.500002,0.24062371,-0.10552202,-0.48951235,1001.28687, , , , 
