Time,Accel_X,Accel_Y,Accel_Z,Gyro_X,Gyro_Y,Gyro_Z,Mag_X,Mag_Y,Mag_Z,Orient_X,Orient_Y,Orient_Z,Pressure,Lat,Lng,Alt,Speed
2026-03-19 21:05:42.740,2.1487548,5.436493,4.5798626,0.297033,0.84253526,0.061239194,-26.831251,-44.006252,-13.5375,0.3028322,-0.061936114,0.08276449,999.60535,37.88748412,127.73734486,171.42706298828125,0.0
2026-03-19 21:05:42.760,2.0865414,5.508278,4.962714,-0.8281799,1.0355685,-0.029168794,-27.150002,-43.96875,-13.312501,0.29762974,-0.045918632,0.088304445,999.6098, , , , 
2026-03-19 21:05:42.779,1.2346965,5.197211,7.1545396,-1.2521201,0.79244435,-0.076816246,-27.13125,-43.818752,-13.1625,0.2896037,-0.03983593,0.08959075,999.6098, , , , 
2026-03-19 21:05:42.799,0.5838487,5.1876397,8.719446,-1.3254238,0.6788235,0.008704823,-26.831251,-43.65,-13.387501,0.27658257,-0.033741564,0.09069492,999.6098, , , , 
2026-03-19 21:05:42.819,0.79920274,4.776074,8.872586,-1.1837032,0.7374665,0.14798199,-26.41875,-43.29375,-14.1,0.26057795,-0.02715842,0.09340776,999.6051, , , , 
2026-03-19 21:05:42.839,2.2205393,4.6899323,8.480164,-1.0932952,0.979369,0.11499529,-26.156252,-42.881252,-15.243751,0.24887171,-0.020434665,0.09677053,999.6051, , , , 
2026-03-19 21:05:42.859,2.4358935,4.867001,9.288938,-1.0212132,1.2518146,-0.09025527,-26.19375,-42.43125,-16.5375,0.24031551,-0.013159386,0.09893157,999.6051, , , , 
2026-03-19 21:05:42.879,1.4117653,5.503492,10.557134,-0.868497,1.2359321,-0.12690715,-26.175001,-41.943752,-17.8875,0.22970231,-0.0018595497,0.10064544,999.6051, , , , 
2026-03-19 21:05:42.900,0.09571291,3.3643086,10.025927,-0.67302024,1.2420408,-0.0010690134,-25.987501,-41.41875,-19.181252,0.21871957,0.012128878,0.10336037,999.6013, , , , 
2026-03-19 21:05:42.919,0.5982057,2.9240294,9.853643,-0.6217076,1.2212714,-0.1036943,-25.63125,-40.95,-20.41875,0.21103078,0.023585787,0.1058309,999.6013, , , , 
2026-03-19 21:05:42.939,1.2251252,4.599005,11.251052,-0.46166107,1.1064289,-0.3932442,-25.0125,-40.537502,-21.618752,0.20580871,0.031953283,0.1061176,999.6013, , , , 
2026-03-19 21:05:42.959,-0.40677986,5.4699926,12.059826,-0.052381653,0.929278,-0.49098256,-24.206251,-40.2,-22.931252,0.20063418,0.045183398,0.10328817,999.6013, , , , 
2026-03-19 21:05:42.979,-1.8137596,4.469793,10.777273,0.28237224,0.7814488,-0.26496258,-23.34375,-40.068752,-24.075,0.20091009,0.05433747,0.101130754,999.6011, , , , 
2026-03-19 21:05:42.999,-2.4215364,3.4743786,8.930014,0.38011062,0.52488554,-0.0010690134,-22.518751,-40.050003,-24.900002,0.20354313,0.061578594,0.10109283,999.6011, , , , 
2026-03-19 21:05:43.019,-2.0338993,3.4408789,7.207182,0.25060728,0.19746204,0.22861615,-21.862501,-39.99375,-25.48125,0.2057455,0.064355776,0.102237225,999.6011, , , , 
2026-03-19 21:05:43.039,-0.27756742,4.0773697,7.5900335,0.09422589,0.32330018,0.21151192,-21.28125,-39.9,-25.518751,0.20757976,0.06599276,0.105037265,999.6011, , , , 
2026-03-19 21:05:43.059,-0.4211368,5.345566,9.734002,0.14065161,0.64828026,-0.025503604,-20.775002,-39.693752,-25.462502,0.20836848,0.071644254,0.10749443,999.6013, , , , 
2026-03-19 21:05:43.080,-0.55034924,5.905486,9.647861,0.23716825,0.64094985,-0.1122464,-20.5125,-39.375,-25.5375,0.20920253,0.07676308,0.10788646,999.6013, , , , 
2026-03-19 21:05:43.099,-0.971486,3.8763726,7.8436728,0.17363831,0.22311836,-0.29550585,-20.2875,-39.16875,-25.5375,0.21090834,0.082455955,0.10708475,999.6013, , , , 
2026-03-19 21:05:43.119,-1.2155539,2.2061825,6.7238317,-0.25396705,-0.56611896,-0.45310894,-20.306252,-39.112503,-25.518751,0.21067266,0.082093544,0.10234728,999.6013, , , , 
2026-03-19 21:05:43.139,-1.8137596,3.4887354,8.312666,-0.6009382,-1.0560325,-0.4592176,-20.456251,-39.0,-25.44375,0.2066599,0.07416098,0.0963238,999.6102, , , , 
2026-03-19 21:05:43.159,-1.7946169,4.7712884,10.9017,-0.58016884,-0.7994693,-0.31994042,-20.38125,-39.037502,-25.3875,0.20256153,0.06700329,0.092055224,999.6102, , , , 
2026-03-19 21:05:43.179,-1.18684,3.249453,10.724631,-0.3101666,-0.48426306,-0.091477,-20.34375,-39.075,-25.25625,0.19810474,0.061073914,0.08878611,999.6102, , , , 
2026-03-19 21:05:43.199,-0.41156548,3.4791641,9.743574,-0.018173227,-1.577711,-0.22098033,-20.34375,-38.90625,-25.25625,0.19660275,0.0498537,0.085235864,999.6102, , , , 
2026-03-19 21:05:43.219,-1.713261,4.0438704,10.236495,0.43142325,-1.8843651,-0.33826637,-20.41875,-38.756252,-25.518751,0.19993708,0.03265382,0.07829963,999.62616, , , , 
2026-03-19 21:05:43.239,-0.42592242,4.465007,8.3174515,0.6330086,-0.93508124,0.16142102,-20.79375,-38.5875,-25.63125,0.2050026,0.022007484,0.074490786,999.62616, , , , 
2026-03-19 21:05:43.259,1.052842,3.7615173,6.431907,0.30436337,-0.5013673,0.7160862,-21.300001,-38.4,-25.368752,0.21097644,0.014658119,0.07666238,999.62616, , , , 
2026-03-19 21:05:43.279,0.6556334,3.5796626,8.283952,0.031917684,-0.27046037,0.6672171,-21.975,-38.268753,-24.900002,0.21339326,0.0076919873,0.08442312,999.62616, , , , 
2026-03-19 21:05:43.299,1.3256238,3.5509489,9.906285,0.2554942,-0.16661337,0.49006626,-22.66875,-38.325,-24.225,0.21474424,0.0046332306,0.089469366,999.6259, , , , 
2026-03-19 21:05:43.319,1.7994026,3.397808,8.882157,0.52916163,-0.34620762,0.4790707,-23.2875,-38.41875,-23.493752,0.21770711,0.0023285009,0.09261085,999.6259, , , , 
2026-03-19 21:05:43.339,2.201397,3.5413775,7.7240314,0.5022836,-0.14584397,0.16752967,-23.868752,-38.41875,-23.081251,0.2232462,-0.0013190479,0.09586436,999.6259, , , , 
2026-03-19 21:05:43.359,1.4548361,4.1778684,9.044869,0.41554075,0.38683012,-0.22586726,-24.431252,-38.53125,-22.6875,0.22851446,5.454053E-4,0.0959033,999.6259, , , , 
2026-03-19 21:05:43.379,0.82313097,4.584648,9.408579,0.49617493,0.423482,-0.25518876,-24.993752,-38.41875,-22.06875,0.23245245,0.0057669436,0.09445158,999.6183, , , , 
2026-03-19 21:05:43.399,0.16271193,4.5415773,8.513663,0.5254964,0.3159698,-0.23686282,-25.44375,-38.362503,-21.581251,0.23596087,0.009222796,0.093288735,999.6183, , , , 
2026-03-19 21:05:43.419,0.2632105,4.575077,8.365308,0.49861836,0.31352636,-0.2784016,-25.575,-38.568752,-21.225,0.24061108,0.0132382475,0.09158465,999.6183, , , , 
2026-03-19 21:05:43.439,-0.37328035,4.981857,8.446664,0.5120574,0.3978257,-0.29672757,-25.575,-38.8125,-20.925001,0.24631208,0.01896042,0.08897342,999.6183, , , , 
2026-03-19 21:05:43.459,-0.8422736,5.288138,8.260024,0.46807513,0.19746204,-0.2283107,-25.425001,-39.487503,-20.775002,0.2508131,0.023174038,0.08704448,999.59595, , , , 
2026-03-19 21:05:43.479,-0.6843473,5.2929235,7.513463,0.30802858,-0.12873976,-0.07437278,-25.29375,-40.18125,-20.456251,0.2537146,0.024233816,0.08591286,999.59595, , , , 
2026-03-19 21:05:43.499,-0.52163535,5.206782,6.7429743,0.090560704,-0.22525638,0.04535671,-25.143751,-40.65,-20.118752,0.25629625,0.022638863,0.08497334,999.59595, , , , 
2026-03-19 21:05:43.519,-0.05742774,5.2019963,8.298309,-0.0108428495,0.13637556,0.19074252,-24.581251,-41.025,-20.025002,0.25670618,0.021681555,0.08616324,999.59595, , , , 
2026-03-19 21:05:43.539,0.3684947,4.814359,8.973084,0.13942988,0.260992,0.28725916,-24.0,-41.11875,-20.025002,0.25717604,0.023102993,0.08909187,999.5847, , , , 
2026-03-19 21:05:43.559,0.66999036,4.5272202,8.523234,0.2689332,0.2658789,0.251829,-23.550001,-40.987503,-20.04375,0.2585486,0.024712468,0.09163883,999.5847, , , , 
2026-03-19 21:05:43.579,0.7178468,4.3501515,7.9346,0.22250749,-0.05299252,0.13209951,-23.34375,-41.025,-19.95,0.2609532,0.026001042,0.0941438,999.5847, , , , 
2026-03-19 21:05:43.599,0.64606214,4.570291,7.8053875,-0.15256348,-0.57467103,0.003817905,-23.475,-41.0625,-19.66875,0.26213053,0.022612922,0.09407195,999.5847, , , , 
2026-03-19 21:05:43.619,0.9523434,4.666004,8.082955,-0.32971427,-0.8043562,-0.069485866,-23.625,-40.95,-19.331251,0.26025468,0.015279233,0.091808744,999.5771, , , , 
2026-03-19 21:05:43.639,1.2155539,4.4410787,8.513663,-0.32238388,-0.62842715,-0.16111559,-23.71875,-40.95,-19.21875,0.25831094,0.009731722,0.08963959,999.5771, , , , 
2026-03-19 21:05:43.659,1.0336994,4.7808595,8.886943,-0.21853687,-0.39752024,-0.2197586,-23.868752,-40.818752,-19.275002,0.2559439,0.0046402407,0.086457394,999.5771, , , , 
2026-03-19 21:05:43.679,0.93320084,4.914858,8.953942,-0.002290743,-0.06276636,-0.17577635,-24.112501,-40.518753,-19.3125,0.25466916,0.00196331,0.0832459,999.5771, , , , 
2026-03-19 21:05:43.699,0.57427746,4.900501,9.073584,0.25305074,0.30863944,-0.18310672,-24.45,-40.36875,-19.331251,0.25581455,0.0038686376,0.08194514,999.57556, , , , 
2026-03-19 21:05:43.719,-0.43070808,5.3742795,8.609376,0.51083565,0.5187769,-0.13912445,-24.862501,-40.143753,-19.3125,0.25828126,0.0076166815,0.08146658,999.57556, , , , 
2026-03-19 21:05:43.739,-0.22492532,5.5800624,7.355537,0.48517936,0.4356993,0.025809037,-25.312502,-40.068752,-19.275002,0.26410654,0.014208055,0.08220452,999.57556,37.88746611,127.73735824,175.421630859375,0.0
2026-03-19 21:05:43.759,0.7704889,4.9340005,6.977471,0.12843432,0.2658789,0.01725693,-25.650002,-40.331253,-19.1625,0.26674902,0.017331172,0.08342107,999.57556, , , , 
2026-03-19 21:05:43.779,0.7369894,4.843073,8.408379,-0.030390523,0.26832235,-0.13545926,-25.781252,-40.425003,-18.806252,0.26677924,0.019362845,0.083705,999.576, , , , 
2026-03-19 21:05:43.799,-1.3543376,6.04427,8.819944,0.11133011,0.33796093,-0.09392046,-25.725,-40.612503,-18.35625,0.2665665,0.022506027,0.083041444,999.576, , , , 
2026-03-19 21:05:43.819,-0.7896315,6.053841,8.623733,0.23228133,0.39293876,0.24938555,-25.500002,-40.8375,-18.018751,0.26796788,0.026187198,0.08417478,999.576, , , , 
2026-03-19 21:05:43.839,-0.20578274,4.843073,8.274381,0.09544762,-0.017562363,0.30314165,-25.2,-40.93125,-17.75625,0.27007398,0.028329084,0.08848098,999.576, , , , 
2026-03-19 21:05:43.859,-0.4354937,4.881358,8.154739,-0.09880738,-0.57589275,0.30680683,-25.087502,-41.081253,-17.60625,0.27030995,0.025647985,0.08998564,999.58, , , , 
2026-03-19 21:05:43.879,-0.41156548,5.178068,8.135597,-0.10613775,-0.7994693,0.33001968,-25.1625,-41.15625,-17.493752,0.2699017,0.018612776,0.09130984,999.58, , , , 
2026-03-19 21:05:43.900,0.2105684,5.355137,7.513463,0.04535671,-0.49648035,0.54626584,-25.143751,-41.025,-17.38125,0.27027148,0.0080972295,0.093517505,999.58, , , , 
2026-03-19 21:05:43.919,2.4358935,4.8239303,7.5613194,0.23350306,0.559094,0.5548179,-25.3875,-40.893753,-17.25,0.2717006,0.0066361506,0.099301614,999.58, , , , 
2026-03-19 21:05:43.939,2.0482562,4.115655,8.312666,0.3764454,1.259145,0.18341215,-25.725,-40.65,-17.15625,0.27324858,0.0132959355,0.104303196,999.5849, , , , 
2026-03-19 21:05:43.959,1.2394822,3.751946,8.700303,0.310472,0.5517636,-0.12690715,-25.875002,-40.29375,-17.118752,0.2754114,0.023756612,0.10801814,999.5849, , , , 
2026-03-19 21:05:43.979,1.2107682,4.3645086,7.5900335,0.25305074,-0.34009898,-0.3346012,-26.118752,-40.18125,-17.081251,0.2777696,0.026450468,0.10660468,999.5849, , , , 
2026-03-19 21:05:43.999,1.0001999,4.9196434,7.0540414,0.12965605,-0.22647811,-0.49464774,-26.2875,-40.050003,-17.15625,0.28056413,0.023512274,0.100200824,999.5849, , , , 
2026-03-19 21:05:44.019,0.076570325,4.914858,8.441878,0.07834341,-0.007788526,-0.5410735,-26.062502,-39.9,-17.2875,0.28115413,0.024213701,0.0963469,999.5968, , , , 
2026-03-19 21:05:44.039,-0.76570326,5.9437714,8.346166,0.10644319,-0.2093739,-0.4592176,-25.800001,-39.99375,-17.2875,0.28195813,0.025110133,0.09110891,999.5968, , , , 
2026-03-19 21:05:44.059,-0.44506502,6.3314085,7.6570325,-0.053603385,-0.29367325,-0.13668099,-25.575,-40.03125,-17.268751,0.28297618,0.023668008,0.0863706,999.5968, , , , 
2026-03-19 21:05:44.082,-0.08135597,5.4556355,8.671589,-0.054825112,-0.34254244,-0.019394957,-25.125002,-40.425003,-16.875,0.2822763,0.020607993,0.08499165,999.5968, , , , 
2026-03-19 21:05:44.100,-0.08135597,5.087141,7.8197446,0.07223476,-0.398742,-0.007177661,-25.10625,-40.6875,-16.7625,0.28251916,0.018158207,0.084151305,999.60046, , , , 
2026-03-19 21:05:44.119,0.08135597,5.211568,6.9248285,-0.024281874,-0.34865108,-0.03161225,-25.050001,-41.15625,-16.63125,0.28340805,0.014369036,0.08282469,999.60046, , , , 
2026-03-19 21:05:44.139,-0.11485548,5.74756,7.585248,-0.2112065,-0.05421425,0.01725693,-24.91875,-41.362503,-16.425001,0.28269368,0.011967768,0.08193058,999.60046, , , , 
2026-03-19 21:05:44.159,-0.2632105,5.709275,8.389236,-0.07803798,0.27687445,0.18829907,-24.7875,-41.23125,-16.3125,0.28062785,0.01285534,0.08339233,999.60046, , , , 
2026-03-19 21:05:44.180,0.14356937,5.45085,9.159725,0.22128576,0.6067414,0.25305074,-24.768751,-40.93125,-16.21875,0.2806963,0.015390318,0.08602834,999.5983, , , , 
2026-03-19 21:05:44.199,0.7082755,4.3645086,10.068997,-0.13423753,-0.3901899,0.15042545,-24.69375,-40.537502,-16.237501,0.2827798,0.020373417,0.08975986,999.5983, , , , 
2026-03-19 21:05:44.219,1.0432707,4.402794,7.570891,-0.39446592,-1.5948153,-0.42500916,-24.768751,-40.443752,-16.35,0.2809894,0.009252191,0.08449563,999.5983, , , , 
2026-03-19 21:05:44.239,0.2440679,6.096912,7.8436728,-0.506865,-1.252731,-0.3480402,-24.91875,-40.631252,-16.40625,0.27754235,-0.004602481,0.07638693,999.5983, , , , 
2026-03-19 21:05:44.259,0.66999036,5.5896335,8.556734,-0.12202024,-0.3914116,-0.12935062,-25.050001,-40.818752,-16.59375,0.27541766,-0.010410538,0.0728027,999.5837, , , , 
2026-03-19 21:05:44.279,0.98584294,5.1876397,8.30788,0.310472,0.3990474,-0.095142186,-25.2,-40.987503,-16.462502,0.27589273,-0.011204924,0.0714707,999.5837, , , , 
2026-03-19 21:05:44.299,0.5455636,5.4029937,7.834101,0.52793986,0.79122263,-0.048716467,-25.237501,-40.93125,-16.10625,0.28048125,-0.0031947275,0.07271148,999.5837, , , , 
2026-03-19 21:05:44.320,0.13399807,5.359923,6.862615,0.40088,0.6678279,0.03924806,-25.29375,-40.912502,-15.918751,0.28465918,0.0044052014,0.07482816,999.5837, , , , 
2026-03-19 21:05:44.339,0.44506502,5.1014977,7.4416785,-0.021838415,0.15714496,0.028252495,-25.25625,-40.93125,-15.618751,0.28604952,0.007903579,0.07623152,999.573, , , , 
2026-03-19 21:05:44.359,0.4977071,5.0344987,8.3174515,-0.37125307,-0.7383828,-0.021838415,-25.143751,-41.025,-15.337501,0.28464645,0.006246297,0.07588464,999.573, , , , 
2026-03-19 21:05:44.379,1.3543376,5.1732826,9.896714,-0.41523534,-1.3858994,-0.34193155,-25.0125,-41.04375,-15.3,0.2805306,-0.0069588944,0.07060784,999.573, , , , 
2026-03-19 21:05:44.399,-1.3064811,6.0107703,8.595019,0.06734784,-1.1097885,-0.28328854,-24.88125,-40.93125,-15.262501,0.2798134,-0.017835865,0.062926084,999.573, , , , 
2026-03-19 21:05:44.419,0.2536392,6.3601227,7.183254,0.21762058,-0.18127412,0.09422589,-24.937502,-41.04375,-15.281251,0.2815212,-0.02281345,0.061031997,999.55176, , , , 
2026-03-19 21:05:44.439,0.6029913,5.6997037,7.164111,0.15897755,0.35628688,0.28359398,-25.031252,-41.15625,-15.468751,0.28351223,-0.022595488,0.06280232,999.55176, , , , 
2026-03-19 21:05:44.459,1.1581261,5.3072805,8.078169,0.117438756,0.5346594,0.2762636,-25.031252,-41.100002,-15.6,0.28465423,-0.017997095,0.06791622,999.55176, , , , 
2026-03-19 21:05:44.479,1.5601203,4.9866424,8.04467,0.14676027,0.3978257,0.13942988,-24.975,-40.96875,-15.618751,0.2853265,-0.014999336,0.07063436,999.55176, , , , 
2026-03-19 21:05:44.499,1.3256238,4.924429,8.19781,0.14065161,0.5236638,-0.012064579,-24.862501,-40.725002,-15.50625,0.28639355,-0.011358416,0.07264231,999.5401, , , , 
2026-03-19 21:05:44.519,0.49292147,4.8861437,9.073584,0.2554942,0.23655738,-0.14278965,-24.843752,-40.59375,-15.450001,0.28741983,-0.006124911,0.07366877,999.5401, , , , 
2026-03-19 21:05:44.539,0.47377887,5.359923,7.757531,0.31658068,0.044745844,-0.15500695,-24.937502,-40.78125,-15.375001,0.29071945,-0.003518533,0.0724384,999.5401, , , , 
2026-03-19 21:05:44.559,0.4211368,5.5513487,7.331609,0.19318599,0.06185006,-0.09636392,-24.956251,-41.100002,-15.243751,0.29268476,-0.0027245705,0.07162185,999.5401, , , , 
2026-03-19 21:05:44.579,0.41635114,5.642276,7.8628154,0.04657844,0.08384119,-0.03894263,-24.91875,-41.49375,-15.01875,0.29401353,-0.0017249194,0.07111646,999.53564, , , , 
2026-03-19 21:05:44.599,0.1052842,5.771488,7.8867435,0.008704823,-0.020005822,0.013591741,-24.843752,-41.737503,-14.775001,0.29431292,-0.001016923,0.071069755,999.53564, , , , 
2026-03-19 21:05:44.619,0.19621146,5.6709895,7.3698936,-0.059712034,-0.1262963,0.083230324,-24.7875,-41.943752,-14.531251,0.29423085,-0.0019730723,0.071310006,999.53564, , , , 
2026-03-19 21:05:44.639,0.27756742,5.6757755,7.8197446,-0.13790272,-0.08353576,0.10033454,-24.806252,-41.925003,-14.3625,0.2936106,-0.0031410304,0.071645714,999.53564, , , , 
2026-03-19 21:05:44.659,0.65084773,5.814559,8.647661,-0.06459895,0.12904519,0.11988221,-24.768751,-41.643753,-14.250001,0.29246092,-0.0037035362,0.072620444,999.53815, , , , 
2026-03-19 21:05:44.679,0.3493521,5.800202,8.963513,0.11133011,0.23167047,0.13332124,-24.69375,-41.381252,-14.156251,0.29226258,-0.0023398316,0.07429691,999.53815, , , , 
2026-03-19 21:05:44.699,0.5982057,5.6183476,8.700303,0.22617269,0.18646647,0.14920372,-24.487501,-41.04375,-14.1,0.29394913,-9.03519E-5,0.07677443,999.53815, , , , 
2026-03-19 21:05:44.719,1.4644074,5.2163534,7.757531,0.24572036,0.10461059,0.07223476,-24.187502,-40.78125,-14.062501,0.2956419,7.639357E-4,0.07806053,999.53815, , , , 
2026-03-19 21:05:44.739,1.3112668,5.2737813,7.460821,0.10033454,0.10216714,-0.08170316,-23.962502,-40.59375,-14.00625,0.29748696,0.0017276062,0.07857636,999.5443,37.88746611,127.73735824,175.421630859375,0.0
2026-03-19 21:05:44.759,0.65084773,5.474778,7.9537425,0.05146536,0.12049308,-0.15378521,-23.71875,-40.4625,-14.08125,0.29811418,0.0034927428,0.07752217,999.5443, , , , 
2026-03-19 21:05:44.779,0.2440679,5.6709895,7.6953177,0.12599087,0.18280129,-0.12568542,-23.625,-40.36875,-14.156251,0.29888675,0.005427382,0.07659925,999.5443, , , , 
2026-03-19 21:05:44.800,-0.062213387,5.7858453,6.910472,0.083230324,0.20601414,-0.042607818,-23.53125,-40.36875,-14.118751,0.29971167,0.007103186,0.07635978,999.5443, , , , 
2026-03-19 21:05:44.819,-0.07178468,5.9342003,7.2023964,-0.069485866,0.27198756,0.053908817,-23.2875,-40.55625,-14.2875,0.29988945,0.009329723,0.076935895,999.5552, , , , 
2026-03-19 21:05:44.839,0.15314065,5.871987,8.566305,-0.019394957,0.51511174,0.14553854,-23.1,-40.6875,-14.343751,0.29877266,0.013332067,0.07945173,999.5552, , , , 
2026-03-19 21:05:44.859,0.72263247,5.4317074,8.896515,0.17608178,0.6030763,0.11499529,-22.931252,-40.725002,-14.3625,0.29912096,0.01852055,0.082529284,999.5552, , , , 
2026-03-19 21:05:44.879,0.66041905,5.508278,8.5423765,0.22250749,0.41859508,0.0025961753,-22.78125,-40.78125,-14.512501,0.30028704,0.022325324,0.08419562,999.5552, , , , 
2026-03-19 21:05:44.900,0.11485548,5.757131,8.489735,0.17974696,0.12782346,-0.04382955,-22.6875,-40.6875,-14.437501,0.30234393,0.02600762,0.084918626,999.55774, , , , 
2026-03-19 21:05:44.919,-0.2440679,5.9246287,8.547162,0.22861615,0.03252855,0.0025961753,-22.612501,-40.55625,-14.306251,0.30365017,0.026745383,0.084834464,999.55774, , , , 
2026-03-19 21:05:44.940,0.13399807,5.8672013,7.8484583,0.31413722,0.048411034,0.053908817,-22.40625,-40.4625,-14.19375,0.3068928,0.027322382,0.08529516,999.55774, , , , 
2026-03-19 21:05:44.959,-0.1052842,6.0634127,7.1688967,0.24816382,0.0044287695,0.055130545,-22.237501,-40.425003,-13.9875,0.30902946,0.027704123,0.085682996,999.55774, , , , 
2026-03-19 21:05:44.979,-0.16271193,6.216553,7.001399,0.09911281,-0.08842268,0.12110394,-22.1625,-40.40625,-13.9125,0.31101838,0.027297994,0.08622065,999.5599, , , , 
2026-03-19 21:05:44.999,-0.11485548,6.1447687,7.3172517,0.0368046,-0.05054906,0.21884231,-22.03125,-40.4625,-13.725,0.31183517,0.026168935,0.08739655,999.5599, , , , 
2026-03-19 21:05:45.019,0.019142581,6.068198,7.7671022,0.07345649,0.099723674,0.27382013,-21.9375,-40.518753,-13.5375,0.31247285,0.025451737,0.08953747,999.5599, , , , 
2026-03-19 21:05:45.040,0.3684947,5.9676995,7.757531,0.16630794,0.19746204,0.30802858,-21.900002,-40.518753,-13.668751,0.31344685,0.02600543,0.09266025,999.5599, , , , 
2026-03-19 21:05:45.060,0.5838487,5.85763,7.513463,0.12843432,0.18280129,0.2689332,-21.9375,-40.612503,-13.725,0.31522086,0.027262827,0.09687266,999.56134, , , , 
2026-03-19 21:05:45.079,0.6795616,5.828916,7.4847493,0.057574004,0.10827578,0.22739442,-22.25625,-40.725002,-13.837501,0.31586596,0.027832652,0.09901007,999.56134, , , , 
2026-03-19 21:05:45.099,0.55034924,5.8911295,7.752745,-0.007177661,0.048411034,0.15409064,-22.725,-40.96875,-14.043751,0.31611583,0.02785309,0.1015478,999.56134, , , , 
2026-03-19 21:05:45.119,0.37806597,5.986842,7.7814593,0.022143848,-0.022449281,0.12843432,-23.15625,-41.2125,-14.00625,0.31614634,0.027576733,0.10255689,999.56134, , , , 
2026-03-19 21:05:45.139,0.6556334,6.0634127,7.7001033,0.061239194,0.05818487,0.13087778,-23.4375,-41.2125,-13.968751,0.31655163,0.027133051,0.10377099,999.5624, , , , 
2026-03-19 21:05:45.159,1.18684,5.709275,7.8197446,0.116217025,0.170584,0.050243627,-23.53125,-41.081253,-13.89375,0.3174556,0.028082516,0.105462626,999.5624, , , , 
2026-03-19 21:05:45.179,1.2011969,5.6183476,7.499106,0.17730351,0.11804962,-0.1122464,-23.550001,-40.95,-13.556251,0.31832412,0.029336704,0.10575177,999.5624, , , , 
2026-03-19 21:05:45.199,0.32542387,6.0490556,7.0061846,0.16386448,0.03375028,-0.1989892,-23.53125,-40.875,-13.200001,0.31990302,0.030729713,0.10456582,999.5624, , , , 
2026-03-19 21:05:45.219,-0.062213387,6.4462643,6.948757,0.12232567,0.09483676,-0.08414663,-23.4375,-40.893753,-12.993751,0.3212645,0.03187258,0.103039846,999.55835, , , , 
2026-03-19 21:05:45.240,0.3397808,6.2117677,7.164111,0.084452055,0.21823144,-0.008399391,-23.362501,-41.081253,-12.88125,0.32275406,0.033952303,0.10298199,999.55835, , , , 
2026-03-19 21:05:45.259,0.21535404,6.3122663,7.925029,0.09666935,0.20234896,0.006261364,-23.175001,-41.081253,-12.825001,0.3231655,0.03567854,0.10351583,999.55835, , , , 
2026-03-19 21:05:45.279,0.5455636,6.3074803,7.6426754,0.10766492,-0.033444848,0.025809037,-23.00625,-40.800003,-12.843751,0.32407546,0.03696428,0.10404279,999.55835, , , , 
2026-03-19 21:05:45.299,1.0241281,6.250053,7.2215385,0.029474225,-0.26801693,-0.057268575,-22.9125,-40.66875,-12.937501,0.32517427,0.035249803,0.10341697,999.55286, , , , 
2026-03-19 21:05:45.319,0.7609176,6.3888364,6.867401,-0.0010690134,-0.28512114,-0.12935062,-22.875,-40.537502,-13.031251,0.32562545,0.032727037,0.10150878,999.55286, , , , 
2026-03-19 21:05:45.339,0.062213387,6.45105,6.9822564,-0.004734202,-0.099418245,-0.07437278,-22.96875,-40.55625,-13.06875,0.32577214,0.03151876,0.10017207,999.55286, , , , 
2026-03-19 21:05:45.359,-0.3924229,6.0394845,7.015756,0.003817905,-0.09697478,0.033139415,-23.04375,-40.7625,-12.95625,0.32589385,0.031020679,0.099565245,999.55286, , , , 
2026-03-19 21:05:45.379,0.4881358,6.5611196,6.6759753,-0.14767656,-0.2924515,0.035582874,-23.15625,-40.818752,-12.712501,0.32590136,0.028860625,0.09935597,999.5473, , , , 
2026-03-19 21:05:45.399,0.52163535,6.1447687,6.862615,-0.2612974,-0.31199917,0.053908817,-23.15625,-40.725002,-12.4875,0.32400292,0.025086762,0.09876012,999.5473, , , , 
2026-03-19 21:05:45.419,0.5886344,6.1495543,7.355537,-0.27229297,-0.116522454,-0.019394957,-23.0625,-40.5,-12.356251,0.3222944,0.023028173,0.09838149,999.5473, , , , 
2026-03-19 21:05:45.439,0.2105684,6.0825553,8.212168,-0.102472566,0.093615025,-0.03894263,-23.00625,-40.40625,-12.4125,0.32077187,0.02221315,0.098140135,999.5473, , , , 
2026-03-19 21:05:45.459,0.53599226,6.0729837,7.9920278,0.11377356,0.11438443,-0.03649917,-22.85625,-40.36875,-12.562501,0.32020715,0.023725983,0.09814816,999.5369, , , , 
2026-03-19 21:05:45.479,0.9379865,6.0729837,7.015756,0.16019928,0.074067354,-0.09025527,-22.893751,-40.36875,-12.76875,0.3215945,0.024955135,0.09785687,999.5369, , , , 
2026-03-19 21:05:45.499,0.61734825,6.4031935,6.704689,0.041691523,0.10827578,-0.13790272,-23.025002,-40.537502,-12.95625,0.32239753,0.025814822,0.09718445,999.5369, , , , 
2026-03-19 21:05:45.520,0.11006984,6.245267,7.2646093,-0.0035124724,0.06551525,-0.08048143,-23.15625,-40.65,-13.05,0.3224747,0.027303811,0.09639938,999.5369, , , , 
2026-03-19 21:05:45.539,0.6125626,5.8624153,7.240681,0.031917684,-0.1434005,-0.107359484,-23.306252,-40.66875,-12.8625,0.3226164,0.027519928,0.095384955,999.5352, , , , 
2026-03-19 21:05:45.559,0.2009971,6.178268,6.2979093,0.031917684,-0.2093739,-0.1574504,-23.15625,-40.575,-12.50625,0.32319596,0.025985518,0.09334143,999.5352, , , , 
2026-03-19 21:05:45.579,-0.85184485,6.876972,6.1591253,-0.04016436,0.113162704,0.0368046,-23.00625,-40.518753,-12.225,0.32334584,0.025633557,0.09240568,999.5352, , , , 
2026-03-19 21:05:45.599,-0.44985065,6.513263,7.1688967,-0.062155493,0.39293876,0.29581127,-22.85625,-40.443752,-12.056251,0.32280684,0.027295966,0.09433827,999.5352, , , , 
2026-03-19 21:05:45.619,0.55034924,5.7667027,8.681161,0.13820815,0.47968158,0.26160285,-22.725,-40.3875,-12.0375,0.3224399,0.031473156,0.09977088,999.5358, , , , 
2026-03-19 21:05:45.639,-0.148355,6.364908,7.6139617,0.37033677,0.28420484,0.10399973,-22.81875,-40.443752,-12.225,0.32385257,0.03393615,0.10211589,999.5358, , , , 
2026-03-19 21:05:45.659,-0.971486,6.2883377,6.3218374,0.29581127,0.22678354,0.21884231,-22.893751,-40.5,-12.375001,0.32714468,0.036467068,0.10390194,999.5358, , , , 
2026-03-19 21:05:45.679,-0.75613195,7.1784678,6.1639113,0.06856957,-0.05177079,0.34101525,-22.95,-40.59375,-12.431251,0.32904914,0.03695119,0.10684639,999.5358, , , , 
2026-03-19 21:05:45.699,-1.1916257,6.4845495,4.6612186,-0.12812889,0.16569707,0.69653857,-23.0625,-40.706253,-12.562501,0.32963556,0.035481464,0.11244402,999.53925, , , , 
2026-03-19 21:05:45.719,-0.6269195,6.9009004,5.6039906,-0.615599,-0.24846925,0.6244565,-23.0625,-40.8375,-12.525001,0.32607487,0.032907814,0.11895758,999.53925, , , , 
2026-03-19 21:05:45.739,0.36370903,6.317052,5.5465627,-0.8978185,-0.457385,0.72463834,-23.1375,-40.818752,-12.468751,0.32148603,0.028128901,0.12285904,999.53925,37.88748221,127.73735515,173.10162353515625,0.0
2026-03-19 21:05:45.759,0.98584294,5.206782,6.3074803,-0.9479094,-0.398742,0.5719221,-23.56875,-40.66875,-12.637501,0.31361634,0.02019424,0.1280492,999.53925, , , , 
2026-03-19 21:05:45.779,1.2873386,5.5465627,6.661618,-0.78786284,0.28053966,0.27137667,-24.300001,-40.5,-12.975,0.30351952,0.015680911,0.13305494,999.542, , , , 
2026-03-19 21:05:45.799,0.2727818,5.7954164,6.948757,-0.5545125,0.8657481,0.12721258,-24.975,-40.162502,-13.687501,0.298113,0.018330775,0.13572104,999.542, , , , 
2026-03-19 21:05:45.819,0.6795616,5.9964137,7.8867435,-0.38835728,0.5187769,0.038026333,-25.593752,-39.825,-14.64375,0.2924197,0.026016539,0.13955067,999.542, , , , 
2026-03-19 21:05:45.839,-0.9810573,5.8480587,6.786045,-0.13301581,-0.2008218,-0.12812889,-25.931252,-39.35625,-15.6,0.2894216,0.028851345,0.14007246,999.542, , , , 
2026-03-19 21:05:45.859,0.63170516,5.4795637,5.709275,-0.751211,-1.3675735,-0.1452331,-25.875002,-38.79375,-16.3125,0.28568184,0.019688586,0.1361271,999.5439, , , , 
2026-03-19 21:05:45.879,1.7036897,6.053841,6.1304116,-0.9613485,-1.5398374,-0.28695372,-25.875002,-38.60625,-16.931252,0.28105992,0.00806846,0.13150929,999.5439, , , , 
2026-03-19 21:05:45.899,0.95712906,6.7334027,7.3459654,-0.7047852,-0.5905535,-0.44577858,-26.00625,-38.60625,-17.400002,0.27420712,-0.0042676227,0.124718204,999.5439, , , , 
2026-03-19 21:05:45.919,-0.5455636,7.556534,7.322037,-0.1660025,0.35628688,-0.32482734,-26.04375,-38.7,-17.643751,0.26926726,-0.0050908537,0.119227536,999.5439, , , , 
2026-03-19 21:05:45.939,-0.7465607,7.719246,5.9581285,-0.102472566,0.7008146,-0.12324197,-26.118752,-38.831253,-17.75625,0.26803824,9.566727E-4,0.11863819,999.54456, , , , 
2026-03-19 21:05:45.959,-0.4211368,7.7383885,6.532406,-0.39813113,0.8156572,0.014813471,-26.2875,-38.71875,-17.625,0.26608753,0.0064966436,0.11979075,999.54456, , , , 
2026-03-19 21:05:45.979,0.2632105,6.178268,8.6141615,-0.64003354,0.559094,0.058795735,-26.268751,-38.5875,-17.60625,0.2607332,0.013326554,0.12224281,999.54456, , , , 
2026-03-19 21:05:45.999,0.6891329,7.834101,11.255837,-0.56184286,-0.18982624,-0.25641048,-26.156252,-38.568752,-18.0,0.2526564,0.015109505,0.122541845,999.54456, , , , 
2026-03-19 21:05:46.019,-0.6221339,8.006385,9.695718,-0.20509785,-0.46227193,-0.15378521,-26.00625,-38.53125,-18.6375,0.24976744,0.011202667,0.11930809,999.54474, , , , 
2026-03-19 21:05:46.039,-1.0097711,8.618947,8.456235,0.006261364,0.16814053,0.041691523,-25.725,-38.5875,-19.275002,0.24947,0.009884268,0.11817515,999.54474, , , , 
2026-03-19 21:05:46.059,-0.148355,8.422736,7.834101,-0.08170316,0.64094985,0.33857182,-25.3875,-38.49375,-19.78125,0.2494669,0.012945391,0.120444335,999.54474, , , , 
2026-03-19 21:05:46.079,0.7322037,7.7671022,9.710074,-0.33215773,0.9805907,0.3507891,-25.275002,-38.287502,-20.00625,0.24619812,0.02133077,0.12735632,999.54474, , , , 
2026-03-19 21:05:46.099,1.2634103,6.9822564,11.60519,-0.26251915,0.67638004,0.1443168,-25.2,-38.175003,-20.268751,0.24211204,0.02873512,0.13207236,999.5473, , , , 
2026-03-19 21:05:46.120,0.55513483,6.977471,11.346765,-0.1036943,0.27320927,-0.10491603,-25.143751,-38.081253,-20.625,0.24045138,0.03184249,0.13314225,999.5473, , , , 
2026-03-19 21:05:46.139,0.2536392,6.4797635,11.810972,0.07223476,-0.30955574,-0.2197586,-25.143751,-37.85625,-21.056252,0.23976265,0.03319633,0.13205834,999.5473, , , , 
2026-03-19 21:05:46.159,-0.2009971,6.838687,8.891729,0.251829,-0.84345156,-0.22586726,-24.825,-37.612503,-21.525002,0.24278778,0.026956564,0.12720463,999.5473, , , , 
2026-03-19 21:05:46.179,-0.28713873,6.9009004,6.3074803,0.0697913,-0.55023646,0.083230324,-24.581251,-37.48125,-21.75,0.24571005,0.020442603,0.124632396,999.55945, , , , 
2026-03-19 21:05:46.199,0.6125626,5.7427745,6.862615,-0.3028362,0.3110829,0.29092434,-24.54375,-37.4625,-21.75,0.24536197,0.018414699,0.12570277,999.55945, , , , 
2026-03-19 21:05:46.220,1.8281165,4.8526444,11.375479,-0.14278965,0.54687667,-0.014508039,-24.806252,-37.612503,-21.65625,0.24117649,0.022785865,0.12963113,999.55945, , , , 
2026-03-19 21:05:46.239,0.16271193,4.685147,10.442278,0.4082104,0.29275694,-0.042607818,-25.143751,-37.6875,-21.50625,0.2414981,0.026278632,0.12992957,999.55945, , , , 
2026-03-19 21:05:46.259,0.5886344,4.709075,7.7671022,0.4253146,-0.21792601,0.0025961753,-25.35,-37.74375,-21.487501,0.24690434,0.027420474,0.12966451,999.5828, , , , 
2026-03-19 21:05:46.279,1.4069797,4.9196434,7.446464,0.27870706,-0.13729186,0.031917684,-25.368752,-37.65,-21.675001,0.24970035,0.026031515,0.12928931,999.5828, , , , 
2026-03-19 21:05:46.299,1.7419748,4.5559344,7.3363943,0.25427246,0.18890993,0.023365578,-25.050001,-37.65,-21.69375,0.2523561,0.025877941,0.12955877,999.5828, , , , 
2026-03-19 21:05:46.319,1.9573289,3.9720855,7.331609,0.17608178,0.4393645,-0.1122464,-24.88125,-37.95,-21.525002,0.25462916,0.03002383,0.13023207,999.5828, , , , 
2026-03-19 21:05:46.340,1.0241281,3.3882368,8.896515,1.527162E-4,-0.21059564,-0.4922043,-24.91875,-38.081253,-21.1875,0.2546884,0.030905945,0.12750529,999.58984, , , , 
2026-03-19 21:05:46.359,-0.086141616,4.8239303,8.60459,0.077121675,-0.4647154,-0.46654797,-24.993752,-38.15625,-20.85,0.25503173,0.028838819,0.123084426,999.58984, , , , 
2026-03-19 21:05:46.380,0.07178468,4.752146,7.240681,0.123547405,-0.16539164,-0.25518876,-24.975,-38.11875,-20.643751,0.25674263,0.025845226,0.11745503,999.58984, , , , 
2026-03-19 21:05:46.399,0.4019942,4.5894337,7.207182,0.12232567,0.06185006,-0.20265439,-24.862501,-38.11875,-20.53125,0.25792226,0.026338374,0.1152504,999.58984, , , , 
2026-03-19 21:05:46.419,0.9236295,4.3118663,7.743174,0.18707734,-0.0151189035,-0.2112065,-24.6,-38.25,-20.41875,0.25928113,0.027317353,0.11340273,999.59515, , , , 
2026-03-19 21:05:46.439,0.971486,4.2975097,7.7910304,0.3092503,-0.17760894,-0.31627524,-24.31875,-38.41875,-20.23125,0.2610281,0.02722087,0.11135463,999.59515, , , , 
2026-03-19 21:05:46.459,0.32542387,4.718646,7.7096744,0.4583013,-0.20204352,-0.37125307,-24.243752,-38.71875,-20.025002,0.2646062,0.02649806,0.10744116,999.59515, , , , 
2026-03-19 21:05:46.479,-0.033499517,5.015356,7.1880393,0.67699087,-0.049327333,-0.30894485,-24.018751,-38.86875,-19.7625,0.2713754,0.026784671,0.10263574,999.59515, , , , 
2026-03-19 21:05:46.500,-0.17228323,5.474778,5.575277,0.6708822,0.107054055,-0.19288056,-23.79375,-38.86875,-19.462502,0.27646393,0.028024405,0.10062117,999.59106, , , , 
2026-03-19 21:05:46.519,-0.2727818,5.8767724,5.2163534,0.40332347,0.13148865,-0.016951498,-23.38125,-38.86875,-19.125,0.28215215,0.03033221,0.09946582,999.59106, , , , 
2026-03-19 21:05:46.540,0.17706887,5.85763,6.7669024,0.05146536,0.03252855,0.110108376,-22.875,-38.90625,-18.712502,0.28509247,0.031644057,0.10027882,999.59106, , , , 
2026-03-19 21:05:46.559,0.31585258,5.704489,8.025527,0.0025961753,-0.1763872,0.10522146,-22.6875,-39.0,-18.393751,0.28534248,0.030540505,0.101146795,999.59106, , , , 
2026-03-19 21:05:46.579,0.25842485,5.9676995,8.078169,0.066126116,-0.29733843,0.1357647,-22.743752,-39.28125,-18.09375,0.2857994,0.028586265,0.10141715,999.5862, , , , 
2026-03-19 21:05:46.599,0.6269195,6.1495543,8.370093,0.07956514,-0.28267768,0.17852524,-23.025002,-39.73125,-17.79375,0.28687522,0.025420144,0.10199693,999.5862, , , , 
2026-03-19 21:05:46.619,0.8757731,6.1830535,8.4705925,0.09789108,-0.45982847,0.18707734,-23.38125,-39.9375,-17.5125,0.2884893,0.020614043,0.102936,999.5862, , , , 
2026-03-19 21:05:46.640,1.0863415,6.489335,8.523234,0.10766492,-0.4818196,0.14676027,-23.550001,-39.9,-17.268751,0.2900626,0.015503507,0.10310858,999.5862, , , , 
2026-03-19 21:05:46.659,0.53599226,6.6999035,8.700303,0.14065161,-0.27656904,0.07834341,-23.625,-39.73125,-17.1375,0.29131448,0.012319397,0.10303546,999.57794, , , , 
2026-03-19 21:05:46.680,-0.18664017,6.7908306,8.762517,0.13209951,0.047189303,0.110108376,-23.71875,-39.46875,-16.987501,0.29296938,0.010623734,0.10329684,999.57794, , , , 
2026-03-19 21:05:46.699,-0.72263247,6.3696938,9.19801,-0.10002911,0.23411393,0.15531237,-23.8875,-39.35625,-16.931252,0.2934921,0.011742941,0.10490898,999.57794, , , , 
2026-03-19 21:05:46.719,-1.3304094,5.7523456,11.246266,-0.29184064,-0.016340632,0.2310596,-24.018751,-39.43125,-16.931252,0.29067916,0.0126566,0.10760927,999.57794, , , , 
2026-03-19 21:05:46.739,-0.89491564,5.0823555,11.471191,-0.095142186,-0.22769985,0.33735007,-24.206251,-39.54375,-16.931252,0.28901234,0.0110242665,0.109302364,999.5796,37.88748221,127.73735515,173.10162353515625,0.0
2026-03-19 21:05:46.759,-0.1052842,4.331009,10.590633,0.19685118,-0.05054906,0.3666716,-24.393751,-39.65625,-17.025002,0.2893837,0.007881167,0.11290454,999.5796, , , , 
2026-03-19 21:05:46.779,0.26799613,3.8380876,9.15494,0.32024586,0.0019853106,0.31902415,-24.54375,-39.84375,-17.025002,0.29180327,0.007216899,0.116167895,999.5796, , , , 
2026-03-19 21:05:46.799,0.33499518,4.024728,7.503892,0.21884231,-0.13729186,0.28970262,-24.768751,-39.91875,-16.96875,0.2944266,0.0060460945,0.11878234,999.5796, , , , 
2026-03-19 21:05:46.820,0.2440679,4.182654,5.986842,-0.03161225,-0.159283,0.3263545,-25.031252,-39.91875,-16.9125,0.29544705,0.0041633192,0.12050363,999.59174, , , , 
2026-03-19 21:05:46.839,0.11964113,4.479364,6.2404814,-0.29184064,0.15592323,0.43508843,-25.368752,-39.84375,-16.81875,0.29435477,0.0023030096,0.12368405,999.59174, , , , 
2026-03-19 21:05:46.860,0.5694918,4.168297,7.628319,-0.37369654,0.55298537,0.53404856,-25.800001,-39.675003,-16.800001,0.28970492,0.004342744,0.13085017,999.59174, , , , 
2026-03-19 21:05:46.879,1.1820544,3.790231,8.504091,-0.35048366,0.44913834,0.4253146,-26.156252,-39.54375,-16.78125,0.28539082,0.0074598324,0.137074,999.59174, , , , 
2026-03-19 21:05:46.899,1.3399807,3.9242291,8.035098,-0.22953244,-0.004123337,0.22861615,-26.475,-39.43125,-16.931252,0.28287676,0.0082599735,0.14013098,999.5936, , , , 
2026-03-19 21:05:46.919,1.3112668,4.3645086,6.34098,-0.114689864,-0.3327686,0.04291325,-26.643751,-39.3375,-17.34375,0.28126276,0.0060561225,0.14129175,999.5936, , , , 
2026-03-19 21:05:46.940,1.2011969,4.7952166,5.1493545,-0.032833982,-0.10919208,-0.051159926,-26.775002,-39.24375,-17.85,0.28095892,0.0026423682,0.14027111,999.5936, , , , 
2026-03-19 21:05:46.959,1.3591232,4.914858,5.4221363,0.07345649,0.37827802,-0.09392046,-27.0375,-39.112503,-18.337502,0.28103504,0.0044191387,0.14004374,999.5936, , , , 
2026-03-19 21:05:46.979,1.5026926,4.776074,5.259424,0.11377356,0.5090031,-0.18921536,-27.206251,-39.018753,-18.618752,0.28137916,0.008128849,0.1401376,999.59064, , , , 
2026-03-19 21:05:46.999,1.2059826,4.9435716,5.5896335,0.041691523,0.43814278,-0.30772313,-27.375002,-39.0,-18.825,0.28161296,0.014659206,0.13897923,999.59064, , , , 
2026-03-19 21:05:47.019,-0.46899325,5.7858453,7.183254,0.18096869,0.4894554,-0.28328854,-27.16875,-38.9625,-18.73125,0.28186843,0.02002728,0.13726474,999.59064, , , , 
2026-03-19 21:05:47.039,-1.1294123,6.5276203,6.867401,0.39843655,0.4308124,-0.030390523,-26.775002,-39.075,-18.768751,0.28434587,0.02546818,0.13696463,999.59064, , , , 
2026-03-19 21:05:47.060,-0.4881358,6.862615,6.9678993,0.28848088,0.2695441,0.22861615,-26.456251,-39.1875,-18.825,0.28672308,0.028506272,0.1383895,999.5743, , , , 
2026-03-19 21:05:47.079,0.8997013,6.7429743,7.2263246,0.12232567,-0.013897174,0.25671592,-26.1,-39.15,-18.69375,0.28894144,0.029712358,0.14120547,999.5743, , , , 
2026-03-19 21:05:47.100,1.1916257,6.8482585,8.020741,-0.063377224,-0.18249585,0.077121675,-25.95,-39.131252,-18.6,0.28974116,0.027756833,0.14294712,999.5743, , , , 
2026-03-19 21:05:47.119,0.37806597,7.2263246,9.23151,-0.056046844,-0.13240494,-0.04138609,-25.9125,-39.05625,-18.4125,0.28935802,0.025958294,0.14249139,999.5743, , , , 
2026-03-19 21:05:47.139,-0.13878371,7.6426754,9.461221,0.117438756,0.18035783,-0.019394957,-25.85625,-38.9625,-18.2625,0.28958732,0.025973137,0.14210106,999.5671, , , , 
2026-03-19 21:05:47.159,0.14356937,7.7671022,9.365508,0.07589995,0.44547313,0.041691523,-25.81875,-38.90625,-18.206251,0.29046628,0.029039696,0.14302294,999.5671, , , , 
2026-03-19 21:05:47.180,0.22013968,8.154739,10.336994,-0.18555018,0.13637556,-0.024281874,-25.968752,-38.8875,-18.225,0.28933233,0.033065893,0.14448506,999.5671, , , , 
2026-03-19 21:05:47.199,0.4977071,8.355737,11.303694,-0.36147922,-0.37186393,-0.0108428495,-26.062502,-39.037502,-18.206251,0.2874303,0.032185704,0.14413373,999.5671, , , , 
2026-03-19 21:05:47.219,1.5601203,7.446464,11.265409,-0.3113883,-0.6394227,-0.03649917,-26.1375,-39.1875,-18.300001,0.28475985,0.02717056,0.14280383,999.57855, , , , 
2026-03-19 21:05:47.239,1.9860427,5.771488,10.518848,0.0074830935,-0.4818196,-0.20631959,-26.1375,-39.393753,-18.46875,0.28358012,0.019780908,0.13946784,999.57855, , , , 
2026-03-19 21:05:47.259,1.8951155,5.316852,9.480363,0.25793764,0.06429352,-0.27962336,-26.081251,-39.54375,-18.84375,0.2852562,0.018542571,0.1365036,999.57855, , , , 
2026-03-19 21:05:47.279,1.0241281,4.910072,9.288938,0.26648977,0.423482,-0.31749696,-26.081251,-39.506252,-19.1625,0.28689256,0.021331344,0.13494515,999.57855, , , , 
2026-03-19 21:05:47.299,0.06699903,4.8765726,9.327223,0.21517712,0.18402301,-0.2686278,-26.1375,-39.46875,-19.21875,0.28853968,0.026039433,0.13304123,999.5892, , , , 
2026-03-19 21:05:47.320,0.47377887,5.0679984,7.647461,0.12599087,-0.16050471,-0.15500695,-26.19375,-39.581253,-19.181252,0.29057264,0.027329085,0.13046062,999.5892, , , , 
2026-03-19 21:05:47.339,0.51206404,5.0344987,6.7764735,-0.058490302,-0.16416991,-0.107359484,-26.118752,-39.75,-18.993752,0.29106933,0.02600949,0.12873195,999.5892, , , , 
2026-03-19 21:05:47.359,0.3397808,4.8909297,6.9248285,-0.13912445,-0.08353576,-0.049938194,-25.931252,-39.862503,-18.75,0.29041985,0.02517927,0.12789081,999.5892, , , , 
2026-03-19 21:05:47.379,0.4019942,4.4889355,6.948757,-0.059712034,-0.07131846,-0.0108428495,-25.650002,-39.9,-18.675001,0.28935277,0.024399646,0.12739834,999.60065, , , , 
2026-03-19 21:05:47.399,0.7082755,4.0007997,6.1974106,0.11988221,-0.0029016077,-0.07315106,-25.406252,-39.768753,-18.525002,0.28965685,0.023848776,0.1268389,999.60065, , , , 
2026-03-19 21:05:47.419,0.3493521,4.302295,6.1495543,0.16752967,0.17669263,-0.11102467,-25.2,-39.525,-18.243752,0.2909609,0.025278645,0.12617883,999.60065, , , , 
2026-03-19 21:05:47.439,0.18664017,4.517649,6.474978,0.17974696,0.19746204,-0.095142186,-25.087502,-39.300003,-18.243752,0.29199308,0.027081508,0.12584047,999.60065, , , , 
2026-03-19 21:05:47.459,0.19142582,4.7282176,7.2119675,0.24938555,0.21823144,-0.10002911,-25.06875,-39.15,-18.31875,0.2935487,0.029489549,0.1254475,999.6104, , , , 
2026-03-19 21:05:47.479,-0.0526421,4.8191447,7.4943204,0.45707956,0.15592323,-0.0707076,-24.806252,-39.112503,-18.4125,0.29628244,0.03207431,0.12497276,999.6104, , , , 
2026-03-19 21:05:47.499,0.09571291,5.0009995,6.04427,0.5658135,0.05818487,-0.0035124724,-24.54375,-39.24375,-18.525002,0.30239534,0.03419176,0.1247302,999.6104, , , , 
2026-03-19 21:05:47.519,0.23928227,5.312066,6.2644095,0.44730574,0.13515383,0.0490219,-24.375002,-39.525,-18.4125,0.30601758,0.035293065,0.124968156,999.6104, , , , 
2026-03-19 21:05:47.539,0.65084773,5.0536413,6.862615,0.44364056,0.11438443,0.044134982,-24.31875,-39.768753,-18.0,0.31003198,0.036969792,0.12575464,999.6045, , , , 
2026-03-19 21:05:47.559,0.11964113,5.2163534,6.6855464,0.47174034,0.08506292,0.0013744457,-24.206251,-39.99375,-17.643751,0.31532723,0.03857166,0.12606277,999.6045, , , , 
2026-03-19 21:05:47.579,-0.30149564,5.7858453,7.025327,0.4424188,0.2414443,0.13698642,-24.150002,-40.143753,-17.2875,0.31951192,0.040368803,0.12692623,999.6045, , , , 
2026-03-19 21:05:47.599,0.21535404,5.852844,7.7479596,0.36056295,0.47112945,0.32024586,-24.056252,-40.143753,-16.85625,0.32214257,0.042824183,0.12925412,999.6045, , , , 
2026-03-19 21:05:47.619,1.1629118,5.771488,7.733603,0.12476913,0.21823144,0.33735007,-23.8875,-40.3125,-16.575,0.32450384,0.045946013,0.13368027,999.59216, , , , 
2026-03-19 21:05:47.639,1.3304094,6.029913,8.685946,-0.29550585,-0.18127412,0.21762058,-24.112501,-40.55625,-16.3875,0.32381415,0.044830233,0.13721919,999.59216, , , , 
2026-03-19 21:05:47.659,1.0959128,6.135197,10.346565,-0.3688096,-0.31932956,0.15286891,-24.31875,-40.631252,-16.331251,0.3207281,0.041122474,0.13824166,999.59216, , , , 
2026-03-19 21:05:47.679,0.43070808,5.9437714,10.600204,-0.25641048,-0.12751803,0.10033454,-24.50625,-40.55625,-16.425001,0.3186857,0.038444396,0.13857424,999.59216, , , , 
2026-03-19 21:05:47.699,-0.61734825,6.0490556,11.155339,-0.063377224,0.29031348,0.09789108,-24.712502,-40.331253,-16.5,0.3166669,0.038006797,0.13956617,999.58984, , , , 
2026-03-19 21:05:47.719,-1.1772687,5.704489,10.906486,0.056352276,0.48579022,0.22128576,-24.806252,-40.162502,-16.48125,0.3158893,0.04234411,0.14294115,999.58984, , , , 
2026-03-19 21:05:47.739,-1.5601203,5.4460645,10.8682,-0.04138609,0.170584,0.30680683,-24.91875,-40.143753,-16.48125,0.31537327,0.044878013,0.14652726,999.58984,37.88746361,127.73737093,173.7559814453125,1.89
2026-03-19 21:05:47.759,-1.1820544,5.3072805,9.934999,-0.14278965,-0.2716821,0.3666716,-25.0125,-40.21875,-16.518751,0.31471884,0.043728586,0.14877442,999.58984, , , , 
2026-03-19 21:05:47.779,-0.16749759,5.1924253,8.571091,-0.14278965,-0.32299474,0.4094321,-25.2,-40.331253,-16.743752,0.31379136,0.03938087,0.15141444,999.59406, , , , 
2026-03-19 21:05:47.799,0.8853444,4.7569313,6.8913293,-0.13301581,-0.13607013,0.36544985,-25.44375,-40.275,-17.04375,0.31302688,0.03552305,0.1544278,999.59406, , , , 
2026-03-19 21:05:47.819,1.5744773,4.2352962,5.5369916,-0.32849252,0.09605849,0.20051636,-25.893751,-40.21875,-17.19375,0.31072485,0.033482928,0.15789565,999.59406, , , , 
2026-03-19 21:05:47.839,0.6221339,4.2927237,6.7381887,-0.4714349,0.39171705,0.035582874,-26.325,-40.275,-17.362501,0.30752957,0.034294035,0.15939732,999.59406, , , , 
2026-03-19 21:05:47.859,-0.4977071,4.436293,8.1020975,-0.27351472,0.4809033,0.04780017,-26.643751,-40.18125,-17.53125,0.30280322,0.037676472,0.16116396,999.6011, , , , 
2026-03-19 21:05:47.879,-0.076570325,4.168297,7.111469,0.025809037,0.17669263,0.10522146,-26.8875,-39.975002,-17.737501,0.30050114,0.04146688,0.16353399,999.6011, , , , 
2026-03-19 21:05:47.899,0.79441714,4.2592244,5.45085,-0.00962112,-0.14095704,0.04535671,-26.868752,-39.787502,-18.056252,0.30078498,0.041424017,0.16419367,999.6011, , , , 
2026-03-19 21:05:47.919,1.1246266,4.5272202,5.613562,-0.09758565,-0.21670428,-0.06582068,-26.831251,-39.6375,-18.35625,0.30064514,0.039611038,0.16379611,999.6011, , , , 
2026-03-19 21:05:47.939,1.18684,4.723432,6.0251274,-0.023060145,-0.09086613,-0.15622866,-26.812502,-39.54375,-18.525002,0.30022156,0.03791986,0.16234304,999.60046, , , , 
2026-03-19 21:05:47.959,0.53599226,4.962714,6.0921264,0.0697913,-0.007788526,-0.17333288,-26.718752,-39.5625,-18.581251,0.30062452,0.03806274,0.16018519,999.60046, , , , 
2026-03-19 21:05:47.979,0.28713873,5.302495,5.986842,0.066126116,-0.07131846,-0.16966769,-26.75625,-39.65625,-18.50625,0.3011934,0.038335517,0.15890473,999.60046, , , , 
2026-03-19 21:05:47.999,-0.0047856453,5.7954164,6.087341,0.012370012,-0.114079,-0.17333288,-26.625002,-39.73125,-18.50625,0.30183202,0.038142186,0.1570019,999.60046, , , , 
2026-03-19 21:05:48.019,-0.06699903,6.1399827,6.326623,-0.03894263,-0.15073088,-0.1452331,-26.400002,-39.768753,-18.5625,0.30200946,0.03749519,0.15507868,999.5849, , , , 
2026-03-19 21:05:48.039,-0.44985065,6.5946193,6.2117677,-0.10491603,-0.16539164,-0.09025527,-26.268751,-39.862503,-18.393751,0.3017016,0.035972454,0.15298766,999.5849, , , , 
2026-03-19 21:05:48.059,-0.4881358,7.245467,6.9296145,-0.20021093,-0.017562363,0.020922119,-25.987501,-39.862503,-18.337502,0.30087772,0.035123535,0.15240714,999.5849, , , , 
2026-03-19 21:05:48.079,-0.2105684,7.5182486,8.671589,-0.09758565,0.23044874,0.10522146,-25.837502,-39.787502,-18.300001,0.2992196,0.035448864,0.15315922,999.5849, , , , 
2026-03-19 21:05:48.100,0.40677986,7.470392,9.298509,0.117438756,0.2451095,0.07223476,-25.893751,-39.7125,-18.28125,0.29894638,0.038159247,0.15530439,999.5758, , , , 
2026-03-19 21:05:48.120,0.124426775,7.2119675,9.126225,0.083230324,0.0056504994,-0.046273008,-25.95,-39.65625,-18.525002,0.2999368,0.039531622,0.15575661,999.5758, , , , 
2026-03-19 21:05:48.139,-0.3062813,7.776674,9.815358,-0.06459895,-0.28634286,-0.10980295,-26.1375,-39.61875,-18.6375,0.3001735,0.038905006,0.15486106,999.5758, , , , 
2026-03-19 21:05:48.159,0.4833502,8.111669,10.083355,-0.047494736,-0.49281517,-0.115911596,-26.306252,-39.600002,-18.768751,0.30009294,0.035770275,0.15276207,999.5758, , , , 
2026-03-19 21:05:48.179,1.4356936,8.025527,9.379865,0.01847866,-0.29856017,-0.19532402,-26.362501,-39.65625,-18.9375,0.30083033,0.031029157,0.14935736,999.5743, , , , 
2026-03-19 21:05:48.199,1.1724831,7.542177,9.60479,0.012370012,0.19257513,-0.20998476,-26.400002,-39.9,-18.956251,0.30113074,0.031143172,0.14721252,999.5743, , , , 
2026-03-19 21:05:48.219,0.44506502,6.3792653,10.9352,0.031917684,0.47601637,-0.095142186,-26.23125,-40.125,-18.9375,0.3007389,0.034141745,0.14688015,999.5743, , , , 
2026-03-19 21:05:48.240,0.8662018,5.3503513,10.60499,0.052687086,0.24755295,-0.030390523,-26.081251,-40.3875,-19.087502,0.3004197,0.03903899,0.1477463,999.5743, , , , 
2026-03-19 21:05:48.259,0.9236295,4.948357,9.963714,-0.045051277,0.0044287695,-0.08781181,-25.95,-40.631252,-19.10625,0.3001114,0.040168364,0.14756204,999.5796, , , , 
2026-03-19 21:05:48.279,0.9906286,4.9722853,9.064013,-0.1122464,-0.057879437,-0.12079851,-25.63125,-40.612503,-18.91875,0.29922917,0.039887533,0.14646308,999.5796, , , , 
2026-03-19 21:05:48.299,1.1581261,4.9052863,8.236095,-0.21242823,0.015424335,-0.1574504,-25.556252,-40.425003,-18.91875,0.29807585,0.03970115,0.14552934,999.5796, , , , 
2026-03-19 21:05:48.320,0.8422736,4.7856455,7.944171,-0.2771799,0.066736974,-0.23075417,-25.518751,-40.237503,-18.88125,0.29494786,0.04035532,0.14364888,999.5796, , , , 
2026-03-19 21:05:48.339,0.22492532,4.6564326,8.389236,-0.20143266,0.016646065,-0.27107126,-25.331251,-40.050003,-18.825,0.29231867,0.041070044,0.14149491,999.5856, , , , 
2026-03-19 21:05:48.359,-0.1052842,4.584648,7.752745,0.033139415,-0.1886045,-0.23930627,-25.237501,-39.9375,-18.900002,0.29157493,0.040936798,0.13883512,999.5856, , , , 
2026-03-19 21:05:48.379,0.2105684,4.536792,6.3218374,0.123547405,-0.22769985,-0.22464553,-24.975,-39.975002,-18.993752,0.29234928,0.03985248,0.13667032,999.5856, , , , 
2026-03-19 21:05:48.400,0.44506502,4.4841495,6.020342,0.12721258,0.05329795,-0.19165882,-24.712502,-40.0125,-18.9375,0.29402956,0.03934418,0.1336762,999.5856, , , , 
2026-03-19 21:05:48.419,0.3397808,4.359723,6.728617,0.16997312,0.2035707,-0.1904371,-24.54375,-40.125,-18.900002,0.29513085,0.041488964,0.13227427,999.5853, , , , 
2026-03-19 21:05:48.439,0.019142581,4.4745784,7.34118,0.27259842,0.1632536,-0.20876303,-24.337502,-40.21875,-18.9375,0.2968263,0.04415183,0.1308635,999.5853, , , , 
2026-03-19 21:05:48.459,-0.43070808,4.6564326,7.025327,0.43508843,0.0019853106,-0.18432845,-24.225,-40.256252,-18.75,0.29911214,0.04557107,0.12945516,999.5853, , , , 
2026-03-19 21:05:48.479,-0.37328035,4.9531426,6.2309103,0.5206095,-0.11530073,-0.076816246,-23.98125,-40.237503,-18.487501,0.30353487,0.04628852,0.12769516,999.5853, , , , 
2026-03-19 21:05:48.499,0.28235307,5.0344987,4.996214,0.43631017,-0.25702137,0.023365578,-23.643751,-40.18125,-18.375,0.30979258,0.044979207,0.12638098,999.58044, , , , 
2026-03-19 21:05:48.519,0.16749759,5.2642097,5.259424,0.24938555,-0.123852834,0.061239194,-23.456251,-40.237503,-18.225,0.31331715,0.043186214,0.12595755,999.58044, , , , 
2026-03-19 21:05:48.540,-0.023928227,5.790631,7.618747,0.24572036,0.36728245,0.15164718,-23.400002,-40.350002,-17.925001,0.31484982,0.04379454,0.12678783,999.58044, , , , 
2026-03-19 21:05:48.559,0.06699903,5.761917,9.303294,0.47784898,0.6372847,0.22128576,-23.41875,-40.55625,-17.643751,0.31724274,0.048261203,0.12992238,999.58044, , , , 
2026-03-19 21:05:48.579,0.20578274,5.642276,8.427522,0.6195696,0.25732678,0.19440772,-23.34375,-40.6875,-17.19375,0.32307336,0.054272737,0.13413687,999.573, , , , 
2026-03-19 21:05:48.599,0.60777694,6.1399827,6.9726853,0.3434587,-0.24113888,0.15409064,-23.25,-40.6875,-16.85625,0.32683277,0.054479226,0.13520706,999.573, , , , 
2026-03-19 21:05:48.619,0.9619147,6.6281185,7.159325,-0.019394957,-0.30100363,0.116217025,-23.325,-40.800003,-16.78125,0.32941914,0.05146591,0.13547416,999.573, , , , 
2026-03-19 21:05:48.639,1.0289137,7.135397,8.374879,-0.12690715,-0.039553493,0.09666935,-23.587502,-40.93125,-16.575,0.32911834,0.048869297,0.13581008,999.573, , , , 
2026-03-19 21:05:48.659,0.76570326,6.6999035,9.312865,-0.12079851,0.5102248,-0.016951498,-23.98125,-41.006252,-16.331251,0.32738388,0.050546568,0.1374368,999.5611, , , , 
2026-03-19 21:05:48.679,-0.9523434,6.762117,10.782059,-0.029168794,0.71425366,-0.12202024,-24.206251,-41.025,-16.143751,0.3259383,0.05535141,0.13854453,999.5611, , , , 
2026-03-19 21:05:48.699,-2.1391835,6.465407,10.63849,-0.07315106,0.42226028,-0.048716467,-24.16875,-40.85625,-16.1625,0.32456538,0.061622422,0.13959728,999.5611, , , , 
2026-03-19 21:05:48.719,-2.6416762,6.34098,10.609776,-0.23930627,-0.072540194,0.12965605,-23.90625,-40.800003,-16.275002,0.322816,0.063958645,0.14052042,999.5611, , , , 
2026-03-19 21:05:48.739,-1.7850457,5.871987,10.60499,-0.30894485,-0.45005462,0.35201082,-23.681252,-40.8375,-16.425001,0.31985977,0.059533056,0.14238174,999.56476,37.88745262,127.7373808,173.9656982421875,1.7
2026-03-19 21:05:48.759,-0.65084773,5.4125648,9.968499,-0.19165882,-0.502589,0.40698865,-23.53125,-40.85625,-16.725,0.31855142,0.05491099,0.14404064,999.56476, , , , 
2026-03-19 21:05:48.779,0.16271193,5.0919266,8.786445,-0.10613775,-0.36453354,0.32024586,-23.475,-40.912502,-16.95,0.31782085,0.049149733,0.1461846,999.56476, , , , 
2026-03-19 21:05:48.799,0.4642076,4.871787,7.422536,-0.11713332,-0.16539164,0.17730351,-23.6625,-40.8375,-17.1375,0.31716073,0.044997267,0.14817326,999.56476, , , , 
2026-03-19 21:05:48.820,0.28713873,4.7138605,6.71426,-0.20509785,-0.11896592,0.08689552,-23.94375,-40.66875,-17.306252,0.31585795,0.043034486,0.14901324,999.5764, , , , 
2026-03-19 21:05:48.839,-0.19621146,4.776074,6.4462643,-0.25152358,-0.09086613,0.0820086,-24.300001,-40.59375,-17.306252,0.31434923,0.041860867,0.14935629,999.5764, , , , 
2026-03-19 21:05:48.859,-0.12921242,4.694718,5.9724855,-0.2319759,-0.12507457,0.13698642,-24.6375,-40.55625,-17.268751,0.3122046,0.040292986,0.1500879,999.5764, , , , 
2026-03-19 21:05:48.879,0.38763726,4.618148,5.4317074,-0.2490801,-0.11530073,0.17119485,-24.843752,-40.5,-17.38125,0.30979452,0.037773192,0.15154934,999.5764, , , , 
2026-03-19 21:05:48.899,0.7848458,4.4410787,5.575277,-0.2234238,-0.10674862,0.13087778,-24.975,-40.518753,-17.60625,0.30781233,0.035816338,0.15273911,999.57855, , , , 
2026-03-19 21:05:48.920,0.6269195,4.6325045,6.0107703,-0.11835505,-0.10063997,0.090560704,-25.181252,-40.59375,-17.8125,0.30669653,0.03456978,0.15330958,999.57855, , , , 
2026-03-19 21:05:48.939,0.7082755,4.7425747,5.9581285,-0.004734202,-0.12140937,0.07101303,-25.5375,-40.55625,-17.925001,0.3061985,0.033140637,0.15382287,999.57855, , , , 
2026-03-19 21:05:48.960,0.8709874,5.058427,5.895915,0.09789108,-0.12996148,-0.021838415,-25.66875,-40.537502,-18.0375,0.30697322,0.031611342,0.1537703,999.57855, , , , 
2026-03-19 21:05:48.979,0.6795616,5.556134,5.6183476,0.16997312,-0.046883874,-0.09025527,-25.837502,-40.518753,-18.16875,0.3085396,0.03107333,0.15282667,999.5745, , , , 
2026-03-19 21:05:48.999,0.5599205,6.04427,5.680561,0.15409064,0.042302385,-0.11346813,-26.025002,-40.4625,-18.2625,0.30979264,0.031552985,0.152065,999.5745, , , , 
2026-03-19 21:05:49.019,0.6652047,6.398408,5.9724855,0.10155627,-0.043218683,-0.12324197,-25.931252,-40.3125,-18.28125,0.31115445,0.03230134,0.15102834,999.5745, , , , 
2026-03-19 21:05:49.039,0.6987042,6.9056864,6.364908,0.08933897,-0.14828743,-0.19288056,-26.00625,-40.275,-18.150002,0.31260043,0.031855848,0.14879064,999.5745, , , , 
2026-03-19 21:05:49.059,0.3924229,7.475178,6.704689,0.07589995,-0.010231985,-0.24663666,-25.968752,-40.162502,-17.98125,0.31360987,0.03191173,0.14636421,999.55774, , , , 
2026-03-19 21:05:49.079,-0.062213387,7.9537425,7.0396843,-0.027947064,0.10949751,-0.20998476,-25.650002,-39.9,-17.681252,0.31395823,0.032911528,0.1447905,999.55774, , , , 
2026-03-19 21:05:49.100,-0.5886344,8.202596,8.250452,-0.27473643,0.2536616,-0.054825112,-25.612501,-39.956253,-17.4375,0.3123056,0.035246436,0.14364396,999.55774, , , , 
2026-03-19 21:05:49.119,-0.038285162,8.111669,10.241281,-0.4176788,0.36850417,0.07223476,-25.556252,-40.050003,-17.362501,0.30855212,0.037804186,0.1449625,999.55774, , , , 
2026-03-19 21:05:49.139,0.3589234,7.958528,11.782259,-0.4641045,0.29031348,0.04291325,-25.500002,-40.256252,-17.34375,0.30387333,0.040163353,0.14681096,999.5524, , , , 
2026-03-19 21:05:49.159,0.4642076,7.867601,12.873385,-0.43966994,0.08261946,-0.019394957,-25.612501,-40.518753,-17.53125,0.3003178,0.041082792,0.14751722,999.5524, , , , 
2026-03-19 21:05:49.179,0.7896315,6.9966135,13.002598,-0.2600757,-0.20815217,-0.056046844,-25.5375,-40.575,-17.831251,0.29658332,0.04036599,0.14734763,999.5524, , , , 
2026-03-19 21:05:49.199,1.2059826,5.871987,11.619547,0.033139415,-0.38408124,-0.14156792,-25.29375,-40.537502,-18.16875,0.29538387,0.03680075,0.14527695,999.5524, , , , 
2026-03-19 21:05:49.220,1.2729816,5.6614184,9.652647,0.14187334,-0.28023422,-0.20631959,-25.312502,-40.425003,-18.50625,0.29676315,0.034104038,0.14252706,999.569, , , , 
2026-03-19 21:05:49.239,0.91884387,5.4460645,8.441878,0.056352276,-0.092087865,-0.2112065,-25.29375,-40.40625,-18.806252,0.29770753,0.033304535,0.14056017,999.569, , , , 
2026-03-19 21:05:49.260,0.8039884,5.3312087,8.260024,-0.13179408,0.07040217,-0.1574504,-25.237501,-40.443752,-19.125,0.2973192,0.033683002,0.1383303,999.569, , , , 
2026-03-19 21:05:49.279,0.59342,5.130212,8.26481,-0.23686282,0.09117157,-0.12324197,-25.29375,-40.36875,-19.331251,0.2953145,0.034630556,0.13738093,999.569, , , , 
2026-03-19 21:05:49.299,0.13878371,5.1158547,8.26481,-0.27595815,0.03497201,-0.12202024,-25.10625,-40.275,-19.40625,0.29329008,0.035153344,0.13674979,999.5794, , , , 
2026-03-19 21:05:49.319,0.08135597,4.9579287,8.025527,-0.17211115,-0.111635536,-0.115911596,-24.975,-40.275,-19.462502,0.29083875,0.03509418,0.13570984,999.5794, , , , 
2026-03-19 21:05:49.339,0.22971097,4.613362,7.1306114,0.0368046,-0.2545779,-0.13668099,-24.975,-40.275,-19.44375,0.29003286,0.033669565,0.1340949,999.5794, , , , 
2026-03-19 21:05:49.359,0.61734825,4.316652,5.656633,0.15164718,-0.11896592,-0.20509785,-24.937502,-40.2,-19.425001,0.2916152,0.031687014,0.13126907,999.5794, , , , 
2026-03-19 21:05:49.379,0.43070808,4.23051,6.4031935,0.19685118,0.23655738,-0.29061893,-24.900002,-40.125,-19.518751,0.2926625,0.032668978,0.12961997,999.5883, , , , 
2026-03-19 21:05:49.399,-0.014356935,4.3645086,7.350751,0.36178467,0.32574365,-0.30405796,-24.675001,-40.0125,-19.63125,0.29449475,0.03649516,0.12753688,999.5883, , , , 
2026-03-19 21:05:49.420,-0.29192436,4.3932223,6.867401,0.53404856,0.1339321,-0.25763223,-24.206251,-39.99375,-19.66875,0.299156,0.04128216,0.12493311,999.5883, , , , 
2026-03-19 21:05:49.439,-0.22492532,4.7138605,5.8193445,0.568257,-0.05177079,-0.21853687,-23.681252,-39.99375,-19.59375,0.30431518,0.042972106,0.12249292,999.5883, , , , 
2026-03-19 21:05:49.459,-0.44027936,5.111069,5.3886366,0.491288,-0.040775225,-0.13545926,-23.38125,-40.03125,-19.3875,0.30818194,0.043445602,0.120798916,999.5928, , , , 
2026-03-19 21:05:49.479,-0.33020952,5.206782,6.1208405,0.44486228,0.07284562,0.011148282,-23.25,-40.2,-19.143751,0.31265324,0.04432476,0.119751945,999.5928, , , , 
2026-03-19 21:05:49.499,0.28235307,5.1158547,6.4558353,0.45463613,0.054519683,0.06856957,-23.25,-40.40625,-18.825,0.317916,0.04562878,0.12033419,999.5928, , , , 
2026-03-19 21:05:49.519,0.37328035,5.4987063,6.9296145,0.4705186,0.11194097,0.031917684,-23.23125,-40.575,-18.525002,0.322166,0.04660342,0.1208251,999.5928, , , , 
2026-03-19 21:05:49.539,0.086141616,6.058627,7.661818,0.57680905,0.26465717,0.0368046,-23.04375,-40.78125,-18.150002,0.32559022,0.04830747,0.12128687,999.5847, , , , 
2026-03-19 21:05:49.560,0.14356937,6.3122663,6.7429743,0.581696,0.0923933,0.10644319,-22.875,-40.893753,-17.550001,0.3309816,0.05108158,0.122322105,999.5847, , , , 
2026-03-19 21:05:49.579,0.53599226,6.3601227,5.656633,0.19929464,-0.25579962,0.12843432,-22.78125,-41.006252,-17.025002,0.33536643,0.05068636,0.12304833,999.5847, , , , 
2026-03-19 21:05:49.599,0.91405827,6.838687,7.8867435,-0.24663666,-0.3901899,0.09422589,-22.875,-41.287502,-16.5,0.33520103,0.045684677,0.12283082,999.5847, , , , 
2026-03-19 21:05:49.619,1.2346965,6.853044,9.8727865,-0.16478078,-0.2093739,-0.0377209,-23.175001,-41.643753,-16.06875,0.33381745,0.0429289,0.12252319,999.5771, , , , 
2026-03-19 21:05:49.639,-0.12921242,6.762117,9.628718,-0.10613775,-0.027336199,-0.1989892,-23.41875,-41.86875,-15.8625,0.33276582,0.041607346,0.12115573,999.5771, , , , 
2026-03-19 21:05:49.659,-1.7515461,6.867401,10.336994,-0.2283107,0.16203189,-0.12812889,-23.550001,-41.9625,-15.8625,0.33050472,0.043023024,0.11917122,999.5771, , , , 
2026-03-19 21:05:49.679,-1.2203395,5.9676995,11.236695,-0.21731515,0.24022257,0.058795735,-23.587502,-41.98125,-15.95625,0.3278782,0.04492841,0.119846895,999.5771, , , , 
2026-03-19 21:05:49.700,-0.95712906,5.5130634,12.610175,1.527162E-4,0.2084576,0.064904384,-23.475,-41.86875,-15.918751,0.32641974,0.04643373,0.1210289,999.57855, , , , 
2026-03-19 21:05:49.719,-0.9762716,5.45085,11.270195,0.28359398,-0.14584397,0.056352276,-23.306252,-41.756252,-15.918751,0.32702285,0.047365032,0.12186156,999.57855, , , , 
2026-03-19 21:05:49.739,-0.94277215,5.623133,7.958528,0.10644319,-0.41706792,0.12232567,-23.2875,-41.756252,-15.937501,0.33016846,0.044103194,0.121423304,999.57855,37.8874415,127.73739204,174.24127197265625,1.57
2026-03-19 21:05:49.759,-0.7178468,5.5274205,6.987042,-0.35414886,-0.29122978,0.25427246,-23.306252,-41.831253,-15.975,0.3293714,0.039796703,0.121944435,999.57855, , , , 
2026-03-19 21:05:49.779,-0.09571291,4.895715,7.987242,-0.63148147,0.016646065,0.33979353,-23.2875,-41.943752,-16.10625,0.32599264,0.03756682,0.123845994,999.5873, , , , 
2026-03-19 21:05:49.800,0.33020952,4.2687955,8.877372,-0.5581777,0.067958705,0.23961172,-23.41875,-41.925003,-16.237501,0.31851387,0.036115624,0.12805071,999.5873, , , , 
2026-03-19 21:05:49.819,0.22013968,4.2161536,8.001599,-0.23808455,-0.21426082,0.07467822,-23.643751,-41.925003,-16.40625,0.31468126,0.03447416,0.12945266,999.5873, , , , 
2026-03-19 21:05:49.840,-0.0526421,4.508078,5.2546387,0.006261364,-0.45005462,-0.007177661,-23.79375,-41.79375,-16.66875,0.31431693,0.030889692,0.12851751,999.5873, , , , 
2026-03-19 21:05:49.859,-0.3684947,4.7138605,2.9671001,-0.047494736,-0.3572032,0.056352276,-23.98125,-41.60625,-17.1,0.31495428,0.027759155,0.12748462,999.60535, , , , 
2026-03-19 21:05:49.879,-0.02871387,5.015356,4.1108694,-0.25518876,0.010537418,0.18463388,-24.150002,-41.49375,-17.456251,0.3142418,0.025242146,0.1277702,999.60535, , , , 
2026-03-19 21:05:49.900,0.9092726,4.5798626,6.4606214,-0.09758565,0.25243986,0.15042545,-24.35625,-41.4,-17.643751,0.3116136,0.025851395,0.13062878,999.60535, , , , 
2026-03-19 21:05:49.919,1.052842,4.6085763,6.1591253,0.15409064,0.18402301,-0.015729768,-24.50625,-41.381252,-17.8125,0.31183502,0.027743923,0.13192192,999.60535, , , , 
2026-03-19 21:05:49.939,0.8997013,5.2019963,5.623133,0.19929464,0.07284562,-0.18066326,-24.6375,-41.4,-17.962502,0.3130591,0.029053278,0.13152727,999.60406, , , , 
2026-03-19 21:05:49.959,0.49292147,5.804988,5.474778,0.16630794,-0.049327333,-0.2600757,-24.712502,-41.381252,-17.98125,0.3148491,0.030189916,0.1295358,999.60406, , , , 
2026-03-19 21:05:49.980,-0.11006984,6.546763,5.359923,0.055130545,-0.22403465,-0.24541493,-24.618752,-41.325,-17.868752,0.31659523,0.030001352,0.12590258,999.60406, , , , 
2026-03-19 21:05:50.000,0.086141616,7.5517483,5.8480587,-0.0707076,-0.43905905,-0.12079851,-24.468752,-41.23125,-17.6625,0.3169695,0.028320597,0.12374072,999.60406, , , , 
2026-03-19 21:05:50.019,0.75613195,7.7479596,6.474978,-0.108581215,-0.43417215,-0.07803798,-24.4125,-41.193752,-17.53125,0.31688195,0.024312409,0.121410884,999.5853, , , , 
2026-03-19 21:05:50.039,0.32542387,8.193025,7.9776707,0.116217025,-0.037110034,-0.17577635,-24.375002,-41.25,-17.493752,0.3169987,0.022014733,0.11934093,999.5853, , , , 
2026-03-19 21:05:50.059,-0.7752745,8.441878,7.513463,0.23716825,0.3159698,-0.12568542,-24.206251,-41.287502,-17.550001,0.31937033,0.02473792,0.11787562,999.5853, , , , 
2026-03-19 21:05:50.079,-1.1772687,8.685946,7.733603,-0.12935062,0.25854853,0.0490219,-24.337502,-41.4,-17.475,0.32009926,0.027386751,0.11818757,999.5853, , , , 
2026-03-19 21:05:50.100,-0.40677986,8.762517,10.820344,-0.48120874,0.039858926,0.15409064,-24.300001,-41.5125,-17.212502,0.3174396,0.028801927,0.11972355,999.5743, , , , 
2026-03-19 21:05:50.119,1.0097711,8.303095,12.509677,-0.3272708,-0.15195261,0.060017463,-24.16875,-41.53125,-17.025002,0.31236812,0.026952324,0.12116882,999.5743, , , , 
2026-03-19 21:05:50.139,1.3591232,7.7240314,11.691332,-0.10613775,-0.19960007,-0.09880738,-24.2625,-41.456253,-17.0625,0.31065834,0.02497564,0.12044634,999.5743, , , , 
2026-03-19 21:05:50.159,1.0289137,6.876972,10.729417,-0.048716467,-0.14217877,-0.13301581,-24.112501,-41.34375,-17.325,0.31022418,0.023943165,0.11916261,999.5743, , , , 
2026-03-19 21:05:50.179,1.6127625,6.111269,9.743574,-0.11346813,-0.073761925,-0.059712034,-24.093752,-41.287502,-17.7,0.3097405,0.022837492,0.117780425,999.5722, , , , 
2026-03-19 21:05:50.199,1.8281165,5.163711,9.226724,-0.2600757,0.06185006,-0.114689864,-24.243752,-41.456253,-18.13125,0.30753824,0.02248975,0.116920136,999.5722, , , , 
2026-03-19 21:05:50.219,1.3064811,5.2259245,9.461221,-0.32360563,0.2695441,-0.16844596,-24.31875,-41.756252,-18.487501,0.30431348,0.024088474,0.11614923,999.5722, , , , 
2026-03-19 21:05:50.239,0.75613195,5.111069,9.212367,-0.34070984,0.2866483,-0.115911596,-24.375002,-41.86875,-18.806252,0.3016136,0.026261015,0.11586986,999.5722, , , , 
2026-03-19 21:05:50.259,0.70348984,4.733003,9.327223,-0.32971427,0.027641632,-0.10980295,-24.2625,-41.831253,-18.975,0.29793698,0.028168779,0.11565297,999.58514, , , , 
2026-03-19 21:05:50.279,0.5072784,4.2927237,8.556734,-0.089033544,-0.40973756,-0.2112065,-23.962502,-41.662502,-18.9375,0.29513776,0.026270699,0.11332629,999.58514, , , , 
2026-03-19 21:05:50.299,0.14356937,4.1635113,6.518049,0.19685118,-0.59299695,-0.28328854,-23.75625,-41.381252,-18.900002,0.29623854,0.022043835,0.109336995,999.58514, , , , 
2026-03-19 21:05:50.319,-0.014356935,4.115655,4.4075794,0.35323256,-0.39507678,-0.27351472,-23.56875,-41.23125,-18.73125,0.29866475,0.018976247,0.10600653,999.58514, , , , 
2026-03-19 21:05:50.339,0.043070808,4.0677986,3.4743786,0.2689332,0.15958843,-0.19776747,-23.587502,-41.268753,-18.50625,0.30217323,0.018077673,0.10295593,999.5926, , , , 
2026-03-19 21:05:50.359,0.09092726,4.2017965,5.757131,0.029474225,0.57497644,-0.13545926,-23.7,-41.25,-18.375,0.30352932,0.023483245,0.10240505,999.5926, , , , 
2026-03-19 21:05:50.380,-0.36370903,4.316652,7.9011,0.14920372,0.3941605,-0.09392046,-23.643751,-41.25,-18.2625,0.30357498,0.028671263,0.1028019,999.5926, , , , 
2026-03-19 21:05:50.399,-0.6843473,4.369294,7.4847493,0.42897978,0.048411034,-0.0059559317,-23.56875,-41.15625,-18.206251,0.3052537,0.03072846,0.10281591,999.5926, , , , 
2026-03-19 21:05:50.419,0.09092726,4.7377887,5.905486,0.48029244,-0.046883874,0.13209951,-23.38125,-41.100002,-18.35625,0.3096517,0.031069417,0.103046484,999.5902, , , , 
2026-03-19 21:05:50.439,1.0336994,4.8909297,6.178268,0.3764454,-0.027336199,0.15042545,-23.025002,-41.04375,-18.54375,0.31481758,0.030567782,0.10458354,999.5902, , , , 
2026-03-19 21:05:50.459,0.98584294,5.005785,6.2787666,0.36422813,7.6358096E-4,0.061239194,-22.81875,-41.04375,-18.46875,0.31838638,0.030304227,0.10537306,999.5902, , , , 
2026-03-19 21:05:50.479,0.8997013,5.3647084,6.6281185,0.3434587,0.17180572,0.006261364,-22.837502,-41.15625,-18.225,0.3208313,0.030993033,0.10574685,999.5902, , , , 
2026-03-19 21:05:50.499,0.4881358,5.623133,6.6568327,0.30558512,0.24877468,0.024587307,-22.875,-41.175003,-17.8125,0.3238072,0.033211935,0.106400825,999.5849, , , , 
2026-03-19 21:05:50.519,0.15792629,5.9246287,7.6809607,0.117438756,0.37216938,0.10644319,-23.081251,-41.30625,-17.19375,0.32616293,0.03660684,0.10815867,999.5849, , , , 
2026-03-19 21:05:50.539,0.3684947,6.135197,9.671789,0.13209951,0.1999055,0.17974696,-23.34375,-41.456253,-16.78125,0.3267381,0.03933442,0.110651605,999.5849, , , , 
2026-03-19 21:05:50.559,1.5409778,6.3361945,9.01137,0.14187334,-0.08720095,0.09666935,-23.400002,-41.4375,-16.462502,0.3277819,0.039199192,0.11184866,999.5849, , , , 
2026-03-19 21:05:50.579,1.4356936,6.6999035,8.906086,0.07345649,-0.0151189035,-0.08414663,-23.34375,-41.53125,-16.181252,0.3289743,0.03832274,0.11168456,999.57983, , , , 
2026-03-19 21:05:50.599,0.44506502,7.0540414,8.681161,-0.03405571,0.26710063,-0.14156792,-23.19375,-41.550003,-16.181252,0.3291853,0.039898317,0.11089191,999.57983, , , , 
2026-03-19 21:05:50.619,-0.83748794,6.843473,9.466006,-0.30894485,0.49189886,-0.114689864,-22.931252,-41.5125,-16.25625,0.3270029,0.04408706,0.11115577,999.57983, , , , 
2026-03-19 21:05:50.639,-1.9621146,6.570691,11.600404,-0.46043932,0.34284785,0.035582874,-22.78125,-41.625,-16.275002,0.32363096,0.04722567,0.11195886,999.57983, , , , 
2026-03-19 21:05:50.659,-1.9573289,5.85763,12.500106,-0.3260491,-0.06276636,0.16630794,-22.706251,-41.737503,-16.35,0.31914553,0.048508912,0.11363424,999.57916, , , , 
2026-03-19 21:05:50.679,-1.0336994,5.8337016,10.8251295,-0.03894263,-0.30589053,0.19562945,-22.518751,-41.79375,-16.425001,0.31696433,0.045257665,0.115088895,999.57916, , , , 
2026-03-19 21:05:50.699,-0.82313097,5.905486,8.743374,0.01970039,-0.25824308,0.17486005,-22.48125,-41.850002,-16.6875,0.3172279,0.042735334,0.11564203,999.57916, , , , 
2026-03-19 21:05:50.720,-0.85184485,5.9581285,7.609176,-0.09269873,-0.05054906,0.23228133,-22.48125,-41.79375,-17.23125,0.31740186,0.040285308,0.116741836,999.57916, , , , 
2026-03-19 21:05:50.739,-0.5886344,5.5369916,7.3268228,-0.26374087,0.10338886,0.31413722,-22.650002,-41.71875,-17.681252,0.31605718,0.03950492,0.11931965,999.5862,37.88743091,127.73740283,174.6180419921875,1.56
2026-03-19 21:05:50.759,-0.5886344,5.326423,7.34118,-0.3969094,0.031306818,0.37400195,-23.00625,-41.60625,-18.018751,0.31216973,0.0387449,0.123781934,999.5862, , , , 
2026-03-19 21:05:50.779,-0.033499517,4.924429,7.1066833,-0.4017963,-0.16050471,0.3996583,-23.175001,-41.5125,-18.075,0.3093949,0.037168033,0.12656824,999.5862, , , , 
2026-03-19 21:05:50.799,0.7082755,4.4841495,6.34098,-0.26618433,-0.34254244,0.3178024,-23.362501,-41.550003,-18.16875,0.30634823,0.03335226,0.12956697,999.5862, , , , 
2026-03-19 21:05:50.819,1.052842,4.2831526,4.536792,-0.1452331,-0.29000807,0.19318599,-23.60625,-41.53125,-18.4125,0.30494738,0.028862735,0.13114992,999.59174, , , , 
2026-03-19 21:05:50.839,1.0480564,4.3932223,4.2017965,-0.2283107,0.081397735,0.10766492,-23.85,-41.41875,-18.6375,0.30327836,0.026402019,0.13251865,999.59174, , , , 
2026-03-19 21:05:50.859,1.0289137,4.4075794,5.9437714,-0.25030184,0.26343542,-0.0035124724,-24.243752,-41.287502,-18.956251,0.30129868,0.027342707,0.13354167,999.59174, , , , 
2026-03-19 21:05:50.879,0.37806597,4.6037908,6.8578296,-0.026725333,0.10827578,-0.12812889,-24.562502,-41.100002,-19.181252,0.2992138,0.029262502,0.13381305,999.59174, , , , 
2026-03-19 21:05:50.899,-0.38285163,5.0440702,6.135197,0.20173809,-0.061544627,-0.12935062,-24.750002,-40.96875,-19.462502,0.29974017,0.030168027,0.13259205,999.58575, , , , 
2026-03-19 21:05:50.919,-0.7848458,5.8672013,5.0679984,0.19318599,-0.17027856,0.04657844,-24.88125,-41.006252,-19.800001,0.30265227,0.029475598,0.13132524,999.58575, , , , 
2026-03-19 21:05:50.939,0.3493521,6.1830535,5.3982077,0.04535671,-0.20693044,0.16019928,-24.956251,-41.193752,-19.931252,0.303893,0.02792698,0.13162744,999.58575, , , , 
2026-03-19 21:05:50.959,0.95712906,6.2691956,6.489335,0.038026333,-0.05421425,0.03924806,-25.06875,-41.550003,-19.85625,0.30459464,0.026053919,0.13238311,999.58575, , , , 
2026-03-19 21:05:50.979,0.22971097,7.1066833,7.111469,0.13454297,0.08872811,-0.107359484,-25.087502,-41.737503,-19.650002,0.30569488,0.026516994,0.13200025,999.57556, , , , 
2026-03-19 21:05:50.999,-0.7513463,7.905886,7.676175,0.12232567,0.2414443,-0.00962112,-25.181252,-41.756252,-19.331251,0.30689117,0.02860662,0.13175537,999.57556, , , , 
2026-03-19 21:05:51.019,-0.047856454,7.8197446,8.666803,0.07101303,0.3697259,0.16630794,-25.3875,-41.71875,-19.03125,0.3074658,0.030712381,0.13294454,999.57556, , , , 
2026-03-19 21:05:51.039,0.63170516,7.068398,9.676575,-0.03649917,0.25488332,0.1357647,-25.518751,-41.49375,-18.825,0.30746892,0.03378411,0.13568528,999.57556, , , , 
2026-03-19 21:05:51.059,0.7082755,7.0875406,9.523434,-0.2930624,-0.28267768,-0.06459895,-25.687502,-41.41875,-18.75,0.30640742,0.033827964,0.13658115,999.5522, , , , 
2026-03-19 21:05:51.079,-0.02871387,7.958528,10.772488,-0.4298961,-0.11041381,-0.046273008,-25.875002,-41.362503,-18.806252,0.30252126,0.030595528,0.13495648,999.5522, , , , 
2026-03-19 21:05:51.100,0.82313097,7.6331043,11.973684,-0.285732,0.15958843,0.061239194,-25.706251,-41.2125,-19.087502,0.29972848,0.030533928,0.13526647,999.5522, , , , 
2026-03-19 21:05:51.119,1.5361922,6.9726853,11.734403,-0.09269873,-0.009010255,-0.03894263,-25.462502,-41.100002,-19.44375,0.29744956,0.031289987,0.13612148,999.5522, , , , 
2026-03-19 21:05:51.139,1.6558332,6.6329045,9.987641,0.034361143,-0.34620762,-0.20998476,-25.35,-41.006252,-19.78125,0.29732063,0.029400194,0.1341021,999.552, , , , 
2026-03-19 21:05:51.159,1.6031911,6.3696938,8.537591,0.029474225,-0.30222535,-0.2784016,-25.125002,-41.0625,-20.081251,0.29812947,0.026758777,0.13067716,999.552, , , , 
2026-03-19 21:05:51.179,1.5936198,5.948557,8.207381,-0.025503604,-4.581486E-4,-0.3113883,-25.031252,-41.193752,-20.15625,0.2982966,0.026072439,0.12825252,999.552, , , , 
2026-03-19 21:05:51.199,0.9379865,5.704489,8.480164,-0.057268575,0.274431,-0.35537058,-25.125002,-41.30625,-20.118752,0.2977621,0.02781999,0.12545967,999.552, , , , 
2026-03-19 21:05:51.220,0.08135597,5.4987063,8.877372,0.0074830935,0.35384342,-0.2771799,-25.10625,-41.41875,-20.04375,0.29671156,0.033006985,0.12289128,999.5652, , , , 
2026-03-19 21:05:51.240,-0.13399807,5.221139,8.078169,-0.029168794,0.08506292,-0.16844596,-24.900002,-41.4375,-19.931252,0.29628676,0.03581227,0.12150833,999.5652, , , , 
2026-03-19 21:05:51.259,0.14356937,4.694718,6.977471,-0.11102467,-0.2924515,-0.108581215,-24.768751,-41.4375,-19.893751,0.29586378,0.035437256,0.12036537,999.5652, , , , 
2026-03-19 21:05:51.279,0.39720857,4.354937,6.068198,-0.15622866,-0.46227193,-0.1122464,-24.562502,-41.4,-20.081251,0.29501206,0.032102525,0.118309274,999.5652, , , , 
2026-03-19 21:05:51.299,0.76570326,4.1347976,6.178268,-0.08048143,-0.21181737,-0.13545926,-24.375002,-41.325,-20.268751,0.2939354,0.02767705,0.11552762,999.57196, , , , 
2026-03-19 21:05:51.319,0.6412765,3.7567315,6.9583282,0.20662501,0.29397866,-0.20143266,-24.281252,-41.287502,-20.306252,0.29444632,0.02879754,0.11410394,999.57196, , , , 
2026-03-19 21:05:51.339,0.1052842,3.8811584,7.408179,0.47174034,0.5053379,-0.23075417,-24.112501,-41.25,-20.15625,0.29633075,0.032679673,0.11342401,999.57196, , , , 
2026-03-19 21:05:51.359,0.033499517,4.1108694,6.6999035,0.62689996,0.24388777,-0.20631959,-23.868752,-41.193752,-19.931252,0.3007677,0.03811354,0.112437315,999.57196, , , , 
2026-03-19 21:05:51.379,0.5168497,4.321438,5.426922,0.58047426,-0.013897174,-0.20509785,-23.53125,-41.1375,-19.6875,0.30776942,0.04086283,0.1101082,999.573, , , , 
2026-03-19 21:05:51.399,0.086141616,4.699504,4.996214,0.42164943,0.045967575,-0.13912445,-23.19375,-41.193752,-19.44375,0.311502,0.04161973,0.10859829,999.573, , , , 
2026-03-19 21:05:51.419,-0.4642076,5.139783,6.0777693,0.23472479,0.12049308,0.01847866,-22.931252,-41.4375,-19.3125,0.31482565,0.043004543,0.10777466,999.573, , , , 
2026-03-19 21:05:51.440,0.38285163,5.015356,7.7001033,0.22006404,0.07895427,0.10522146,-22.81875,-41.831253,-19.06875,0.31715906,0.044258144,0.108984105,999.573, , , , 
2026-03-19 21:05:51.459,0.89491564,5.2163534,7.7671022,0.39843655,0.044745844,0.01847866,-22.725,-42.16875,-18.65625,0.31998348,0.04487905,0.10968791,999.5622, , , , 
2026-03-19 21:05:51.479,0.46899325,5.881558,6.843473,0.40088,0.10583232,-0.091477,-22.63125,-42.28125,-18.431252,0.3229346,0.04566789,0.1094514,999.5622, , , , 
2026-03-19 21:05:51.499,-0.3397808,6.896115,7.5900335,0.16630794,0.17669263,-0.019394957,-22.650002,-42.206253,-18.1875,0.325873,0.04756495,0.10901486,999.5622, , , , 
2026-03-19 21:05:51.519,0.09571291,6.896115,9.250652,0.035582874,0.21945317,0.10033454,-22.6875,-42.15,-17.8125,0.32677025,0.049828254,0.1102541,999.5622, , , , 
2026-03-19 21:05:51.539,0.66041905,6.74776,9.542577,0.07834341,0.14737113,-0.020616686,-22.725,-42.43125,-17.493752,0.32703307,0.051387735,0.11133947,999.5586, , , , 
2026-03-19 21:05:51.559,-0.4211368,7.140183,8.518449,-0.042607818,0.24266604,-0.13790272,-22.725,-42.675003,-17.15625,0.32725546,0.052697476,0.11110318,999.5586, , , , 
2026-03-19 21:05:51.579,-2.210968,7.3746796,9.590433,-0.35537058,0.41981682,0.006261364,-22.59375,-43.0125,-16.9125,0.32547587,0.055885285,0.11117083,999.5586, , , , 
2026-03-19 21:05:51.599,-2.3928227,6.599405,12.040684,-0.49464774,0.4564687,0.31535894,-22.275002,-43.125,-16.96875,0.3196462,0.06009622,0.114938736,999.5586, , , , 
2026-03-19 21:05:51.619,-1.0193424,5.7284174,12.586247,-0.3346012,0.22311836,0.3666716,-21.88125,-42.975002,-17.23125,0.31527117,0.061909508,0.11972156,999.5707, , , , 
2026-03-19 21:05:51.639,-0.124426775,5.1732826,11.289337,-0.23075417,-0.1763872,0.16508621,-21.712502,-42.99375,-17.53125,0.3131693,0.061334725,0.12205941,999.5707, , , , 
2026-03-19 21:05:51.659,-0.6652047,5.493921,9.585648,-0.17455462,-0.41095927,0.012370012,-21.712502,-42.862503,-17.90625,0.31135124,0.05806922,0.122249976,999.5707, , , , 
2026-03-19 21:05:51.679,-1.3686945,5.608776,7.556534,-0.07192933,-0.3291034,0.1443168,-21.7875,-42.6375,-18.31875,0.31039494,0.053146977,0.121382445,999.5707, , , , 
2026-03-19 21:05:51.699,-0.5886344,5.029713,5.6327047,-0.13179408,-0.092087865,0.3263545,-22.2,-42.46875,-18.581251,0.30998406,0.05027711,0.1230892,999.5873, , , , 
2026-03-19 21:05:51.720,0.23449662,4.4602213,5.5369916,-0.3358229,0.21945317,0.3678933,-22.44375,-42.1875,-18.825,0.30858296,0.049676094,0.12585288,999.5873, , , , 
2026-03-19 21:05:51.739,0.41156548,4.211368,6.9056864,-0.44822204,0.16081016,0.3019199,-22.575,-42.05625,-18.975,0.30485365,0.05026343,0.1300584,999.5873,37.88742,127.73741384,175.026611328125,1.53
2026-03-19 21:05:51.759,0.15792629,4.321438,7.3603225,-0.4140136,-0.21059564,0.21395539,-22.875,-42.206253,-19.10625,0.30069205,0.04832358,0.13334037,999.5873, , , , 
2026-03-19 21:05:51.779,-0.2632105,4.7282176,7.580462,-0.28451028,-0.34620762,0.22617269,-23.1375,-42.300003,-19.40625,0.29684392,0.04436643,0.13460933,999.6002, , , , 
2026-03-19 21:05:51.799,0.07178468,4.7569313,6.8578296,0.020922119,-0.2790125,0.28115052,-23.4375,-42.45,-19.6875,0.2961508,0.041216075,0.13569412,999.6002, , , , 
2026-03-19 21:05:51.819,0.6987042,4.618148,5.895915,0.17608178,-0.1348484,0.23716825,-23.85,-42.375,-19.95,0.29739338,0.038475912,0.1376306,999.6002, , , , 
2026-03-19 21:05:51.839,0.5168497,4.9531426,5.383851,0.22372922,-0.18249585,0.12476913,-24.225,-42.05625,-20.25,0.3001911,0.03630902,0.1391544,999.6002, , , , 
2026-03-19 21:05:51.859,0.30149564,5.3503513,4.8047876,0.14309508,-0.19226968,0.09300416,-24.50625,-41.8125,-20.325,0.30245498,0.034333285,0.13945466,999.6157, , , , 
2026-03-19 21:05:51.879,-0.148355,5.757131,5.7762737,0.055130545,0.0056504994,0.12110394,-24.825,-41.5875,-20.212502,0.30337992,0.033393256,0.13984318,999.6157, , , , 
2026-03-19 21:05:51.899,0.033499517,6.0394845,7.456035,0.09911281,0.1632536,0.17486005,-24.993752,-41.49375,-19.96875,0.30400154,0.033824347,0.14139004,999.6157, , , , 
2026-03-19 21:05:51.920,0.9236295,6.2309103,8.432307,0.26160285,0.0129808765,0.06734784,-24.91875,-41.5125,-19.556252,0.30584913,0.034998093,0.1434781,999.6157, , , , 
2026-03-19 21:05:51.939,0.9523434,6.853044,7.30768,0.31658068,-0.23258677,-0.13423753,-24.768751,-41.41875,-19.35,0.30901712,0.034229215,0.14255725,999.6121, , , , 
2026-03-19 21:05:51.959,0.13399807,7.542177,7.0875406,0.18707734,-0.07742711,-0.24174973,-24.843752,-41.456253,-19.331251,0.31116283,0.033501603,0.14061388,999.6121, , , , 
2026-03-19 21:05:51.979,-0.8135597,7.5996046,8.403593,0.13820815,0.3159698,-0.14889829,-24.956251,-41.7,-19.29375,0.3129241,0.035867553,0.13843077,999.6121, , , , 
2026-03-19 21:05:52.000,-1.0097711,7.5086775,9.3511505,0.14187334,0.4479166,-0.04016436,-25.06875,-41.8125,-19.2,0.31369883,0.04035963,0.13880722,999.6121, , , , 
2026-03-19 21:05:52.019,-0.57427746,7.652247,8.997013,0.035582874,0.21578798,0.034361143,-25.312502,-42.131252,-18.993752,0.3141641,0.04317427,0.13959421,999.6049, , , , 
2026-03-19 21:05:52.039,0.023928227,7.752745,8.781659,-0.30894485,-0.011453714,0.056352276,-25.331251,-42.35625,-18.84375,0.31346953,0.044218022,0.14041184,999.6049, , , , 
2026-03-19 21:05:52.059,0.5599205,7.125826,10.432707,-0.48243046,-0.06887501,0.07589995,-25.312502,-42.393753,-18.806252,0.3098701,0.04311423,0.14108995,999.6049, , , , 
2026-03-19 21:05:52.079,1.3495519,6.0394845,11.700903,-0.26374087,0.028863361,0.014813471,-25.35,-42.43125,-18.84375,0.30503237,0.04175174,0.14189193,999.6049, , , , 
2026-03-19 21:05:52.099,1.7659031,5.2977095,10.140782,-0.0010690134,0.014202606,-0.08781181,-25.237501,-42.318752,-19.0125,0.30399212,0.04173017,0.14183152,999.6094, , , , 
2026-03-19 21:05:52.119,1.8855443,5.2019963,9.226724,-0.07437278,0.048411034,-0.2112065,-25.1625,-42.28125,-19.143751,0.30365697,0.042174652,0.14081231,999.6094, , , , 
2026-03-19 21:05:52.139,1.4931214,5.144569,9.193225,-0.13790272,0.042302385,-0.36147922,-25.10625,-42.28125,-19.35,0.3024165,0.043034803,0.13856296,999.6094, , , , 
2026-03-19 21:05:52.159,0.5407779,5.288138,8.56152,-0.12324197,0.11682789,-0.45188722,-24.993752,-42.2625,-19.63125,0.3004402,0.04505193,0.13407582,999.6094, , , , 
2026-03-19 21:05:52.179,-0.3684947,5.2833524,8.193025,-0.15378521,0.16447534,-0.39813113,-24.91875,-42.3375,-19.706251,0.29913265,0.04699231,0.13136238,999.6164, , , , 
2026-03-19 21:05:52.199,-0.5455636,5.063213,7.757531,-0.19532402,-0.032223117,-0.28939718,-24.712502,-42.412502,-19.81875,0.29717955,0.048909817,0.12835619,999.6164, , , , 
2026-03-19 21:05:52.219,-0.45942193,4.790431,6.896115,-0.13790272,-0.2961167,-0.22708899,-24.468752,-42.525,-19.987501,0.29508948,0.04772643,0.124792434,999.6164, , , , 
2026-03-19 21:05:52.239,-0.19142582,4.6037908,5.905486,-0.004734202,-0.1262963,-0.2075413,-24.187502,-42.506252,-20.1,0.29464957,0.04601222,0.12207508,999.6164, , , , 
2026-03-19 21:05:52.259,-0.09571291,4.316652,5.6039906,0.14798199,0.20967934,-0.21609342,-23.90625,-42.375,-20.175001,0.29502648,0.046692923,0.12062144,999.6308, , , , 
2026-03-19 21:05:52.279,-0.5886344,4.4554358,5.1206403,0.14798199,0.3037525,-0.18432845,-23.60625,-42.16875,-20.1375,0.29622734,0.05005727,0.11930414,999.6308, , , , 
2026-03-19 21:05:52.299,-1.0959128,4.5415773,5.895915,-0.10980295,0.0923933,0.013591741,-23.1,-41.8875,-19.95,0.29631045,0.053159595,0.118839934,999.6308, , , , 
2026-03-19 21:05:52.319,-0.22013968,4.273581,7.283752,-0.058490302,0.015424335,0.13820815,-22.575,-41.831253,-19.66875,0.29520866,0.0531152,0.11990739,999.6308, , , , 
2026-03-19 21:05:52.339,0.55034924,4.1587257,6.9296145,0.17486005,0.06185006,0.07345649,-22.1625,-41.90625,-19.518751,0.2955002,0.053086028,0.12087236,999.62915, , , , 
2026-03-19 21:05:52.359,0.44027936,4.733003,6.068198,0.18952079,0.023976443,-0.016951498,-22.143751,-41.925003,-19.612501,0.29732844,0.05365801,0.12128151,999.62915, , , , 
2026-03-19 21:05:52.379,-0.086141616,5.1158547,6.465407,0.11133011,-0.085979216,0.025809037,-22.181252,-42.05625,-19.6875,0.29914838,0.05351113,0.120978974,999.62915, , , , 
2026-03-19 21:05:52.399,0.148355,5.2833524,6.843473,0.15409064,0.06185006,0.07101303,-22.29375,-42.09375,-19.6875,0.30047524,0.053141244,0.12134303,999.62915, , , , 
2026-03-19 21:05:52.419,-0.18185452,5.56092,8.063812,0.22372922,0.364839,0.062460925,-22.35,-42.16875,-19.556252,0.3016045,0.05460085,0.122245386,999.6153, , , , 
2026-03-19 21:05:52.439,-0.29192436,6.058627,8.451449,0.20418155,0.29275694,0.084452055,-22.181252,-42.318752,-19.237501,0.30333877,0.058163658,0.1238849,999.6153, , , , 
2026-03-19 21:05:52.459,0.124426775,6.273981,8.279166,0.003817905,-0.1385136,0.06856957,-22.181252,-42.318752,-19.03125,0.30466935,0.059181623,0.12516584,999.6153, , , , 
2026-03-19 21:05:52.479,0.23928227,6.5946193,8.748159,-0.09269873,-0.16539164,0.041691523,-22.237501,-42.28125,-19.03125,0.30433062,0.057120834,0.12511574,999.6153, , , , 
2026-03-19 21:05:52.499,0.43070808,6.6185474,8.575876,-0.07315106,0.047189303,0.009926553,-22.237501,-42.28125,-19.03125,0.30389842,0.056411874,0.12522024,999.61127, , , , 
2026-03-19 21:05:52.519,0.0,6.5084777,8.800801,-0.25518876,0.37094763,-0.021838415,-22.25625,-42.318752,-19.125,0.30261844,0.05760165,0.1257295,999.61127, , , , 
2026-03-19 21:05:52.540,-1.2394822,5.895915,10.839486,-0.49831295,0.57497644,-0.04138609,-22.3125,-42.506252,-19.2,0.2974183,0.06276903,0.12739745,999.61127, , , , 
2026-03-19 21:05:52.559,-2.536392,5.493921,13.797015,-0.48487392,0.5395463,0.041691523,-22.3125,-42.61875,-19.1625,0.2914807,0.067741826,0.12941588,999.61127, , , , 
2026-03-19 21:05:52.579,-2.6368906,4.9052863,14.02194,-0.17333288,0.08261946,0.1357647,-22.35,-42.600002,-19.3125,0.28835362,0.06997147,0.1310081,999.6111, , , , 
2026-03-19 21:05:52.599,-1.4213367,4.8622155,11.102697,-0.00962112,-0.48914996,0.13209951,-22.3125,-42.45,-19.59375,0.28736618,0.06830813,0.13201122,999.6111, , , , 
2026-03-19 21:05:52.620,-0.72741807,5.0344987,8.312666,-0.063377224,-0.62964886,0.090560704,-22.29375,-42.2625,-19.7625,0.28789416,0.060905725,0.13118748,999.6111, , , , 
2026-03-19 21:05:52.639,-0.81834537,5.0823555,6.6568327,-0.19532402,-0.29489496,0.14920372,-22.35,-42.16875,-19.931252,0.28738168,0.05591298,0.1309701,999.6111, , , , 
2026-03-19 21:05:52.659,-1.3304094,4.8765726,6.829116,-0.29184064,0.1461494,0.30680683,-22.368752,-42.15,-20.19375,0.28578994,0.054713607,0.13238826,999.62634, , , , 
2026-03-19 21:05:52.679,-0.86141616,4.3262234,7.0779696,-0.3602575,0.26832235,0.4338667,-22.5375,-42.131252,-20.2875,0.28273377,0.05544832,0.13656354,999.62634, , , , 
2026-03-19 21:05:52.699,-0.148355,3.9960139,7.4273214,-0.42500916,-0.017562363,0.4094321,-22.81875,-41.98125,-20.400002,0.27797663,0.055148285,0.1424917,999.62634, , , , 
2026-03-19 21:05:52.720,0.4642076,3.9577286,6.814759,-0.31383178,-0.30100363,0.28237224,-23.1375,-41.756252,-20.60625,0.27546412,0.052820213,0.14493012,999.62634, , , , 
2026-03-19 21:05:52.739,0.5694918,4.26401,5.7284174,-0.20021093,-0.1886045,0.13087778,-23.456251,-41.456253,-20.643751,0.27343392,0.04895438,0.1464808,999.63293,37.88740816,127.73742571,175.2294921875,1.61
2026-03-19 21:05:52.759,0.014356935,4.6803613,6.168697,-0.12324197,0.067958705,0.0490219,-23.775002,-40.987503,-20.8125,0.27197203,0.047612935,0.14727679,999.63293, , , , 
2026-03-19 21:05:52.779,-0.47856453,5.020142,6.202196,-0.002290743,-0.046883874,0.09789108,-23.925001,-40.7625,-21.16875,0.27126685,0.04776412,0.148193,999.63293, , , , 
2026-03-19 21:05:52.799,0.23928227,4.7856455,5.3647084,0.008704823,-0.19349141,0.15775582,-24.075,-40.78125,-21.487501,0.2716559,0.046604637,0.14887138,999.63293, , , , 
2026-03-19 21:05:52.819,0.89013004,4.6037908,5.1589255,-0.07803798,-0.25702137,0.07834341,-24.206251,-40.74375,-21.91875,0.27204326,0.044084486,0.14961289,999.6253, , , , 
2026-03-19 21:05:52.839,0.4546363,5.288138,6.101698,-0.16111559,-0.16416991,-0.025503604,-24.206251,-40.74375,-22.21875,0.2714451,0.04154303,0.14938402,999.6253, , , , 
2026-03-19 21:05:52.859,-0.27756742,6.192625,7.9920278,-0.11957678,0.008093959,-0.025503604,-24.2625,-40.66875,-22.29375,0.26983052,0.040513705,0.14882077,999.6253, , , , 
2026-03-19 21:05:52.880,-0.076570325,6.4366927,8.973084,0.08078687,0.09850194,0.023365578,-24.31875,-40.59375,-22.29375,0.26956183,0.040897228,0.14896245,999.6253, , , , 
2026-03-19 21:05:52.899,0.526421,6.4558353,8.738588,0.20295982,0.04963276,-0.049938194,-24.468752,-40.612503,-22.181252,0.27078396,0.04189508,0.14923176,999.6177, , , , 
2026-03-19 21:05:52.919,-0.086141616,6.74776,9.236296,0.26160285,-0.05665771,-0.18188499,-24.712502,-40.59375,-21.91875,0.2734853,0.042774692,0.14780574,999.6177, , , , 
2026-03-19 21:05:52.939,-0.4019942,6.9822564,9.236296,0.3349066,-0.1434005,-0.19532402,-24.806252,-40.36875,-21.712502,0.2765009,0.042775504,0.14553192,999.6177, , , , 
2026-03-19 21:05:52.959,-0.30149564,6.5850477,8.475378,0.28237224,-0.1226311,-0.2441932,-24.750002,-40.050003,-21.5625,0.27902526,0.042576097,0.14364362,999.6177, , , , 
2026-03-19 21:05:52.979,-0.56470615,7.1449685,8.523234,0.030695954,-0.0029016077,-0.3260491,-24.6,-39.9375,-21.375,0.28110442,0.04281491,0.14064561,999.6085, , , , 
2026-03-19 21:05:53.000,-1.253839,7.652247,10.872986,-0.22098033,0.24266604,-0.20509785,-24.4125,-40.068752,-21.206251,0.2797314,0.045123354,0.13766743,999.6085, , , , 
2026-03-19 21:05:53.019,-0.56470615,7.2263246,12.552748,-0.19165882,0.066736974,-0.048716467,-24.35625,-40.5,-21.0375,0.27727285,0.04704502,0.13720834,999.6085, , , , 
2026-03-19 21:05:53.039,0.72741807,6.1160545,11.8588295,-0.09269873,-0.29856017,-0.013286309,-24.431252,-40.93125,-20.868752,0.27626207,0.04615846,0.13691312,999.6085, , , , 
2026-03-19 21:05:53.059,1.6079768,5.0105705,10.57149,0.023365578,-0.48792824,-0.101250835,-24.393751,-41.1375,-20.75625,0.27607527,0.04258075,0.13560095,999.60724, , , , 
2026-03-19 21:05:53.079,1.7994026,4.7042894,8.441878,0.008704823,-0.38041604,-0.20631959,-24.206251,-41.268753,-20.831251,0.277136,0.037246827,0.13220404,999.60724, , , , 
2026-03-19 21:05:53.099,1.4787644,4.5798626,7.987242,-0.12079851,-0.073761925,-0.2319759,-24.112501,-41.268753,-20.90625,0.2767351,0.035591878,0.1295205,999.60724, , , , 
2026-03-19 21:05:53.119,1.2729816,4.3836513,8.327023,-0.2527453,0.13637556,-0.27595815,-24.16875,-41.23125,-20.94375,0.27532715,0.036115177,0.12793224,999.60724, , , , 
2026-03-19 21:05:53.139,0.6652047,4.331009,8.575876,-0.36636615,0.08872811,-0.344375,-24.16875,-41.287502,-20.925001,0.27222306,0.037745245,0.12557103,999.613, , , , 
2026-03-19 21:05:53.160,-0.32063824,4.398008,8.748159,-0.45799586,-0.073761925,-0.35048366,-24.16875,-41.287502,-20.775002,0.2669416,0.03845212,0.12165568,999.613, , , , 
2026-03-19 21:05:53.179,-0.7800602,4.4075794,8.7577305,-0.3065014,-0.19226968,-0.26251915,-24.0,-41.2125,-20.79375,0.26310685,0.037448134,0.11845105,999.613, , , , 
2026-03-19 21:05:53.199,-0.16749759,4.0007997,7.877172,0.050243627,-0.23258677,-0.16844596,-23.493752,-41.025,-21.0375,0.2620312,0.036233086,0.11655211,999.613, , , , 
2026-03-19 21:05:53.219,0.12921242,3.8285162,6.0634127,0.2640463,-0.2423606,-0.2112065,-23.212502,-40.93125,-21.300001,0.2635969,0.03452334,0.11416024,999.61975, , , , 
2026-03-19 21:05:53.239,0.05742774,3.9050865,5.623133,0.34712392,-0.116522454,-0.26618433,-23.118752,-40.800003,-21.581251,0.26739696,0.03344394,0.11052193,999.61975, , , , 
2026-03-19 21:05:53.259,-0.4354937,3.818945,5.355137,0.40332347,-0.05299252,-0.23319763,-22.96875,-40.59375,-21.65625,0.27113593,0.033891346,0.107742526,999.61975, , , , 
2026-03-19 21:05:53.279,-0.8422736,4.0103707,5.460421,0.34101525,-0.08231403,-0.11713332,-22.96875,-40.74375,-21.6375,0.27389717,0.03422061,0.10615341,999.61975, , , , 
2026-03-19 21:05:53.299,-0.91405827,4.369294,5.4317074,0.2603811,-0.18127412,0.0490219,-23.025002,-40.912502,-21.46875,0.27705437,0.033696923,0.1051137,999.6153, , , , 
2026-03-19 21:05:53.319,-0.61734825,5.087141,5.407779,0.07956514,-0.16416991,0.23838998,-22.81875,-41.15625,-21.150002,0.2797459,0.031353805,0.10595985,999.6153, , , , 
2026-03-19 21:05:53.339,-0.37328035,5.383851,7.159325,-0.07925971,-0.08353576,0.4167625,-22.66875,-41.4,-20.868752,0.2798815,0.02935628,0.10885628,999.6153, , , , 
2026-03-19 21:05:53.359,0.89491564,5.2642097,8.987442,-0.013286309,-0.057879437,0.47662723,-22.59375,-41.34375,-20.56875,0.2794922,0.027817184,0.112043984,999.6153, , , , 
2026-03-19 21:05:53.379,1.6654046,5.1014977,9.2793665,0.29825473,-0.06887501,0.30436337,-22.462502,-41.15625,-20.41875,0.28050727,0.026028095,0.115996286,999.6068, , , , 
2026-03-19 21:05:53.399,0.82313097,5.680561,8.537591,0.4741838,0.081397735,0.11499529,-22.800001,-41.0625,-20.2875,0.28526723,0.025717435,0.11835787,999.6068, , , , 
2026-03-19 21:05:53.420,0.3062813,6.317052,8.322237,0.38255405,0.17791437,0.15042545,-23.34375,-40.912502,-20.04375,0.28845155,0.026806938,0.11940159,999.6068, , , , 
2026-03-19 21:05:53.439,0.6843473,6.45105,8.504091,0.13942988,0.08994984,0.23228133,-23.831251,-40.78125,-19.706251,0.2913426,0.02814507,0.12151667,999.6068, , , , 
2026-03-19 21:05:53.459,1.6558332,6.431907,9.743574,-0.069485866,-0.039553493,0.18219042,-24.281252,-40.78125,-19.3875,0.2918412,0.027897004,0.12380121,999.5939, , , , 
2026-03-19 21:05:53.479,1.0289137,6.1304116,10.27478,-0.108581215,0.15225805,0.020922119,-24.375002,-40.7625,-19.275002,0.290781,0.02721856,0.1251268,999.5939, , , , 
2026-03-19 21:05:53.499,-0.36370903,6.0251274,11.547762,-0.042607818,0.44302967,0.04046979,-24.281252,-40.875,-19.3125,0.28978822,0.029267522,0.12592486,999.5939, , , , 
2026-03-19 21:05:53.519,-0.8566305,5.302495,11.782259,-0.024281874,0.39660397,0.13698642,-24.375002,-40.987503,-19.44375,0.288825,0.033237427,0.12792842,999.5939, , , , 
2026-03-19 21:05:53.539,-0.7704889,4.642076,11.940185,0.009926553,0.12049308,0.12599087,-24.4125,-40.95,-19.725,0.28804067,0.035870396,0.13017084,999.5964, , , , 
2026-03-19 21:05:53.559,-0.26799613,4.287938,10.303494,0.0697913,-0.20693044,-0.004734202,-24.45,-40.875,-19.85625,0.28831157,0.035106555,0.13082896,999.5964, , , , 
2026-03-19 21:05:53.579,-0.6221339,4.4841495,8.4705925,0.053908817,-0.17394374,-0.11957678,-24.525002,-40.74375,-19.95,0.28889427,0.03372821,0.12987004,999.5964, , , , 
2026-03-19 21:05:53.599,-1.2777673,4.910072,7.1162543,-0.021838415,0.019089524,-0.048716467,-24.4125,-40.631252,-20.0625,0.28927004,0.033098873,0.1284584,999.5964, , , , 
2026-03-19 21:05:53.619,-1.4117653,5.1924253,6.259624,-0.2527453,0.2035707,0.16386448,-24.431252,-40.65,-19.987501,0.28832853,0.03387656,0.12887307,999.6151, , , , 
2026-03-19 21:05:53.639,-1.1150553,4.723432,7.01097,-0.5752819,0.29153523,0.4338667,-24.50625,-40.74375,-19.875,0.283204,0.03549082,0.13346238,999.6151, , , , 
2026-03-19 21:05:53.659,-0.13399807,4.1204405,7.8053875,-0.66324645,0.093615025,0.5352703,-24.6375,-40.893753,-19.800001,0.27854645,0.035439838,0.13759466,999.6151, , , , 
2026-03-19 21:05:53.679,0.9810573,3.6466618,7.905886,-0.51053023,-0.12140937,0.4741838,-24.69375,-40.93125,-19.81875,0.2726629,0.03328137,0.142873,999.6151, , , , 
2026-03-19 21:05:53.699,1.0959128,3.603591,6.987042,-0.16844596,-0.2875646,0.22739442,-24.69375,-40.575,-20.081251,0.26878187,0.028816829,0.14677612,999.6189, , , , 
2026-03-19 21:05:53.720,0.07178468,4.2687955,5.460421,0.0074830935,-0.26313,0.108886644,-24.956251,-40.18125,-20.681252,0.26876527,0.02556353,0.14739804,999.6189, , , , 
2026-03-19 21:05:53.739,-0.043070808,4.6899323,4.871787,-0.03405571,-0.1763872,0.16752967,-25.275002,-39.787502,-21.431252,0.2691221,0.02370737,0.14782387,999.6189,37.88739681,127.73743739,175.1002197265625,1.54
2026-03-19 21:05:53.759,0.6987042,4.56072,5.7858453,-0.11102467,-0.004123337,0.19196425,-25.7625,-39.675003,-21.88125,0.2688286,0.022017077,0.14928518,999.6189, , , , 
2026-03-19 21:05:53.779,1.3399807,4.3118663,7.3363943,0.033139415,-0.0016798781,0.04657844,-26.2875,-39.881252,-22.125,0.26811603,0.021570439,0.15107504,999.6151, , , , 
2026-03-19 21:05:53.799,1.119841,4.8287163,7.283752,0.28115052,-0.18493931,-0.1782198,-26.5125,-39.9,-22.1625,0.2698408,0.021069365,0.15009992,999.6151, , , , 
2026-03-19 21:05:53.819,0.8327023,5.5130634,6.2117677,0.38621926,-0.31077746,-0.28084508,-26.7,-39.881252,-21.91875,0.27266306,0.02005712,0.1478831,999.6151, , , , 
2026-03-19 21:05:53.840,0.61734825,6.0729837,5.9437714,0.31413722,-0.17760894,-0.34681848,-26.812502,-39.768753,-21.65625,0.27759138,0.018553376,0.14315535,999.6151, , , , 
2026-03-19 21:05:53.859,-0.15314065,6.8482585,6.838687,0.18829907,0.17424917,-0.2784016,-26.6625,-39.581253,-21.206251,0.2801064,0.019773558,0.1399524,999.59534, , , , 
2026-03-19 21:05:53.879,-0.0047856453,6.843473,9.336794,0.11377356,0.3978257,-0.11957678,-26.456251,-39.600002,-20.79375,0.28107813,0.0236791,0.13908276,999.59534, , , , 
2026-03-19 21:05:53.899,0.60777694,6.398408,10.734202,0.20173809,0.07284562,-0.17455462,-26.268751,-39.61875,-20.53125,0.28170687,0.026296042,0.13887177,999.59534, , , , 
2026-03-19 21:05:53.920,0.4354937,6.838687,9.413364,0.17608178,-0.2594648,-0.36270097,-26.00625,-39.7125,-20.362501,0.28429216,0.026382204,0.13535812,999.59534, , , , 
2026-03-19 21:05:53.939,-0.2632105,7.6426754,8.896515,0.033139415,-0.17760894,-0.35903576,-25.837502,-39.787502,-20.38125,0.2856375,0.025389588,0.13106814,999.5915, , , , 
2026-03-19 21:05:53.959,-0.5024927,8.039884,9.5760765,-0.18188499,0.03008509,-0.20021093,-25.66875,-39.91875,-20.38125,0.28499094,0.025579032,0.12820423,999.5915, , , , 
2026-03-19 21:05:53.979,0.21535404,7.5182486,10.710274,-0.26374087,0.025198173,-0.0035124724,-25.368752,-40.143753,-20.212502,0.28330725,0.026014034,0.1275913,999.5915, , , , 
2026-03-19 21:05:54.000,1.8903298,6.0394845,11.480763,-0.1904371,-0.011453714,0.0013744457,-25.10625,-40.425003,-20.1,0.28090528,0.025638442,0.12785207,999.5915, , , , 
2026-03-19 21:05:54.019,2.6416762,4.8047876,10.585847,0.022143848,-0.11896592,-0.27962336,-24.91875,-40.631252,-20.1,0.27979165,0.024924379,0.1264045,999.6081, , , , 
2026-03-19 21:05:54.039,1.7467605,4.910072,9.202796,0.0050396346,-0.11530073,-0.44089165,-24.7875,-40.74375,-20.081251,0.28006423,0.024586802,0.122385584,999.6081, , , , 
2026-03-19 21:05:54.059,1.1150553,4.895715,8.944371,-0.102472566,0.025198173,-0.39446592,-24.656252,-40.95,-20.212502,0.27965102,0.025037117,0.1192417,999.6081, , , , 
2026-03-19 21:05:54.079,1.2490535,4.570291,8.5423765,-0.24297146,0.093615025,-0.34193155,-24.50625,-41.0625,-20.41875,0.27805263,0.026301406,0.115923636,999.6081, , , , 
2026-03-19 21:05:54.099,0.9619147,4.302295,8.56152,-0.38591382,0.0056504994,-0.40423977,-24.393751,-41.15625,-20.41875,0.27400178,0.027771488,0.1119658,999.6219, , , , 
2026-03-19 21:05:54.119,-0.09571291,4.536792,8.571091,-0.39568767,-0.1348484,-0.42745262,-24.093752,-41.11875,-20.60625,0.27099863,0.027871897,0.10888791,999.6219, , , , 
2026-03-19 21:05:54.139,-0.4642076,4.4889355,7.9776707,-0.3016145,-0.27046037,-0.32238388,-23.79375,-40.800003,-20.75625,0.26750034,0.026864186,0.10471747,999.6219, , , , 
2026-03-19 21:05:54.159,-0.11485548,4.2017965,7.001399,-0.1867719,-0.36086836,-0.24541493,-23.53125,-40.575,-20.71875,0.26520842,0.02442518,0.10118337,999.6219, , , , 
2026-03-19 21:05:54.179,-0.009571291,4.063013,6.1495543,-0.06093376,-0.2423606,-0.21242823,-23.25,-40.36875,-20.831251,0.2640569,0.02120647,0.097420566,999.63464, , , , 
2026-03-19 21:05:54.199,0.2105684,4.058227,6.216553,0.006261364,-0.05665771,-0.2112065,-23.00625,-40.21875,-20.868752,0.26392487,0.020465437,0.09561635,999.63464, , , , 
2026-03-19 21:05:54.219,-0.09571291,3.952943,6.9056864,0.10766492,0.019089524,-0.23930627,-22.837502,-40.0875,-20.8875,0.26425725,0.020825416,0.09341454,999.63464, , , , 
2026-03-19 21:05:54.239,-0.60777694,4.15394,7.082755,0.29458955,0.0386372,-0.22098033,-22.575,-39.9375,-21.09375,0.26580808,0.021853559,0.09113448,999.63464, , , , 
2026-03-19 21:05:54.259,-0.9619147,4.508078,6.541977,0.446084,0.031306818,-0.09392046,-22.368752,-39.825,-21.28125,0.27017954,0.02355126,0.08914799,999.64484, , , , 
2026-03-19 21:05:54.279,-1.052842,4.910072,5.130212,0.33979353,-0.1262963,0.08933897,-22.3125,-39.9,-21.2625,0.27336684,0.023743043,0.088808626,999.64484, , , , 
2026-03-19 21:05:54.300,-0.4642076,4.9196434,5.465207,0.04657844,-0.15317434,0.29458955,-22.29375,-40.068752,-21.056252,0.2759574,0.022149887,0.089837,999.64484, , , , 
2026-03-19 21:05:54.319,0.4019942,4.599005,7.3028946,-0.062155493,0.045967575,0.39843655,-22.48125,-40.48125,-20.71875,0.27602902,0.020183543,0.09382236,999.64484, , , , 
2026-03-19 21:05:54.339,0.8039884,4.536792,8.738588,-0.012064579,0.10827578,0.3715585,-22.575,-40.8375,-20.19375,0.27556765,0.019827068,0.09779467,999.64124, , , , 
2026-03-19 21:05:54.359,1.2346965,4.613362,9.379865,0.15531237,0.099723674,0.27382013,-22.556252,-40.875,-19.837502,0.27587748,0.019894933,0.10045039,999.64124, , , , 
2026-03-19 21:05:54.379,1.5840486,5.2259245,9.217153,0.19685118,0.009315688,0.091782436,-22.63125,-40.725002,-19.81875,0.27751067,0.020016687,0.10271067,999.64124, , , , 
2026-03-19 21:05:54.399,1.7467605,5.828916,8.973084,0.117438756,-0.16050471,-0.089033544,-22.706251,-40.29375,-19.81875,0.27962592,0.019270508,0.10266632,999.64124, , , , 
2026-03-19 21:05:54.419,0.9810573,6.661618,9.12144,-0.026725333,-0.043218683,-0.21609342,-22.7625,-39.862503,-20.025002,0.2801369,0.018355489,0.10067561,999.6455, , , , 
2026-03-19 21:05:54.439,-0.062213387,7.0301127,10.155139,-0.06093376,0.45036006,-0.14278965,-22.800001,-39.881252,-20.25,0.279665,0.019941108,0.09965085,999.6455, , , , 
2026-03-19 21:05:54.459,-0.91884387,6.503692,10.643275,-0.16355905,0.58108515,0.0050396346,-22.893751,-40.2,-20.1375,0.27836347,0.02533479,0.10028299,999.6455, , , , 
2026-03-19 21:05:54.479,-1.4787644,5.790631,11.868401,-0.49098256,0.14492767,0.18952079,-22.987501,-40.537502,-20.04375,0.27406698,0.029764729,0.10281193,999.6455, , , , 
2026-03-19 21:05:54.499,-0.91405827,5.0249276,12.619746,-0.5557342,-0.37186393,0.30558512,-23.04375,-40.78125,-20.081251,0.26879403,0.027154041,0.10502419,999.65356, , , , 
2026-03-19 21:05:54.519,0.26799613,4.2592244,11.906686,-0.3639227,-0.4158462,0.2689332,-23.15625,-40.8375,-20.1,0.26553643,0.022941833,0.106407456,999.65356, , , , 
2026-03-19 21:05:54.539,0.53599226,3.842873,11.179267,0.003817905,-0.10797035,0.08933897,-23.04375,-40.706253,-20.2875,0.2632956,0.019024743,0.10766526,999.65356, , , , 
2026-03-19 21:05:54.559,-0.0526421,4.1778684,8.499306,0.19440772,0.16447534,-0.016951498,-22.837502,-40.3875,-20.550001,0.26460788,0.01940348,0.108064346,999.65356, , , , 
2026-03-19 21:05:54.579,-0.7465607,4.302295,7.719246,-0.075594515,0.2451095,0.07834341,-22.95,-40.143753,-20.625,0.26496178,0.021665452,0.10886557,999.6693, , , , 
2026-03-19 21:05:54.599,-0.7322037,4.106084,8.49452,-0.32116216,0.06429352,0.22372922,-22.96875,-40.050003,-20.6625,0.26331323,0.022618698,0.11029754,999.6693, , , , 
2026-03-19 21:05:54.619,-0.23928227,3.6514473,8.2456665,-0.3688096,-0.3205513,0.30558512,-23.081251,-39.99375,-20.90625,0.2600474,0.021102494,0.112702765,999.6693, , , , 
2026-03-19 21:05:54.639,0.47856453,3.4504502,6.7429743,-0.3480402,-0.7139482,0.24449863,-23.306252,-40.0125,-21.075,0.25640026,0.0134135,0.1145505,999.6693, , , , 
2026-03-19 21:05:54.659,0.6125626,3.4791641,5.584848,-0.21487169,-0.5771145,0.16264275,-23.56875,-40.10625,-21.45,0.25447103,0.0059733735,0.11473731,999.6933, , , , 
2026-03-19 21:05:54.679,0.60777694,3.723232,5.6853466,-0.03649917,0.056963142,0.083230324,-24.0,-40.0875,-21.993752,0.25378865,0.003308727,0.11504979,999.6933, , , , 
2026-03-19 21:05:54.699,0.36370903,3.723232,6.135197,0.16264275,0.37461284,-0.0010690134,-24.31875,-39.956253,-22.25625,0.2539635,0.0052277003,0.11610897,999.6933, , , , 
2026-03-19 21:05:54.720,-0.11964113,4.072584,5.953343,0.19685118,0.119271345,-0.08170316,-24.525002,-39.9,-22.462502,0.2558418,0.0091001,0.11649522,999.6933, , , , 
2026-03-19 21:05:54.739,-0.6843473,4.8861437,6.1160545,0.15164718,-0.12873976,0.0025961753,-24.618752,-39.862503,-22.44375,0.25755796,0.009195611,0.115917325,999.6878,37.88738516,127.73744972,175.0855712890625,1.55
2026-03-19 21:05:54.759,-0.15792629,4.996214,5.8480587,0.19196425,-0.22647811,0.12599087,-24.69375,-39.84375,-22.275002,0.25901383,0.007985819,0.11602048,999.6878, , , , 
2026-03-19 21:05:54.779,0.71306115,5.144569,6.0107703,0.16752967,-0.033444848,0.116217025,-24.91875,-39.91875,-22.1625,0.26116416,0.006145356,0.11676829,999.6878, , , , 
2026-03-19 21:05:54.799,1.1437693,5.4460645,6.9296145,0.18585561,0.14370593,0.0050396346,-25.06875,-40.162502,-22.03125,0.26333472,0.0069652647,0.11782741,999.6878, , , , 
2026-03-19 21:05:54.820,1.0815558,6.1830535,7.489535,0.12110394,0.052076224,-0.101250835,-25.2,-40.350002,-21.9375,0.26451188,0.008001448,0.117722586,999.6591, , , , 
2026-03-19 21:05:54.839,0.4546363,6.5611196,8.949157,0.09789108,-0.009010255,-0.114689864,-25.125002,-40.350002,-21.768751,0.2656193,0.008588859,0.11670441,999.6591, , , , 
2026-03-19 21:05:54.860,-0.07178468,6.680761,9.810573,0.2554942,0.043524116,-0.03161225,-24.91875,-40.331253,-21.5625,0.2670919,0.009143664,0.11580365,999.6591, , , , 
2026-03-19 21:05:54.879,0.47377887,6.250053,8.738588,0.13087778,-0.005345067,-0.0059559317,-24.768751,-40.143753,-21.46875,0.26979688,0.009952509,0.1157083,999.6591, , , , 
2026-03-19 21:05:54.900,0.7752745,6.34098,8.9348,-0.2319759,0.13637556,-0.1244637,-24.6375,-39.825,-21.31875,0.269755,0.010043684,0.11535989,999.6442, , , , 
2026-03-19 21:05:54.920,-0.28713873,6.489335,12.227324,-0.38224864,0.54932016,-0.2075413,-24.712502,-39.825,-21.112501,0.26642877,0.012760247,0.114609525,999.6442, , , , 
2026-03-19 21:05:54.939,-0.76570326,6.465407,14.38565,-0.089033544,0.5383246,-0.11713332,-24.675001,-39.956253,-21.09375,0.2625971,0.018865649,0.11445624,999.6442, , , , 
2026-03-19 21:05:54.959,0.4211368,5.7140603,12.423535,0.14920372,0.006872229,-0.062155493,-24.562502,-40.050003,-21.206251,0.2621645,0.02318499,0.11449835,999.6442, , , , 
2026-03-19 21:05:54.979,1.2203395,5.355137,9.580862,0.12110394,-0.33154687,-0.15378521,-24.4125,-40.36875,-21.31875,0.26336145,0.022202587,0.11344027,999.6372, , , , 
2026-03-19 21:05:55.000,1.0241281,5.139783,7.5613194,-0.076816246,-0.18371758,-0.17088942,-24.112501,-40.631252,-21.6375,0.2643754,0.01953372,0.110979795,999.6372, , , , 
2026-03-19 21:05:55.019,0.8997013,5.048856,8.843872,-0.31383178,0.22189663,-0.08414663,-23.94375,-40.706253,-21.825,0.26270476,0.019427596,0.10962647,999.6372, , , , 
2026-03-19 21:05:55.040,1.2155539,4.302295,9.585648,-0.27962336,0.18035783,-0.07192933,-23.8875,-40.8375,-21.84375,0.25863886,0.021876315,0.10965883,999.6372, , , , 
2026-03-19 21:05:55.059,1.2969099,4.0295134,9.226724,-0.28328854,-0.02367101,-0.15012002,-23.79375,-40.893753,-21.975,0.25648022,0.022495816,0.10919288,999.64294, , , , 
2026-03-19 21:05:55.079,0.81834537,3.9577286,8.872586,-0.28939718,-0.19471315,-0.23808455,-23.737501,-40.875,-22.10625,0.25366107,0.021701666,0.10731115,999.64294, , , , 
2026-03-19 21:05:55.099,0.47377887,3.8811584,8.551949,-0.17333288,-0.2594648,-0.240528,-23.7,-40.95,-22.25625,0.25129944,0.0197931,0.10446862,999.64294, , , , 
2026-03-19 21:05:55.119,0.4354937,3.6275191,7.5182486,0.031917684,-0.24113888,-0.25518876,-23.550001,-40.818752,-22.368752,0.25056562,0.017298285,0.10076882,999.64294, , , , 
2026-03-19 21:05:55.139,0.047856454,3.8524444,6.4031935,0.17608178,-0.09575305,-0.23930627,-23.4375,-40.55625,-22.462502,0.25139365,0.016531648,0.098546095,999.6468, , , , 
2026-03-19 21:05:55.159,0.11964113,3.8476589,6.1064835,0.19562945,0.056963142,-0.18310672,-23.23125,-40.256252,-22.462502,0.25326392,0.016956385,0.09629578,999.6468, , , , 
2026-03-19 21:05:55.179,0.076570325,3.8380876,6.101698,0.19440772,-0.12996148,-0.1660025,-22.96875,-39.787502,-22.48125,0.25557423,0.01779494,0.09411612,999.6468, , , , 
2026-03-19 21:05:55.199,0.3397808,4.0534415,5.259424,0.14065161,-0.2423606,-0.09025527,-22.875,-39.54375,-22.425001,0.25746524,0.016169539,0.0923082,999.6468, , , , 
2026-03-19 21:05:55.219,0.5407779,4.2687955,5.6757755,0.10644319,0.0129808765,-0.063377224,-22.650002,-39.581253,-22.275002,0.25848055,0.015189978,0.09144819,999.6349, , , , 
2026-03-19 21:05:55.239,0.36370903,4.4745784,6.5371914,0.21395539,0.2328922,-0.032833982,-22.612501,-39.693752,-22.06875,0.25979924,0.016475305,0.0911945,999.6349, , , , 
2026-03-19 21:05:55.259,0.19621146,4.613362,6.9056864,0.28115052,0.2328922,0.0050396346,-22.6875,-40.050003,-21.806252,0.26255745,0.019755073,0.09174549,999.6349, , , , 
2026-03-19 21:05:55.279,-0.12921242,4.8191447,7.140183,0.27015495,0.20967934,0.08567379,-22.556252,-40.40625,-21.618752,0.26511264,0.021945138,0.09265216,999.6349, , , , 
2026-03-19 21:05:55.299,0.023928227,4.895715,7.9537425,0.25427246,0.25610507,0.19929464,-22.5375,-40.631252,-21.35625,0.26688945,0.023538636,0.09407982,999.624, , , , 
2026-03-19 21:05:55.320,0.41156548,5.029713,8.834301,0.22617269,0.1876882,0.24449863,-22.650002,-40.8375,-21.09375,0.26955956,0.026040021,0.09752174,999.624, , , , 
2026-03-19 21:05:55.339,1.0815558,5.1876397,8.480164,0.12599087,-0.0481056,0.18952079,-22.706251,-40.818752,-20.98125,0.27134636,0.026066385,0.09980047,999.624, , , , 
2026-03-19 21:05:55.359,1.3543376,5.532206,9.169296,-0.014508039,0.08384119,0.061239194,-22.81875,-40.78125,-20.90625,0.2717929,0.025600333,0.1009525,999.624, , , , 
2026-03-19 21:05:55.379,1.1964114,5.85763,10.959127,0.08567379,0.2952004,-0.10980295,-22.893751,-40.818752,-20.868752,0.27161232,0.02713562,0.101353824,999.6189, , , , 
2026-03-19 21:05:55.399,0.023928227,6.202196,9.987641,0.01725693,0.16936226,-0.21242823,-22.7625,-40.78125,-20.8875,0.27218762,0.030105509,0.10058222,999.6189, , , , 
2026-03-19 21:05:55.419,-2.0147567,6.2931237,11.499906,-0.4225657,-0.18371758,-0.12202024,-22.63125,-40.875,-20.90625,0.26970884,0.030853307,0.09846354,999.6189, , , , 
2026-03-19 21:05:55.439,-2.6751757,6.0921264,12.930814,-0.32971427,-0.398742,0.20295982,-22.48125,-41.0625,-20.831251,0.26594713,0.027500892,0.09806607,999.6189, , , , 
2026-03-19 21:05:55.460,-1.1581261,4.924429,11.318051,-0.07803798,-0.39752024,0.38744098,-22.25625,-41.025,-20.8875,0.2647167,0.023841118,0.0995543,999.62085, , , , 
2026-03-19 21:05:55.479,-0.56470615,4.4315076,9.504292,0.0013744457,-0.22525638,0.36300638,-21.993752,-40.912502,-21.1875,0.26461586,0.0195084,0.102250226,999.62085, , , , 
2026-03-19 21:05:55.499,-0.5838487,4.1587257,8.30788,-0.07925971,0.12415826,0.35445428,-21.9375,-40.800003,-21.50625,0.2644642,0.017612055,0.10629451,999.62085, , , , 
2026-03-19 21:05:55.519,-0.7178468,4.1347976,8.508878,-0.28084508,0.17791437,0.38866273,-22.143751,-40.537502,-21.7875,0.26311263,0.018114991,0.10926318,999.62085, , , , 
2026-03-19 21:05:55.539,-0.5168497,4.0773697,8.595019,-0.46166107,0.12293654,0.47296205,-22.462502,-40.275,-21.91875,0.25964794,0.018257909,0.11370462,999.63104, , , , 
2026-03-19 21:05:55.559,0.0526421,3.6323047,8.915657,-0.5129737,-0.02367101,0.49006626,-22.931252,-40.050003,-21.862501,0.25352025,0.016860148,0.11991048,999.63104, , , , 
2026-03-19 21:05:55.579,0.8662018,3.2303107,8.547162,-0.35781404,-0.16416991,0.37400195,-23.2875,-39.91875,-21.88125,0.24932912,0.0141484365,0.1239336,999.63104, , , , 
2026-03-19 21:05:55.599,1.3016955,3.1633115,7.23111,-0.04138609,-0.123852834,0.18096869,-23.625,-39.787502,-22.125,0.24781911,0.012100608,0.12577775,999.63104, , , , 
2026-03-19 21:05:55.619,0.94277215,3.4648073,5.56092,0.10399973,0.09605849,0.033139415,-24.16875,-39.6375,-22.3875,0.24812408,0.011274899,0.12690412,999.6457, , , , 
2026-03-19 21:05:55.639,0.23449662,3.8333018,5.369494,0.053908817,0.1632536,0.0074830935,-24.768751,-39.581253,-22.706251,0.24889298,0.012624294,0.12739654,999.6457, , , , 
2026-03-19 21:05:55.659,0.124426775,4.168297,5.733203,-0.016951498,-0.0029016077,0.052687086,-25.35,-39.65625,-22.987501,0.24906771,0.013699542,0.12800035,999.6457, , , , 
2026-03-19 21:05:55.679,0.2536392,4.4458647,6.317052,0.056352276,-0.032223117,0.060017463,-25.687502,-39.6375,-23.23125,0.24914673,0.0134198805,0.12836593,999.6457, , , , 
2026-03-19 21:05:55.699,0.3589234,4.6707897,5.948557,0.21517712,-0.0065667965,0.064904384,-25.743752,-39.65625,-23.493752,0.2503255,0.013242964,0.12889668,999.6444, , , , 
2026-03-19 21:05:55.719,0.2536392,5.1589255,4.9674997,0.11133011,0.074067354,0.08811724,-25.612501,-39.73125,-23.625,0.25253323,0.013482928,0.12953845,999.6444, , , , 
2026-03-19 21:05:55.739,0.1052842,5.6614184,6.9344,-0.1122464,0.08261946,0.18707734,-25.48125,-39.6375,-23.7,0.2527428,0.014179515,0.13130586,999.6444,37.88737353,127.73746223,175.16265869140625,1.57
2026-03-19 21:05:55.759,0.7752745,5.6757755,8.437093,-0.04382955,-0.020005822,0.20418155,-25.368752,-39.581253,-23.60625,0.25203124,0.01404823,0.13287869,999.6444, , , , 
2026-03-19 21:05:55.779,1.4644074,6.0011992,8.303095,0.10155627,-0.1800524,0.083230324,-25.275002,-39.487503,-23.550001,0.25233197,0.012840123,0.134315,999.6353, , , , 
2026-03-19 21:05:55.799,0.95712906,6.5659056,7.628319,0.12721258,-0.16661337,-0.063377224,-25.312502,-39.225002,-23.25,0.25440004,0.010540232,0.13380112,999.6353, , , , 
2026-03-19 21:05:55.819,0.7896315,6.862615,8.891729,0.10155627,0.17791437,-0.06826414,-25.425001,-38.90625,-23.025002,0.2555582,0.010968217,0.13315552,999.6353, , , , 
2026-03-19 21:05:55.839,0.6364908,6.5371914,9.322437,0.102778,0.38316494,-0.08414663,-25.556252,-38.68125,-22.95,0.2562538,0.01335007,0.1331942,999.6353, , , , 
2026-03-19 21:05:55.860,-0.07178468,6.7334027,10.336994,-0.23319763,0.28909177,-0.09392046,-25.63125,-38.662502,-22.725,0.25595954,0.01726261,0.1332496,999.6168, , , , 
2026-03-19 21:05:55.879,-0.0047856453,6.580262,12.366107,-0.40423977,0.08261946,-0.062155493,-25.650002,-38.86875,-22.725,0.25189385,0.019516699,0.1330085,999.6168, , , , 
2026-03-19 21:05:55.899,0.4642076,6.0729837,12.959527,-0.26251915,0.009315688,-0.11346813,-25.48125,-39.037502,-22.7625,0.24843279,0.01961591,0.13235548,999.6168, , , , 
2026-03-19 21:05:55.919,0.4642076,5.541777,12.313465,-0.0707076,0.09605849,-0.17944153,-25.312502,-39.206253,-22.875,0.24708365,0.020038038,0.13141046,999.6168, , , , 
2026-03-19 21:05:55.939,0.55513483,4.8095737,11.08834,-0.014508039,-0.072540194,-0.18921536,-25.368752,-39.45,-23.23125,0.24650086,0.021053568,0.12982605,999.6204, , , , 
2026-03-19 21:05:55.959,1.1006985,4.398008,9.360723,-0.16355905,-0.34376416,-0.15867212,-25.218752,-39.525,-23.475,0.24578525,0.01881349,0.12703218,999.6204, , , , 
2026-03-19 21:05:55.979,1.9046868,4.048656,8.973084,-0.20143266,-0.17150028,-0.19410229,-25.10625,-39.65625,-23.71875,0.24412146,0.01616953,0.12485224,999.6204, , , , 
2026-03-19 21:05:55.999,1.2346965,4.0390844,8.662018,-0.13912445,0.19257513,-0.285732,-25.050001,-39.80625,-23.90625,0.24285285,0.016246153,0.12314886,999.6204, , , , 
2026-03-19 21:05:56.020,-0.0047856453,4.254439,9.12144,-0.091477,0.37705627,-0.2112065,-24.7875,-39.73125,-23.98125,0.24119622,0.019440003,0.12118841,999.63654, , , , 
2026-03-19 21:05:56.039,-0.28713873,4.0438704,8.484949,-0.10491603,0.20723587,-0.07925971,-24.6,-39.581253,-24.13125,0.23983245,0.023020947,0.120367594,999.63654, , , , 
2026-03-19 21:05:56.059,-0.009571291,3.8476589,7.5613194,-0.19776747,-0.098196514,0.009926553,-24.431252,-39.525,-24.35625,0.2378608,0.023606306,0.12024037,999.63654, , , , 
2026-03-19 21:05:56.079,-0.19142582,3.871587,7.058827,-0.14278965,-0.18127412,0.04291325,-24.243752,-39.412502,-24.4125,0.23663758,0.022155274,0.120113134,999.63654, , , , 
2026-03-19 21:05:56.099,0.0047856453,3.7280176,6.920043,0.052687086,0.07895427,0.11377356,-24.13125,-39.3375,-24.431252,0.23602003,0.020887379,0.1205181,999.64166, , , , 
2026-03-19 21:05:56.120,0.4546363,3.507878,7.1545396,0.2554942,0.3856084,0.083230324,-24.13125,-39.16875,-24.468752,0.23748165,0.023786502,0.12250571,999.64166, , , , 
2026-03-19 21:05:56.139,0.23449662,3.7615173,6.9726853,0.26282457,0.18280129,0.058795735,-24.16875,-38.831253,-24.35625,0.23980278,0.026778672,0.12374585,999.64166, , , , 
2026-03-19 21:05:56.159,0.2632105,3.790231,7.771888,0.32268932,-0.067653276,0.044134982,-24.075,-38.568752,-24.112501,0.24165283,0.027322836,0.124179155,999.64166, , , , 
2026-03-19 21:05:56.180,0.0047856453,4.091727,7.3268228,0.523053,-0.12751803,0.06734784,-24.075,-38.325,-23.925001,0.24678689,0.026491541,0.12427237,999.6391, , , , 
2026-03-19 21:05:56.199,-0.10049855,4.2927237,6.096912,0.56337005,-0.13240494,0.14920372,-24.187502,-38.23125,-23.60625,0.25242123,0.025679342,0.124811344,999.6391, , , , 
2026-03-19 21:05:56.219,-0.009571291,4.642076,5.910272,0.36911505,0.022754714,0.27992877,-24.225,-38.25,-23.268751,0.25610924,0.025301784,0.12602386,999.6391, , , , 
2026-03-19 21:05:56.239,0.63170516,4.4841495,6.9296145,0.22861615,0.10583232,0.35201082,-24.337502,-38.4375,-23.1375,0.25922066,0.025409963,0.12907839,999.6391, , , , 
2026-03-19 21:05:56.259,1.0767702,4.4410787,7.5230346,0.22372922,0.15225805,0.297033,-24.375002,-38.775,-22.96875,0.26131415,0.025864433,0.13259551,999.6153, , , , 
2026-03-19 21:05:56.279,0.60777694,4.694718,8.140383,0.19562945,0.32574365,0.25305074,-24.31875,-39.112503,-22.7625,0.2636102,0.02782322,0.1365273,999.6153, , , , 
2026-03-19 21:05:56.300,0.82313097,4.9292145,8.9013,0.04291325,0.30497423,0.2762636,-24.468752,-39.300003,-22.575,0.2643252,0.029923033,0.1391465,999.6153, , , , 
2026-03-19 21:05:56.320,1.4644074,5.178068,10.073783,-0.13301581,0.20234896,0.20662501,-24.562502,-39.28125,-22.3125,0.26378885,0.031613696,0.1423423,999.6153, , , , 
2026-03-19 21:05:56.339,1.9238294,5.345566,10.992627,-0.11835505,0.20601414,0.06368265,-24.675001,-39.112503,-22.125,0.26217678,0.03274472,0.14449324,999.60706, , , , 
2026-03-19 21:05:56.359,1.0336994,5.465207,11.404193,-0.13545926,0.28420484,-0.11346813,-24.825,-39.018753,-22.125,0.26024026,0.035251997,0.1451145,999.60706, , , , 
2026-03-19 21:05:56.379,-0.71306115,5.5944195,12.567104,-0.11102467,0.27565274,-0.1452331,-24.7875,-39.075,-22.237501,0.25878334,0.03751013,0.14469482,999.60706, , , , 
2026-03-19 21:05:56.399,-1.416551,5.2402816,12.49532,-0.0377209,0.17669263,0.0074830935,-24.806252,-39.131252,-22.35,0.2574159,0.04005793,0.1443823,999.60706, , , , 
2026-03-19 21:05:56.420,-1.0959128,4.613362,12.284752,0.016035201,0.07040217,0.1357647,-24.69375,-39.112503,-22.35,0.2567503,0.041436754,0.14561546,999.6151, , , , 
2026-03-19 21:05:56.439,-0.8757731,4.072584,11.748759,0.1443168,0.008093959,0.15164718,-24.50625,-39.075,-22.25625,0.25729567,0.04153753,0.14709488,999.6151, , , , 
2026-03-19 21:05:56.459,-0.8470592,3.9194436,10.006784,0.19196425,-0.0016798781,0.102778,-24.393751,-39.018753,-22.1625,0.25851363,0.041536927,0.14797331,999.6151, , , , 
2026-03-19 21:05:56.479,-1.0863415,4.168297,8.41795,0.028252495,-0.018784093,0.09666935,-24.393751,-38.98125,-22.21875,0.2598254,0.04150828,0.14876497,999.6151, , , , 
2026-03-19 21:05:56.499,-0.9236295,4.101298,7.274181,-0.2075413,-0.02367101,0.14065161,-24.487501,-39.075,-22.368752,0.2593175,0.04101223,0.14977875,999.6272, , , , 
2026-03-19 21:05:56.519,-0.15792629,3.9146578,6.728617,-0.43966994,-0.007788526,0.16264275,-24.562502,-39.112503,-22.518751,0.25554797,0.03975263,0.1517221,999.6272, , , , 
2026-03-19 21:05:56.539,0.32063824,3.6514473,7.389036,-0.44089165,-0.049327333,0.09789108,-24.6375,-39.018753,-22.612501,0.25222045,0.03889213,0.15287234,999.6272, , , , 
2026-03-19 21:05:56.559,0.25842485,3.5509489,6.5898337,-0.21609342,-0.22403465,-0.012064579,-24.712502,-38.90625,-22.575,0.24886242,0.03703763,0.15329634,999.6272, , , , 
2026-03-19 21:05:56.580,-0.062213387,3.5318062,4.833502,-0.029168794,-0.13362667,-0.056046844,-24.675001,-38.643753,-22.706251,0.2478461,0.03442464,0.15225442,999.6361, , , , 
2026-03-19 21:05:56.599,-0.5694918,4.0295134,4.8191447,0.023365578,0.3526217,0.01847866,-24.618752,-38.550003,-23.081251,0.24781908,0.035641667,0.15222935,999.6361, , , , 
2026-03-19 21:05:56.620,-0.7465607,3.8333018,6.3457656,0.08689552,0.5065596,0.117438756,-24.675001,-38.625,-23.56875,0.24765113,0.039170574,0.1535981,999.6361, , , , 
2026-03-19 21:05:56.639,-0.4977071,3.8476589,6.5659056,0.11988221,0.08994984,0.13332124,-24.618752,-38.625,-23.831251,0.24810393,0.042753544,0.1557527,999.6361, , , , 
2026-03-19 21:05:56.660,-0.21535404,4.1778684,5.666204,0.123547405,-0.31322092,0.10033454,-24.618752,-38.79375,-23.962502,0.24993767,0.04114626,0.15668017,999.6398, , , , 
2026-03-19 21:05:56.679,-0.43070808,4.8047876,4.6468616,0.029474225,-0.23014331,0.11499529,-24.73125,-38.850002,-23.925001,0.251397,0.03826905,0.15685959,999.6398, , , , 
2026-03-19 21:05:56.699,-0.45942193,5.45085,5.369494,-0.15012002,0.016646065,0.23228133,-24.750002,-38.86875,-23.6625,0.2513291,0.037144225,0.1577854,999.6398, , , , 
2026-03-19 21:05:56.719,0.019142581,5.5513487,7.216753,-0.21609342,0.1913534,0.28115052,-24.69375,-39.0,-23.56875,0.249713,0.037061747,0.16049033,999.6398, , , , 
2026-03-19 21:05:56.739,0.40677986,5.9964137,8.992228,-0.11713332,0.260992,0.2689332,-24.69375,-38.831253,-23.456251,0.24743454,0.038764626,0.16457972,999.6272,37.8873618,127.73747358,175.32061767578125,1.56
2026-03-19 21:05:56.760,1.3543376,5.9581285,9.585648,-0.069485866,-0.033444848,0.16264275,-24.806252,-38.475002,-23.2875,0.24661861,0.039202176,0.16706695,999.6272, , , , 
2026-03-19 21:05:56.779,1.727618,5.9581285,10.073783,-0.048716467,-0.22525638,-0.07803798,-25.050001,-38.04375,-23.2875,0.24637304,0.037777267,0.16729109,999.6272, , , , 
2026-03-19 21:05:56.799,0.971486,6.068198,10.767702,0.11499529,0.009315688,-0.26618433,-25.406252,-37.65,-23.306252,0.24664252,0.036482085,0.16546063,999.6272, , , , 
2026-03-19 21:05:56.820,0.36370903,6.2883377,10.490134,0.27748534,0.229227,-0.35048366,-25.781252,-37.5,-23.362501,0.24872802,0.039260995,0.16207233,999.61743, , , , 
2026-03-19 21:05:56.839,-0.148355,6.9726853,9.858429,0.05146536,0.23533566,-0.3394881,-25.987501,-37.706253,-23.587502,0.25002557,0.04287789,0.15924694,999.61743, , , , 
