Time,Accel_X,Accel_Y,Accel_Z,Gyro_X,Gyro_Y,Gyro_Z,Mag_X,Mag_Y,Mag_Z,Orient_X,Orient_Y,Orient_Z,Pressure,Lat,Lng,Alt,Speed
2026-03-20 17:53:39.503,0.4642076,6.35773,6.6352973,-0.11094832,-0.4314996,-0.4899899,-7.8375,-45.506252,-12.150001,0.17236935,0.27583992,0.7419402,999.88983,37.88748384,127.73738212,173.9625244140625,0.0
2026-03-20 17:53:39.520,-0.7369894,6.1495543,7.1377897,-0.9032399,-0.09491312,-0.5156462,-8.94375,-45.225002,-12.975,0.1680745,0.2663192,0.7364634,999.8759, , , , 
2026-03-20 17:53:39.540,-0.55513483,6.3314085,6.613762,-1.1988984,0.100563616,-0.4466185,-7.36875,-45.45,-13.293751,0.16116862,0.26050562,0.7359952,999.8759, , , , 
2026-03-20 17:53:39.560,-1.0241281,5.4293146,7.905886,-1.4462987,-0.25251624,-0.5193114,-7.6312504,-45.956253,-13.387501,0.152822,0.25194696,0.73639077,999.8649, , , , 
2026-03-20 17:53:39.581,-0.4426722,5.204389,9.585648,-1.4072034,-0.37713265,-0.48754644,-7.9875,-44.98125,-15.4125,0.14334613,0.23768768,0.7362839,999.8649, , , , 
2026-03-20 17:53:39.600,-0.62452674,4.4075794,10.700703,-1.1194861,-0.37896523,-0.48510298,-6.4125004,-44.34375,-14.38125,0.13711444,0.2266224,0.7358807,999.8532, , , , 
2026-03-20 17:53:39.620,-0.6987042,5.211568,10.954342,-0.72120225,-0.47242755,-0.5309178,-5.1000004,-44.662502,-18.206251,0.13331321,0.21756992,0.7344984,999.8532, , , , 
2026-03-20 17:53:39.640,-0.05503492,5.127819,10.356136,-0.36323547,-0.58482665,-0.76365733,-6.8437505,-43.85625,-17.456251,0.13206206,0.21117815,0.7313747,999.8791, , , , 
2026-03-20 17:53:39.660,-0.77766734,4.9435716,9.793823,-0.16470441,-0.99960387,-0.95913404,-6.6000004,-44.081253,-17.15625,0.13349076,0.20565155,0.72597474,999.8791, , , , 
2026-03-20 17:53:39.682,-1.3639089,5.2905307,8.939586,-0.1164461,-1.2970951,-1.1155155,-2.1937501,-44.23125,-19.7625,0.14023037,0.19726099,0.71644443,999.8901, , , , 
2026-03-20 17:53:39.700,-1.0289137,5.436493,8.965906,-0.24411684,-1.3551271,-1.2218059,-4.5750003,-43.5,-17.550001,0.14456643,0.19164672,0.7097295,999.8901, , , , 
2026-03-20 17:53:39.720,-1.7563318,5.716453,8.274381,-0.38278314,-1.247615,-1.2114213,-4.4625,-43.85625,-19.556252,0.15142651,0.17976852,0.69774836,999.9228, , , , 
2026-03-20 17:53:39.740,-2.3138595,5.649454,8.975478,-0.42248935,-0.4400517,-0.48937905,-3.1125002,-42.975002,-19.275002,0.15297487,0.17346805,0.6906518,999.9228, , , , 
2026-03-20 17:53:39.760,-2.8713872,4.2257247,7.9393854,-0.8018364,0.30153814,0.8117629,-2.90625,-43.55625,-21.431252,0.1499419,0.16939157,0.6917064,999.9941, , , , 
2026-03-20 17:53:39.780,-1.9286151,3.237489,7.6331043,-1.3931534,0.89468783,1.6852995,-1.66875,-41.568752,-19.66875,0.1405377,0.1648509,0.7024603,999.9941, , , , 
2026-03-20 17:53:39.800,-0.19860429,3.1226335,9.848858,-1.8219806,0.9502765,1.9027674,-3.15,-43.331253,-21.73125,0.12580606,0.15808558,0.7179861,1000.0546, , , , 
2026-03-20 17:53:39.820,2.6656044,1.4979069,11.540584,-1.7993785,-0.4333322,1.7414992,-6.0750003,-39.862503,-24.862501,0.11104256,0.14229469,0.73677945,1000.0546, , , , 
2026-03-20 17:53:39.840,0.78723866,2.201397,10.743773,-1.6723187,-1.4608067,1.4501166,-5.3812504,-40.162502,-25.3875,0.110086784,0.12585333,0.7452539,1000.0998, , , , 
2026-03-20 17:53:39.860,0.849452,3.7328033,11.310873,-1.1793509,-1.2415063,1.4702752,-7.8562503,-40.03125,-25.743752,0.112336494,0.099398084,0.7567364,1000.0998, , , , 
2026-03-20 17:53:39.880,1.7587247,2.2037897,10.925629,-0.2709949,-0.051541716,1.3529891,-10.106251,-39.018753,-27.112501,0.11516098,0.08952057,0.7632711,1000.10736, , , , 
2026-03-20 17:53:39.900,2.0554347,0.23449662,9.47797,0.42355835,1.5874085,1.0396155,-10.59375,-37.818752,-27.6,0.11192384,0.09012688,0.773494,1000.10736, , , , 
2026-03-20 17:53:39.921,1.6438692,1.4069797,11.191232,1.2079087,2.8806093,0.7060833,-12.8625,-38.175003,-27.018751,0.100226186,0.10731756,0.7805275,1000.0815, , , , 
2026-03-20 17:53:39.941,2.1224337,2.1104696,13.280166,2.4998877,1.6368885,0.18257222,-9.168751,-38.68125,-26.456251,0.0883512,0.14302008,0.78463197,1000.0815, , , , 
2026-03-20 17:53:39.960,1.8592232,4.924429,9.008977,1.9562181,-1.7918955,-0.9273691,-8.85,-39.9,-25.650002,0.096487544,0.15779315,0.7815004,1000.05975, , , , 
2026-03-20 17:53:39.980,0.55752766,4.634897,8.2049885,2.0625086,-3.0435574,-1.3268746,-10.59375,-41.081253,-23.400002,0.12386835,0.16011655,0.7695733,1000.05975, , , , 
2026-03-20 17:53:40.000,0.77766734,4.615755,7.4536424,1.8963534,-4.083249,-1.524184,-9.543751,-41.625,-21.46875,0.15865575,0.1575558,0.7537003,1000.0273, , , , 
2026-03-20 17:53:40.022,-2.2492533,4.220939,6.3768725,1.2182934,-4.2115307,-1.5131884,-11.55,-42.46875,-17.643751,0.2070612,0.14357953,0.72891665,1000.0273, , , , 
2026-03-20 17:53:40.040,-3.0197423,4.5678983,6.15434,0.7094431,-3.2958446,-0.8381828,-12.0375,-43.40625,-17.23125,0.23846868,0.12996359,0.71091026,999.9848, , , , 
2026-03-20 17:53:40.060,0.8111669,3.5294135,3.4049866,-0.056581352,-1.179809,0.050625417,-13.2375,-44.04375,-14.137501,0.2575445,0.11900148,0.70139503,999.9848, , , , 
2026-03-20 17:53:40.080,1.9381863,5.7954164,7.5996046,-0.6900481,1.697975,0.20089816,-13.425,-44.30625,-14.26875,0.25728717,0.114497304,0.70239943,999.9477, , , , 
2026-03-20 17:53:40.100,2.4622145,4.8693943,9.52822,-0.5519927,2.299066,0.12148573,-14.681251,-44.8125,-15.337501,0.23910509,0.12321383,0.7092904,999.9477, , , , 
2026-03-20 17:53:40.122,0.7920243,3.4097722,10.068997,-0.39500043,1.3076324,0.2485456,-12.843751,-43.74375,-16.368752,0.21904291,0.13260593,0.71624845,999.9921, , , , 
2026-03-20 17:53:40.141,-0.9882358,4.4410787,9.88475,-0.018707734,1.2612067,0.81359553,-11.1,-44.550003,-16.96875,0.20851131,0.13784604,0.7220012,999.9921, , , , 
2026-03-20 17:53:40.160,0.83748794,4.749753,8.681161,0.2702313,0.39011353,0.942488,-11.606251,-42.73125,-16.556252,0.20330593,0.14332595,0.7296908,1000.0251, , , , 
2026-03-20 17:53:40.182,1.9501505,4.814359,8.051848,0.18226677,-0.29222244,0.6663771,-10.96875,-42.54375,-18.16875,0.20637126,0.1432113,0.7341189,1000.0251, , , , 
2026-03-20 17:53:40.202,2.87378,4.9292145,7.003792,-0.065744326,0.09628756,0.40065095,-13.218751,-42.65625,-16.06875,0.20887932,0.1419575,0.7372946,1000.0058, , , , 
2026-03-20 17:53:40.221,1.835295,4.9292145,7.02772,-0.3852266,-0.0032833982,0.028023422,-14.043751,-43.987503,-17.15625,0.207809,0.14053176,0.7389915,1000.0058, , , , 
2026-03-20 17:53:40.240,0.45942193,4.3118663,8.446664,-0.5318341,0.15554145,0.13309216,-12.20625,-42.80625,-16.48125,0.20524415,0.13742076,0.73987967,999.97723, , , , 
2026-03-20 17:53:40.260,0.6771688,4.0797625,9.255438,-0.4078286,0.43287405,0.24915648,-12.50625,-41.34375,-16.6875,0.20046498,0.1351403,0.7421057,999.97723, , , , 
2026-03-20 17:53:40.280,1.7682959,4.213761,10.155139,-0.00160352,-0.23174682,0.22594361,-13.05,-42.75,-18.712502,0.19756529,0.13275841,0.7448161,999.9526, , , , 
2026-03-20 17:53:40.301,1.1892328,4.371687,7.62114,0.06498074,-0.47609273,0.0891099,-11.475,-40.725002,-18.075,0.20103896,0.13047993,0.744881,999.9526, , , , 
2026-03-20 17:53:40.320,0.99302137,4.398008,5.838487,-0.3107011,-0.3276526,0.08422298,-12.3,-42.675003,-18.487501,0.20385304,0.12737699,0.74462116,999.95013, , , , 
2026-03-20 17:53:40.342,1.6247265,4.831109,9.281759,-0.59047717,-0.036880963,0.13553563,-12.937501,-40.74375,-18.525002,0.20093697,0.12210417,0.74596864,999.95013, , , , 
2026-03-20 17:53:40.360,3.050849,4.3262234,10.322637,-0.3174206,-0.29222244,-0.0080176005,-14.64375,-41.79375,-17.212502,0.19959368,0.118676215,0.74660325,999.9035, , , , 
2026-03-20 17:53:40.380,2.4335005,4.0151563,9.128618,-0.031535894,-0.42966703,-0.26396993,-14.7375,-40.93125,-18.337502,0.20151785,0.11499012,0.74524784,999.9035, , , , 
2026-03-20 17:53:40.402,1.8305093,4.213761,8.647661,-0.11094832,-0.28672466,-0.18883358,-13.743751,-40.443752,-18.91875,0.20410295,0.11205966,0.7427782,999.89105, , , , 
2026-03-20 17:53:40.423,2.3712873,4.3764725,8.963513,-0.033979353,-0.43577567,-0.19433136,-13.275001,-41.1375,-20.475,0.20554817,0.109938905,0.74121934,999.89105, , , , 
2026-03-20 17:53:40.440,1.2562319,3.9146578,8.207381,-0.045585785,-0.44799295,-0.20105088,-13.781251,-42.075,-19.29375,0.20804207,0.10784493,0.73953986,999.8586, , , , 
2026-03-20 17:53:40.460,0.9164511,4.2329035,9.018549,0.04848739,-0.8713223,0.0066431547,-14.025001,-41.100002,-19.0125,0.21190667,0.104140304,0.7373485,999.8586, , , , 
2026-03-20 17:53:40.480,2.6464617,4.0869412,9.375079,0.23052509,-1.2408954,0.083612114,-13.70625,-41.0625,-20.1375,0.22064999,0.098134965,0.73529994,999.8422, , , , 
2026-03-20 17:53:40.500,2.7182465,4.4243293,7.4656067,0.12545635,-0.8963677,-0.07460186,-14.906251,-41.8125,-18.581251,0.23022753,0.09273053,0.7327511,999.8422,37.88748384,127.73738212,173.9625244140625,0.0
2026-03-20 17:53:40.520,2.4358935,4.4004006,7.420143,-0.21784966,-0.56100297,-0.07154754,-15.0375,-40.96875,-17.831251,0.23599358,0.0882543,0.7304389,999.86395, , , , 
2026-03-20 17:53:40.540,2.766103,4.0127635,8.13799,-0.3919461,-0.19142975,-0.05261073,-15.243751,-42.84375,-19.40625,0.23774256,0.08354809,0.7291292,999.86395, , , , 
2026-03-20 17:53:40.560,1.9238294,4.031906,7.664211,-0.5300016,-0.032604907,0.012140937,-15.20625,-41.100002,-18.112501,0.235775,0.079948395,0.72899777,999.85614, , , , 
2026-03-20 17:53:40.580,1.3184453,3.6275191,6.3457656,-0.78534305,-0.14439316,0.2503782,-14.868751,-41.04375,-20.625,0.23195074,0.07350204,0.73002744,999.85614, , , , 
2026-03-20 17:53:40.600,1.4189439,2.8019953,6.3481584,-1.0913863,0.093233235,0.5472585,-17.34375,-40.93125,-20.53125,0.22630395,0.06588478,0.7330453,999.842, , , , 
2026-03-20 17:53:40.620,1.8855443,2.9048867,5.979664,-0.794506,-0.7069996,0.71463543,-16.95,-40.518753,-20.587502,0.2215175,0.056653872,0.7372435,999.842, , , , 
2026-03-20 17:53:40.640,1.7874385,2.4741786,3.2303107,-0.5593231,-2.3471715,0.7268527,-16.706251,-39.35625,-21.45,0.227959,0.041932672,0.73890036,999.7922, , , , 
2026-03-20 17:53:40.660,1.7060826,1.0001999,1.2514462,-0.4597521,-3.7613235,0.9705878,-19.612501,-38.53125,-22.275002,0.24671851,0.018424174,0.7370738,999.7922, , , , 
2026-03-20 17:53:40.680,1.5936198,-0.863809,1.1653047,-0.5171734,-5.55299,1.3914737,-22.35,-38.831253,-19.35,0.27542388,-0.015014906,0.7324493,999.70917, , , , 
2026-03-20 17:53:40.700,3.2135608,-1.2011969,2.8283165,-0.087124586,-6.8541317,1.5900047,-24.69375,-36.487503,-17.550001,0.31466562,-0.05847543,0.72404146,999.70917, , , , 
2026-03-20 17:53:40.720,4.3740797,-2.0075781,-0.040677983,0.3417025,-7.2414203,1.768988,-31.893751,-36.15,-11.400001,0.37544385,-0.11685256,0.70680314,999.6584, , , , 
2026-03-20 17:53:40.740,3.940979,-3.089134,-3.8644085,-0.22151484,-5.8162727,2.0707552,-30.54375,-35.8875,-10.63125,0.41980776,-0.1614944,0.69159764,999.6584, , , , 
2026-03-20 17:53:40.760,3.8380876,-4.65404,-4.5415773,-1.4475205,-3.678246,2.6333618,-34.725002,-34.3875,-4.55625,0.44459245,-0.203419,0.6821862,999.6257, , , , 
2026-03-20 17:53:40.780,5.2737813,-6.005985,-0.930808,-2.4139085,-2.5909066,3.177642,-36.65625,-33.487503,-0.8625,0.44894037,-0.24606489,0.6795942,999.6257, , , , 
2026-03-20 17:53:40.800,8.676374,-6.9128647,3.9720855,-2.3778675,-3.3508224,3.399997,-36.525,-28.743752,-3.0,0.4456942,-0.2918448,0.67806387,999.6047, , , , 
2026-03-20 17:53:40.821,10.5284195,-5.979664,2.065006,-1.697975,-3.5291948,3.427486,-39.9375,-26.493752,-0.3,0.4485697,-0.33929396,0.6726231,999.6047, , , , 
2026-03-20 17:53:40.840,10.10489,-6.771688,3.397808,-1.8971169,-3.1602325,3.3566256,-40.725002,-23.71875,1.48125,0.44984078,-0.38242435,0.6671809,999.6064, , , , 
2026-03-20 17:53:40.860,9.970892,-8.037491,4.9316072,-1.7175227,-1.906738,3.6822166,-41.8875,-21.375,3.6375,0.44556242,-0.4218128,0.66342634,999.6064, , , , 
2026-03-20 17:53:40.880,10.033105,-8.760123,4.85743,-1.2367721,-1.7088178,3.8172176,-44.34375,-18.16875,5.86875,0.4337314,-0.45519328,0.66503805,999.6181, , , , 
2026-03-20 17:53:40.901,10.801202,-9.446864,2.658426,-0.9191224,-2.1413102,3.9949794,-43.59375,-15.093751,5.775,0.42038298,-0.49316967,0.6681797,999.6181, , , , 
2026-03-20 17:53:40.920,13.677374,-9.619147,2.388037,-0.920955,-2.0386848,3.879526,-45.0,-9.65625,7.6125,0.41079855,-0.52250105,0.6690968,999.6486, , , , 
2026-03-20 17:53:40.941,15.18246,-9.056833,3.359523,-0.9747111,-1.5707624,3.4629161,-46.893753,-5.025,10.012501,0.3975892,-0.5551844,0.6682814,999.6486, , , , 
2026-03-20 17:53:40.961,13.540983,-9.676575,3.278167,-0.966159,-0.795575,2.998659,-45.018753,-5.1937504,9.675,0.38825828,-0.57132286,0.66771007,999.6767, , , , 
2026-03-20 17:53:40.980,11.545369,-9.982856,2.8833513,-0.88552487,-0.4736493,3.0823474,-45.412502,-1.1625,11.8125,0.37284368,-0.58979076,0.66824436,999.6767, , , , 
2026-03-20 17:53:41.000,13.237095,-9.19801,2.3832514,-0.81405365,-0.59215707,3.0627997,-46.74375,0.95625,11.83125,0.35571852,-0.6070955,0.66942585,999.7182, , , , 
2026-03-20 17:53:41.020,14.349757,-8.736196,2.0458634,-0.645455,-0.9525673,2.5673883,-46.256252,2.625,11.53125,0.3383535,-0.62652904,0.6689066,999.7182, , , , 
2026-03-20 17:53:41.041,13.883157,-8.248059,1.98365,-0.45303258,-1.1144464,2.2845578,-46.29375,5.45625,13.5375,0.32823837,-0.6395282,0.6674448,999.75336, , , , 
2026-03-20 17:53:41.060,13.194024,-7.9393854,1.3543376,-0.3766745,-0.9745584,2.0524292,-43.725002,7.9687505,13.125001,0.32214034,-0.6502945,0.6652764,999.75336, , , , 
2026-03-20 17:53:41.080,12.349358,-7.513463,1.3136597,-0.3033707,-0.68745196,1.8422918,-44.268753,9.01875,14.812501,0.31503955,-0.6591355,0.66389,999.7758, , , , 
2026-03-20 17:53:41.101,11.85165,-7.149754,0.09810573,-0.27832526,-0.38018698,1.4959315,-43.85625,9.675,15.50625,0.30791402,-0.6661822,0.6631137,999.7758, , , , 
2026-03-20 17:53:41.120,10.403993,-6.6687965,-0.85184485,-0.4896845,0.07185297,1.3645955,-42.525,11.925,15.39375,0.30036578,-0.6724376,0.6621649,999.8, , , , 
2026-03-20 17:53:41.140,10.298709,-6.5922265,-0.22731815,-0.76579535,0.7047089,1.244866,-43.518753,12.825001,15.281251,0.28973958,-0.67932403,0.6607123,999.8, , , , 
2026-03-20 17:53:41.160,9.449257,-7.02772,0.96430755,-0.7786235,0.9093486,1.0817652,-42.9,13.63125,15.01875,0.27273932,-0.6877604,0.6589052,999.8249, , , , 
2026-03-20 17:53:41.180,8.769695,-6.9894347,1.3591232,-0.56421,0.71936965,0.9980767,-41.90625,13.481251,14.925,0.2602282,-0.69322497,0.657921,999.8249, , , , 
2026-03-20 17:53:41.201,8.252846,-6.9152575,0.7537391,-0.42554367,0.943557,1.0060179,-40.78125,14.606251,13.51875,0.24859361,-0.6971485,0.6581441,999.8527, , , , 
2026-03-20 17:53:41.220,7.702496,-7.152147,2.105684,-0.37178758,1.747455,1.1752275,-41.8875,14.118751,12.88125,0.23201391,-0.70032537,0.65986395,999.8527, , , , 
2026-03-20 17:53:41.240,8.693125,-7.0731835,2.2995026,0.058261227,1.2233331,1.1239148,-39.6375,16.368752,9.58125,0.21368894,-0.70148796,0.663774,999.8798, , , , 
2026-03-20 17:53:41.260,8.736196,-6.8913293,1.3447664,0.48831004,0.5727621,0.91072303,-42.7125,17.175001,10.78125,0.20086925,-0.7002193,0.6689778,999.8798, , , , 
2026-03-20 17:53:41.280,8.3174515,-6.7645097,-0.4833502,0.60376346,0.17692171,0.6431643,-40.818752,19.125,8.925,0.19280404,-0.6963569,0.67608786,999.8913, , , , 
2026-03-20 17:53:41.301,7.456035,-7.0540414,-1.6630118,0.32704175,0.11766783,0.41470084,-40.818752,19.125,8.15625,0.18990062,-0.693885,0.6800205,999.8913, , , , 
2026-03-20 17:53:41.322,7.233503,-7.1952176,-1.3040884,0.050319985,0.23189954,0.32612544,-40.29375,18.806252,8.587501,0.18710162,-0.6931191,0.68181074,999.88544, , , , 
2026-03-20 17:53:41.343,7.1282187,-7.166504,-1.2873386,-0.1390481,0.4408153,0.024358233,-40.800003,19.875,7.5000005,0.18328159,-0.69338596,0.6821616,999.88544, , , , 
2026-03-20 17:53:41.360,5.922236,-7.2789664,-1.5864414,-0.2532798,0.50801045,-0.11675153,-41.268753,19.706251,7.8750005,0.18131988,-0.69377327,0.68161815,999.8791, , , , 
2026-03-20 17:53:41.380,5.6709895,-7.4010005,-1.268196,-0.37178758,0.46036297,-0.19616395,-40.96875,19.743752,7.36875,0.17885162,-0.6949211,0.6799784,999.8791, , , , 
2026-03-20 17:53:41.400,5.5537415,-7.719246,-1.5601203,-0.42065677,0.25999933,-0.27191117,-39.975002,20.212502,6.76875,0.17743662,-0.69656914,0.67751515,999.87445, , , , 
2026-03-20 17:53:41.420,4.3525443,-8.2456665,-1.2131611,-0.50373435,0.2514472,-0.21815509,-41.268753,19.706251,7.0875,0.17716725,-0.6988276,0.67423373,999.87445, , , , 
2026-03-20 17:53:41.441,4.5128636,-8.377272,-0.40438703,-0.4994583,0.26977316,-0.10881029,-42.09375,18.618752,8.175,0.17591769,-0.70155746,0.670814,999.8681, , , , 
2026-03-20 17:53:41.460,4.651647,-8.60459,0.009571291,-0.3491856,0.211741,-0.030008731,-40.5,18.431252,7.0875,0.17367804,-0.7044321,0.6674467,999.8681, , , , 
2026-03-20 17:53:41.480,4.948357,-8.405986,0.09810573,-0.18974987,0.17264566,0.024969097,-41.49375,18.581251,6.8625,0.1719641,-0.70578706,0.66597694,999.8615, , , , 
2026-03-20 17:53:41.500,4.847859,-7.8867435,0.05742774,-0.027870705,0.06879865,0.08239039,-42.131252,19.743752,6.7125,0.1705979,-0.70627594,0.66557443,999.8615,37.88748384,127.73738212,173.9625244140625,0.0
2026-03-20 17:53:41.520,4.658826,-7.2646093,-0.57188463,0.050319985,0.045585785,0.13492475,-42.131252,19.743752,7.0312505,0.16969988,-0.70616657,0.6659787,999.8432, , , , 
2026-03-20 17:53:41.540,4.2329035,-6.611369,-0.6580262,0.011835505,0.054748755,0.24060437,-41.25,18.35625,6.8625,0.16836888,-0.70612025,0.66655105,999.8432, , , , 
2026-03-20 17:53:41.560,4.8263235,-6.24766,0.30867413,-0.05169443,-0.20486878,0.42752898,-42.1875,19.48125,7.6687503,0.16634424,-0.7067436,0.6668548,999.83026, , , , 
2026-03-20 17:53:41.580,7.948957,-6.2715883,2.993421,0.2201404,-1.0313689,0.52343476,-41.662502,19.29375,8.400001,0.16660789,-0.70815736,0.6671717,999.83026, , , , 
2026-03-20 17:53:41.601,11.148161,-5.6709895,3.8404803,0.7778599,-1.5493822,0.26626068,-40.912502,19.987501,7.3500004,0.17340529,-0.7069732,0.6692993,999.8212, , , , 
2026-03-20 17:53:41.620,12.727424,-5.558527,1.5888343,1.0722967,-1.4345396,-0.09414954,-40.875,19.612501,9.375,0.18500827,-0.7021614,0.6736269,999.8212, , , , 
2026-03-20 17:53:41.640,13.146168,-5.221139,0.40438703,0.84688765,-0.99777126,-0.40935576,-41.53125,20.025002,10.200001,0.19734827,-0.69619626,0.6776771,999.8454, , , , 
2026-03-20 17:53:41.660,13.842479,-5.426922,2.2181466,0.6758455,-0.86643535,-0.71784246,-41.1375,20.56875,9.95625,0.20887595,-0.690746,0.6801692,999.8454, , , , 
2026-03-20 17:53:41.680,15.125031,-6.178268,3.6729827,0.9073633,-1.319697,-1.1161263,-40.65,19.368752,10.762501,0.22314048,-0.6844655,0.68209743,999.8415, , , , 
2026-03-20 17:53:41.700,15.972091,-6.95115,3.1393833,1.1694243,-1.6049708,-1.614592,-40.36875,18.018751,12.187501,0.24345374,-0.67556995,0.68423414,999.8415, , , , 
2026-03-20 17:53:41.720,15.297316,-7.243074,1.7419748,1.1168898,-1.4253767,-2.0183735,-42.525,16.800001,12.95625,0.27413952,-0.66131985,0.68631035,999.8559, , , , 
2026-03-20 17:53:41.740,15.342779,-7.219146,1.6319051,0.7613666,-0.8303943,-2.309756,-40.987503,16.575,14.493751,0.29776442,-0.6496889,0.68639964,999.8559, , , , 
2026-03-20 17:53:41.760,15.404992,-7.5900335,2.565106,0.57444197,-0.21586435,-2.6451209,-41.9625,13.125001,13.106251,0.3185134,-0.637884,0.6856111,999.8691, , , , 
2026-03-20 17:53:41.780,14.048262,-8.295917,2.9072795,0.60070914,0.076739885,-2.9859834,-43.29375,12.356251,14.212501,0.33739147,-0.6243601,0.6849784,999.8691, , , , 
2026-03-20 17:53:41.800,13.079168,-8.908479,2.8713872,0.7436515,-0.08147409,-3.254153,-43.0125,10.78125,13.031251,0.35701522,-0.60878307,0.68410337,999.8837, , , , 
2026-03-20 17:53:41.820,12.1148615,-9.458828,1.9980069,0.8566615,-0.3191005,-3.511327,-42.3375,8.34375,13.575001,0.37931526,-0.5913546,0.6821057,999.8837, , , , 
2026-03-20 17:53:41.840,11.030912,-9.726824,1.2011969,0.78213596,-0.19081889,-3.6133416,-44.71875,6.0,13.031251,0.40287274,-0.5727455,0.678705,999.884, , , , 
2026-03-20 17:53:41.862,10.025927,-9.674182,0.94755775,0.5597812,0.26244277,-3.5369835,-44.550003,1.7812501,13.70625,0.4338027,-0.5444115,0.67233986,999.884, , , , 
2026-03-20 17:53:41.881,9.394221,-9.47797,1.0049855,0.49808386,0.42126763,-3.462458,-45.018753,-2.0062501,13.968751,0.44650504,-0.53020066,0.6691128,999.8791, , , , 
2026-03-20 17:53:41.900,8.8701935,-9.391829,1.0600204,0.4559342,0.49151707,-3.3879325,-44.71875,-4.2000003,12.525001,0.46161285,-0.5112224,0.6646564,999.8791, , , , 
2026-03-20 17:53:41.920,7.8197446,-9.025727,1.3591232,0.49502954,0.52083856,-3.2370489,-44.775,-5.9437504,12.31875,0.4751333,-0.49221757,0.6600739,999.8686, , , , 
2026-03-20 17:53:41.942,7.2023964,-8.145168,0.715454,0.63919365,0.40294167,-3.0293548,-44.025,-10.106251,14.175,0.49083748,-0.4683477,0.65462977,999.8686, , , , 
2026-03-20 17:53:41.962,6.4438715,-7.649854,-0.22492532,0.65507615,0.29054257,-2.9004624,-45.525,-13.25625,13.593751,0.5002697,-0.45418486,0.6511213,999.87054, , , , 
2026-03-20 17:53:41.980,4.9268217,-7.092326,-0.75613195,0.5451205,0.23189954,-2.6799402,-46.068752,-14.437501,14.325001,0.5124306,-0.43630365,0.64583015,999.87054, , , , 
2026-03-20 17:53:42.000,3.6897326,-6.7118673,-0.83988076,0.4021781,0.14454588,-2.2957063,-43.068752,-16.35,13.05,0.52554977,-0.41689596,0.6387515,999.8713, , , , 
2026-03-20 17:53:42.020,3.0436704,-6.6089764,-0.79441714,0.3184896,-0.03199404,-1.8797073,-43.8375,-19.40625,12.525001,0.53433985,-0.40451625,0.63318646,999.8713, , , , 
2026-03-20 17:53:42.042,2.7684958,-6.802795,-0.8542377,0.3184896,-0.31787875,-1.4600432,-42.28125,-19.63125,13.462501,0.5425484,-0.39532942,0.6276625,999.8708, , , , 
2026-03-20 17:53:42.061,2.455036,-7.24786,-1.4404793,0.31604618,-0.5952114,-0.99456424,-41.550003,-21.69375,15.0375,0.5507885,-0.38949177,0.62220716,999.8708, , , , 
2026-03-20 17:53:42.080,1.8807586,-7.472785,-2.6799614,0.17921245,-0.6868411,-0.45822495,-39.61875,-20.868752,14.793751,0.5582502,-0.38743916,0.61724097,999.87714, , , , 
2026-03-20 17:53:42.102,1.1892328,-7.0492554,-3.3403804,-0.3174206,-0.36247188,0.2864192,-40.10625,-22.5375,15.093751,0.5627932,-0.3912811,0.61286277,999.87714, , , , 
2026-03-20 17:53:42.120,0.64845496,-7.0875406,-3.07717,-0.70287627,0.045585785,0.8209259,-40.987503,-22.5,15.806251,0.5609684,-0.39683992,0.61219054,999.8837, , , , 
2026-03-20 17:53:42.141,1.2059826,-7.6953177,-1.4668003,-1.0272455,0.32414013,1.552131,-41.04375,-21.393751,14.981251,0.5499645,-0.41116956,0.6147868,999.8837, , , , 
2026-03-20 17:53:42.160,1.8855443,-7.702496,-0.5192425,-1.0235803,0.27466008,1.9620214,-42.7125,-20.925001,14.812501,0.5367569,-0.42625573,0.6191862,999.88324, , , , 
2026-03-20 17:53:42.183,2.9599216,-7.350751,0.11485548,-0.88185966,0.06696605,2.32121,-41.268753,-19.03125,12.39375,0.5223669,-0.44323245,0.6245344,999.88324, , , , 
2026-03-20 17:53:42.202,3.830909,-7.4943204,0.17467605,-0.71509355,-0.10957387,2.4714825,-43.143753,-18.862501,13.81875,0.50829417,-0.4609136,0.6300916,999.88983, , , , 
2026-03-20 17:53:42.221,4.3908296,-8.305488,-0.4354937,-0.5611557,-0.34964374,2.578384,-43.143753,-14.606251,12.337501,0.49516064,-0.47855335,0.63545185,999.88983, , , , 
2026-03-20 17:53:42.240,4.5726843,-9.592826,-0.59342,-0.50068,-0.6172025,2.718272,-42.881252,-13.218751,12.543751,0.48297954,-0.496596,0.6400033,999.9084, , , , 
2026-03-20 17:53:42.261,5.1613183,-10.875379,-0.66999036,-0.4163807,-0.8517746,2.962007,-44.34375,-9.525001,13.406251,0.46847793,-0.520364,0.64452666,999.9084, , , , 
2026-03-20 17:53:42.280,5.6949177,-11.7463665,-1.0001999,-0.4249328,-0.8377247,3.1819184,-44.643753,-8.8125,14.625001,0.45934686,-0.5351071,0.647021,999.91766, , , , 
2026-03-20 17:53:42.304,5.6733823,-12.729816,-0.75613195,-0.528169,-0.5463422,3.6070802,-45.075,-5.7562504,15.900001,0.440632,-0.56040597,0.65149677,999.91766, , , , 
2026-03-20 17:53:42.320,6.1495543,-12.9643135,-0.40438703,-0.59108806,-0.3276526,3.864865,-45.75,-3.3187501,14.587501,0.4260256,-0.57608205,0.6547542,999.9145, , , , 
2026-03-20 17:53:42.340,7.60439,-13.167703,0.4642076,-0.5727621,0.06818778,4.2570405,-42.73125,-0.15,13.012501,0.39536694,-0.6020454,0.66147006,999.9145, , , , 
2026-03-20 17:53:42.360,9.171689,-13.028919,0.083748795,-0.48601928,0.24228424,4.4598475,-41.25,3.3750002,10.950001,0.36711255,-0.621467,0.66745853,999.93353, , , , 
2026-03-20 17:53:42.380,9.9756775,-12.780066,-0.5168497,-0.5067887,0.3681224,4.489169,-41.34375,7.2375,10.44375,0.3445007,-0.6350617,0.6717544,999.93353, , , , 
2026-03-20 17:53:42.400,11.064412,-12.330215,-0.09571291,-0.7260891,0.37789622,4.351724,-41.775,10.293751,11.85,0.305396,-0.65671104,0.67661524,999.9394, , , , 
2026-03-20 17:53:42.420,11.346765,-11.947364,0.21535404,-0.76823884,0.24045165,4.1788497,-41.100002,12.8625,11.025001,0.2751382,-0.67290264,0.67788213,999.9394, , , , 
2026-03-20 17:53:42.440,12.447463,-11.186446,0.6197411,-0.8213841,0.09750929,3.8324893,-39.28125,17.53125,10.70625,0.2400068,-0.6911832,0.67678154,999.9355, , , , 
2026-03-20 17:53:42.461,12.574283,-9.853643,0.82313097,-0.8226058,-0.08452842,3.242394,-37.7625,20.6625,10.6875,0.21057655,-0.70666826,0.67309964,999.9355, , , , 
2026-03-20 17:53:42.480,12.000006,-9.253045,0.60777694,-0.84398603,-0.28000516,2.8111234,-35.41875,22.25625,13.125001,0.19651411,-0.7146957,0.66984534,999.93744, , , , 
2026-03-20 17:53:42.500,11.152946,-9.367901,0.7585248,-0.9215659,-0.2543488,2.528293,-35.5125,23.98125,12.731251,0.1807804,-0.724694,0.66436076,999.93744,37.88747309,127.73737667,173.5220947265625,0.93
2026-03-20 17:53:42.520,10.916057,-9.092726,1.1796615,-0.96066123,0.24289511,2.4189482,-31.875002,25.237501,11.512501,0.164829,-0.7341962,0.65846837,999.95087, , , , 
2026-03-20 17:53:42.540,11.076376,-8.348558,1.4691931,-0.98265237,0.8256601,2.3456445,-30.487501,27.112501,12.806251,0.14605555,-0.74320835,0.6529001,999.95087, , , , 
2026-03-20 17:53:42.560,11.8588295,-7.623533,1.4907285,-0.92523104,1.2893065,2.2100325,-28.650002,28.29375,13.312501,0.12443926,-0.75156134,0.64781827,999.9609, , , , 
2026-03-20 17:53:42.581,12.658031,-7.0348988,1.160519,-0.80244726,1.4530182,1.9711843,-27.656252,28.556252,9.4875,0.0960764,-0.7603831,0.64232725,999.9609, , , , 
2026-03-20 17:53:42.601,13.694124,-6.7645097,1.294517,-0.6430115,1.1885138,1.7164537,-27.900002,29.625002,11.306251,0.08044263,-0.7646081,0.6394492,999.96674, , , , 
2026-03-20 17:53:42.620,15.531812,-6.7405815,0.6891329,-0.42615455,0.6301834,1.2173772,-26.362501,30.656252,10.6125,0.06093762,-0.769379,0.6358658,999.96674, , , , 
2026-03-20 17:53:42.640,16.407585,-6.573084,0.4546363,-0.3730093,0.3644572,0.6822596,-24.018751,32.04375,9.20625,0.05269409,-0.7717873,0.63367283,999.9638, , , , 
2026-03-20 17:53:42.660,16.840685,-6.5635123,1.2394822,-0.43287405,0.51778424,0.045127634,-26.175001,31.800001,12.39375,0.049169462,-0.77393484,0.6312881,999.9638, , , , 
2026-03-20 17:53:42.680,16.783258,-6.7812595,2.605784,-0.31986406,0.75174546,-0.52603096,-24.187502,32.11875,12.31875,0.04861907,-0.77569616,0.62896967,999.95746, , , , 
2026-03-20 17:53:42.700,16.063019,-6.829116,3.5581272,0.05215258,0.6888264,-1.0544289,-24.2625,32.25,9.69375,0.051265348,-0.7756328,0.6283044,999.95746, , , , 
2026-03-20 17:53:42.720,15.507884,-6.530013,3.5772698,0.5829941,0.24778202,-1.6408591,-27.937502,30.993752,11.85,0.061750475,-0.7713005,0.63147604,999.96625, , , , 
2026-03-20 17:53:42.740,14.81875,-6.7262244,3.0675986,0.95989764,-0.08452842,-2.2492805,-25.931252,28.987501,8.512501,0.07758953,-0.76435715,0.63679594,999.96625, , , , 
2026-03-20 17:53:42.761,13.670196,-7.8723865,2.5914268,1.2207369,-0.30382887,-2.7227006,-27.000002,29.60625,9.50625,0.09350602,-0.7573324,0.64171344,999.986, , , , 
2026-03-20 17:53:42.780,12.897314,-9.875179,2.1224337,1.4901283,-0.6770672,-3.1222062,-30.075,26.56875,7.6875005,0.12625968,-0.7424933,0.6507201,999.986, , , , 
2026-03-20 17:53:42.800,13.58884,-11.480763,1.2035898,1.6336815,-0.9232457,-3.4361908,-31.35,25.331251,7.89375,0.15708438,-0.7280869,0.6579123,999.99506, , , , 
2026-03-20 17:53:42.820,14.206188,-13.77548,-0.29671,1.450422,-0.9379065,-3.931602,-31.81875,23.6625,7.1062503,0.1911787,-0.71223986,0.6634095,999.99506, , , , 
2026-03-20 17:53:42.840,13.421342,-15.739987,-0.49052864,1.0765728,-0.83650297,-4.257193,-34.631252,20.643751,7.425,0.22700348,-0.69623566,0.66535693,999.9809, , , , 
2026-03-20 17:53:42.860,12.753745,-16.857435,0.72502524,0.78641206,-0.79313153,-4.415407,-35.53125,17.56875,6.76875,0.26262456,-0.6807453,0.6634809,999.9809, , , , 
2026-03-20 17:53:42.880,12.806387,-17.304893,4.0295134,0.7625883,-1.2323433,-4.809415,-35.850002,12.431251,7.0875,0.30823222,-0.6608292,0.6568346,999.9919, , , , 
2026-03-20 17:53:42.900,11.13859,-17.570498,5.345566,1.2763256,-1.7607414,-5.1307297,-37.256252,7.7812505,9.20625,0.3499033,-0.6410979,0.6497938,999.9919, , , , 
2026-03-20 17:53:42.920,8.796016,-16.474585,3.3619158,1.6159664,-1.649564,-5.116069,-36.54375,4.9875,10.9875,0.39435482,-0.61680126,0.6427628,1000.0158, , , , 
2026-03-20 17:53:42.940,8.1738825,-14.847465,-0.7513463,1.3160318,-0.21036656,-4.7245045,-36.581253,0.61875004,13.25625,0.43281928,-0.58999616,0.637223,1000.0158, , , , 
2026-03-20 17:53:42.960,8.389236,-13.639089,-1.7730815,0.7625883,1.1225404,-4.413574,-38.625,-2.4562502,11.475,0.4588775,-0.56325644,0.63397616,999.9975, , , , 
2026-03-20 17:53:42.980,8.49452,-12.820744,-0.41156548,0.5640573,1.4353032,-4.38242,-38.100002,-4.2562504,10.293751,0.47509843,-0.53676856,0.63216025,999.9975, , , , 
2026-03-20 17:53:43.000,7.015756,-12.665211,0.33738798,0.7039453,0.89835304,-4.387918,-39.600002,-7.89375,12.0375,0.49029562,-0.5097289,0.62883687,999.9982, , , , 
2026-03-20 17:53:43.020,5.4867425,-12.131611,0.6412765,0.9104176,0.34307694,-4.2541385,-38.53125,-11.512501,9.975,0.5129652,-0.47616354,0.62100846,999.9982, , , , 
2026-03-20 17:53:43.040,4.058227,-11.52862,0.30388847,1.0252602,0.08895718,-4.1154723,-39.300003,-15.20625,11.8125,0.53269506,-0.4496552,0.61282754,999.99677, , , , 
2026-03-20 17:53:43.060,1.5337993,-10.985449,-0.8446664,1.0796272,-0.037491824,-3.827755,-39.15,-18.806252,11.700001,0.55234236,-0.42361787,0.60380614,999.99677, , , , 
2026-03-20 17:53:43.080,-1.253839,-10.363315,-3.1441689,0.7925207,-0.066813335,-3.2474334,-36.9375,-20.925001,11.26875,0.570169,-0.3998873,0.594538,1000.0002, , , , 
2026-03-20 17:53:43.100,-2.7708886,-10.21496,-3.8811584,0.29710937,0.090178914,-2.4875178,-34.85625,-22.087502,12.20625,0.5838197,-0.38115928,0.5855548,1000.0002, , , , 
2026-03-20 17:53:43.120,-2.8833513,-10.334601,-2.821138,-9.926553E-4,0.18425208,-1.6616286,-33.787502,-25.706251,10.125,0.5915,-0.3686285,0.5786341,999.98553, , , , 
2026-03-20 17:53:43.140,-2.3282163,-10.47817,-2.7565317,-0.14271328,0.124998204,-0.9603558,-32.643753,-25.725,12.01875,0.5949701,-0.36160225,0.5743237,999.98553, , , , 
2026-03-20 17:53:43.160,-2.1296122,-10.064212,-2.3976083,-0.26610798,0.025427246,-0.30001098,-34.21875,-27.750002,11.681251,0.5958364,-0.35952887,0.57191944,999.986, , , , 
2026-03-20 17:53:43.180,-1.5960127,-10.076176,-1.6007984,-0.30581418,-0.13034327,0.4311942,-32.86875,-28.35,11.118751,0.59392685,-0.36357316,0.5714081,999.986, , , , 
2026-03-20 17:53:43.201,-0.8709874,-10.7844515,-1.4883357,-0.23312128,-0.32826346,1.1135302,-35.100002,-27.73125,12.39375,0.590736,-0.37170416,0.57323146,999.9909, , , , 
2026-03-20 17:53:43.220,0.076570325,-10.679168,-1.4979069,-0.22579089,-0.46143198,1.9039892,-36.525,-28.35,10.725,0.58610857,-0.38430607,0.57705474,999.9909, , , , 
2026-03-20 17:53:43.240,2.0410776,-10.736595,-1.4596218,-0.28321218,-0.38812822,2.4482696,-34.7625,-24.581251,12.187501,0.5789999,-0.40078843,0.58294356,999.9963, , , , 
2026-03-20 17:53:43.260,3.5964124,-10.849058,-1.2586247,-0.3730093,-0.2531271,2.8331144,-32.68125,-24.6,10.106251,0.56867373,-0.41978025,0.59070617,999.9963, , , , 
2026-03-20 17:53:43.280,4.6396832,-11.516655,-0.83748794,-0.39805475,-0.33376125,3.101284,-34.893753,-21.712502,10.950001,0.5556694,-0.44033098,0.59942776,1000.00775, , , , 
2026-03-20 17:53:43.300,5.6207404,-12.710674,-0.086141616,-0.2948186,-0.76381004,3.3303585,-36.9375,-18.075,10.8,0.54209787,-0.4623875,0.6075123,1000.00775, , , , 
2026-03-20 17:53:43.320,6.6089764,-14.002798,0.85184485,0.022220206,-1.2671627,3.6425104,-37.143753,-15.468751,10.668751,0.52712995,-0.4916185,0.6155617,1000.0173, , , , 
2026-03-20 17:53:43.340,7.391429,-14.845072,0.55513483,0.3514763,-1.2867103,4.005364,-36.91875,-13.593751,11.475,0.51556057,-0.5146978,0.62217295,1000.0173, , , , 
2026-03-20 17:53:43.360,8.489735,-14.971891,-0.9379865,0.46754062,-0.95928675,4.3596654,-38.268753,-9.7875,14.94375,0.5011598,-0.5366619,0.63053405,1000.01874, , , , 
2026-03-20 17:53:43.380,9.274581,-14.543576,-1.4285151,0.267177,-0.4870883,4.7255735,-39.412502,-4.55625,16.0125,0.4819208,-0.55827284,0.6398239,1000.01874, , , , 
2026-03-20 17:53:43.401,10.293923,-13.739588,-0.2847459,0.15844305,-0.11446079,4.9619784,-36.862503,-2.2875001,13.44375,0.45735464,-0.5800871,0.64903796,1000.0109, , , , 
2026-03-20 17:53:43.420,11.660225,-12.873385,-0.19860429,0.14866921,0.27343833,5.0193996,-39.24375,1.4250001,16.725,0.42853177,-0.60066485,0.6583157,1000.0109, , , , 
2026-03-20 17:53:43.440,12.313465,-12.162718,-0.9212367,-0.021762058,0.8733076,4.914331,-38.362503,7.2562504,15.993751,0.39613083,-0.6191929,0.66744804,999.9963, , , , 
2026-03-20 17:53:43.460,11.96172,-11.68176,-1.4476577,-0.39011353,1.6655992,4.92105,-35.49375,11.26875,16.087502,0.34950763,-0.6408474,0.67762744,999.9963, , , , 
2026-03-20 17:53:43.480,13.30888,-11.349157,-1.5314065,-0.9007965,2.2727988,4.819036,-37.443752,13.931251,15.825001,0.30591157,-0.65872693,0.6835796,999.9914, , , , 
2026-03-20 17:53:43.500,13.856836,-11.047662,-0.3397808,-1.2392156,2.091372,4.4042587,-35.625,18.487501,14.137501,0.26108822,-0.6768198,0.6856392,999.9914,37.8874648,127.73738208,173.48785400390625,0.92
2026-03-20 17:53:43.520,13.557734,-10.540383,0.485743,-1.3149627,1.232496,3.901517,-33.43125,20.868752,8.83125,0.22209884,-0.69359195,0.6835288,999.9897, , , , 
2026-03-20 17:53:43.540,13.270595,-9.946963,1.1389836,-1.286863,0.7529672,3.5887542,-33.3375,23.737501,10.81875,0.19019502,-0.7086863,0.6784721,999.9897, , , , 
2026-03-20 17:53:43.560,13.562519,-9.099904,1.5194423,-1.2141701,0.6405681,3.34563,-30.993752,28.06875,10.78125,0.16244483,-0.72196835,0.67223763,1000.0024, , , , 
2026-03-20 17:53:43.580,14.715859,-7.7240314,1.8257236,-1.0895537,0.87819445,3.0017133,-30.750002,28.06875,13.5375,0.13019659,-0.7359659,0.66434455,1000.0024, , , , 
2026-03-20 17:53:43.602,15.68256,-6.5778694,1.3232309,-0.96432644,1.1145991,2.610149,-28.1625,30.6,11.7375,0.105369695,-0.74499905,0.65869087,1000.01776, , , , 
2026-03-20 17:53:43.620,16.58226,-5.814559,1.0408778,-0.80244726,0.9453896,2.1055746,-25.987501,32.68125,12.0,-0.083303,0.7522525,-0.65357894,1000.01776, , , , 
2026-03-20 17:53:43.640,17.560925,-5.948557,0.9212367,-0.5605448,0.36567894,1.5228095,-22.181252,35.456253,10.837501,-0.0676527,0.75747204,-0.6493257,1000.0251, , , , 
2026-03-20 17:53:43.660,18.36252,-6.178268,0.61016977,-0.38095054,-0.17799072,0.9162208,-25.218752,34.143753,10.762501,-0.06022222,0.7606787,-0.64626515,1000.0251, , , , 
2026-03-20 17:53:43.680,19.104296,-6.65444,1.3998013,-0.24594943,-0.4736493,0.22899793,-23.587502,36.525,12.31875,-0.060029104,0.7625693,-0.6440125,1000.02997, , , , 
2026-03-20 17:53:43.700,20.061424,-6.8602223,2.07697,-0.045585785,-0.44310603,-0.42645997,-23.268751,35.30625,13.425,-0.06543641,0.76301926,-0.64295775,1000.02997, , , , 
2026-03-20 17:53:43.720,19.499111,-6.826723,2.1870399,0.13034327,-0.21036656,-1.199204,-23.868752,32.381252,13.650001,-0.07530507,0.76162654,-0.64360106,1000.0373, , , , 
2026-03-20 17:53:43.740,17.59921,-7.1569324,2.589034,0.3569741,-0.12240203,-2.1148903,-23.53125,34.893753,14.868751,0.09382852,-0.757265,0.64626026,1000.0373, , , , 
2026-03-20 17:53:43.761,15.194424,-8.365308,2.6153553,0.5579486,-0.22258386,-2.753244,-25.368752,34.350002,13.087501,0.10906349,-0.75280714,0.64876497,1000.0468, , , , 
2026-03-20 17:53:43.780,12.593426,-10.521241,3.182454,0.87682,-0.6593522,-3.2376597,-27.35625,31.781252,13.44375,0.1409754,-0.7419417,0.6539683,1000.0468, , , , 
2026-03-20 17:53:43.800,12.488141,-12.189038,3.2733815,1.2311217,-1.1694243,-3.498499,-30.187502,28.743752,14.3625,0.1720411,-0.7296422,0.65913796,1000.0588, , , , 
2026-03-20 17:53:43.820,13.119846,-13.615161,2.2564318,1.382616,-1.4119376,-3.864407,-32.550003,28.518751,13.2375,0.20737773,-0.7142827,0.66442376,1000.0588, , , , 
2026-03-20 17:53:43.840,13.430914,-14.672789,1.7467605,1.2848777,-1.446146,-4.2071023,-33.412502,24.431252,14.962501,0.24537537,-0.6970341,0.6680773,1000.0507, , , , 
2026-03-20 17:53:43.860,13.359129,-15.436099,1.1844472,1.075962,-1.2549453,-4.5333037,-35.568752,23.212502,15.8625,0.28460154,-0.6785825,0.66918033,1000.0507, , , , 
2026-03-20 17:53:43.880,12.9547415,-16.039091,0.93559366,0.73632115,-0.8933134,-4.907764,-36.75,20.00625,12.937501,0.33257595,-0.6543767,0.66665715,1000.03656, , , , 
2026-03-20 17:53:43.900,11.174481,-16.421942,1.5936198,0.60070914,-0.6000983,-5.1307297,-37.95,17.1375,14.45625,0.36936274,-0.63379085,0.6618342,1000.03656, , , , 
2026-03-20 17:53:43.920,9.643075,-15.938592,0.25603202,0.45654505,-0.11018474,-5.056815,-39.412502,12.750001,14.55,0.40286073,-0.61173844,0.65608364,1000.0361, , , , 
2026-03-20 17:53:43.940,9.24826,-15.251851,-1.3663018,0.09552398,0.7554107,-4.7782607,-40.48125,8.15625,14.306251,0.4297332,-0.589766,0.65010035,1000.0361, , , , 
2026-03-20 17:53:43.960,9.769895,-14.541183,-0.6939186,-0.21846052,1.4383575,-4.5937796,-40.65,4.40625,14.231251,0.4480938,-0.5685692,0.6445363,1000.0229, , , , 
2026-03-20 17:53:43.980,9.743574,-14.390435,1.0815558,-0.05413789,1.0816125,-4.7434416,-41.79375,-0.43125,14.775001,0.4629411,-0.54661673,0.6384631,1000.0229, , , , 
2026-03-20 17:53:44.000,8.070991,-14.524433,0.9379865,0.29161158,0.36873326,-4.86256,-44.5125,-3.825,14.493751,0.48146197,-0.5227189,0.6298609,1000.0185, , , , 
2026-03-20 17:53:44.020,5.76431,-14.07219,0.20578274,0.4767036,-0.09491312,-4.709233,-41.98125,-7.3875003,11.793751,0.50397164,-0.4980291,0.6184493,1000.0185, , , , 
2026-03-20 17:53:44.040,3.6323047,-13.162917,-0.69152576,0.474871,0.04864011,-4.3995247,-41.775,-12.1125,12.50625,0.5318694,-0.46770954,0.6027009,1000.0136, , , , 
2026-03-20 17:53:44.060,1.0695918,-12.677175,-1.8113668,0.31482443,0.46708247,-4.0287294,-40.631252,-16.59375,13.106251,0.54565346,-0.44975546,0.5940667,1000.0136, , , , 
2026-03-20 17:53:44.080,-1.3710874,-11.944971,-2.0697916,0.11568252,0.8213841,-3.1845145,-40.21875,-21.7875,12.750001,0.5607887,-0.4221175,0.5829543,1000.0009, , , , 
2026-03-20 17:53:44.100,-1.6390835,-11.425728,-1.9357935,0.108963005,0.6576723,-2.558378,-37.8375,-23.38125,9.1875,0.5678503,-0.40394288,0.5767415,1000.0009, , , , 
2026-03-20 17:53:44.120,-1.268196,-10.863415,-1.5888343,0.24824017,0.23006694,-1.8393902,-37.7625,-24.993752,11.2875,0.5737125,-0.39019194,0.57163584,1000.0004, , , , 
2026-03-20 17:53:44.140,-1.8017955,-10.872986,-1.7970098,0.37896523,0.04619665,-1.3201551,-33.46875,-24.91875,9.13125,0.5796084,-0.380148,0.5675013,1000.0004, , , , 
2026-03-20 17:53:44.160,-3.4289148,-10.47817,-2.7972097,0.39118254,-0.056428634,-0.5773436,-36.375,-26.85,11.55,0.5855367,-0.37198153,0.5650636,999.99506, , , , 
2026-03-20 17:53:44.180,-2.7038896,-10.760524,-3.885944,0.28183773,-0.30932665,0.18745913,-38.11875,-27.4125,12.375001,0.58839947,-0.37111163,0.5651765,999.99506, , , , 
2026-03-20 17:53:44.200,-1.8520447,-10.076176,-4.180261,0.019776747,-0.39118254,0.92599463,-39.600002,-28.931252,12.7875,0.58899605,-0.37643752,0.56660205,999.98676, , , , 
2026-03-20 17:53:44.220,0.050249275,-10.143175,-3.4504502,-0.29115343,-0.27817255,1.5893939,-35.60625,-25.1625,12.0,0.5856172,-0.38734353,0.56985,999.98676, , , , 
2026-03-20 17:53:44.240,1.969293,-10.69831,-2.4143581,-0.532445,-0.03810269,2.1807108,-37.93125,-24.91875,13.9125,0.5775558,-0.40232927,0.5755343,999.97943, , , , 
2026-03-20 17:53:44.261,3.0699914,-11.25823,-1.174876,-0.5953641,0.03581195,2.555171,-36.862503,-23.306252,13.106251,0.5653527,-0.41999584,0.5834052,999.97943, , , , 
2026-03-20 17:53:44.280,4.3669014,-12.0023985,-0.4881358,-0.4909062,-0.18837543,3.0004914,-38.4375,-22.575,11.0625,0.55097675,-0.43961057,0.5925216,999.98773, , , , 
2026-03-20 17:53:44.300,5.460421,-12.354143,-0.51445687,-0.37606362,-0.45959938,3.3749516,-40.03125,-20.25,11.1,0.5362024,-0.46117407,0.60170835,999.98773, , , , 
2026-03-20 17:53:44.320,6.3744793,-13.026526,-0.72023964,-0.3210858,-0.51946414,3.8172176,-40.65,-16.837502,10.96875,0.51654464,-0.4902206,0.61310613,999.9924, , , , 
2026-03-20 17:53:44.340,6.9655066,-13.270595,-0.5814559,-0.3229184,-0.42905614,4.233217,-42.131252,-13.14375,13.218751,0.4978201,-0.5145817,0.6228296,999.9924, , , , 
2026-03-20 17:53:44.360,7.946564,-13.03849,0.13878371,-0.30703592,-0.28305948,4.570414,-42.16875,-11.26875,11.887501,0.4755742,-0.5393267,0.6330777,999.9865, , , , 
2026-03-20 17:53:44.380,9.042477,-12.4115715,0.62931234,-0.21723878,-0.066813335,4.769556,-41.5125,-6.7125,9.8625,0.45026058,-0.5631471,0.6436562,999.9865, , , , 
2026-03-20 17:53:44.400,9.51147,-12.090933,0.35174492,-0.17814344,0.17142393,4.8269773,-41.25,-2.23125,13.125001,0.42229223,-0.58494985,0.65437603,999.9943, , , , 
2026-03-20 17:53:44.420,9.245867,-12.416357,-0.35413775,-0.29604036,0.3662898,4.92105,-40.59375,5.1937504,11.1,0.3841468,-0.6098463,0.66670996,999.9943, , , , 
2026-03-20 17:53:44.440,9.547362,-12.689138,-0.33260235,-0.4664716,0.5012909,5.079264,-42.393753,7.8750005,11.137501,0.35076597,-0.62927413,0.6746179,999.9997, , , , 
2026-03-20 17:53:44.460,10.332209,-12.725031,0.35653058,-0.56970775,0.58925545,5.148292,-40.66875,12.150001,11.625,0.32390797,-0.6437002,0.67918503,999.9997, , , , 
2026-03-20 17:53:44.480,11.564512,-13.000205,1.0719845,-0.53672105,0.3766745,5.0420017,-40.03125,16.6875,11.15625,0.27801108,-0.6658692,0.6844483,999.9943, , , , 
2026-03-20 17:53:44.500,12.339787,-12.545569,1.282553,-0.24289511,-0.32826346,4.7744427,-38.756252,20.0625,10.200001,0.24550387,-0.680459,0.6864566,999.9943,37.88745207,127.73739267,173.68072509765625,2.07
2026-03-20 17:53:44.520,12.387643,-11.928221,-0.86859465,-0.05291616,-0.9543999,4.455571,-37.068752,22.706251,11.887501,0.2198381,-0.6914161,0.6869981,999.9892, , , , 
2026-03-20 17:53:44.540,13.502698,-11.157732,-2.1511476,-0.3821723,-0.81695527,4.1916776,-32.925003,26.5125,11.231251,0.19789563,-0.70106125,0.6850545,999.9892, , , , 
2026-03-20 17:53:44.560,14.916857,-10.437492,-1.3471591,-0.83299047,-0.33376125,3.8086655,-30.375002,29.118752,13.293751,-0.17616649,0.71167266,-0.6797333,999.9643, , , , 
2026-03-20 17:53:44.580,16.536797,-9.559326,1.2849457,-0.9105703,0.1390481,3.2313983,-28.650002,31.275002,14.83125,-0.14905132,0.7254042,-0.6703764,999.9643, , , , 
2026-03-20 17:53:44.600,17.58964,-8.796016,1.672583,-0.6460659,0.48479757,2.695059,-24.768751,33.675003,13.218751,-0.13374409,0.7319236,-0.6657164,999.95844, , , , 
2026-03-20 17:53:44.620,18.494125,-8.037491,0.59342,-0.4512,0.89896387,1.9717952,-22.95,34.0875,14.38125,-0.110480845,0.7394067,-0.66093796,999.95844, , , , 
2026-03-20 17:53:44.640,18.798016,-7.3603225,0.83748794,-0.32047492,0.9924262,1.2210424,-23.456251,35.15625,14.08125,-0.09548176,0.7435866,-0.658632,999.9643, , , , 
2026-03-20 17:53:44.660,17.64946,-7.1784678,0.57427746,-0.13660464,0.9197333,0.46906778,-23.306252,38.15625,15.1125,-0.08571518,0.74586433,-0.6579065,999.9643, , , , 
2026-03-20 17:53:44.680,15.768702,-7.6594253,0.3182454,0.14500403,0.5312233,-0.1259145,-23.212502,35.68125,14.475,-0.08161016,0.7462094,-0.65870005,999.9736, , , , 
2026-03-20 17:53:44.700,14.998212,-7.618747,-0.5910272,0.42600182,0.03581195,-0.44417506,-22.2,36.91875,12.918751,-0.08293848,0.7441983,-0.6613257,999.9736, , , , 
2026-03-20 17:53:44.720,15.780665,-6.8578296,-1.2299109,0.49625129,-0.48769918,-0.8528436,-21.300001,37.875,13.5375,-0.08969865,0.74044687,-0.6649749,999.9665, , , , 
2026-03-20 17:53:44.740,16.130018,-6.9894347,-1.1892328,0.33253953,-0.98433226,-1.6451352,-25.25625,36.46875,14.19375,-0.108106285,0.73490775,-0.668724,999.9665, , , , 
2026-03-20 17:53:44.760,15.570097,-8.350951,0.09092726,0.23052509,-1.3758966,-2.2889867,-21.46875,36.24375,13.031251,-0.12510902,0.73144436,-0.6697896,999.96234, , , , 
2026-03-20 17:53:44.780,14.746966,-11.035698,2.0315065,0.37896523,-1.8566471,-2.9676576,-22.875,34.875,10.63125,-0.16279837,0.7235033,-0.6706383,999.96234, , , , 
2026-03-20 17:53:44.800,14.35215,-12.660424,2.3688943,0.5805506,-1.9458334,-3.4380233,-24.2625,33.975002,12.843751,-0.19886962,0.7135919,-0.6716931,999.98016, , , , 
2026-03-20 17:53:44.820,14.751752,-14.158332,1.105484,0.52251846,-1.5548799,-3.932824,-27.562502,32.362503,15.58125,0.23675554,-0.7010163,0.67268807,999.98016, , , , 
2026-03-20 17:53:44.840,14.888143,-14.91207,0.57188463,0.25679228,-1.0075451,-4.428846,-29.98125,29.98125,17.831251,0.27423584,-0.6873141,0.67225593,999.9841, , , , 
2026-03-20 17:53:44.860,13.842479,-15.299708,0.3804588,0.016722424,-0.51946414,-4.852175,-32.53125,24.618752,17.94375,0.31054896,-0.67272955,0.6699376,999.9841, , , , 
2026-03-20 17:53:44.880,11.88515,-15.833307,1.7682959,-0.15554145,-0.066813335,-5.3848495,-37.55625,20.118752,18.73125,0.35362405,-0.6525335,0.6645461,999.9843, , , , 
2026-03-20 17:53:44.901,9.611969,-16.086946,2.1463618,2.290743E-4,0.03581195,-5.5339003,-36.80625,15.093751,18.618752,0.3789633,-0.63817775,0.6605661,999.9843, , , , 
2026-03-20 17:53:44.920,6.5204415,-15.448063,1.4213367,0.16088651,0.41210467,-5.295052,-37.36875,11.45625,16.10625,0.4182267,-0.6107625,0.65396315,999.99554, , , , 
2026-03-20 17:53:44.940,6.398408,-14.124832,-0.5240282,0.06864593,1.2972478,-4.6744137,-40.575,7.8750005,16.800001,0.44181374,-0.5878639,0.6504038,999.99554, , , , 
2026-03-20 17:53:44.960,7.716853,-13.406985,-0.12921242,0.022831071,1.6393319,-4.436787,-42.768753,4.93125,15.975,0.45723593,-0.56545615,0.6483836,999.9848, , , , 
2026-03-20 17:53:44.980,8.109276,-13.129417,0.4642076,0.28183773,0.9734894,-4.519865,-42.80625,1.2,16.181252,0.4711792,-0.5420476,0.64575845,999.9848, , , , 
2026-03-20 17:53:45.000,6.936793,-13.304094,0.12203395,0.4577668,0.12316561,-4.558349,-43.725002,-3.4875002,14.85,0.49010596,-0.5177854,0.6394506,999.97845, , , , 
2026-03-20 17:53:45.020,5.5298133,-13.024134,0.15074782,0.4736493,-0.31787875,-4.4117417,-43.93125,-7.4812503,13.556251,0.51267874,-0.49418935,0.6293448,999.97845, , , , 
2026-03-20 17:53:45.040,3.8500516,-12.509677,0.39960137,0.4406626,-0.42539096,-4.063549,-42.35625,-10.575001,14.19375,0.54076993,-0.46648464,0.6141574,999.977, , , , 
2026-03-20 17:53:45.060,2.9455647,-12.069397,0.22971097,0.41134107,-0.29038984,-3.7544513,-41.643753,-14.962501,14.212501,0.555798,-0.45078504,0.6051495,999.977, , , , 
2026-03-20 17:53:45.080,1.579263,-11.392229,-0.64606214,0.28733552,-0.058261227,-3.3213482,-38.15625,-17.98125,14.625001,0.5765737,-0.42612803,0.5916283,999.97723, , , , 
2026-03-20 17:53:45.100,-0.37328035,-10.820344,-1.3998013,0.12240203,0.17631085,-2.843041,-40.18125,-20.56875,16.837502,0.58881056,-0.4085881,0.5824938,999.97723, , , , 
2026-03-20 17:53:45.120,-2.524428,-10.956735,-2.2181466,-0.12805253,0.32902706,-2.0654101,-36.75,-21.712502,17.00625,0.59681773,-0.39437285,0.57528883,999.98065, , , , 
2026-03-20 17:53:45.140,-3.7686956,-11.387443,-1.8903298,-0.27221662,0.3436878,-1.2804489,-36.9,-24.075,15.000001,0.6004297,-0.38515377,0.5704365,999.98065, , , , 
2026-03-20 17:53:45.160,-4.106084,-11.609976,-1.7060826,-0.22212571,0.04925097,-0.45211628,-37.65,-24.900002,14.6625,0.6009767,-0.38127124,0.56802225,999.98065, , , , 
2026-03-20 17:53:45.180,-4.1922255,-10.956735,-2.3401806,-0.19463679,-0.38385215,0.55458885,-36.206253,-25.968752,11.475,0.6004682,-0.38496944,0.56698555,999.98065, , , , 
2026-03-20 17:53:45.200,-2.3377876,-10.229317,-2.0482562,-0.28321218,-0.38873908,1.4256821,-36.2625,-25.25625,15.3,0.5976728,-0.39504075,0.5683395,999.98334, , , , 
2026-03-20 17:53:45.220,-0.41635114,-10.037891,-1.1078769,-0.3107011,-0.21281002,2.1012986,-37.95,-24.187502,15.58125,0.5908065,-0.40944263,0.5729454,999.98334, , , , 
2026-03-20 17:53:45.240,2.0386848,-10.578669,-0.47138608,-0.16348268,-0.14866921,2.6437464,-34.96875,-22.725,12.243751,0.58047014,-0.42620543,0.5806602,999.9841, , , , 
2026-03-20 17:53:45.261,3.603591,-11.583654,-0.8470592,0.014889829,-0.32826346,2.9400158,-38.2125,-21.206251,14.19375,0.5686876,-0.44417527,0.5900871,999.9841, , , , 
2026-03-20 17:53:45.280,5.7451673,-13.07199,-2.0338993,0.12789981,-0.68623024,3.2668285,-39.6375,-17.8875,16.63125,0.557138,-0.46354356,0.599363,999.9799, , , , 
2026-03-20 17:53:45.300,6.9320073,-14.179867,-1.5098711,0.09369139,-1.016708,3.5863109,-40.10625,-13.70625,16.44375,0.5427891,-0.49028313,0.6089325,999.9799, , , , 
2026-03-20 17:53:45.320,7.668997,-14.388042,-0.5096712,0.12912154,-1.0014365,3.8526478,-42.768753,-10.9875,15.95625,0.5301698,-0.5130484,0.6153971,999.96625, , , , 
2026-03-20 17:53:45.340,8.12124,-14.1009035,1.0097711,0.24640758,-0.62147856,4.1483064,-39.9,-8.34375,16.575,0.5142282,-0.5353233,0.62304926,999.96625, , , , 
2026-03-20 17:53:45.360,9.018549,-13.234702,1.0624132,0.4870883,-0.22685991,4.3382854,-41.7,-4.9125004,16.10625,0.49393505,-0.5553806,0.63340396,999.9753, , , , 
2026-03-20 17:53:45.380,9.638289,-12.349358,-0.72741807,0.5432879,-0.08025236,4.354168,-42.80625,-2.9437501,19.518751,0.4711861,-0.57299054,0.64480984,999.9753, , , , 
2026-03-20 17:53:45.400,9.518648,-12.205789,-1.442872,0.38568476,0.032757625,4.380435,-41.193752,2.8312502,18.54375,0.44735578,-0.5895445,0.6547936,999.96796, , , , 
2026-03-20 17:53:45.420,10.389636,-12.112468,-1.0959128,0.15599959,0.21113014,4.429915,-39.16875,8.512501,18.46875,0.42148766,-0.60614824,0.6629667,999.96796, , , , 
2026-03-20 17:53:45.440,10.482956,-12.023933,-0.66759753,-0.09750929,0.83360136,4.489169,-40.893753,9.337501,18.150002,0.38509423,-0.62673366,0.6712742,999.94965, , , , 
2026-03-20 17:53:45.460,11.241481,-11.875579,-0.6723832,-0.4267654,1.6124539,4.5869074,-38.925003,13.89375,16.59375,0.35882774,-0.6391982,0.67607456,999.94965, , , , 
2026-03-20 17:53:45.480,12.236895,-11.286944,0.19142582,-0.6967676,2.1561236,4.4800057,-39.46875,17.081251,16.931252,0.3075476,-0.6602242,0.6829757,999.95135, , , , 
2026-03-20 17:53:45.500,13.136597,-10.258031,-0.43788654,-0.86842066,1.9136103,4.1104326,-36.600002,21.618752,14.062501,0.26641348,-0.6757753,0.68591225,999.95135,37.88743981,127.73740491,173.5257568359375,1.41
2026-03-20 17:53:45.520,12.748959,-9.470792,-0.37806597,-1.106047,1.6045127,3.6718318,-35.775,25.687502,14.512501,0.22967523,-0.69045424,0.6851462,999.94794, , , , 
2026-03-20 17:53:45.540,12.229716,-8.209774,0.96909314,-1.2129483,1.4505748,3.2900414,-34.95,26.8875,14.3625,0.19687934,-0.7045007,0.6814146,999.94794, , , , 
2026-03-20 17:53:45.560,11.787045,-7.257431,1.6223338,-1.0938298,1.3247366,3.0169847,-29.98125,29.6625,12.900001,0.16669352,-0.71693194,0.676705,999.9521, , , , 
2026-03-20 17:53:45.580,12.129218,-7.003792,1.294517,-0.88919,1.0632865,2.817232,-33.0,32.081253,13.2375,0.13928097,-0.7271416,0.67213345,999.9521, , , , 
2026-03-20 17:53:45.600,13.921442,-7.365108,0.4211368,-0.6601158,0.7144827,2.6529093,-29.60625,33.5625,12.0375,0.11496109,-0.73516184,0.6680686,999.9516, , , , 
2026-03-20 17:53:45.620,17.036898,-7.5828547,-0.7609176,-0.3821723,-0.09369139,2.2711189,-28.85625,34.5,13.44375,-0.09158694,0.7420899,-0.6639384,999.9516, , , , 
2026-03-20 17:53:45.640,19.300507,-7.173682,-1.8017955,-0.41088292,-0.7418189,1.701182,-29.062502,35.71875,13.5375,-0.08212818,0.74575794,-0.6607642,999.94403, , , , 
2026-03-20 17:53:45.661,21.11666,-7.350751,0.2727818,-0.600251,-1.0423644,1.0414481,-24.843752,36.9,12.88125,-0.080668055,0.7495795,-0.6561415,999.94403, , , , 
2026-03-20 17:53:45.680,24.157938,-6.728617,4.2664027,-0.30947936,-0.8578832,0.1636354,-23.6625,37.125,14.75625,-0.08506298,0.75247043,-0.65186155,999.94037, , , , 
2026-03-20 17:53:45.700,24.031118,-6.068198,5.0943193,0.29222244,-0.37713265,-1.0336596,-25.0125,35.60625,16.06875,-0.0943552,0.75147605,-0.65179974,999.94037, , , , 
2026-03-20 17:53:45.720,19.57329,-7.152147,2.713461,0.86277014,-0.105908684,-2.256,-22.40625,35.268753,13.650001,-0.11377287,0.7434024,-0.65865713,999.97064, , , , 
2026-03-20 17:53:45.740,16.086946,-9.008977,0.5168497,1.0209842,-0.24457498,-2.946888,-24.562502,36.91875,13.462501,-0.13537525,0.73318565,-0.66638947,999.97064, , , , 
2026-03-20 17:53:45.760,14.091332,-10.695917,-0.27756742,0.9562324,-0.565279,-3.3952627,-27.150002,34.40625,15.431251,0.16187792,-0.7215739,0.6730221,999.9692, , , , 
2026-03-20 17:53:45.780,12.940385,-12.059826,-0.21535404,0.818177,-0.8872047,-3.7159667,-27.825,34.59375,13.63125,0.19266395,-0.70926493,0.67736125,999.9692, , , , 
2026-03-20 17:53:45.800,12.928421,-13.512269,0.66759753,0.6471349,-1.1541526,-4.021399,-32.15625,28.931252,12.093751,0.22659376,-0.6964786,0.6790119,999.9545, , , , 
2026-03-20 17:53:45.820,12.904492,-14.548362,1.1964114,0.53656834,-1.1981349,-4.2999535,-32.5875,26.906252,13.031251,0.26279908,-0.6827982,0.67820686,999.9545, , , , 
2026-03-20 17:53:45.840,12.3708935,-15.146567,1.6031911,0.45959938,-1.0796272,-4.5333037,-36.375,24.993752,15.225,0.2997452,-0.66780883,0.6754118,999.9484, , , , 
2026-03-20 17:53:45.860,12.337394,-15.168102,1.5361922,0.3917934,-0.9550107,-4.7752066,-38.175003,22.050001,17.90625,0.33621946,-0.6512379,0.6710814,999.9484, , , , 
2026-03-20 17:53:45.880,10.616954,-15.419349,1.6893328,0.34720027,-0.8554398,-5.0647564,-38.025,18.993752,14.83125,0.38173237,-0.62787026,0.6631429,999.95355, , , , 
2026-03-20 17:53:45.900,9.052048,-15.058033,1.442872,0.30443972,-0.5915462,-5.056815,-38.8875,13.406251,17.400002,0.41655532,-0.6071778,0.6553354,999.95355, , , , 
2026-03-20 17:53:45.920,8.350951,-14.251652,-0.062213387,0.20547964,0.06879865,-4.757491,-41.006252,10.200001,17.025002,0.44668135,-0.58555865,0.6477002,999.96405, , , , 
2026-03-20 17:53:45.940,8.997013,-13.557734,-0.9810573,-0.08651373,0.87025326,-4.552241,-41.775,6.39375,17.325,0.46913794,-0.5641167,0.6412159,999.96405, , , , 
2026-03-20 17:53:45.960,8.4682,-13.337593,-0.3924229,-0.2618319,1.223944,-4.488711,-43.7625,2.325,17.15625,0.4852459,-0.54257476,0.63532156,999.955, , , , 
2026-03-20 17:53:45.980,7.1545396,-13.16531,0.53359944,-0.1824195,1.0107521,-4.3995247,-46.03125,-4.6125,16.85625,0.49936655,-0.52061164,0.62856126,999.955, , , , 
2026-03-20 17:53:46.000,6.0658054,-12.899707,0.83748794,-0.021762058,0.8085559,-4.2333694,-43.987503,-6.76875,16.9125,0.5135876,-0.49829012,0.6206654,999.9516, , , , 
2026-03-20 17:53:46.020,5.2666025,-12.842279,0.9236295,0.20242532,0.73403037,-3.990245,-45.1875,-10.743751,14.962501,0.52735305,-0.4756723,0.61255765,999.9516, , , , 
2026-03-20 17:53:46.040,3.5964124,-12.270394,-0.014356935,0.33070692,0.64117897,-3.756284,-43.068752,-15.6,13.312501,0.5435633,-0.447021,0.6029562,999.96014, , , , 
2026-03-20 17:53:46.061,1.7659031,-11.9306135,-1.0432707,0.32093307,0.43959355,-3.4685667,-40.5,-16.706251,12.7875,0.55275375,-0.43044207,0.5971023,999.96014, , , , 
2026-03-20 17:53:46.080,-0.6963114,-12.189038,-1.0049855,0.2286925,-0.17676899,-2.9310055,-40.706253,-20.587502,12.88125,0.5678734,-0.40728602,0.58553755,999.9628, , , , 
2026-03-20 17:53:46.100,-2.644069,-11.581262,0.39481574,0.44799295,-0.7760273,-2.1814744,-38.475002,-21.862501,13.33125,0.5807548,-0.39437637,0.57478106,999.9628, , , , 
2026-03-20 17:53:46.120,-2.9766715,-11.693725,-0.61734825,0.610483,-0.7589231,-1.5553381,-36.581253,-24.2625,11.418751,0.59358335,-0.38512063,0.56561583,999.97797, , , , 
2026-03-20 17:53:46.140,-2.5459633,-11.751152,-3.0699914,0.5023599,-0.393626,-0.75266176,-38.193752,-26.7,16.368752,0.60331196,-0.3789347,0.56028545,999.97797, , , , 
2026-03-20 17:53:46.160,-2.7326035,-11.344372,-4.6636114,-0.020540329,0.11033745,0.0029779659,-35.325,-26.400002,15.731251,0.60788524,-0.37677544,0.55894935,999.9711, , , , 
2026-03-20 17:53:46.180,-3.2805598,-10.667203,-3.952943,-0.5165625,0.38095054,0.8087086,-36.318752,-27.000002,14.64375,0.60397243,-0.3810789,0.5615067,999.9711, , , , 
2026-03-20 17:53:46.200,-2.3952155,-10.521241,-2.065006,-0.71203923,0.3937787,1.6315435,-35.381252,-26.025002,14.493751,0.59447145,-0.391425,0.56693584,999.966, , , , 
2026-03-20 17:53:46.220,-0.15314065,-10.583454,-0.9906286,-0.66744614,0.25083634,2.356029,-34.6875,-24.187502,11.83125,0.58147645,-0.40675047,0.5749344,999.966, , , , 
2026-03-20 17:53:46.240,2.115255,-11.387443,-0.72502524,-0.509843,0.0058795735,2.9277985,-39.9375,-22.3875,14.906251,0.56687963,-0.42544302,0.5845315,999.9714, , , , 
2026-03-20 17:53:46.265,3.8811584,-12.435499,-0.8039884,-0.3180315,-0.3191005,3.4739115,-42.3375,-18.393751,14.00625,0.54765207,-0.45205256,0.5974429,999.9714, , , , 
2026-03-20 17:53:46.280,4.816752,-13.119846,-1.0600204,-0.2520581,-0.46204284,3.7604072,-43.331253,-18.2625,14.1,0.5357175,-0.46941233,0.60521567,999.976, , , , 
2026-03-20 17:53:46.302,5.919843,-14.098511,-1.2849457,-0.22518003,-0.49991646,4.217945,-43.0875,-15.618751,13.6125,0.51849794,-0.49379063,0.6155042,999.976, , , , 
2026-03-20 17:53:46.320,6.795616,-14.467006,-1.134198,-0.22090398,-0.50419253,4.580188,-44.41875,-11.400001,13.368751,0.4985255,-0.51926297,0.62591827,999.9709, , , , 
2026-03-20 17:53:46.340,7.7096744,-14.751752,-0.43788654,-0.04619665,-0.9012546,4.993132,-44.4375,-7.6875005,15.937501,0.47032005,-0.55187654,0.6382681,999.9709, , , , 
2026-03-20 17:53:46.360,9.430114,-14.730216,0.20578274,0.36491534,-1.7192025,5.211211,-44.7,-4.5,17.79375,0.44932485,-0.5775033,0.645845,999.97284, , , , 
2026-03-20 17:53:46.380,10.0881405,-14.711074,-0.38763726,0.9189697,-2.1620796,5.301619,-44.04375,0.93750006,17.25,0.4320375,-0.60009754,0.6513641,999.97284, , , , 
2026-03-20 17:53:46.400,10.265209,-14.785251,-1.847259,1.0411427,-1.7381394,5.4586115,-41.25,6.9375005,18.46875,0.41443565,-0.61878645,0.65656716,999.9821, , , , 
2026-03-20 17:53:46.420,12.124433,-13.976477,-2.7948167,0.70150185,-0.46937323,5.6705813,-40.575,12.58125,20.7,0.3903747,-0.6356584,0.6621226,999.9821, , , , 
2026-03-20 17:53:46.440,14.586647,-12.976277,-2.2325034,0.11446079,1.0345758,5.4714394,-38.0625,16.331251,20.38125,0.35584417,-0.65266037,0.66800874,999.9633, , , , 
2026-03-20 17:53:46.460,14.8785715,-12.177074,-0.78723866,-0.20013458,1.6130648,4.900281,-36.5625,20.71875,19.050001,0.3146142,-0.6692139,0.6731112,999.9633, , , , 
2026-03-20 17:53:46.480,13.651053,-11.686545,-1.146162,-0.40233082,1.4047599,4.2961354,-36.16875,23.8875,16.35,-0.26542222,0.68697864,-0.6763568,999.9484, , , , 
2026-03-20 17:53:46.500,13.500305,-10.990234,-0.72741807,-0.53855366,1.1127665,3.9186213,-31.800001,26.7,16.66875,-0.23101412,0.69970375,-0.6754769,999.9484,37.88742984,127.73741479,173.503173828125,1.49
2026-03-20 17:53:46.520,13.421342,-9.700503,-1.416551,-0.6472876,1.2770892,3.5020115,-32.325,29.250002,17.6625,-0.20001228,0.7110134,-0.6728543,999.9423, , , , 
2026-03-20 17:53:46.540,12.988241,-9.262616,-2.656033,-1.2306634,2.1237478,3.2680502,-28.143751,30.187502,15.618751,-0.16860694,0.722617,-0.6685468,999.9423, , , , 
2026-03-20 17:53:46.560,13.371093,-9.21476,0.22731815,-1.7773874,2.6759696,3.1477098,-26.1375,34.256252,14.868751,-0.13312294,0.7375791,-0.6601945,999.93524, , , , 
2026-03-20 17:53:46.580,15.955341,-8.7984085,3.5557344,-1.4853941,1.8952843,2.8257842,-27.975,35.4375,16.06875,-0.097757004,0.7525002,-0.64968866,999.93524, , , , 
2026-03-20 17:53:46.600,18.465412,-8.26481,3.0795627,-0.8018364,0.5648208,2.1428373,-23.118752,36.9375,15.31875,-0.072199516,0.76210284,-0.6416967,999.956, , , , 
2026-03-20 17:53:46.623,19.424934,-8.023134,1.6438692,-0.45853037,-0.14683662,1.5283073,-25.687502,36.768753,17.60625,-0.059245065,0.7666261,-0.63719285,999.956, , , , 
2026-03-20 17:53:46.640,21.41337,-7.448857,2.1655045,-0.16959134,-0.4418843,0.7207441,-21.525002,36.956253,16.3875,-0.054564428,0.76889956,-0.6342719,999.9738, , , , 
2026-03-20 17:53:46.660,22.741386,-6.6257257,2.4023938,0.13584106,-0.23480114,-0.28779367,-21.54375,39.1875,17.8125,-0.057714123,0.7682805,-0.63473994,999.9738, , , , 
2026-03-20 17:53:46.680,20.295921,-6.2787666,1.3710874,0.40828675,0.13477205,-1.555949,-23.400002,37.875,17.625,-0.06696511,0.7653896,-0.6380814,999.9782, , , , 
2026-03-20 17:53:46.700,17.180466,-7.7503524,0.8422736,0.5603921,0.1702022,-2.5058436,-22.800001,39.43125,17.15625,-0.08222303,0.760638,-0.6430571,999.9782, , , , 
2026-03-20 17:53:46.720,14.287544,-9.915857,0.61016977,0.82734,-0.09430225,-3.0892196,-22.21875,37.875,17.025002,-0.103489764,0.7535686,-0.64903367,999.98505, , , , 
2026-03-20 17:53:46.740,13.66541,-11.370693,0.21774685,1.0319797,-0.4107302,-3.4844491,-27.525002,36.3375,17.5125,0.12965718,-0.7436201,0.6558723,999.98505, , , , 
2026-03-20 17:53:46.760,13.505091,-12.686746,0.18424734,1.0796272,-0.82734,-3.8949502,-29.41875,34.03125,15.843751,0.16021277,-0.73129374,0.6624246,999.98285, , , , 
2026-03-20 17:53:46.780,13.861622,-14.342579,0.79920274,1.0515274,-1.1834742,-4.301175,-30.093752,30.750002,15.337501,0.20487525,-0.7134324,0.6681494,999.98285, , , , 
2026-03-20 17:53:46.800,12.916456,-15.3356,1.0241281,0.99105173,-1.2366194,-4.6426487,-32.287502,29.268751,15.806251,0.24473017,-0.69705766,0.6702317,999.988, , , , 
2026-03-20 17:53:46.820,12.069397,-15.735202,0.9499506,0.8444442,-1.0466404,-4.858895,-34.575,25.931252,15.150001,0.28477716,-0.67915905,0.67018646,999.988, , , , 
2026-03-20 17:53:46.840,11.626725,-16.610975,2.440679,0.78457946,-1.1682025,-5.3451433,-36.2625,21.150002,15.281251,0.324691,-0.65983826,0.6676415,999.9897, , , , 
2026-03-20 17:53:46.860,8.810373,-17.266607,2.0267208,0.9244675,-1.3820052,-5.485642,-39.2625,16.612501,16.63125,0.3673242,-0.6374306,0.662749,999.9897, , , , 
2026-03-20 17:53:46.880,7.2023964,-16.015162,0.76331043,0.88048524,-1.2060761,-5.2266355,-41.71875,12.6,18.825,0.40914327,-0.61315084,0.6561981,1000.00824, , , , 
2026-03-20 17:53:46.900,7.025327,-14.124832,-2.268396,0.37896523,0.2618319,-4.711066,-44.100002,10.2375,19.518751,0.45137358,-0.58326,0.64798266,1000.00824, , , , 
2026-03-20 17:53:46.920,7.989635,-12.926028,-2.3186452,-0.19402592,1.5196025,-4.402579,-43.256252,5.71875,18.900002,0.4705354,-0.56140935,0.6437093,1000.00775, , , , 
2026-03-20 17:53:46.940,8.484949,-12.658031,-0.4331009,-0.24411684,1.5018874,-4.4538913,-45.693752,0.63750005,16.518751,0.48244178,-0.53983945,0.64000946,1000.00775, , , , 
2026-03-20 17:53:46.960,7.487142,-12.655639,-0.4019942,-0.011988222,0.7218131,-4.5455213,-46.237503,-2.7562501,15.843751,0.49707305,-0.51718444,0.63349843,999.99506, , , , 
2026-03-20 17:53:46.980,5.6853466,-12.177074,-1.4117653,-0.05535962,0.464639,-4.441674,-44.775,-4.96875,15.356251,0.5149118,-0.49450335,0.62363833,999.99506, , , , 
2026-03-20 17:53:47.000,3.9625144,-12.045469,-0.93320084,-0.26977316,0.762741,-4.1899977,-44.662502,-10.931251,15.675,0.5307192,-0.47273976,0.6125534,999.9936, , , , 
2026-03-20 17:53:47.021,1.8640088,-12.105289,0.17706887,-0.18425208,0.6912699,-3.7440665,-43.275,-15.243751,11.925,0.54467225,-0.44676423,0.59999216,999.9936, , , , 
2026-03-20 17:53:47.040,-0.10049855,-11.777473,-0.1698904,0.12912154,-0.108963005,-3.1466408,-42.487503,-17.681252,14.75625,0.5559978,-0.4284771,0.589867,999.9921, , , , 
2026-03-20 17:53:47.060,-0.89491564,-11.344372,-1.3447664,0.2598466,-0.5811615,-2.5247805,-41.5875,-21.1875,14.55,0.5661572,-0.4178633,0.5814763,999.9921, , , , 
2026-03-20 17:53:47.080,-1.6342978,-12.143575,-3.0532417,0.056428634,-0.14561489,-1.781358,-40.3875,-21.91875,12.618751,0.58061016,-0.40543514,0.56935704,999.99725, , , , 
2026-03-20 17:53:47.100,-3.1680973,-12.892529,-3.5533416,-0.27466008,0.49518228,-0.9744057,-39.99375,-24.13125,14.700001,0.58455735,-0.3989169,0.5648326,999.99725, , , , 
2026-03-20 17:53:47.120,-4.3645086,-12.722638,-3.711268,-0.45181087,0.52694726,-0.16378812,-39.018753,-25.275002,12.975,0.582425,-0.39650685,0.56455326,999.9958, , , , 
2026-03-20 17:53:47.140,-4.173083,-11.320444,-2.8905299,-0.53916454,0.3681224,0.69875294,-39.300003,-25.29375,12.39375,0.5767688,-0.39983764,0.56673974,999.9958, , , , 
2026-03-20 17:53:47.160,-2.4598217,-10.380065,-2.6129622,-0.58620113,0.3589594,1.4476732,-39.6375,-25.575,11.981251,0.568209,-0.40823728,0.57138836,999.9919, , , , 
2026-03-20 17:53:47.180,-0.79441714,-10.875379,-2.103291,-0.6252965,0.19463679,1.9858451,-39.61875,-24.075,10.96875,0.5538905,-0.4238776,0.57991725,999.9919, , , , 
2026-03-20 17:53:47.200,1.2658032,-12.583855,-1.3495519,-0.496404,-0.22747077,2.4898086,-41.100002,-22.612501,11.64375,0.54123485,-0.44044825,0.5875404,999.99384, , , , 
2026-03-20 17:53:47.220,3.397808,-13.734802,-1.2227324,-0.30153814,-0.7625883,2.956509,-44.1375,-22.087502,15.95625,0.52935714,-0.4603885,0.59502333,999.99384, , , , 
2026-03-20 17:53:47.240,4.989035,-14.3258295,-1.4117653,-0.14698933,-1.1156682,3.4323728,-44.2125,-18.45,11.587501,0.5183692,-0.48288542,0.60195535,999.99945, , , , 
2026-03-20 17:53:47.261,6.0801625,-14.507684,-1.6271194,-0.17814344,-0.89942205,3.806833,-43.8375,-14.325001,13.312501,0.5056805,-0.5067637,0.609288,999.99945, , , , 
2026-03-20 17:53:47.280,6.786045,-14.191831,-1.1485549,-0.2520581,-0.5457313,4.1574693,-44.925003,-12.431251,13.33125,0.49292699,-0.52491724,0.61585325,999.99896, , , , 
2026-03-20 17:53:47.300,8.145168,-13.155739,-0.51206404,-0.27832526,-0.35269806,4.466567,-45.24375,-8.981251,12.39375,0.46588242,-0.5548945,0.6281251,999.99896, , , , 
2026-03-20 17:53:47.320,8.9826565,-12.624533,-0.40677986,-0.27343833,-0.23907721,4.524599,-45.24375,-3.1312501,12.975,0.4352428,-0.58333045,0.6397409,999.9941, , , , 
2026-03-20 17:53:47.340,9.286545,-12.8518505,-0.37806597,-0.29542947,-0.22624904,4.596681,-42.956253,-1.40625,11.400001,0.40919846,-0.6045331,0.6478713,999.9941, , , , 
2026-03-20 17:53:47.360,9.68136,-13.18206,-0.02632105,-0.33757916,-0.13034327,4.787271,-46.143753,2.71875,15.20625,0.381584,-0.62494993,0.6547457,999.998, , , , 
2026-03-20 17:53:47.380,10.853844,-12.983456,0.634098,-0.5122865,0.54038626,4.9937434,-44.5125,8.606251,15.01875,0.35013452,-0.64453745,0.66106755,999.998, , , , 
2026-03-20 17:53:47.400,12.772887,-12.100504,0.8111669,-0.80061466,1.3510038,5.093314,-44.53125,11.3625,14.08125,0.31227362,-0.6630181,0.6672833,1000.0068, , , , 
2026-03-20 17:53:47.420,15.579668,-10.949556,2.1655045,-1.0284672,1.8317544,4.6223373,-41.2125,16.6875,11.7375,0.26925156,-0.68034357,0.67201644,1000.0068, , , , 
2026-03-20 17:53:47.440,14.407186,-9.293723,2.254039,-0.94600046,1.3241258,3.6840491,-39.9375,19.425001,12.225,0.22035338,-0.69756794,0.67459124,1000.0036, , , , 
2026-03-20 17:53:47.460,12.387643,-8.846265,1.8448663,-0.9362266,0.74991286,3.2301767,-37.631252,24.16875,9.8625,0.1973867,-0.70598507,0.6741443,1000.0036, , , , 
2026-03-20 17:53:47.480,11.133803,-8.973084,2.2612174,-0.8219949,0.37178758,3.0737953,-34.0875,26.5125,10.425,0.16616854,-0.718613,0.6712335,1000.0048, , , , 
2026-03-20 17:53:47.500,11.806187,-9.099904,2.2564318,-0.58375764,0.16898046,3.1165557,-35.30625,29.250002,11.475,0.1433295,-0.7268948,0.6690733,1000.0048,37.8874204,127.73742567,173.04638671875,1.51
2026-03-20 17:53:47.520,14.2133665,-8.267202,1.3998013,-0.32352927,-0.118125975,3.0267587,-33.862503,32.11875,12.093751,0.12223289,-0.73309326,0.66776514,1000.008, , , , 
2026-03-20 17:53:47.540,16.254444,-7.429714,0.26799613,-0.21662793,-0.23602287,2.7078872,-31.81875,32.831253,12.76875,0.10413412,-0.73746824,0.6668592,1000.008, , , , 
2026-03-20 17:53:47.560,17.97249,-7.420143,-0.20338993,-0.18303037,-0.55061823,2.2491279,-30.000002,34.518753,11.55,0.09005005,-0.74075764,0.6656492,1000.00287, , , , 
2026-03-20 17:53:47.580,19.740788,-6.350551,-0.19860429,-0.11400264,-0.7894664,1.6333761,-29.7,36.787502,12.31875,-0.08197244,0.7430446,-0.66418135,1000.00287, , , , 
2026-03-20 17:53:47.600,20.590239,-6.202196,-0.18664017,-0.14271328,-0.533514,0.74762213,-26.94375,37.65,15.69375,-0.07967261,0.74466664,-0.66243756,999.9931, , , , 
2026-03-20 17:53:47.620,21.186052,-6.2668023,0.148355,-0.1042288,-0.30260715,0.23510659,-27.7875,36.318752,15.39375,-0.080815434,0.74527395,-0.6615513,999.9931, , , , 
2026-03-20 17:53:47.640,22.205395,-6.6329045,0.5455636,-0.031535894,-0.25740314,-0.6964622,-24.300001,37.4625,12.637501,-0.087738074,0.7449922,-0.66109365,999.9826, , , , 
2026-03-20 17:53:47.660,21.72683,-7.757531,1.0241281,0.04421134,-0.46692976,-1.7538692,-25.48125,37.443752,13.5375,-0.10129343,0.74315107,-0.661382,999.9826, , , , 
2026-03-20 17:53:47.680,18.405592,-9.32483,1.7228323,0.020387612,-0.50602514,-2.6915467,-27.956251,36.9375,15.375001,0.12302373,-0.73968714,0.6615614,999.97894, , , , 
2026-03-20 17:53:47.700,14.366508,-11.672189,3.5988052,0.17982332,-0.40156722,-3.295081,-28.95,34.96875,15.431251,0.14912002,-0.73450077,0.6614785,999.97894, , , , 
2026-03-20 17:53:47.720,12.2584305,-13.134204,3.8620157,0.5640573,-0.47426015,-3.5192683,-30.975,32.025,14.418751,0.17693926,-0.726173,0.6626771,999.9948, , , , 
2026-03-20 17:53:47.740,12.119647,-13.574483,2.914458,0.8584941,-0.63858277,-3.6964192,-32.943752,31.181252,16.21875,0.21384822,-0.7110783,0.6659957,999.9948, , , , 
2026-03-20 17:53:47.763,12.674782,-13.27538,2.1702902,0.88292867,-0.61598074,-3.918163,-34.612503,27.69375,12.88125,0.2371512,-0.70030946,0.6678219,1000.0109, , , , 
2026-03-20 17:53:47.780,13.074383,-13.24188,1.6965113,0.75159276,-0.35330892,-4.4184613,-36.693752,25.48125,14.00625,0.27718887,-0.6803946,0.6689165,1000.0109, , , , 
2026-03-20 17:53:47.800,11.660225,-14.2133665,2.0482562,0.655687,-0.08025236,-4.8888273,-37.706253,21.88125,13.5375,0.30962852,-0.66235447,0.6676432,1000.0141, , , , 
2026-03-20 17:53:47.820,8.882157,-15.230316,2.309074,0.8108466,-0.07536544,-5.1179013,-40.143753,17.775002,13.575001,0.34235892,-0.64169025,0.6649613,1000.0141, , , , 
2026-03-20 17:53:47.840,7.436893,-15.026926,1.4141582,0.97700185,-0.10529782,-4.92609,-41.662502,14.64375,13.762501,0.37464276,-0.6186265,0.66164315,1000.0168, , , , 
2026-03-20 17:53:47.860,7.7072816,-14.344972,-0.39720857,0.86215925,0.24778202,-4.600499,-44.71875,9.712501,14.3625,0.4038535,-0.59466356,0.6581764,1000.0168, , , , 
2026-03-20 17:53:47.880,8.855837,-13.569697,-0.33020952,0.68928456,0.39683303,-4.4929867,-47.643753,6.1875005,15.01875,0.4341571,-0.5653481,0.6528259,1000.02045, , , , 
2026-03-20 17:53:47.900,8.446664,-13.234702,-0.15074782,0.60070914,0.1579849,-4.5803404,-45.318752,3.05625,14.343751,0.45705208,-0.5416997,0.6464813,1000.02045, , , , 
2026-03-20 17:53:47.920,7.60439,-13.464413,0.3493521,0.5909353,-0.393626,-4.632264,-45.975002,-0.8625,14.156251,0.48165143,-0.5182375,0.6368371,1000.00507, , , , 
2026-03-20 17:53:47.940,6.350551,-13.607983,1.1078769,0.7631992,-1.2121848,-4.586449,-47.268753,-5.83125,13.81875,0.50963426,-0.49544832,0.62334394,1000.00507, , , , 
2026-03-20 17:53:47.960,4.8119664,-13.143775,-0.14356937,0.8206205,-1.4443134,-4.4038005,-44.268753,-11.26875,14.887501,0.54046303,-0.4733785,0.6067502,999.998, , , , 
2026-03-20 17:53:47.980,2.0602202,-12.306287,-1.9645073,0.38812822,-0.6404154,-3.9560366,-43.93125,-14.3625,17.962502,0.5675549,-0.452013,0.5903291,999.998, , , , 
2026-03-20 17:53:48.000,-0.07178468,-11.653047,-1.861616,-0.011988222,0.07612903,-3.3140178,-43.575,-18.431252,18.31875,0.58585244,-0.43256667,0.5770677,999.99896, , , , 
2026-03-20 17:53:48.020,-1.402194,-10.829915,-1.2873386,-0.13660464,0.25266895,-2.5345542,-40.95,-19.1625,18.225,0.59861135,-0.41273773,0.56542486,999.99896, , , , 
2026-03-20 17:53:48.040,-1.5625132,-10.894522,-1.5553347,-0.099341884,0.091400646,-1.8845942,-38.23125,-24.206251,14.531251,0.6051986,-0.40108714,0.5585375,999.9899, , , , 
2026-03-20 17:53:48.061,-1.5218352,-11.102697,-1.8783658,-0.09628756,-0.06314815,-1.2798381,-38.662502,-25.500002,15.88125,0.61025196,-0.39361432,0.55299413,999.9899, , , , 
2026-03-20 17:53:48.080,-1.7994026,-11.124232,-2.2037897,-0.17264566,-0.14744748,-0.6634755,-39.206253,-25.81875,18.112501,0.6135911,-0.39039177,0.5488221,999.9902, , , , 
2026-03-20 17:53:48.100,-2.5986054,-10.813166,-2.1870399,-0.23128867,-0.053985175,0.039629854,-37.93125,-26.062502,17.23125,0.61424166,-0.3913936,0.5468634,999.9902, , , , 
2026-03-20 17:53:48.120,-2.3784657,-10.8682,-2.5148566,-0.33024877,0.09078978,0.98158336,-37.331253,-27.487501,17.1,0.6110993,-0.3967661,0.54837614,999.9858, , , , 
2026-03-20 17:53:48.140,-0.9954142,-10.920842,-2.333002,-0.4615847,0.18669555,1.8129703,-37.59375,-25.893751,16.725,0.6035829,-0.4072616,0.5534741,999.9858, , , , 
2026-03-20 17:53:48.160,1.5314065,-11.054841,-1.119841,-0.54221886,0.21968225,2.4592652,-40.425003,-26.175001,15.95625,0.5917169,-0.42256138,0.5614835,999.9853, , , , 
2026-03-20 17:53:48.180,3.9840498,-11.641082,0.17228323,-0.3278053,0.01687514,2.9064183,-40.612503,-22.087502,15.281251,0.5732294,-0.4455849,0.57399625,999.9853, , , , 
2026-03-20 17:53:48.200,5.2977095,-12.100504,-0.10767702,-0.011988222,-0.2512945,3.1910813,-42.768753,-21.9375,15.0375,0.5585782,-0.4649469,0.5847751,999.99457, , , , 
2026-03-20 17:53:48.220,6.142376,-12.514462,-1.2131611,0.13095413,-0.3191005,3.4940703,-41.30625,-17.681252,14.475,0.54413635,-0.48461288,0.59584635,999.99457, , , , 
2026-03-20 17:53:48.240,7.183254,-12.564712,-1.550549,0.06253728,-0.27084216,3.8251588,-42.506252,-12.69375,14.793751,0.52775323,-0.50502527,0.60720587,999.998, , , , 
2026-03-20 17:53:48.260,7.920243,-12.282358,-0.99302137,0.014278964,-0.30382887,3.9943686,-46.350002,-10.5,16.7625,0.50916237,-0.5262659,0.6179786,999.998, , , , 
2026-03-20 17:53:48.280,8.635697,-11.801401,-0.3900301,0.0240528,-0.3013854,4.134867,-44.11875,-6.6562505,17.23125,0.48905754,-0.54740506,0.6278989,999.9904, , , , 
2026-03-20 17:53:48.300,9.504292,-11.387443,-0.09092726,0.07536544,-0.29894194,4.1617455,-44.71875,-3.9750001,15.750001,0.46778968,-0.56760895,0.6371092,999.9904, , , , 
2026-03-20 17:53:48.320,9.322437,-11.267802,-0.10049855,0.12179117,-0.20181446,4.1910667,-46.256252,-0.54375005,18.1875,0.44035164,-0.5907273,0.64749396,999.9909, , , , 
2026-03-20 17:53:48.340,9.052048,-11.327622,-0.7178468,0.01244637,0.20746495,4.3560004,-45.3375,4.5375004,15.806251,0.41566038,-0.60795385,0.6555971,999.9909, , , , 
2026-03-20 17:53:48.360,9.891929,-11.473584,-0.66999036,-0.28382304,0.817108,4.6883106,-45.91875,6.95625,17.8875,0.3854925,-0.6255007,0.6635292,999.9953, , , , 
2026-03-20 17:53:48.380,13.409378,-10.686346,-0.4235296,-0.73097605,1.747455,4.7774973,-43.706253,11.306251,16.63125,0.34833163,-0.64377207,0.67087287,999.9953, , , , 
2026-03-20 17:53:48.400,14.770894,-10.317851,0.5886344,-0.96554816,1.9966879,4.375548,-43.612503,17.41875,15.337501,0.3062825,-0.66141224,0.6766556,999.9848, , , , 
2026-03-20 17:53:48.420,14.660825,-10.061819,0.7393822,-0.9863175,1.4554617,3.8892996,-42.693752,20.38125,13.687501,0.26691887,-0.67703015,0.6795486,999.9848, , , , 
2026-03-20 17:53:48.440,13.85205,-9.190832,1.1437693,-0.9405027,0.6888264,3.4103818,-38.8875,23.15625,11.90625,0.23467156,-0.6906811,0.67930263,999.9804, , , , 
2026-03-20 17:53:48.460,12.662817,-8.322237,1.4069797,-1.0467931,0.50923216,3.0493605,-39.018753,24.0,12.4875,0.2093774,-0.7028055,0.6766188,999.9804, , , , 
2026-03-20 17:53:48.480,12.193824,-8.484949,3.9242291,-1.1567488,1.0217477,2.90764,-37.443752,28.275002,13.14375,0.17889248,-0.71735585,0.67125845,999.9726, , , , 
2026-03-20 17:53:48.500,13.624732,-8.3581295,5.8839507,-0.68638295,1.2062289,2.8343363,-35.325,30.73125,12.7875,0.15207598,-0.7265931,0.6684426,999.9726,37.88741074,127.73743669,172.87701416015625,1.53
2026-03-20 17:53:48.520,16.4028,-7.1449685,2.009971,-0.05108357,1.1787399,2.528293,-34.95,32.5125,12.0375,0.12660632,-0.73076916,0.6695858,999.99066, , , , 
2026-03-20 17:53:48.540,18.12324,-6.202196,-1.9046868,-0.0712421,1.038241,2.0365467,-34.518753,31.800001,12.95625,0.104869045,-0.73219115,0.6720219,999.99066, , , , 
2026-03-20 17:53:48.560,19.726429,-5.0273204,-2.3162522,-0.4566978,0.83054703,1.3755912,-31.087502,34.162502,10.9125,0.08800446,-0.7346858,0.67179567,999.99725, , , , 
2026-03-20 17:53:48.580,19.223938,-4.8909297,-0.5024927,-0.735863,0.60330534,0.6089558,-31.3875,35.49375,10.556251,0.07769332,-0.7388868,0.66832453,999.99725, , , , 
2026-03-20 17:53:48.600,18.348164,-5.3623157,2.143969,-0.53549933,0.23861906,-0.030619597,-31.35,34.893753,8.887501,0.07379742,-0.74399185,0.66267157,999.95966, , , , 
2026-03-20 17:53:48.620,18.738194,-5.4149575,3.4839497,-0.0040469794,-0.4266127,-0.53824824,-30.487501,37.0875,10.368751,0.078024514,-0.7450076,0.66068107,999.95966, , , , 
2026-03-20 17:53:48.640,19.558931,-5.831309,3.1513474,0.597044,-1.1895828,-1.3482549,-31.3875,34.875,11.83125,0.09183545,-0.7418583,0.66217834,999.9626, , , , 
2026-03-20 17:53:48.660,17.77628,-7.34118,1.6797615,0.9030872,-1.6336815,-2.2437828,-32.49375,34.3875,10.89375,0.11635084,-0.7349234,0.6657202,999.9626, , , , 
2026-03-20 17:53:48.681,14.88575,-9.695718,1.2658032,0.8914808,-1.6599487,-2.8625886,-30.2625,35.25,9.525001,0.1474832,-0.72595805,0.66881377,999.98016, , , , 
2026-03-20 17:53:48.700,14.036298,-11.375479,1.6701902,0.8841504,-1.4864631,-3.1454191,-34.0875,32.475002,12.093751,0.18054338,-0.71576196,0.67082334,999.98016, , , , 
2026-03-20 17:53:48.720,14.026727,-12.602997,1.294517,0.81695527,-1.2732713,-3.47101,-34.6875,30.91875,12.243751,0.21377037,-0.7041123,0.6720739,999.9831, , , , 
2026-03-20 17:53:48.740,13.990834,-13.646268,1.038485,0.5915462,-1.1016183,-3.8931177,-37.068752,28.556252,12.7875,0.25573146,-0.6882043,0.67125803,999.9831, , , , 
2026-03-20 17:53:48.760,14.254045,-14.383257,2.1774685,0.416228,-1.229289,-4.326832,-38.15625,23.962502,13.012501,0.28191584,-0.6781905,0.6687203,999.9841, , , , 
2026-03-20 17:53:48.780,10.805987,-14.880964,4.0414777,0.62514377,-1.5695407,-4.8063602,-39.1875,22.48125,13.200001,0.33084363,-0.65849507,0.6612889,999.9841, , , , 
2026-03-20 17:53:48.800,9.006584,-14.301901,3.8165522,0.82734,-1.1504874,-4.6866307,-40.256252,15.7875,13.70625,0.3701114,-0.6391564,0.65519226,999.9897, , , , 
2026-03-20 17:53:48.823,8.860622,-13.191631,0.2847459,0.6642391,0.22579089,-4.3640943,-44.081253,9.50625,17.550001,0.4101103,-0.61213726,0.6502616,999.9897, , , , 
2026-03-20 17:53:48.840,9.533006,-12.701102,-1.4979069,0.20853396,1.3216823,-4.2132106,-44.11875,5.53125,16.237501,0.42610982,-0.5960228,0.6486646,1000.0185, , , , 
2026-03-20 17:53:48.860,10.052248,-12.8518505,-0.43070808,-0.05780308,1.6087887,-4.279795,-47.60625,1.95,15.093751,0.44014126,-0.5750529,0.64670473,1000.0185, , , , 
2026-03-20 17:53:48.880,9.444471,-13.531412,1.0504491,0.14072797,0.60635966,-4.5400233,-47.4375,-0.13125001,14.26875,0.45907992,-0.5480797,0.6403959,1000.0019, , , , 
2026-03-20 17:53:48.900,7.786245,-13.655839,1.294517,0.35941756,-0.07108939,-4.641427,-46.631252,-5.025,12.76875,0.480873,-0.52566737,0.63069725,1000.0019, , , , 
2026-03-20 17:53:48.920,6.1232333,-13.296915,1.1030912,0.44127345,-0.22685991,-4.5210867,-44.475002,-9.637501,11.418751,0.5047148,-0.5027593,0.61883587,1000.0046, , , , 
2026-03-20 17:53:48.940,4.8646083,-12.68196,0.60059845,0.44616038,-0.057650365,-4.2510843,-46.8375,-12.39375,14.137501,0.5268667,-0.47978845,0.6067975,1000.0046, , , , 
2026-03-20 17:53:48.960,4.1778684,-12.000006,0.083748795,0.39484772,0.15615231,-3.9407651,-45.46875,-16.59375,12.993751,0.5454926,-0.45713362,0.59577954,1000.0009, , , , 
2026-03-20 17:53:48.980,2.428715,-10.992627,-0.4761717,0.40828675,0.21968225,-3.5626397,-42.300003,-18.375,12.3,0.56110007,-0.43515843,0.5857483,1000.0009, , , , 
2026-03-20 17:53:49.000,0.863809,-10.169497,-1.5026926,0.3514763,0.20257804,-3.1124325,-41.34375,-23.53125,15.281251,0.57464755,-0.41471893,0.5764037,999.9958, , , , 
2026-03-20 17:53:49.021,-0.5814559,-9.891929,-1.9334008,0.22808164,0.24350597,-2.6121342,-38.04375,-25.425001,13.968751,0.5855114,-0.3971097,0.5680045,999.9958, , , , 
2026-03-20 17:53:49.040,-1.6247265,-9.60479,-1.5026926,0.1663843,0.18425208,-1.7874666,-36.956253,-25.06875,15.375001,0.59473455,-0.38067603,0.55993396,999.9897, , , , 
2026-03-20 17:53:49.060,-2.3258235,-9.583255,-1.9166509,0.20059273,0.092011504,-1.1552217,-36.300003,-27.73125,14.062501,0.59964544,-0.37174037,0.55598915,999.9897, , , , 
2026-03-20 17:53:49.080,-2.4143581,-10.241281,-2.7876384,0.12056944,-0.046043932,-0.44539678,-36.73125,-29.025002,14.793751,0.6028156,-0.36721352,0.55400383,999.9875, , , , 
2026-03-20 17:53:49.100,-2.132005,-10.554741,-2.8929226,-0.12194388,-0.08269582,0.4550179,-35.41875,-29.8875,13.781251,0.6033185,-0.36846155,0.5540271,999.9875, , , , 
2026-03-20 17:53:49.120,-1.3567305,-10.593026,-2.8402805,-0.32352927,0.010155627,1.2686898,-38.006252,-30.281252,14.700001,0.59982365,-0.37557045,0.5569021,999.9838, , , , 
2026-03-20 17:53:49.140,-0.5096712,-10.066605,-2.4023938,-0.55504704,0.08590286,2.013334,-36.80625,-28.66875,14.625001,0.5918984,-0.38797274,0.5627661,999.9838, , , , 
2026-03-20 17:53:49.162,2.0793629,-10.210175,-1.2227324,-0.7456368,0.11155918,2.6345835,-40.0875,-25.3875,14.94375,0.57616085,-0.40992448,0.5730597,999.97626, , , , 
2026-03-20 17:53:49.180,3.8476589,-11.050055,0.0,-0.63690287,-0.057650365,3.0175958,-40.800003,-26.7,14.475,0.56458974,-0.42530897,0.580169,999.97626, , , , 
2026-03-20 17:53:49.200,5.5633125,-12.289537,0.35413775,-0.30825764,-0.46876237,3.332191,-41.53125,-22.425001,14.156251,0.5452998,-0.45264873,0.59255105,999.96893, , , , 
2026-03-20 17:53:49.220,6.1328044,-12.969099,-0.44985065,-0.04864011,-0.76197743,3.6186867,-43.631252,-21.150002,14.775001,0.53486484,-0.46962577,0.5998208,999.96893, , , , 
2026-03-20 17:53:49.240,7.1449685,-13.454842,-1.5720844,-0.014431681,-0.7974076,4.160524,-43.21875,-17.737501,13.44375,0.516961,-0.49911025,0.61191887,999.96796, , , , 
2026-03-20 17:53:49.260,8.267202,-13.339986,-1.0983056,-0.08834632,-0.57260936,4.496499,-42.225002,-13.425,14.94375,0.49891,-0.52398485,0.6219346,999.96796, , , , 
2026-03-20 17:53:49.280,9.123833,-12.926028,-0.09571291,-0.102396205,-0.18226677,4.7976556,-46.987503,-9.95625,18.487501,0.47611704,-0.54853606,0.63283396,999.96844, , , , 
2026-03-20 17:53:49.301,9.54497,-12.875778,0.047856454,-0.07918335,0.2483929,4.989467,-44.71875,-4.7250004,15.01875,0.4418397,-0.57707745,0.6474294,999.96844, , , , 
2026-03-20 17:53:49.320,9.346365,-13.141382,0.30388847,-0.08223767,0.473802,5.121414,-44.4375,-1.3125,13.406251,0.41020378,-0.5979526,0.6592285,999.9736, , , , 
2026-03-20 17:53:49.340,9.80818,-13.514663,0.25124636,-0.022983788,0.56848603,5.3456016,-44.831253,3.99375,13.931251,0.37562558,-0.61735004,0.6704724,999.9736, , , , 
2026-03-20 17:53:49.360,11.854043,-12.916456,0.04546363,-0.03581195,0.85253817,5.4989285,-42.99375,7.9125004,12.731251,0.3378345,-0.63520837,0.6809454,999.9711, , , , 
2026-03-20 17:53:49.380,14.584254,-11.968899,-0.3900301,-0.15737404,0.99425876,5.296121,-45.206253,13.031251,13.293751,0.2981849,-0.65099466,0.68974024,999.9711, , , , 
2026-03-20 17:53:49.400,16.060625,-10.432707,0.11485548,-0.34857473,0.988761,4.5636945,-42.412502,16.6875,12.7875,0.26022804,-0.6647969,0.6953815,999.9682, , , , 
2026-03-20 17:53:49.420,15.613168,-9.487542,0.25124636,-0.47991064,0.89896387,3.9143453,-40.18125,21.65625,10.25625,0.22704843,-0.6763376,0.6979569,999.9682, , , , 
2026-03-20 17:53:49.440,14.703896,-9.056833,0.39960137,-0.6460659,0.67905253,3.065854,-38.30625,25.837502,9.825001,0.19905792,-0.6863091,0.69795847,999.9643, , , , 
2026-03-20 17:53:49.461,12.361321,-9.365508,0.22971097,-0.8904118,0.28076872,2.4384959,-36.975002,29.587502,10.40625,0.1729872,-0.69774216,0.69441384,999.9643, , , , 
2026-03-20 17:53:49.480,11.41855,-9.614362,1.6701902,-1.0162499,0.29726207,2.3175447,-36.675003,30.35625,10.181251,0.15613015,-0.7072988,0.6891316,999.96014, , , , 
2026-03-20 17:53:49.500,11.100305,-9.15494,3.141776,-0.8598685,0.38583747,2.2540147,-34.631252,31.181252,11.45625,0.1392305,-0.71615696,0.68381244,999.96014,37.88740056,127.73744869,172.97222900390625,1.61
2026-03-20 17:53:49.520,11.806187,-8.386844,3.5509489,-0.48540843,0.22945608,2.1801,-32.23125,32.175003,12.075001,0.12281963,-0.72265184,0.68020964,999.96234, , , , 
2026-03-20 17:53:49.540,14.050654,-8.276773,2.2157538,-0.037644543,-0.06498074,2.0622032,-30.7875,34.29375,12.58125,-0.10853768,0.72605515,-0.6789626,999.96234, , , , 
2026-03-20 17:53:49.560,16.570297,-7.5661054,1.146162,0.26106834,-0.55550516,1.710345,-28.725,35.53125,9.50625,-0.09806379,0.72681206,-0.6794969,999.9782, , , , 
2026-03-20 17:53:49.580,18.178274,-6.4701924,-0.14117654,0.33864817,-0.9818888,1.0634392,-27.431252,36.393753,12.093751,-0.09444783,0.725429,-0.6810215,999.9782, , , , 
2026-03-20 17:53:49.600,18.568304,-5.9916277,0.078963146,0.21952952,-0.9971604,0.30841035,-27.675001,37.350002,12.543751,-0.099407636,0.722917,-0.6823715,999.9731, , , , 
2026-03-20 17:53:49.620,18.958334,-5.9557357,0.7680961,0.2409098,-0.8053489,-0.27068946,-26.23125,37.36875,13.312501,-0.10549683,0.7212263,-0.68306226,999.9731, , , , 
2026-03-20 17:53:49.640,18.900906,-5.5633125,0.59342,0.3099375,-0.50541425,-1.1527781,-26.831251,37.0875,11.231251,-0.11967542,0.7169379,-0.6854491,999.9587, , , , 
2026-03-20 17:53:49.660,17.044075,-6.695118,-0.014356935,0.25618142,-0.45898852,-2.002491,-26.062502,35.90625,12.3,-0.13587706,0.71226335,-0.68786085,999.9587, , , , 
2026-03-20 17:53:49.680,14.376079,-8.599805,0.9236295,0.19326234,-0.8652136,-2.6683338,-26.868752,37.068752,12.618751,-0.15758848,0.7068346,-0.689351,999.95306, , , , 
2026-03-20 17:53:49.700,13.820944,-10.234102,2.495714,0.38568476,-1.355738,-3.0837219,-30.487501,33.581253,12.431251,-0.18516992,0.69970804,-0.6899972,999.95306, , , , 
2026-03-20 17:53:49.720,13.768302,-11.576476,2.3234308,0.55489427,-1.4950151,-3.4966664,-29.962502,31.781252,11.08125,0.21766841,-0.68946815,0.69078857,999.94403, , , , 
2026-03-20 17:53:49.740,13.983656,-12.622139,0.7537391,0.42111492,-1.2421172,-3.9303803,-30.6375,30.075,13.875001,0.2610859,-0.6736279,0.6908657,999.94403, , , , 
2026-03-20 17:53:49.760,14.127225,-13.091133,0.6795616,0.15966478,-1.1077269,-4.310338,-34.6875,25.29375,14.56875,0.28742346,-0.6637275,0.6892242,999.9616, , , , 
2026-03-20 17:53:49.780,14.297115,-13.92862,1.0959128,-0.08590286,-1.0796272,-4.925479,-36.037502,23.775002,15.88125,0.33325812,-0.64618176,0.68271375,999.9616, , , , 
2026-03-20 17:53:49.800,11.624332,-15.531812,2.2061825,-0.1268308,-1.1046726,-5.4654837,-37.631252,19.63125,16.9125,0.37247333,-0.629512,0.6743469,999.96674, , , , 
2026-03-20 17:53:49.820,9.425328,-16.264015,2.2205393,-0.0730747,-0.73326683,-5.4196687,-39.9375,16.1625,17.34375,0.40151414,-0.61519516,0.6671752,999.96674, , , , 
2026-03-20 17:53:49.840,8.415557,-14.854643,1.105484,0.008781182,0.077961616,-4.976181,-41.662502,10.743751,19.5375,0.4425128,-0.5893027,0.65652025,999.9892, , , , 
2026-03-20 17:53:49.860,9.188439,-13.387843,-0.80877405,-0.16042836,1.0687842,-4.6402054,-44.2125,5.4750004,21.65625,0.46615645,-0.56776315,0.6505745,999.9892, , , , 
2026-03-20 17:53:49.880,9.458828,-12.614961,-0.44745782,-0.2984838,1.6448298,-4.563236,-42.35625,3.4687502,16.78125,0.48458585,-0.5404829,0.6455012,999.9799, , , , 
2026-03-20 17:53:49.900,7.9537425,-12.47857,0.48095736,-0.090178914,1.1451424,-4.626766,-44.4375,-1.0875001,16.331251,0.497406,-0.51715446,0.6406402,999.9799, , , , 
2026-03-20 17:53:49.920,6.0801625,-12.327823,0.35653058,0.16149737,0.4634173,-4.514978,-46.59375,-6.0375004,15.918751,0.51379836,-0.49315628,0.63280255,999.9858, , , , 
2026-03-20 17:53:49.940,4.723432,-11.75833,0.11006984,0.28977898,0.11950042,-4.246197,-45.318752,-7.65,15.562501,0.532157,-0.46978945,0.62274843,999.9858, , , , 
2026-03-20 17:53:49.960,3.5892339,-11.222338,-0.5240282,0.29100072,0.12744166,-3.9169414,-44.362503,-11.53125,16.7625,0.5497238,-0.44744137,0.61209965,999.99164, , , , 
2026-03-20 17:53:49.980,1.7563318,-10.963913,-1.2083755,0.17676899,0.18303037,-3.412978,-42.675003,-15.075001,13.556251,0.56447554,-0.42662486,0.6020102,999.99164, , , , 
2026-03-20 17:53:50.000,1.1126626,-11.162518,-0.91166544,0.099800035,-0.015500694,-2.8650322,-41.456253,-18.956251,16.893751,0.57647413,-0.408922,0.5924405,999.9887, , , , 
2026-03-20 17:53:50.022,0.28953153,-10.815558,-0.51445687,0.17127122,-0.29955283,-2.2095742,-39.525,-20.362501,14.75625,0.5895599,-0.39225167,0.5809843,999.9887, , , , 
2026-03-20 17:53:50.040,-0.5982057,-10.334601,-1.3639089,0.13767365,-0.14989094,-1.6316962,-38.100002,-24.075,16.518751,0.59827894,-0.38264087,0.57348603,999.99164, , , , 
2026-03-20 17:53:50.061,-1.98365,-10.84188,-1.9525433,-0.037033677,0.12133302,-0.968297,-35.850002,-24.69375,14.156251,0.60289,-0.37599775,0.56924504,999.99164, , , , 
2026-03-20 17:53:50.080,-1.8448663,-11.535798,-1.8305093,-0.10545053,-0.0112246405,-0.18455753,-37.275,-25.85625,16.21875,0.60367745,-0.37410307,0.56796867,999.9926, , , , 
2026-03-20 17:53:50.100,-1.3112668,-10.96152,-2.1128623,-0.14332415,-0.2164752,0.5625301,-38.90625,-26.643751,16.275002,0.60264665,-0.37779826,0.5684905,999.9926, , , , 
2026-03-20 17:53:50.120,0.10289137,-10.4566345,-2.457429,-0.30153814,-0.1333976,1.3077852,-38.362503,-24.712502,15.187501,0.59925425,-0.38644123,0.5708906,999.9941, , , , 
2026-03-20 17:53:50.140,1.1485549,-10.317851,-2.009971,-0.5153408,0.046807513,1.8850523,-39.54375,-25.462502,16.125,0.5919347,-0.3990501,0.5757035,999.9941, , , , 
2026-03-20 17:53:50.160,2.8666015,-10.892129,-1.1294123,-0.5953641,0.055970486,2.3578618,-40.96875,-23.1375,15.993751,0.5807195,-0.4150982,0.5825424,999.98846, , , , 
2026-03-20 17:53:50.181,4.168297,-11.985648,-0.53599226,-0.47685632,-0.15355614,2.7610323,-40.518753,-21.6,16.3125,0.5640396,-0.43843636,0.5925025,999.98846, , , , 
2026-03-20 17:53:50.200,4.955536,-12.734602,-0.4977071,-0.34246606,-0.39118254,3.1147232,-39.318752,-19.44375,13.293751,0.55031985,-0.45901763,0.6006415,999.9899, , , , 
2026-03-20 17:53:50.220,5.6949177,-13.160524,-0.72502524,-0.28260133,-0.36430448,3.4702466,-41.831253,-16.612501,14.775001,0.5355983,-0.48083714,0.60907686,999.9899, , , , 
2026-03-20 17:53:50.240,6.2548385,-13.225131,-0.8422736,-0.29115343,-0.08758274,3.8801367,-42.2625,-13.781251,13.275001,0.51782966,-0.50321263,0.6186366,999.986, , , , 
2026-03-20 17:53:50.261,6.8506513,-13.052848,-0.57906306,-0.33208138,0.1042288,4.2252755,-42.75,-9.50625,15.562501,0.49604556,-0.5258785,0.62933934,999.986, , , , 
2026-03-20 17:53:50.281,7.798209,-12.691531,0.083748795,-0.3107011,0.1683696,4.4134216,-43.3125,-6.5625005,14.512501,0.47741428,-0.54296714,0.63759565,999.98505, , , , 
2026-03-20 17:53:50.300,9.243474,-12.1148615,0.2943172,-0.14271328,0.13232858,4.495888,-41.4375,-3.35625,10.743751,0.4441534,-0.57003766,0.65102434,999.98505, , , , 
2026-03-20 17:53:50.320,9.635897,-11.997613,-0.29910284,-0.031535894,0.08834632,4.5435357,-44.268753,-0.54375005,12.731251,0.41054183,-0.5941108,0.66313773,999.9809, , , , 
2026-03-20 17:53:50.340,10.033105,-12.179467,-0.8997013,-0.087124586,0.15493058,4.651659,-44.550003,6.1312504,13.931251,0.38279134,-0.6119851,0.6714773,999.9809, , , , 
2026-03-20 17:53:50.360,10.9375925,-11.818151,-1.4907285,-0.30459246,0.37606362,4.844692,-40.10625,8.475,12.39375,0.35250068,-0.629668,0.67829406,999.9709, , , , 
2026-03-20 17:53:50.380,13.299308,-11.339586,-0.8709874,-0.78228873,0.64789844,4.735958,-42.525,12.450001,12.731251,0.31892043,-0.64805806,0.68249553,999.9709, , , , 
2026-03-20 17:53:50.400,14.184652,-10.700703,-0.040677983,-0.9197333,0.4249328,4.3187375,-40.29375,17.643751,12.675,0.2857323,-0.6660683,0.68327075,999.9631, , , , 
2026-03-20 17:53:50.423,13.497912,-9.9756775,0.54317075,-1.0364084,0.24228424,3.9027388,-38.943752,22.893751,12.543751,0.24971946,-0.686356,0.68021035,999.9631, , , , 
2026-03-20 17:53:50.440,13.138989,-9.379865,1.3710874,-1.0504583,0.31497714,3.7084837,-37.143753,23.306252,14.94375,0.22966947,-0.69752926,0.67706543,999.96454, , , , 
2026-03-20 17:53:50.461,13.280166,-8.867801,2.0793629,-0.88247055,0.21601705,3.5343874,-35.5875,25.837502,13.556251,0.20377241,-0.71076727,0.67259747,999.96454, , , , 
2026-03-20 17:53:50.480,14.304294,-8.228917,1.4333007,-0.71753705,0.2410625,3.3291366,-33.018753,29.081251,13.25625,0.17382438,-0.72398436,0.6675042,999.98334, , , , 
2026-03-20 17:53:50.500,15.471992,-7.628319,1.5816557,-0.5629883,0.16042836,3.0957863,-33.28125,30.91875,15.50625,-0.1512795,0.73245966,-0.6637521,999.98334,37.88739088,127.73746043,173.08013916015625,1.51
2026-03-20 17:53:50.520,17.491533,-7.066005,1.1772687,-0.2984838,-0.23480114,2.70972,-31.06875,32.381252,15.337501,-0.1325016,0.73846906,-0.66076297,999.99164, , , , 
2026-03-20 17:53:50.540,19.762321,-6.652047,0.63888365,-0.05902481,-0.63552845,2.0457098,-28.10625,35.30625,13.462501,-0.1200574,0.74178845,-0.65874654,999.99164, , , , 
2026-03-20 17:53:50.561,21.588045,-6.02752,0.31345975,2.290743E-4,-0.60559607,1.3138938,-25.893751,37.143753,16.5375,-0.113985,0.74303776,-0.65760815,999.9921, , , , 
2026-03-20 17:53:50.580,22.750957,-5.2833524,0.9810573,0.0112246405,-0.23907721,0.4250855,-26.5125,36.206253,16.35,-0.112843245,0.74321777,-0.65713096,999.9921, , , , 
2026-03-20 17:53:50.600,22.482962,-5.1254263,1.4404793,0.13400847,0.42126763,-0.7074578,-25.425001,36.3375,14.062501,-0.11683815,0.7417258,-0.6585861,999.9831, , , , 
2026-03-20 17:53:50.620,20.11646,-5.6183476,1.2251252,0.32032222,0.6729439,-1.7538692,-24.54375,37.893753,15.88125,-0.12449604,0.738378,-0.66193676,999.9831, , , , 
2026-03-20 17:53:50.640,17.051254,-7.2550383,0.41635114,0.48769918,0.40721774,-2.6011386,-25.968752,36.525,13.63125,-0.13853772,0.73237205,-0.666544,999.9804, , , , 
2026-03-20 17:53:50.660,14.986248,-9.640682,0.3062813,0.53840095,-0.04054615,-3.1374779,-28.29375,35.175003,13.650001,0.15932105,-0.7242851,0.67077076,999.9804, , , , 
2026-03-20 17:53:50.680,13.808979,-11.16491,0.95473623,0.6227003,-0.3814087,-3.4887252,-30.112501,31.987501,14.175,0.18516782,-0.7144682,0.6740048,999.96893, , , , 
2026-03-20 17:53:50.700,13.30888,-12.050255,1.4620147,0.68256503,-0.46021026,-3.76056,-30.862501,31.181252,13.837501,0.21379635,-0.70278853,0.676497,999.96893, , , , 
2026-03-20 17:53:50.720,13.847264,-13.055241,1.8640088,0.75098187,-0.610483,-4.0775986,-35.8875,27.300001,13.968751,0.24433365,-0.6891687,0.6781309,999.9611, , , , 
2026-03-20 17:53:50.740,13.710874,-13.945371,1.8903298,0.7919098,-0.6660717,-4.4092984,-38.04375,25.331251,14.45625,0.27741137,-0.6732992,0.67851585,999.9611, , , , 
2026-03-20 17:53:50.760,13.119846,-14.136796,1.5314065,0.77969253,-0.49808386,-4.6487575,-40.48125,22.81875,16.25625,0.31142905,-0.65527266,0.67757255,999.9604, , , , 
2026-03-20 17:53:50.780,12.466606,-14.187045,0.6939186,0.6172025,-0.13767365,-4.9181485,-42.018753,18.9375,16.63125,0.35245764,-0.63033015,0.67436904,999.9604, , , , 
2026-03-20 17:53:50.800,10.693524,-14.471791,1.0887343,0.4993056,0.12255475,-5.1197343,-43.125,13.2375,14.137501,0.38322198,-0.6088263,0.669748,999.9545, , , , 
2026-03-20 17:53:50.820,7.6402826,-14.239688,0.97866446,0.4889209,0.52450377,-4.89066,-45.581253,8.493751,16.21875,0.4110313,-0.5857832,0.6643774,999.9545, , , , 
2026-03-20 17:53:50.840,7.999206,-13.519448,-0.047856454,0.38751733,1.0718386,-4.4117417,-45.075,2.8500001,13.70625,0.43283573,-0.5624512,0.6599356,999.9555, , , , 
2026-03-20 17:53:50.860,9.276974,-12.897314,0.09332009,0.32215482,1.2783109,-4.231537,-43.78125,0.375,12.168751,0.4483977,-0.5395292,0.6564264,999.9555, , , , 
2026-03-20 17:53:50.880,9.343972,-12.626925,0.6364908,0.45287988,0.8562033,-4.3897505,-48.05625,-3.3000002,13.44375,0.46281892,-0.51601595,0.65190756,999.94476, , , , 
2026-03-20 17:53:50.900,7.085148,-12.870993,0.24885355,0.5579486,0.27221662,-4.4807696,-44.86875,-7.3125005,10.087501,0.48554602,-0.48546845,0.64197814,999.94476, , , , 
2026-03-20 17:53:50.920,5.0392847,-12.940385,0.5910272,0.6410262,-0.118125975,-4.2242064,-45.0,-11.55,10.650001,0.5059048,-0.46182406,0.63109714,999.94965, , , , 
2026-03-20 17:53:50.940,3.723232,-12.270394,0.27996024,0.73387766,-0.27328563,-3.8540223,-42.80625,-14.45625,11.681251,0.52604747,-0.43958566,0.6195738,999.94965, , , , 
2026-03-20 17:53:50.960,1.8592232,-11.454442,-0.83748794,0.6795107,-0.12056944,-3.4514623,-41.643753,-17.306252,11.868751,0.5442774,-0.41857725,0.6086586,999.95355, , , , 
2026-03-20 17:53:50.983,-0.08135597,-11.3371935,-2.2564318,0.43638653,0.05108357,-2.8137195,-41.04375,-22.35,11.625,0.5616527,-0.39513358,0.5971729,999.95355, , , , 
2026-03-20 17:53:51.000,-0.8039884,-11.940185,-2.4239295,0.2164752,-0.20670137,-2.292041,-38.4,-23.081251,11.231251,0.5697419,-0.38424578,0.5907568,999.9526, , , , 
2026-03-20 17:53:51.020,-1.9788643,-11.576476,-1.835295,0.098578304,-0.46876237,-1.6048181,-38.737503,-26.1,12.675,0.5813259,-0.37313345,0.57992756,999.9526, , , , 
2026-03-20 17:53:51.040,-3.4983068,-11.650654,-2.5674987,-0.030314164,-0.24335326,-0.99700767,-39.99375,-27.112501,14.26875,0.5877973,-0.36865267,0.57333225,999.9589, , , , 
2026-03-20 17:53:51.062,-5.326423,-12.208181,-3.5509489,-0.28932083,-0.09613484,-0.19982915,-38.756252,-28.237501,14.043751,0.5898591,-0.36809573,0.5701199,999.9589, , , , 
2026-03-20 17:53:51.080,-4.989035,-12.574283,-3.6323047,-0.58803374,-0.2702313,0.8679625,-37.6875,-26.625002,13.837501,0.58745843,-0.37455687,0.56972766,999.95746, , , , 
2026-03-20 17:53:51.100,-2.6225336,-12.222538,-2.6225336,-0.86414456,-0.4333322,1.8929936,-39.24375,-26.175001,15.675,0.5809474,-0.38961133,0.57155305,999.95746, , , , 
2026-03-20 17:53:51.120,0.75613195,-11.854043,-0.3900301,-0.91484636,-0.38079783,2.6565745,-39.675003,-26.343752,13.725,0.5698828,-0.41081592,0.5760735,999.956, , , , 
2026-03-20 17:53:51.140,3.7974095,-12.375679,0.37088752,-0.6161335,-0.2115883,3.1135013,-40.65,-23.831251,14.306251,0.55555934,-0.43383,0.5836929,999.956, , , , 
2026-03-20 17:53:51.160,4.599005,-13.208381,-0.7585248,-0.405996,-0.005726857,3.526446,-40.5,-22.3125,14.512501,0.53911716,-0.45612204,0.5942861,999.95917, , , , 
2026-03-20 17:53:51.180,5.9270215,-13.974084,-1.6175481,-0.36567894,0.07063124,4.0261335,-41.475002,-18.5625,13.462501,0.5195838,-0.47875243,0.607228,999.95917, , , , 
2026-03-20 17:53:51.200,8.310273,-14.14876,-1.5146568,-0.40294167,-0.17127122,4.417087,-45.73125,-15.750001,12.675,0.49148625,-0.5093574,0.62364227,999.94794, , , , 
2026-03-20 17:53:51.220,9.820144,-13.5481615,-0.35653058,-0.33574656,-0.4815905,4.5270424,-45.28125,-12.731251,13.687501,0.46841624,-0.53468543,0.63476133,999.94794, , , , 
2026-03-20 17:53:51.240,10.365707,-12.801601,1.6103697,0.04421134,-0.818177,4.516047,-45.65625,-7.51875,11.7375,0.4467413,-0.55853415,0.64410746,999.9567, , , , 
2026-03-20 17:53:51.260,10.195817,-12.528819,2.7278178,0.5145772,-0.8401681,4.520323,-44.5125,-3.825,13.875001,0.4267443,-0.5785921,0.6535501,999.9567, , , , 
2026-03-20 17:53:51.280,10.033105,-12.57189,1.5074782,1.0582469,-0.5151881,4.632111,-43.987503,-1.1625,14.7375,0.40633103,-0.59354377,0.66533643,999.976, , , , 
2026-03-20 17:53:51.300,11.205588,-12.387643,-0.6843473,1.0594686,-0.1871537,4.7518406,-44.9625,5.5875,14.45625,0.38343087,-0.6050019,0.6786459,999.976, , , , 
2026-03-20 17:53:51.320,13.124632,-11.60519,-0.96430755,0.723493,0.16042836,4.687089,-43.237503,9.8625,15.281251,0.35710952,-0.6157923,0.6906956,999.966, , , , 
2026-03-20 17:53:51.340,15.153746,-10.578669,-0.21774685,0.416228,0.2325104,4.362109,-39.787502,12.975,12.731251,0.32255003,-0.6291226,0.7016562,999.966, , , , 
2026-03-20 17:53:51.360,15.663417,-9.458828,0.5096712,0.24579671,0.12194388,3.7011533,-40.21875,17.5125,14.3625,0.29778165,-0.6384171,0.70700276,999.955, , , , 
2026-03-20 17:53:51.380,14.110476,-8.702696,0.44506502,0.11323906,0.07857248,3.137325,-40.256252,21.618752,13.81875,0.277333,-0.6458725,0.71012217,999.955, , , , 
2026-03-20 17:53:51.400,12.696317,-8.449057,0.73459655,-0.087124586,0.31864235,2.8245623,-39.975002,24.50625,14.718751,0.25903466,-0.65273863,0.71156126,999.9631, , , , 
2026-03-20 17:53:51.422,12.457035,-7.8293157,1.2418749,-0.16470441,0.7236457,2.6742897,-37.29375,26.156252,14.025001,0.23961711,-0.6595828,0.71236396,999.9631, , , , 
2026-03-20 17:53:51.440,12.744173,-7.070791,0.7848458,-0.23067781,1.1304816,2.4372742,-36.300003,28.875002,14.08125,-0.21819265,0.6658599,-0.71345705,999.966, , , , 
2026-03-20 17:53:51.460,13.519448,-6.326623,1.0600204,-0.20074543,1.2880847,2.243019,-35.0625,31.143751,10.89375,-0.19630581,0.671658,-0.7143413,999.966, , , , 
2026-03-20 17:53:51.480,15.007784,-5.895915,0.31345975,0.008781182,1.0932189,2.022497,-30.993752,31.050001,11.55,-0.17017293,0.67687756,-0.7160423,999.9692, , , , 
2026-03-20 17:53:51.500,16.558332,-5.2139606,-0.8207382,0.17982332,0.55504704,1.6840779,-31.781252,32.850002,10.59375,-0.15419145,0.6787934,-0.71774215,999.9692,37.88738108,127.73747167,172.9239501953125,1.55
2026-03-20 17:53:51.521,17.71646,-4.57747,-1.9094725,0.1004109,0.25450155,1.2668571,-31.706251,35.475002,10.9125,-0.14625336,0.6794037,-0.71872133,999.9548, , , , 
2026-03-20 17:53:51.540,18.520447,-4.883751,-1.7802601,-0.17325652,-0.028939718,0.5955168,-29.868752,35.15625,11.493751,-0.14024158,0.6810103,-0.71829015,999.9548, , , , 
2026-03-20 17:53:51.560,18.783657,-5.3336015,-0.3278167,-0.23739733,-0.39301512,-0.027565273,-29.362501,35.456253,11.4375,-0.14205758,0.68268764,-0.71634406,999.9382, , , , 
2026-03-20 17:53:51.580,19.027725,-5.032106,0.38763726,-0.21846052,-0.68378675,-0.7050143,-28.725,35.53125,9.50625,-0.14989087,0.6832877,-0.714242,999.9382, , , , 
2026-03-20 17:53:51.600,18.22613,-5.611169,0.9164511,-0.26794055,-0.727769,-1.5180753,-30.69375,33.206253,11.55,-0.1639778,0.68255126,-0.7120052,999.93695, , , , 
2026-03-20 17:53:51.620,16.91965,-7.9298143,2.4215364,-0.23984079,-0.77908164,-2.247448,-29.812502,33.91875,10.950001,-0.1884019,0.6798974,-0.7086864,999.93695, , , , 
2026-03-20 17:53:51.640,16.59901,-9.623933,3.129812,0.019165883,-0.917748,-2.7104833,-29.587502,32.943752,11.606251,0.21219574,-0.67497903,0.70657295,999.95795, , , , 
2026-03-20 17:53:51.660,16.53919,-10.628919,2.5411777,0.20731224,-0.91591537,-3.2120035,-31.312502,30.2625,12.8625,0.23923911,-0.6668136,0.7052455,999.95795, , , , 
2026-03-20 17:53:51.680,15.68256,-11.736795,1.524228,0.16821688,-0.76747525,-3.6951973,-35.625,28.575,13.25625,0.2684956,-0.65629745,0.70355296,999.9692, , , , 
2026-03-20 17:53:51.700,14.541183,-12.705888,1.0073783,-0.027259842,-0.5665007,-4.049499,-39.112503,25.218752,15.656251,0.2984601,-0.6447449,0.7002254,999.9692, , , , 
2026-03-20 17:53:51.720,13.749159,-13.299308,1.7706888,-0.22579089,-0.43088874,-4.3182793,-39.73125,21.300001,14.400001,0.3279779,-0.63279057,0.69477075,999.97064, , , , 
2026-03-20 17:53:51.740,13.115061,-13.971691,3.1800613,-0.21723878,-0.4333322,-4.66464,-41.456253,17.268751,15.281251,0.3574834,-0.61958635,0.6875339,999.97064, , , , 
2026-03-20 17:53:51.762,11.114661,-14.799608,4.206582,0.11262819,-0.60559607,-4.9413614,-42.2625,14.56875,14.437501,0.39625353,-0.598817,0.6770704,999.97723, , , , 
2026-03-20 17:53:51.780,9.334401,-14.275579,3.4408789,0.4406626,-0.6434697,-4.861338,-43.6875,9.825001,15.31875,0.42794684,-0.5782344,0.6687453,999.97723, , , , 
2026-03-20 17:53:51.800,9.427721,-13.347165,0.79920274,0.39973465,-0.15783219,-4.6530333,-42.9375,5.53125,15.337501,0.45683676,-0.55590564,0.6610287,1000.00336, , , , 
2026-03-20 17:53:51.820,9.317652,-12.71546,-0.014356935,0.17127122,0.3589594,-4.5650687,-44.04375,-0.5625,17.025002,0.47483748,-0.5391168,0.6554201,1000.00336, , , , 
2026-03-20 17:53:51.841,8.13799,-12.251252,0.5814559,-0.0028252497,0.5959749,-4.5278063,-45.375,-2.8125,16.368752,0.49884516,-0.5110337,0.64589226,999.98846, , , , 
2026-03-20 17:53:51.860,6.9655066,-12.337394,1.0576276,0.1004109,0.37362018,-4.473439,-45.3375,-5.55,16.6875,0.51632035,-0.48813638,0.6370584,999.98846, , , , 
2026-03-20 17:53:51.880,5.493921,-12.143575,0.7585248,0.2494619,0.17936517,-4.2773514,-42.487503,-11.19375,13.762501,0.5341248,-0.4648836,0.62698984,999.9892, , , , 
2026-03-20 17:53:51.900,3.9888353,-11.75833,-0.069391854,0.23846634,0.21968225,-3.9658105,-40.7625,-12.76875,14.45625,0.5550477,-0.43642926,0.6138615,999.9892, , , , 
2026-03-20 17:53:51.920,2.0602202,-11.475977,-0.78723866,0.13767365,0.2862665,-3.551644,-41.49375,-15.056251,12.4875,0.56885594,-0.4151663,0.60382766,999.99066, , , , 
2026-03-20 17:53:51.940,0.9020941,-12.031113,-1.1796615,-0.073685564,0.3333031,-3.0617306,-39.28125,-19.837502,15.31875,0.5794767,-0.39681485,0.5943862,999.99066, , , , 
2026-03-20 17:53:51.960,-0.40438703,-12.277573,-0.4331009,-0.16898046,0.30092725,-2.4972916,-37.706253,-23.025002,13.950001,0.5867118,-0.38209164,0.5860512,999.9841, , , , 
2026-03-20 17:53:51.980,-1.9118652,-11.954542,-0.0047856453,-0.06207913,0.084070265,-1.7563126,-38.1375,-23.587502,15.88125,0.59196436,-0.37105033,0.57923025,999.9841, , , , 
2026-03-20 17:53:52.000,-2.5459633,-11.408978,-0.5383851,0.019776747,0.030314164,-1.0141119,-37.93125,-24.91875,13.9125,0.5959608,-0.36384666,0.5745261,999.9921, , , , 
2026-03-20 17:53:52.020,-2.3928227,-11.566905,-1.6749759,-0.008933897,0.081015944,-0.40752316,-37.725002,-26.643751,15.225,0.59769416,-0.36060473,0.57276595,999.9921, , , , 
2026-03-20 17:53:52.040,-3.67059,-11.229517,-2.5938199,-0.2410625,-0.05093085,0.61872965,-38.2125,-25.575,14.137501,0.5959113,-0.36350802,0.57402307,999.9799, , , , 
2026-03-20 17:53:52.060,-2.4717858,-10.911271,-2.210968,-0.36018115,-0.17127122,1.4513384,-38.5125,-27.093752,13.650001,0.59255475,-0.37034652,0.5763336,999.9799, , , , 
2026-03-20 17:53:52.080,0.6963114,-10.447063,-1.4596218,-0.47563457,-0.075976305,2.2772276,-36.881252,-24.056252,13.9125,0.58246064,-0.38889068,0.58360875,999.9777, , , , 
2026-03-20 17:53:52.100,3.737589,-10.57149,-0.78723866,-0.4994583,0.046807513,2.7017787,-39.693752,-24.112501,14.681251,0.57020193,-0.40721545,0.592335,999.9777, , , , 
2026-03-20 17:53:52.120,5.4484572,-11.12184,-0.6221339,-0.4182133,-0.0570395,2.90764,-40.537502,-21.825,14.175,0.5560169,-0.42654127,0.6021368,999.9753, , , , 
2026-03-20 17:53:52.140,6.0323057,-11.784652,-0.6963114,-0.33819002,-0.34231335,3.101895,-43.875,-19.44375,15.000001,0.54190993,-0.44656825,0.6114116,999.9753, , , , 
2026-03-20 17:53:52.160,6.3218374,-12.354143,-0.08853444,-0.22212571,-0.6709586,3.3975534,-43.3875,-17.1375,13.425,0.5283192,-0.46786872,0.61960655,999.9736, , , , 
2026-03-20 17:53:52.180,6.800402,-12.614961,0.5192425,-0.019929463,-0.78335774,3.7854526,-43.66875,-11.83125,15.7875,0.5147724,-0.49020588,0.6273553,999.9736, , , , 
2026-03-20 17:53:52.200,7.743174,-12.227324,0.17228323,0.11568252,-0.45532334,4.2521534,-45.16875,-10.5,16.0125,0.4943414,-0.5178514,0.6390396,999.98773, , , , 
2026-03-20 17:53:52.220,9.059227,-11.676974,-0.033499517,0.10957387,-0.12789981,4.444576,-44.006252,-5.64375,14.38125,0.47882816,-0.5338579,0.64731365,999.98773, , , , 
2026-03-20 17:53:52.240,9.997213,-11.274981,1.1102697,0.15477787,0.11217005,4.4598475,-44.15625,-1.29375,14.45625,0.44897157,-0.55868936,0.66138345,999.9931, , , , 
2026-03-20 17:53:52.260,10.339387,-11.085947,1.8448663,0.3502546,0.3259727,4.44763,-43.893753,2.2125,15.168751,0.42316398,-0.57564676,0.67285115,999.9931, , , , 
2026-03-20 17:53:52.280,10.485349,-10.992627,0.7393822,0.47242755,0.96249384,4.5722466,-43.518753,3.99375,13.931251,0.39503554,-0.5895396,0.6853248,999.9982, , , , 
2026-03-20 17:53:52.300,11.899507,-10.327422,-1.079163,0.08513928,1.7242422,4.66632,-42.318752,9.8625,12.39375,0.36088893,-0.60203654,0.6987142,999.9982, , , , 
2026-03-20 17:53:52.320,14.227723,-9.595219,-0.8039884,-0.50434524,1.6307799,4.312629,-42.80625,13.9125,11.75625,0.3220759,-0.61573464,0.709277,999.9809, , , , 
2026-03-20 17:53:52.340,15.172889,-9.152547,1.1030912,-0.67050046,0.27649269,3.6767187,-41.53125,16.425001,9.9375,0.28256166,-0.6337987,0.7136532,999.9809, , , , 
2026-03-20 17:53:52.360,15.113068,-8.937193,1.9381863,-0.67416567,-0.303218,3.174588,-40.350002,20.775002,9.243751,0.26228377,-0.64681846,0.71218,999.9804, , , , 
2026-03-20 17:53:52.380,13.832908,-8.578269,1.7874385,-0.78167784,0.1598175,2.7781367,-39.581253,22.59375,11.231251,0.24587783,-0.6581903,0.7093118,999.9804, , , , 
2026-03-20 17:53:52.400,12.454642,-7.9657063,2.0985055,-0.96249384,0.9850958,2.70972,-39.693752,25.687502,12.150001,0.2261789,-0.6692498,0.7063886,1000.0019, , , , 
2026-03-20 17:53:52.420,12.753745,-7.4584284,2.8953154,-0.9032399,1.1402555,2.64619,-37.85625,26.118752,11.925,0.20215555,-0.6801039,0.7037319,1000.0019, , , , 
2026-03-20 17:53:52.440,13.741981,-7.003792,2.8809586,-0.464639,0.6900481,2.5447862,-34.21875,28.10625,11.2875,0.17946988,-0.6887395,0.70184416,1000.0146, , , , 
2026-03-20 17:53:52.460,15.864414,-6.8075805,1.7395821,0.034437504,0.14149155,2.3767984,-33.05625,30.862501,9.918751,0.16076279,-0.6938611,0.7016911,1000.0146, , , , 
2026-03-20 17:53:52.480,17.778673,-6.3625154,-0.3182454,0.40095636,-0.53962266,1.9412519,-34.818752,31.650002,11.606251,0.1462192,-0.6953033,0.70368356,1000.0109, , , , 
2026-03-20 17:53:52.500,19.267008,-5.163711,-2.3808584,0.27511823,-0.71677345,1.4146864,-30.000002,32.287502,10.59375,-0.14190064,0.6947175,-0.70504934,1000.0109,37.88737102,127.73748312,173.27056884765625,1.59
2026-03-20 17:53:52.520,20.216959,-4.8454657,-1.4955142,0.0075594517,-0.5096903,0.7451787,-29.625002,34.068752,9.675,-0.14169239,0.6949507,-0.70466876,999.98627, , , , 
2026-03-20 17:53:52.540,20.42035,-4.354937,-0.17228323,0.020998476,-0.1627191,-0.030619597,-28.987501,35.11875,10.8,-0.14440642,0.6951085,-0.7039074,999.98627, , , , 
2026-03-20 17:53:52.560,20.154745,-4.194618,0.13160525,0.12606722,0.022983788,-0.8039744,-27.000002,34.706253,9.993751,-0.14980054,0.69372845,-0.70427984,999.9775, , , , 
2026-03-20 17:53:52.580,19.066011,-5.029713,0.148355,0.27267477,-0.26412266,-1.7178282,-27.468752,33.16875,10.275001,-0.1602816,0.6902373,-0.70557845,999.9775, , , , 
2026-03-20 17:53:52.600,16.99622,-7.1018977,-0.41874397,0.3154353,-0.71799517,-2.5076764,-29.23125,34.612503,10.387501,0.17890619,-0.68429357,0.70688266,999.96893, , , , 
2026-03-20 17:53:52.620,15.103497,-9.269794,-0.26081768,0.17982332,-1.0234276,-3.0537894,-27.937502,33.75,10.14375,0.21141389,-0.6750378,0.70635796,999.96893, , , , 
2026-03-20 17:53:52.640,14.38565,-11.286944,0.40917268,-0.01809687,-1.0411427,-3.339674,-32.625,30.900002,10.650001,0.24068002,-0.66724706,0.7035705,999.9653, , , , 
2026-03-20 17:53:52.660,15.122639,-12.634104,1.5864414,-0.21051927,-1.085125,-3.6451066,-36.09375,28.406252,13.462501,0.2711112,-0.6593319,0.6985719,999.9653, , , , 
2026-03-20 17:53:52.680,15.481563,-13.672588,2.4335005,-0.36690065,-0.9739475,-4.152735,-37.237503,27.150002,14.587501,0.30316657,-0.6504267,0.6915337,999.98065, , , , 
2026-03-20 17:53:52.700,14.543576,-14.256437,3.048456,-0.48724103,-0.61842424,-4.6023316,-40.4625,22.21875,15.675,0.3358765,-0.63979536,0.6827968,999.98065, , , , 
2026-03-20 17:53:52.721,12.459428,-14.691931,4.7401814,-0.38705918,-0.27511823,-4.898601,-40.875,18.675001,15.918751,0.36717534,-0.62674403,0.6733321,1000.0004, , , , 
2026-03-20 17:53:52.740,10.135997,-14.553147,4.692325,0.08697187,-0.2531271,-4.965796,-42.99375,15.468751,16.48125,0.3971246,-0.6097488,0.66478515,1000.0004, , , , 
2026-03-20 17:53:52.760,9.298509,-14.009976,2.0602202,0.39484772,-0.2042579,-4.780093,-42.881252,9.525001,16.181252,0.42674485,-0.5888992,0.657415,1000.02484, , , , 
2026-03-20 17:53:52.780,9.458828,-12.96192,-0.34456646,0.10468695,0.52267116,-4.5455213,-42.80625,6.80625,14.325001,0.45852834,-0.5616515,0.64865917,1000.02484, , , , 
2026-03-20 17:53:52.800,8.9108715,-12.7393875,0.069391854,-0.19524765,1.1500293,-4.4752717,-45.506252,0.80625004,15.262501,0.4763136,-0.540168,0.6420237,1000.01263, , , , 
2026-03-20 17:53:52.820,7.8867435,-12.64846,1.3782659,-0.09506583,1.038241,-4.3854747,-45.487503,-4.2937503,13.687501,0.4903776,-0.51822025,0.63521165,1000.01263, , , , 
2026-03-20 17:53:52.840,7.2287173,-12.107682,1.4787644,0.18898629,0.6961568,-4.2730756,-45.412502,-7.51875,13.875001,0.50474983,-0.49537063,0.6276643,1000.0031, , , , 
2026-03-20 17:53:52.860,6.204589,-11.717652,0.62931234,0.37041312,0.36690065,-4.17717,-43.3125,-13.14375,13.81875,0.52062523,-0.47184044,0.6190276,1000.0031, , , , 
2026-03-20 17:53:52.880,4.634897,-11.241481,-0.31106696,0.39484772,0.11033745,-4.0165124,-43.068752,-15.6,13.312501,0.5376453,-0.44861776,0.6087657,999.9963, , , , 
2026-03-20 17:53:52.900,2.7230322,-10.750952,-0.782453,0.29405504,0.029092435,-3.5821874,-42.318752,-19.143751,13.593751,0.55414915,-0.42686045,0.59728295,999.9963, , , , 
2026-03-20 17:53:52.920,2.0697916,-10.442278,-0.90448695,0.20670137,0.011377357,-3.0916631,-40.3125,-22.40625,11.71875,0.5681977,-0.40780237,0.58605564,999.98114, , , , 
2026-03-20 17:53:52.940,1.6438692,-10.076176,-1.1437693,0.14683662,0.13355032,-2.4465897,-38.0625,-22.800001,12.1125,0.5814703,-0.38841903,0.5742005,999.98114, , , , 
2026-03-20 17:53:52.960,1.3160524,-9.769895,-1.550549,0.07231112,0.33880088,-1.9175808,-37.275,-26.081251,12.675,0.5881946,-0.37585115,0.5676604,999.97235, , , , 
2026-03-20 17:53:52.980,1.0241281,-10.616954,-2.0219352,-0.067576915,0.54099715,-1.4197261,-36.0,-27.187502,11.0625,0.59153134,-0.36572927,0.5637508,999.97235, , , , 
2026-03-20 17:53:53.000,-0.29671,-11.428121,-2.172683,-0.14637847,0.5587122,-0.92981255,-37.631252,-27.862501,13.125001,0.5918918,-0.358276,0.56209606,999.96356, , , , 
2026-03-20 17:53:53.020,-2.4095724,-10.932807,-2.644069,-0.1928042,0.43531752,-0.2694677,-34.631252,-29.025002,11.34375,0.59024394,-0.3543967,0.56236297,999.96356, , , , 
2026-03-20 17:53:53.040,-3.2757742,-10.679168,-3.0604203,-0.34796384,0.302149,0.6095667,-38.850002,-30.225,13.387501,0.58660525,-0.3556833,0.5646499,999.96356, , , , 
2026-03-20 17:53:53.061,-2.3042881,-10.19821,-2.0434706,-0.5116756,0.1928042,1.5234205,-38.11875,-27.4125,12.69375,0.5796735,-0.36357784,0.5695982,999.96356, , , , 
2026-03-20 17:53:53.080,0.33738798,-10.356136,-0.76570326,-0.46219558,-0.0020616686,2.3267076,-36.16875,-28.06875,10.368751,0.566734,-0.38123524,0.57956725,999.96234, , , , 
2026-03-20 17:53:53.100,3.0245278,-10.992627,-0.32542387,-0.24289511,-0.35391977,2.7879105,-36.787502,-25.3875,9.356251,0.5553797,-0.39938623,0.5892713,999.96234, , , , 
2026-03-20 17:53:53.120,5.015356,-11.459228,-0.7322037,-0.015653409,-0.72227126,3.0713518,-39.412502,-23.15625,9.1875,0.54519767,-0.41947728,0.5989439,999.95917, , , , 
2026-03-20 17:53:53.140,5.5274205,-11.954542,-1.5553347,0.10407609,-0.89209163,3.390834,-41.8125,-20.94375,13.012501,0.5358999,-0.440606,0.6081333,999.95917, , , , 
2026-03-20 17:53:53.160,6.2237315,-12.423535,-1.6534405,-0.00160352,-0.8444442,3.8392088,-42.375,-18.768751,12.637501,0.525027,-0.4630904,0.6174547,999.9555, , , , 
2026-03-20 17:53:53.180,7.9513497,-12.294323,-0.8757731,-0.08834632,-0.76381004,4.253986,-43.162502,-16.21875,11.512501,0.5105721,-0.4874633,0.62717307,999.9555, , , , 
2026-03-20 17:53:53.200,10.633704,-11.370693,-0.13160525,-0.19036074,-0.4822014,4.4317474,-44.04375,-11.7375,13.500001,0.48766735,-0.518574,0.63938355,999.95013, , , , 
2026-03-20 17:53:53.220,11.782259,-10.377672,0.27996024,-0.292986,-0.011835505,4.2979684,-44.175003,-7.2562504,13.575001,0.4655969,-0.5415516,0.64907074,999.95013, , , , 
2026-03-20 17:53:53.240,10.822737,-10.135997,0.34456646,-0.41576985,0.28687736,4.1800714,-46.3125,-5.6062503,12.76875,0.44090182,-0.56214863,0.65834683,999.9516, , , , 
2026-03-20 17:53:53.260,11.126625,-10.576276,1.0001999,-0.47746718,0.2202931,4.266814,-44.025,-1.5187501,12.918751,0.41451824,-0.58190197,0.6664469,999.9516, , , , 
2026-03-20 17:53:53.280,12.602997,-10.557134,1.4907285,-0.4145481,0.12805253,4.398761,-44.71875,4.6125,14.64375,0.3877943,-0.60120136,0.67304087,999.95844, , , , 
2026-03-20 17:53:53.300,13.586447,-9.159725,0.9068798,-0.44020444,0.4566978,4.374326,-45.018753,7.9687505,11.55,0.36000317,-0.6189646,0.6790256,999.95844, , , , 
2026-03-20 17:53:53.320,14.835501,-8.386844,0.82313097,-0.7285326,0.997924,4.065229,-44.90625,9.975,11.7375,0.3293764,-0.63525915,0.6843069,999.96063, , , , 
2026-03-20 17:53:53.340,14.13201,-8.262417,1.5553347,-0.84581864,0.99670225,3.666945,-43.350002,14.85,11.90625,0.29043144,-0.6538756,0.688142,999.96063, , , , 
2026-03-20 17:53:53.360,13.473985,-7.752745,2.5196424,-0.7199805,0.59964013,3.387169,-43.425003,18.09375,11.7375,0.26231328,-0.6669464,0.68926674,999.9643, , , , 
2026-03-20 17:53:53.380,13.356736,-7.257431,2.4430718,-0.4322632,0.15615231,3.236896,-42.075,21.09375,11.418751,0.23878683,-0.6775702,0.6897944,999.9643, , , , 
2026-03-20 17:53:53.400,15.227923,-6.233303,2.2372892,-0.14821106,0.025427246,3.0212607,-39.112503,21.7875,8.75625,0.21832272,-0.6856745,0.69067276,999.9809, , , , 
2026-03-20 17:53:53.420,16.273586,-5.4987063,2.1248264,0.04176788,-0.13400847,2.64619,-36.61875,24.018751,9.450001,0.20094892,-0.691071,0.6921137,999.9809, , , , 
2026-03-20 17:53:53.440,16.943577,-5.790631,1.4763715,0.29833108,-0.28061602,2.2198062,-36.412502,28.0125,10.59375,0.18808252,-0.69381094,0.6940431,999.9914, , , , 
2026-03-20 17:53:53.460,18.63291,-5.6781683,0.5814559,0.57138765,-0.34536767,1.9235368,-34.0125,29.025002,9.806251,0.17806669,-0.6942095,0.696935,999.9914, , , , 
2026-03-20 17:53:53.480,20.200209,-4.685147,-1.9932213,0.65141094,-0.41134107,1.3688716,-32.1375,31.06875,10.743751,0.17032665,-0.69165164,0.7017802,999.9865, , , , 
2026-03-20 17:53:53.500,20.595024,-3.8572302,-2.5387847,0.34781113,-0.29833108,0.748233,-32.025,32.325,10.5,0.1685873,-0.68955046,0.70433426,999.9865,37.88736008,127.73749356,173.093505859375,1.55
2026-03-20 17:53:53.520,20.891735,-3.5820556,-1.3040884,0.16210824,-0.16821688,0.13553563,-29.343752,32.60625,10.81875,0.1695045,-0.68858963,0.7050593,999.9533, , , , 
2026-03-20 17:53:53.540,21.363121,-4.0438704,0.5814559,0.2543488,-0.28122687,-0.932256,-32.98125,32.100002,11.85,0.17675468,-0.6859527,0.705819,999.9533, , , , 
2026-03-20 17:53:53.560,20.36292,-5.532206,0.15074782,0.40339983,-0.46937323,-1.9725587,-31.050001,32.925003,11.137501,0.19047679,-0.6807099,0.7071656,999.9455, , , , 
2026-03-20 17:53:53.581,17.615961,-7.908279,-0.27756742,0.3105484,-0.73815376,-2.7336962,-30.656252,32.475002,8.493751,0.21160187,-0.6730575,0.70800734,999.9455, , , , 
2026-03-20 17:53:53.600,15.668202,-9.9015,0.70588267,0.17432554,-1.0564142,-3.1887906,-34.0125,30.618752,12.0375,0.24515787,-0.6624764,0.70598453,999.9477, , , , 
2026-03-20 17:53:53.620,14.900106,-11.117054,1.0815558,0.0674242,-1.0594686,-3.4587927,-35.081253,27.4125,11.1,0.26749521,-0.6555879,0.7032607,999.9477, , , , 
2026-03-20 17:53:53.640,14.124832,-12.674782,1.6247265,-0.12133302,-0.74609494,-3.7434556,-36.61875,24.993752,12.4875,0.30457583,-0.6432788,0.69685024,999.95917, , , , 
2026-03-20 17:53:53.660,14.079369,-13.493127,2.9120653,-0.16103923,-0.89942205,-3.9444304,-40.96875,21.675001,13.743751,0.33352494,-0.6326081,0.69015205,999.95917, , , , 
2026-03-20 17:53:53.680,15.139389,-13.873586,4.034299,0.008781182,-1.3551271,-4.379366,-40.5,18.13125,12.975,0.36533535,-0.61999786,0.6816675,999.9875, , , , 
2026-03-20 17:53:53.700,13.294522,-14.234902,4.2281175,0.18165591,-1.3569597,-4.751383,-41.5875,15.13125,15.4125,0.40105206,-0.60396445,0.67145324,999.9875, , , , 
2026-03-20 17:53:53.720,10.889736,-13.832908,2.6488547,0.23113596,-0.75342536,-4.7568803,-42.54375,8.94375,15.712501,0.4359669,-0.58459836,0.66120315,1000.00775, , , , 
2026-03-20 17:53:53.740,10.497313,-13.000205,-0.16510476,-0.15615231,0.68088514,-4.4929867,-41.5125,6.1687503,16.237501,0.46336195,-0.5639535,0.6528977,1000.00775, , , , 
2026-03-20 17:53:53.760,11.059627,-12.507284,0.76331043,-0.47929978,1.7822744,-4.4239593,-45.956253,1.6125001,16.650002,0.4817058,-0.5384204,0.6462819,1000.0136, , , , 
2026-03-20 17:53:53.780,10.1288185,-12.543177,2.1296122,-0.22762349,1.5141047,-4.6029425,-45.768753,-2.71875,15.4875,0.4918113,-0.5157995,0.64169735,1000.0136, , , , 
2026-03-20 17:53:53.800,8.04467,-12.591033,2.1128623,0.16027565,0.89713126,-4.644481,-43.612503,-5.9625,13.125001,0.50540656,-0.49085492,0.63498384,1000.0151, , , , 
2026-03-20 17:53:53.820,6.13759,-12.141182,1.9094725,0.4889209,0.38950264,-4.405633,-43.125,-11.7375,10.63125,0.5261827,-0.45863628,0.62399125,1000.0151, , , , 
2026-03-20 17:53:53.840,5.9676995,-11.660225,1.861616,0.633085,0.074907295,-4.2125998,-43.6875,-13.668751,12.187501,0.53954995,-0.4396386,0.6164664,1000.0163, , , , 
