Time,Accel_X,Accel_Y,Accel_Z,Gyro_X,Gyro_Y,Gyro_Z,Mag_X,Mag_Y,Mag_Z,Orient_X,Orient_Y,Orient_Z,Pressure,Lat,Lng,Alt,Speed
2025-09-28 19:23:50.330,0.45942193,4.922036,8.516056,0.13034327,-0.17799072,0.043065965,-14.606251,-43.18125,-24.431252,0.19307035,0.17007509,0.6945209,995.27826,37.88835652,127.73987082,151.162109375,0.0
2025-09-28 19:23:50.350,0.6628119,4.87418,8.286345,0.051541716,-0.057650365,-0.019853106,-13.968751,-45.112503,-24.075,0.19550863,0.16964856,0.694155,995.27826, , , , 
2025-09-28 19:23:50.370,0.45224348,4.8693943,8.3174515,-0.022983788,0.084070265,-0.027794348,-12.993751,-44.643753,-24.056252,0.19576435,0.16980939,0.69397753,995.2702, , , , 
2025-09-28 19:23:50.390,0.5623133,4.85743,8.520842,-0.03825541,0.1060614,-0.03329213,-16.03125,-44.34375,-22.66875,0.19501893,0.1702166,0.69402856,995.2702, , , , 
2025-09-28 19:23:50.412,0.42831525,4.883751,8.941978,0.022831071,0.10361794,-0.038179047,-13.950001,-45.09375,-24.843752,0.19395837,0.1707103,0.6941161,995.27167, , , , 
2025-09-28 19:23:50.430,0.25124636,4.8765726,8.860622,0.06314815,0.045585785,-0.01802051,-14.587501,-44.662502,-25.893751,0.19347553,0.17122309,0.6940888,995.27167, , , , 
2025-09-28 19:23:50.450,0.3469593,5.005785,8.666803,0.060093824,-0.03810269,0.0051923506,-15.225,-43.36875,-24.656252,0.19355586,0.17182979,0.6939329,995.2673, , , , 
2025-09-28 19:23:50.470,0.43788654,5.022535,8.41795,0.029550584,-0.035048366,0.00763581,-13.425,-45.412502,-25.500002,0.19417928,0.17195737,0.6937974,995.2673, , , , 
2025-09-28 19:23:50.490,0.51445687,4.979464,8.41795,-0.0034361144,0.023594651,-0.0070249448,-15.543751,-44.15625,-23.19375,0.19467254,0.17204344,0.6937329,995.2575, , , , 
2025-09-28 19:23:50.512,0.49292147,4.996214,8.499306,-3.8179048E-4,0.04925097,-0.017409647,-14.231251,-44.381252,-25.95,0.19466245,0.17217651,0.69372904,995.2575, , , , 
2025-09-28 19:23:50.530,0.3900301,5.0081778,8.492127,0.01244637,0.053527027,-0.029016078,-14.08125,-44.98125,-24.993752,0.19448371,0.17253466,0.6936737,995.2463, , , , 
2025-09-28 19:23:50.550,0.34217364,4.996214,8.504091,-3.8179048E-4,0.040088,-0.041844238,-15.731251,-43.66875,-23.6625,0.19417022,0.17321508,0.6934625,995.2463, , , , 
2025-09-28 19:23:50.570,0.25603202,4.9531426,8.532805,-0.010766491,0.030314164,-0.044287696,-12.918751,-42.768753,-24.018751,0.19380224,0.17359619,0.6932264,995.24384, , , , 
2025-09-28 19:23:50.590,0.2847459,4.912465,8.688339,-0.020540329,-0.0020616686,-0.03573559,-11.19375,-43.818752,-25.368752,0.19337852,0.17371829,0.69300115,995.24384, , , , 
2025-09-28 19:23:50.610,0.30388847,4.9052863,8.549556,-0.009544762,-0.022831071,-0.028405212,-12.88125,-44.98125,-26.04375,0.19311427,0.17355482,0.6928055,995.24554, , , , 
2025-09-28 19:23:50.630,0.3589234,4.9196434,8.508878,-0.013209951,-0.020387612,-0.021074835,-15.843751,-44.925003,-23.737501,0.19308098,0.17343102,0.6926639,995.24554, , , , 
2025-09-28 19:23:50.650,0.47856453,4.9268217,8.530413,-0.021151192,-0.020387612,-0.016798781,-11.700001,-43.36875,-25.331251,0.19312821,0.1731574,0.69254446,995.2487, , , , 
2025-09-28 19:23:50.671,0.38763726,4.8885365,8.441878,-0.04925097,-0.0045051277,-0.02535089,-14.156251,-43.987503,-25.500002,0.19317897,0.1725982,0.6924106,995.2487, , , , 
2025-09-28 19:23:50.690,0.4139583,4.8502517,8.578269,-0.07612903,0.025427246,-0.023518294,-14.887501,-44.7,-25.3875,0.19271365,0.17225012,0.69238,995.24725, , , , 
2025-09-28 19:23:50.710,0.38524446,4.867001,8.642876,-0.074907295,0.023594651,-0.027794348,-14.606251,-43.93125,-24.225,0.1919915,0.17181778,0.69242096,995.24725, , , , 
2025-09-28 19:23:50.730,0.56470615,4.9316072,8.599805,-0.04130973,-0.006948587,-0.03695732,-12.88125,-44.006252,-23.00625,0.19140877,0.17140043,0.692413,995.2458, , , , 
2025-09-28 19:23:50.750,0.6771688,5.029713,8.260024,-0.08590286,-0.027107125,-0.066889696,-15.937501,-44.568752,-22.81875,0.19150543,0.17082722,0.692214,995.2458, , , , 
2025-09-28 19:23:50.770,0.7752745,5.022535,8.348558,-0.1390481,-0.016111558,-0.09498947,-13.106251,-45.2625,-25.087502,0.19160146,0.17000967,0.6918376,995.25214, , , , 
2025-09-28 19:23:50.790,0.7322037,5.048856,8.408379,-0.16409355,0.0028252497,-0.12247839,-14.531251,-44.4,-25.44375,0.19111827,0.16867219,0.6912666,995.25214, , , , 
2025-09-28 19:23:50.810,0.8279166,5.005785,8.585447,-0.14576761,0.033979353,-0.14630212,-13.781251,-41.98125,-24.281252,0.19048761,0.16773064,0.69073105,995.2631, , , , 
2025-09-28 19:23:50.830,0.8350951,4.941179,8.578269,-0.13477205,0.041920595,-0.16523892,-14.981251,-44.9625,-23.6625,0.19000225,0.16697297,0.69029343,995.2631, , , , 
2025-09-28 19:23:50.850,0.41156548,4.7401814,8.01117,-0.20746495,-0.015500694,-0.07971785,-12.8625,-44.006252,-24.093752,0.18860306,0.16653843,0.6895702,995.2785, , , , 
2025-09-28 19:23:50.870,1.1916257,4.735396,8.04467,-0.26977316,-0.044822205,-0.14202607,-12.993751,-44.643753,-23.737501,0.18791349,0.16544211,0.68935555,995.2785, , , , 
2025-09-28 19:23:50.891,0.3469593,4.5391846,8.504091,-0.31680974,0.08834632,-0.18661919,-13.500001,-44.30625,-24.937502,0.18575479,0.16248624,0.6884859,995.3051, , , , 
2025-09-28 19:23:50.910,0.24646074,4.5535417,9.272188,-0.24900375,0.17447825,-0.15057817,-13.556251,-43.068752,-24.54375,0.18325351,0.16184834,0.68819267,995.3051, , , , 
2025-09-28 19:23:50.930,-0.7465607,4.575077,7.271788,-0.28870997,-0.044822205,-0.083383046,-10.181251,-44.7,-26.6625,0.18009976,0.16139075,0.6879234,995.34076, , , , 
2025-09-28 19:23:50.950,0.2009971,4.354937,8.365308,-0.31680974,-0.08697187,-0.07055488,-10.387501,-44.2125,-26.6625,0.17847848,0.16084579,0.68760484,995.34076, , , , 
2025-09-28 19:23:50.970,0.19142582,4.278367,8.740981,-0.23495387,-0.066813335,-0.14630212,-11.306251,-44.4375,-26.400002,0.17611717,0.15706775,0.68710846,995.372, , , , 
2025-09-28 19:23:50.990,-0.02632105,4.304688,8.583055,-0.22518003,-0.056428634,-0.15118903,-9.618751,-42.54375,-25.29375,0.17571399,0.15658368,0.6869388,995.372, , , , 
2025-09-28 19:23:51.010,-0.35174492,4.35733,8.60459,-0.2966512,-0.0112246405,-0.091324285,-11.56875,-43.48125,-25.181252,0.17216122,0.15455183,0.6857066,995.4086, , , , 
2025-09-28 19:23:51.030,-0.3182454,4.314259,9.30808,-0.28015786,-0.013668099,-0.053450666,-11.15625,-44.30625,-25.181252,0.16943872,0.15332015,0.68546003,995.4086, , , , 
2025-09-28 19:23:51.050,-0.29192436,4.26401,9.614362,-0.15554145,-0.09369139,-0.02046397,-12.056251,-43.78125,-25.743752,0.16699356,0.15185688,0.68543005,995.4194, , , , 
2025-09-28 19:23:51.070,-0.078963146,4.2759743,9.162118,-0.050472703,-0.23785548,-9.162972E-4,-10.2375,-44.100002,-25.143751,0.16626433,0.14987388,0.68520623,995.4194, , , , 
2025-09-28 19:23:51.090,0.038285162,4.26401,8.922835,-0.091400646,-0.21036656,-0.0021380268,-12.562501,-45.693752,-27.281252,0.1670719,0.1480491,0.684858,995.4338, , , , 
2025-09-28 19:23:51.111,0.15314065,4.223332,9.19801,-0.15004367,-0.08269582,0.0070249448,-9.7875,-45.018753,-27.768751,0.1669879,0.14637919,0.6847713,995.4338, , , , 
2025-09-28 19:23:51.130,0.20338993,4.1922255,9.480363,-0.14210242,-0.057650365,0.0051923506,-9.825001,-45.037502,-26.362501,0.16631089,0.14520034,0.6849067,995.4338, , , , 
2025-09-28 19:23:51.150,0.3397808,4.314259,9.482756,-0.04253146,-0.13095413,-0.00763581,-11.306251,-45.1875,-27.281252,0.16555803,0.14339522,0.6850704,995.4338, , , , 
2025-09-28 19:23:51.170,0.33499518,4.3118663,9.343972,-0.011377357,-0.14622575,-0.027794348,-10.387501,-44.98125,-26.156252,0.16616991,0.14206609,0.6848253,995.4382, , , , 
2025-09-28 19:23:51.190,0.4546363,4.314259,8.941978,-0.02481638,-0.09308052,-0.044898562,-11.00625,-46.0125,-28.35,0.16690305,0.14118588,0.6844125,995.4382, , , , 
2025-09-28 19:23:51.210,0.45942193,4.2951164,9.078369,-0.11094832,-0.047265664,-0.0650571,-10.462501,-44.71875,-27.393751,0.16730851,0.14029855,0.68399143,995.44086, , , , 
2025-09-28 19:23:51.231,0.45224348,4.254439,9.650253,-0.10789399,0.05291616,-0.06811142,-8.475,-44.381252,-28.85625,0.16634135,0.13912266,0.6836885,995.44086, , , , 
2025-09-28 19:23:51.250,0.47856453,4.2711883,9.614362,-0.059635673,0.027870705,-0.07849612,-8.868751,-44.925003,-29.250002,0.16522804,0.13861594,0.6835034,995.4421, , , , 
2025-09-28 19:23:51.270,0.28953153,4.2352962,9.559326,-0.009544762,-0.018555017,-0.076052666,-9.900001,-43.537502,-29.23125,0.16472429,0.13827668,0.68308693,995.4421, , , , 
2025-09-28 19:23:51.290,0.21774685,4.2257247,9.468399,0.028939718,-0.018555017,-0.042455103,-8.118751,-42.600002,-28.218752,0.16458108,0.13819143,0.68263406,995.44403, , , , 
2025-09-28 19:23:51.310,0.33499518,4.2329035,9.430114,0.060093824,-0.021609342,-0.029626941,-10.06875,-44.175003,-27.7875,0.16469437,0.13834451,0.68232274,995.44403, , , , 
2025-09-28 19:23:51.330,0.4019942,4.2281175,9.276974,0.09124792,-0.02527453,-0.031459536,-11.043751,-44.662502,-27.487501,0.16505854,0.13850954,0.6821098,995.43866,37.88835652,127.73987082,151.162109375,0.0
2025-09-28 19:23:51.350,0.42831525,4.240082,8.851051,0.082084954,-0.043600474,-0.053450666,-8.587501,-44.775,-26.98125,0.16638131,0.13904415,0.68150103,995.43866, , , , 
2025-09-28 19:23:51.370,0.36610186,4.182654,8.776874,0.03199404,-0.032604907,-0.06627883,-7.4062505,-44.25,-30.375002,0.16721413,0.13925847,0.6809372,995.43134, , , , 
2025-09-28 19:23:51.390,0.19860429,4.1635113,8.846265,0.0051159924,0.0028252497,-0.06139191,-8.868751,-43.95,-25.9125,0.16738583,0.13946053,0.68041915,995.43134, , , , 
2025-09-28 19:23:51.410,0.16271193,4.213761,8.963513,0.020387612,-0.017333288,-0.032681264,-8.64375,-43.78125,-28.725,0.16722323,0.139754,0.68003255,995.4311, , , , 
2025-09-28 19:23:51.430,0.2847459,4.2520456,8.963513,0.061926417,-0.051541716,-0.016187917,-7.9687505,-44.71875,-27.806252,0.16741833,0.13992344,0.6798094,995.4311, , , , 
2025-09-28 19:23:51.451,0.33499518,4.3118663,8.700303,0.08575014,-0.08086322,-0.013744458,-8.325001,-45.0,-27.768751,0.16834952,0.14009406,0.67949295,995.42303, , , , 
2025-09-28 19:23:51.470,0.41874397,4.2927237,8.513663,0.010613776,-0.08147409,-0.023518294,-9.825001,-43.03125,-27.862501,0.16997917,0.14022076,0.6789843,995.42303, , , , 
2025-09-28 19:23:51.490,0.45224348,4.197011,8.889337,-0.030314164,-0.030772313,-0.04856375,-10.181251,-44.0625,-27.618752,0.1707473,0.13971646,0.67857414,995.4128, , , , 
2025-09-28 19:23:51.510,0.2656033,4.1347976,8.985049,-0.022983788,-0.014278964,-0.055283263,-9.7875,-43.40625,-26.625002,0.17066209,0.13942932,0.678335,995.4128, , , , 
2025-09-28 19:23:51.530,0.11724831,4.1180477,8.985049,-0.014431681,-0.03199404,-0.032681264,-9.712501,-44.643753,-27.7875,0.17031437,0.13926248,0.67800605,995.4028, , , , 
2025-09-28 19:23:51.550,0.14596218,4.1611185,8.913264,-0.011377357,-0.050319985,-0.008857539,-9.431251,-46.10625,-27.73125,0.17010829,0.13915607,0.67782795,995.4028, , , , 
2025-09-28 19:23:51.571,0.22731815,4.28076,8.963513,-0.046807513,-0.027107125,-0.0021380268,-9.375,-45.09375,-27.956251,0.16993311,0.13860618,0.67766786,995.3991, , , , 
2025-09-28 19:23:51.590,0.28713873,4.2041893,9.253045,-0.055970486,-0.03199404,0.0058032153,-7.9875,-44.943752,-29.962502,0.16969539,0.13833557,0.6776665,995.3991, , , , 
2025-09-28 19:23:51.610,0.37088752,4.1467614,9.49472,-0.008933897,-0.030772313,0.011911863,-9.84375,-45.28125,-27.73125,0.16935988,0.13773145,0.67774993,995.3847, , , , 
2025-09-28 19:23:51.630,0.34456646,4.141976,9.343972,0.056428634,-0.033826638,0.008857539,-8.493751,-45.131252,-27.88125,0.16934317,0.13735792,0.67782956,995.3847, , , , 
2025-09-28 19:23:51.650,0.30867413,4.2352962,8.673982,0.083306685,-0.08513928,0.00763581,-11.34375,-44.68125,-27.150002,0.1703012,0.1374504,0.6776652,995.3796, , , , 
2025-09-28 19:23:51.670,0.3589234,4.2664027,8.4347,8.3993905E-4,-0.07170025,0.003970621,-11.231251,-44.175003,-27.50625,0.17139105,0.13750489,0.67741555,995.3796, , , , 
2025-09-28 19:23:51.690,0.39720857,4.2687955,8.475378,-0.027259842,-0.060704686,0.0033597562,-11.19375,-44.550003,-26.250002,0.17156795,0.13745074,0.67737406,995.3796, , , , 
2025-09-28 19:23:51.711,0.38524446,4.1635113,9.008977,-0.090178914,-0.011835505,-0.0058032153,-10.556251,-43.612503,-26.362501,0.17154822,0.13677123,0.677346,995.3664, , , , 
2025-09-28 19:23:51.730,0.28713873,4.2281175,9.360723,-0.008933897,-0.016722424,0.03451386,-10.51875,-43.36875,-25.931252,0.17072016,0.13610223,0.67752653,995.36395, , , , 
2025-09-28 19:23:51.750,0.4642076,4.2855453,8.997013,0.063759014,-0.06314815,0.04612029,-10.181251,-44.7,-26.6625,0.17091255,0.13593492,0.6777948,995.36395, , , , 
2025-09-28 19:23:51.770,0.49292147,4.290331,8.662018,0.06314815,-0.11018474,0.042455103,-9.6,-41.15625,-27.075,0.17211632,0.13579917,0.67784595,995.3603, , , , 
2025-09-28 19:23:51.790,0.53359944,4.26401,8.60459,0.008781182,-0.08269582,0.03940078,-10.668751,-45.0,-27.206251,0.1734982,0.1353931,0.6778336,995.3603, , , , 
2025-09-28 19:23:51.810,0.72023964,4.2592244,8.874979,-0.05902481,0.026038112,0.029626941,-10.05,-43.425003,-28.29375,0.1739625,0.13487965,0.6781183,995.35297, , , , 
2025-09-28 19:23:51.831,0.6987042,4.2329035,9.138189,-0.064522594,0.08834632,0.0033597562,-11.34375,-44.68125,-27.768751,0.17348504,0.13449942,0.67846566,995.35297, , , , 
2025-09-28 19:23:51.850,0.5766702,4.213761,9.183653,-0.020540329,0.108504854,-0.008857539,-11.19375,-43.818752,-25.66875,0.17257689,0.13451862,0.6787622,995.35565, , , , 
2025-09-28 19:23:51.871,0.45702913,4.28076,8.9013,0.013668099,0.074907295,-0.014966187,-11.2875,-44.4375,-27.16875,0.1719167,0.13498133,0.6788996,995.35565, , , , 
2025-09-28 19:23:51.890,0.3900301,4.319045,8.6141615,-9.926553E-4,0.027259842,-0.010079269,-10.44375,-46.2,-29.475,0.17180954,0.13546506,0.6788605,995.3498, , , , 
2025-09-28 19:23:51.910,0.5407779,4.302295,8.707481,-0.07002038,0.033368487,-0.010690134,-9.168751,-44.943752,-28.9125,0.17179944,0.13581674,0.6787551,995.3498, , , , 
2025-09-28 19:23:51.930,0.6412765,4.2329035,8.810373,-0.08895718,0.09689843,-0.024129158,-9.9375,-44.287502,-27.6375,0.17130509,0.13568814,0.6788196,995.3461, , , , 
2025-09-28 19:23:51.950,0.56470615,4.2831526,8.733803,-0.10117448,0.17569998,-0.028405212,-11.64375,-44.71875,-27.112501,0.17045808,0.1358102,0.67894596,995.3461, , , , 
2025-09-28 19:23:51.970,0.6867401,4.223332,8.645268,-0.12377647,0.17325652,-0.07055488,-10.9875,-43.66875,-26.94375,0.16817693,0.13654327,0.67921114,995.3393, , , , 
2025-09-28 19:23:51.990,0.44506502,4.2281175,8.4705925,-0.08651373,0.041920595,-0.08704823,-10.40625,-43.725002,-27.91875,0.16703069,0.13673174,0.678997,995.3393, , , , 
2025-09-28 19:23:52.010,0.78723866,4.2759743,7.891529,-0.03642281,-0.37407833,-0.08460477,-10.012501,-43.18125,-27.69375,0.16765518,0.136024,0.6783018,995.32904, , , , 
2025-09-28 19:23:52.030,0.83748794,3.9218364,7.4775705,-0.0193186,-0.6770672,-0.08643737,-10.03125,-44.15625,-29.643751,0.17041712,0.13371287,0.6773019,995.32904, , , , 
2025-09-28 19:23:52.050,0.48095736,3.3116665,6.4151573,-0.029092435,-0.8865939,0.11026109,-8.962501,-45.412502,-29.98125,0.17752723,0.12712546,0.6753673,995.32294, , , , 
2025-09-28 19:23:52.070,0.93320084,2.9886355,5.611169,-0.023594651,-1.0771837,0.32406378,-10.51875,-43.59375,-28.5375,0.18410958,0.12050388,0.67496055,995.32294, , , , 
2025-09-28 19:23:52.090,2.4215364,2.5339992,4.476971,0.13828452,-1.825493,0.4553997,-13.106251,-45.487503,-27.54375,0.19664352,0.107970506,0.6752071,995.30756, , , , 
2025-09-28 19:23:52.110,1.942972,1.3854443,2.8091738,0.43027788,-2.9800274,0.46273008,-12.937501,-43.350002,-29.38125,0.214404,0.09271175,0.6734006,995.30756, , , , 
2025-09-28 19:23:52.130,2.5579274,0.7800602,0.82313097,0.4437169,-3.3740354,0.5061015,-15.562501,-44.5125,-26.41875,0.23278642,0.077797025,0.6704995,995.27997, , , , 
2025-09-28 19:23:52.150,1.6534405,0.72741807,-0.701097,0.06620247,-3.708789,0.7712168,-17.41875,-44.831253,-24.656252,0.26494467,0.048199255,0.664546,995.27997, , , , 
2025-09-28 19:23:52.170,1.227518,-0.13160525,-1.402194,-0.270384,-3.9164832,1.0277799,-21.31875,-43.74375,-24.0,0.28958824,0.019955508,0.6601139,995.2387, , , , 
2025-09-28 19:23:52.190,-0.76570326,-0.634098,-2.589034,-0.6472876,-4.025828,1.4804308,-21.975,-42.581253,-22.29375,0.3069376,-0.004685897,0.6573779,995.2387, , , , 
2025-09-28 19:23:52.210,-0.11964113,-1.9908284,-1.6606189,-1.2398264,-4.1620507,2.3154829,-24.45,-43.10625,-20.925001,0.32119727,-0.032671597,0.65713745,995.19354, , , , 
2025-09-28 19:23:52.230,5.919843,-4.342973,1.2251252,-2.0131812,-5.083235,3.4749043,-28.275002,-40.36875,-22.5375,0.35024896,-0.120898925,0.6617388,995.19354, , , , 
2025-09-28 19:23:52.250,10.193424,-4.95075,2.6344976,-2.1249695,-4.671512,3.4382524,-35.100002,-37.5,-17.5125,0.36410654,-0.17905073,0.6636225,995.1672, , , , 
2025-09-28 19:23:52.270,10.49492,-5.300102,3.1250265,-2.3051746,-4.1333404,3.2311692,-38.081253,-34.818752,-17.04375,0.3708741,-0.22021851,0.66387665,995.1672, , , , 
2025-09-28 19:23:52.291,9.190832,-5.395815,4.409972,-2.4175737,-3.9708502,3.2085671,-40.48125,-32.831253,-15.806251,0.37525928,-0.27233884,0.6625004,995.16327, , , , 
2025-09-28 19:23:52.310,9.966106,-6.235696,4.0558343,-2.2844052,-3.6501462,3.3997679,-45.112503,-28.743752,-12.468751,0.37633434,-0.33419225,0.65998214,995.16327, , , , 
2025-09-28 19:23:52.330,10.688739,-6.8051877,3.426522,-2.348546,-3.6000552,3.4529133,-46.03125,-24.375002,-10.6125,0.37524253,-0.3697747,0.6581258,995.1833,37.88835652,127.73987082,151.162109375,0.0
2025-09-28 19:23:52.350,10.767702,-7.5254273,3.2757742,-2.448117,-3.6330419,3.5610363,-47.79375,-24.31875,-9.356251,0.37308246,-0.40518498,0.6552116,995.1833, , , , 
2025-09-28 19:23:52.370,13.000205,-8.836694,5.3766723,-2.2844052,-3.7332237,3.7595673,-52.725002,-18.4125,-2.0812502,0.36423984,-0.48734337,0.6447768,995.195, , , , 
2025-09-28 19:23:52.390,13.763515,-9.243474,5.029713,-1.9667555,-3.1840563,3.7045894,-52.612503,-14.2875,-2.4750001,0.3576777,-0.52907777,0.63871604,995.195, , , , 
2025-09-28 19:23:52.410,13.99562,-9.243474,4.249653,-1.7865504,-2.2793655,3.5573711,-48.862503,-9.20625,0.8625,0.34734732,-0.5641242,0.6344595,995.2238, , , , 
2025-09-28 19:23:52.431,13.593625,-9.221938,3.7208393,-1.6955316,-1.7619631,3.3796093,-50.100002,-6.6000004,1.4625001,0.33687702,-0.5864161,0.63229114,995.2238, , , , 
2025-09-28 19:23:52.450,13.07199,-9.317652,3.5102708,-1.5855759,-1.5609885,3.2299476,-49.275,-2.53125,1.7625,0.32547304,-0.6063547,0.63029116,995.25507, , , , 
2025-09-28 19:23:52.470,11.684153,-9.664611,3.5676985,-1.29175,-1.4180462,3.0332491,-51.600002,-0.69375,4.9875,0.30257046,-0.6408455,0.6264612,995.25507, , , , 
2025-09-28 19:23:52.490,11.310873,-9.9038925,3.0173492,-0.9722676,-1.3954443,2.983158,-51.693752,0.41250002,6.7875004,0.28826192,-0.6602952,0.624723,995.2668, , , , 
2025-09-28 19:23:52.510,10.911271,-10.097712,1.9381863,-0.71203923,-1.2671627,2.9403975,-48.6375,3.8437502,5.49375,0.2712032,-0.6806757,0.6241962,995.2668, , , , 
2025-09-28 19:23:52.530,10.858629,-10.277173,1.2179468,-0.58803374,-1.125442,2.916574,-49.687504,6.9375005,10.06875,0.25731492,-0.6945541,0.62460554,995.28046, , , , 
2025-09-28 19:23:52.550,11.023734,-10.327422,0.9068798,-0.5031235,-0.99288434,2.8310528,-48.768753,8.418751,7.1062503,0.24308632,-0.706731,0.6252544,995.28046, , , , 
2025-09-28 19:23:52.570,11.047662,-9.997213,0.6412765,-0.40477428,-0.86277014,2.704604,-47.30625,12.281251,10.275001,0.23249541,-0.7147075,0.6258453,995.29364, , , , 
2025-09-28 19:23:52.590,10.772488,-9.674182,0.1052842,-0.3504073,-0.6306415,2.4932446,-44.775,16.875,11.137501,0.21864647,-0.7236756,0.6267905,995.29364, , , , 
2025-09-28 19:23:52.610,9.705289,-9.647861,-0.5766702,-0.40416342,-0.303218,2.2488987,-46.74375,15.168751,12.225,0.20123854,-0.7328559,0.6277064,995.29706, , , , 
2025-09-28 19:23:52.631,9.815358,-9.162118,-0.24885355,-0.44570222,-0.12606722,2.0949607,-46.03125,16.5,11.90625,0.19049287,-0.73790526,0.62777305,995.29706, , , , 
2025-09-28 19:23:52.650,9.590433,-8.781659,-0.13399807,-0.405996,0.14271328,1.7174463,-43.443752,18.375,11.38125,0.17312555,-0.74498975,0.6275951,995.29706, , , , 
2025-09-28 19:23:52.670,8.29113,-8.9013,-0.4426722,-0.40843946,0.3314705,1.4584397,-40.3125,21.5625,11.493751,0.16025142,-0.7492908,0.6274042,995.29706, , , , 
2025-09-28 19:23:52.690,7.836494,-8.965906,-0.29192436,-0.42126763,0.40171996,1.3570361,-42.768753,21.91875,13.275001,0.14778636,-0.7530537,0.6269342,995.29974, , , , 
2025-09-28 19:23:52.710,7.905886,-8.889337,0.040677983,-0.37117672,0.43409577,1.2366958,-42.24375,22.96875,12.543751,0.13877344,-0.7555267,0.6265674,995.29974, , , , 
2025-09-28 19:23:52.730,7.1210403,-8.650054,-0.29671,-0.23006694,0.4408153,0.9355394,-42.15,23.475,13.275001,0.12297109,-0.75887394,0.62649286,995.3046, , , , 
2025-09-28 19:23:52.750,6.8745794,-8.499306,-0.52163535,-0.18425208,0.4566978,0.8005383,-40.65,23.5125,11.418751,0.113976896,-0.7602988,0.6266932,995.3046, , , , 
2025-09-28 19:23:52.770,6.920043,-8.350951,-0.56470615,-0.16409355,0.47258025,0.6789762,-41.081253,25.2,13.218751,0.10588985,-0.7613116,0.62692416,995.3122, , , , 
2025-09-28 19:23:52.790,6.862615,-8.224132,-0.40677986,-0.11339177,0.405996,0.5403099,-41.475002,25.29375,12.01875,0.100631475,-0.761818,0.6271011,995.3122, , , , 
2025-09-28 19:23:52.810,6.606583,-8.070991,-0.23928227,-0.021762058,0.3125337,0.41325003,-41.175003,25.331251,11.681251,0.09521973,-0.76202065,0.62757176,995.3171, , , , 
2025-09-28 19:23:52.830,6.6017976,-8.145168,-0.4354937,0.1004109,0.20990841,0.26664248,-38.79375,24.6,9.76875,0.08993528,-0.76114315,0.62925005,995.3171, , , , 
2025-09-28 19:23:52.850,6.960721,-7.9561353,-0.57427746,0.15538873,0.2410625,0.07971785,-38.287502,25.650002,9.1875,0.087942764,-0.76001924,0.6306712,995.3271, , , , 
2025-09-28 19:23:52.870,5.45085,-8.427522,-1.442872,0.118125975,0.39988735,-0.1084285,-40.050003,25.706251,10.462501,0.08699148,-0.7584334,0.6320827,995.3271, , , , 
2025-09-28 19:23:52.890,4.7306104,-8.532805,-1.2442678,0.0112246405,0.47441286,-0.0754418,-40.443752,27.4125,10.40625,0.08560338,-0.7572243,0.6328324,995.3271, , , , 
2025-09-28 19:23:52.910,4.709075,-8.348558,-0.57188463,0.003894263,0.50068,-0.04978548,-39.7125,25.7625,8.56875,0.08336818,-0.7564203,0.63314813,995.3271, , , , 
2025-09-28 19:23:52.930,4.362116,-8.23131,-0.47377887,0.07536544,0.43287405,-0.057115857,-40.85625,27.487501,10.125,0.081085,-0.75534165,0.6337789,995.331, , , , 
2025-09-28 19:23:52.950,4.0701914,-8.374879,-0.7465607,0.15599959,0.2154062,-0.027794348,-40.29375,25.06875,8.512501,0.07942796,-0.7536295,0.63518685,995.331, , , , 
2025-09-28 19:23:52.970,3.9864426,-8.571091,-0.9451649,0.16699515,0.12927426,0.016798781,-38.756252,26.737501,6.24375,0.07895017,-0.7525941,0.636209,995.3393, , , , 
2025-09-28 19:23:52.990,4.005585,-8.750552,-0.9619147,0.154167,0.01809687,0.0772744,-39.75,25.518751,7.18125,0.07829518,-0.7511036,0.63788956,995.3393, , , , 
2025-09-28 19:23:53.010,4.342973,-8.650054,-0.45702913,0.2079231,-0.23602287,0.107817635,-39.15,26.212502,6.3187504,0.07851956,-0.75016415,0.639234,995.34564, , , , 
2025-09-28 19:23:53.030,4.395615,-8.34138,-0.2321038,0.3429242,-0.48281226,0.09376775,-39.693752,25.781252,6.7125,0.07989069,-0.74927145,0.6406146,995.34564, , , , 
2025-09-28 19:23:53.050,4.4195433,-8.023134,-0.8207382,0.5127446,-0.6941715,0.098654665,-39.9,25.612501,8.7375,0.084460385,-0.7469322,0.6440701,995.3537, , , , 
2025-09-28 19:23:53.070,4.816752,-8.090134,-1.2849457,0.53717923,-0.8108466,0.12064579,-39.7125,27.2625,8.175,0.08922601,-0.7446624,0.64735204,995.3537, , , , 
2025-09-28 19:23:53.090,6.142376,-8.233703,-1.5840486,0.47426015,-1.0435861,0.123089254,-40.03125,26.456251,9.7875,0.09660571,-0.74217045,0.65101606,995.3505, , , , 
2025-09-28 19:23:53.110,7.503892,-8.059027,-1.1676974,0.3661371,-1.0545816,0.046731155,-40.21875,27.056252,10.556251,0.10373143,-0.7408004,0.6529767,995.3505, , , , 
2025-09-28 19:23:53.132,8.370093,-7.3698936,-0.19142582,0.26229006,-0.86215925,-0.13530655,-38.850002,25.725,8.94375,0.11125782,-0.739694,0.6541067,995.3515, , , , 
2025-09-28 19:23:53.150,9.083155,-7.1449685,0.701097,0.25373796,-0.72043866,-0.31734425,-39.581253,27.13125,8.625,0.11891486,-0.7384325,0.65480846,995.3515, , , , 
2025-09-28 19:23:53.170,9.915857,-7.097112,1.5002998,0.38018698,-0.70333445,-0.5103775,-39.0,27.300001,10.25625,0.12744103,-0.73635864,0.6558164,995.35834, , , , 
2025-09-28 19:23:53.190,10.461421,-7.176075,1.3399807,0.5756637,-0.6734021,-0.75777775,-39.54375,26.643751,9.262501,0.13509852,-0.73368585,0.6573122,995.35834, , , , 
2025-09-28 19:23:53.210,10.593026,-7.389036,0.64845496,0.66484994,-0.6257546,-0.9782999,-40.78125,26.60625,12.7875,0.14385414,-0.7300117,0.6593954,995.38055, , , , 
2025-09-28 19:23:53.230,10.782059,-8.673982,0.22731815,0.62025684,-0.81756616,-1.371086,-40.537502,24.7875,11.175,0.16863385,-0.7200518,0.66354585,995.38055, , , , 
2025-09-28 19:23:53.250,11.253445,-9.403793,0.2847459,0.6135373,-0.9837214,-1.506698,-40.4625,24.4125,11.025001,0.17715305,-0.7171352,0.66420466,995.3891, , , , 
2025-09-28 19:23:53.270,11.8899355,-10.356136,-0.040677983,0.597044,-1.0472513,-1.7107269,-40.425003,24.656252,11.325001,0.19623275,-0.7109904,0.66487783,995.3891, , , , 
2025-09-28 19:23:53.290,11.944971,-10.217353,-0.41156548,0.3343721,-0.60315263,-2.0650284,-40.36875,24.525002,14.868751,0.22630948,-0.7013045,0.6639209,995.38495, , , , 
2025-09-28 19:23:53.310,11.41855,-9.099904,0.50009996,0.16699515,-0.101632625,-2.2824962,-41.04375,22.462502,13.51875,0.24438478,-0.694815,0.66197675,995.38495, , , , 
2025-09-28 19:23:53.330,10.875379,-8.396415,1.4548361,0.267177,0.23800819,-2.5573854,-41.100002,20.71875,13.312501,0.2607879,-0.68717843,0.6600921,995.37885,37.88835652,127.73987082,151.162109375,0.0
2025-09-28 19:23:53.350,9.851251,-8.403593,0.94277215,0.5157989,0.2202931,-2.7229297,-42.112503,17.8875,12.975,0.27743244,-0.6771648,0.6591212,995.37885, , , , 
2025-09-28 19:23:53.370,9.523434,-8.489735,-0.15553348,0.6086504,-0.0032833982,-2.8188355,-43.36875,15.262501,12.937501,0.29553053,-0.6653045,0.65849304,995.3796, , , , 
2025-09-28 19:23:53.391,9.226724,-8.513663,-0.4019942,0.5762746,-0.16210824,-2.8909175,-46.818752,12.7875,14.062501,0.31034145,-0.65612924,0.6572338,995.3796, , , , 
2025-09-28 19:23:53.410,8.721839,-8.568698,-0.47138608,0.50846857,-0.27511823,-2.9306238,-46.725002,11.0625,14.156251,0.33112094,-0.64395654,0.6541501,995.37396, , , , 
2025-09-28 19:23:53.430,8.360522,-8.9826565,-0.33499518,0.34964374,-0.32154396,-2.9721625,-46.66875,8.45625,14.2875,0.35729265,-0.62911105,0.6482321,995.37396, , , , 
2025-09-28 19:23:53.450,7.7072816,-9.54497,-0.3493521,0.22136213,-0.19753839,-2.961167,-47.98125,4.9500003,14.94375,0.38240457,-0.61446404,0.6406105,995.3637, , , , 
2025-09-28 19:23:53.471,7.0636125,-9.49472,-0.20338993,0.07903063,-0.07903063,-2.8292203,-48.581253,-0.84375006,16.10625,0.40485638,-0.60013634,0.6321338,995.3637, , , , 
2025-09-28 19:23:53.490,7.4010005,-9.188439,0.0526421,0.022220206,-0.009392046,-2.7571383,-48.600002,-1.2,12.88125,0.41692242,-0.5918939,0.6267746,995.3581, , , , 
2025-09-28 19:23:53.510,7.9704924,-8.705089,0.54317075,0.033215772,-0.021609342,-2.736369,-48.131252,-4.6312504,13.500001,0.4355773,-0.5780415,0.61758655,995.3581, , , , 
2025-09-28 19:23:53.530,7.1784678,-8.441878,0.71306115,0.26290092,-0.074143715,-2.6648977,-49.10625,-5.7375,14.887501,0.45052174,-0.56613237,0.6103578,995.3449, , , , 
2025-09-28 19:23:53.550,6.283552,-7.8580294,-0.6723832,0.41500625,-0.08147409,-2.4889686,-49.425003,-8.64375,16.181252,0.46543834,-0.5533271,0.60420996,995.3449, , , , 
2025-09-28 19:23:53.570,5.3814583,-7.381858,-1.8496519,0.32032222,0.0193186,-2.3283112,-49.406254,-9.900001,18.09375,0.47585377,-0.5438936,0.5999487,995.33856, , , , 
2025-09-28 19:23:53.590,4.1084766,-6.984649,-2.565106,0.09369139,0.11950042,-2.1218388,-48.15,-12.618751,15.187501,0.48764452,-0.53258175,0.594121,995.33856, , , , 
2025-09-28 19:23:53.610,2.926422,-6.6568327,-2.37368,-0.20379977,0.14149155,-1.8524474,-46.518753,-15.4125,14.250001,0.4945102,-0.5257517,0.589414,995.3151, , , , 
2025-09-28 19:23:53.630,0.81834537,-6.1878395,-0.32542387,-0.36140287,0.026038112,-1.2092068,-47.831253,-17.6625,13.743751,0.5033492,-0.51726425,0.57969123,995.3151, , , , 
2025-09-28 19:23:53.650,-0.031106694,-6.0801625,0.07178468,-0.26427537,-0.08513928,-0.85734874,-48.43125,-18.46875,13.2375,0.5060817,-0.515171,0.57580537,995.2934, , , , 
2025-09-28 19:23:53.670,-1.2586247,-6.4869423,-0.44985065,-0.033979353,-0.38018698,0.11026109,-45.206253,-20.00625,12.525001,0.50883424,-0.51521355,0.5721223,995.2934, , , , 
2025-09-28 19:23:53.690,-1.2562319,-6.6281185,-1.3040884,-0.07857248,-0.39790204,1.041219,-45.393753,-19.40625,12.806251,0.50766295,-0.5213449,0.5722721,995.3007, , , , 
2025-09-28 19:23:53.710,-0.09332009,-6.6448684,-1.0719845,-0.2154062,-0.10651954,1.8090761,-44.1375,-17.53125,12.88125,0.501017,-0.53089136,0.57567865,995.3007, , , , 
2025-09-28 19:23:53.730,1.1892328,-6.836294,-0.85184485,-0.30581418,0.28260133,2.2996004,-46.85625,-17.081251,14.85,0.49198085,-0.53971857,0.5804723,995.29803, , , , 
2025-09-28 19:23:53.750,1.9334008,-8.458628,-0.85902333,-0.5306124,0.6020836,2.7589707,-46.800003,-14.08125,12.975,0.4699063,-0.55581284,0.59180343,995.29803, , , , 
2025-09-28 19:23:53.770,2.1511476,-9.571291,0.29671,-0.5672643,0.35162905,3.093114,-47.287502,-11.26875,13.931251,0.44838732,-0.57088476,0.6012497,995.289, , , , 
2025-09-28 19:23:53.790,3.1465619,-10.430314,1.119841,-0.39316785,0.059635673,3.4461937,-48.281254,-8.25,13.25625,0.4317611,-0.583429,0.6081432,995.289, , , , 
2025-09-28 19:23:53.811,5.797809,-10.908878,0.8662018,0.042378742,-0.086361006,3.6954265,-47.475002,-4.425,11.868751,0.3982812,-0.60775644,0.62337375,995.2817, , , , 
2025-09-28 19:23:53.830,6.652047,-10.851451,-0.3924229,0.22197299,-0.028939718,3.5647013,-46.78125,-2.3625002,12.3,0.3764647,-0.62109834,0.63435364,995.2817, , , , 
2025-09-28 19:23:53.850,6.5084777,-11.169696,-1.2466606,0.17676899,0.011988222,3.4529133,-46.425003,5.25,13.51875,0.36579633,-0.6269602,0.6395838,995.2907, , , , 
2025-09-28 19:23:53.870,6.0418773,-11.691332,-1.2083755,0.033826638,0.024205517,3.382053,-47.831253,2.625,13.200001,0.34446433,-0.63838506,0.64855397,995.2907, , , , 
2025-09-28 19:23:53.891,5.895915,-12.64846,-0.41156548,0.030161448,-0.029550584,3.5158322,-47.925003,9.5625,14.512501,0.3056849,-0.6577532,0.66133785,995.29193, , , , 
2025-09-28 19:23:53.911,6.206982,-12.765709,-0.4235296,0.06131555,-0.027107125,3.5561492,-44.925003,12.731251,14.025001,0.28850985,-0.6653108,0.66635686,995.29193, , , , 
2025-09-28 19:23:53.930,6.142376,-12.758531,0.011964113,0.063759014,-0.101632625,3.5671449,-42.91875,15.20625,11.3625,0.26547372,-0.67463136,0.6723374,995.28973, , , , 
2025-09-28 19:23:53.950,6.178268,-12.966706,0.18185452,0.10529782,-0.07047852,3.6092947,-43.893753,18.975,9.543751,0.24822548,-0.68098664,0.6763404,995.28973, , , , 
2025-09-28 19:23:53.970,7.02772,-13.052848,-0.12203395,0.14989094,0.11155918,3.6862636,-42.206253,21.50625,10.14375,0.21170907,-0.6916485,0.6839558,995.2934, , , , 
2025-09-28 19:23:53.990,7.623533,-12.770494,-0.39960137,0.03138318,0.23189954,3.6691594,-42.037502,23.8875,10.293751,0.18631372,-0.697731,0.6879856,995.2934, , , , 
2025-09-28 19:23:54.010,8.29113,-12.150753,0.15314065,-0.108504854,0.4652499,3.6154032,-39.0,26.56875,10.44375,0.15998839,-0.70367736,0.6904524,995.29755, , , , 
2025-09-28 19:23:54.030,9.466006,-11.389835,0.80877405,-0.20807582,0.9997566,3.4028223,-37.48125,28.331251,11.118751,0.1320225,-0.7091156,0.6918577,995.29755, , , , 
2025-09-28 19:23:54.050,9.669396,-10.688739,1.038485,-0.24167338,1.5446479,3.0033166,-34.93125,32.30625,12.01875,0.102604285,-0.713551,0.6927364,995.2944, , , , 
2025-09-28 19:23:54.070,9.032906,-10.236495,0.9523434,-0.27832526,1.7700571,2.689943,-35.025,31.706251,9.900001,0.0728974,-0.71702874,0.6930712,995.2944, , , , 
2025-09-28 19:23:54.090,8.843872,-9.710074,1.1485549,-0.26305366,1.6772056,2.4578145,-31.725,34.575,8.325001,0.03721066,-0.720442,0.6924425,995.29584, , , , 
2025-09-28 19:23:54.110,9.312865,-9.489935,1.253839,-0.073685564,1.2813653,2.2672246,-27.937502,35.325,6.0,0.017835883,-0.72166526,0.6919713,995.29584, , , , 
2025-09-28 19:23:54.130,9.705289,-9.221938,0.9284152,0.11873684,0.84826213,2.1279476,-28.500002,36.99375,7.8187504,-0.004030706,-0.72161776,0.6922752,995.3007, , , , 
2025-09-28 19:23:54.150,10.939985,-8.281559,-0.4211368,0.3343721,0.32169667,1.782198,-27.018751,38.4,5.8875003,0.023914682,0.71909666,-0.6944671,995.3007, , , , 
2025-09-28 19:23:54.170,11.600404,-7.719246,-1.457229,0.24274239,0.324751,1.3997966,-24.618752,37.893753,5.5125003,0.035199594,0.71674544,-0.6963221,995.30756, , , , 
2025-09-28 19:23:54.190,12.342179,-7.9154572,-1.7682959,0.032604907,0.3662898,1.0204496,-24.6,39.6375,7.5750003,0.04205927,0.7158356,-0.6968197,995.30756, , , , 
2025-09-28 19:23:54.210,12.9547415,-8.611769,-1.442872,-0.118889555,0.2154062,0.62949616,-25.7625,39.6375,7.5375004,0.046906583,0.7159333,-0.69638485,995.3029, , , , 
2025-09-28 19:23:54.230,13.92862,-9.894321,-0.6843473,-0.19830199,-0.32093307,-0.26419902,-22.78125,40.4625,5.175,0.045257654,0.71818733,-0.6941931,995.3029, , , , 
2025-09-28 19:23:54.250,14.13201,-11.01177,-0.59581286,-0.3265836,-0.28672466,-0.83780104,-24.900002,40.237503,6.4875,0.0368845,0.7202109,-0.6926685,995.3049, , , , 
2025-09-28 19:23:54.270,13.746766,-11.720045,0.2416751,-0.39500043,-0.07475458,-1.3057234,-22.44375,40.10625,6.7125,0.028627336,0.72232825,-0.69093037,995.3049, , , , 
2025-09-28 19:23:54.290,12.674782,-11.066805,1.1318051,-0.3033707,0.19402592,-1.8145739,-22.40625,39.487503,6.43125,-0.012855531,-0.72561073,0.6879139,995.31366, , , , 
2025-09-28 19:23:54.310,11.813365,-10.530812,1.524228,-0.15493058,0.25572327,-2.3026547,-26.1375,37.631252,5.53125,0.0017801968,-0.7269807,0.6861097,995.31366, , , , 
2025-09-28 19:23:54.330,10.801202,-10.719846,1.7922242,0.11995857,-0.0240528,-2.8603742,-25.35,38.8125,7.5375004,0.020039938,-0.7266273,0.6850988,995.32587,37.88835652,127.73987082,151.162109375,0.0
2025-09-28 19:23:54.350,10.573883,-10.803595,1.7898313,0.19020802,-0.14011711,-2.9764385,-29.60625,35.8875,7.8562503,0.025421616,-0.72618484,0.6850158,995.32587, , , , 
2025-09-28 19:23:54.370,9.047262,-11.60519,1.3615161,0.42722356,-0.6929497,-3.4107635,-29.343752,37.275,8.83125,0.05792764,-0.72186947,0.6852287,995.3442, , , , 
2025-09-28 19:23:54.390,8.836694,-12.449856,1.2299109,0.47792533,-1.0038799,-3.5592036,-35.381252,33.43125,7.6687503,0.096357405,-0.7152162,0.6849378,995.3442, , , , 
2025-09-28 19:23:54.410,9.501899,-13.217953,1.160519,0.3746892,-1.220126,-3.7161958,-35.025,30.73125,6.8625,0.12940767,-0.708993,0.6832817,995.35614, , , , 
2025-09-28 19:23:54.430,9.298509,-14.086547,2.3425734,0.31115925,-1.5664864,-3.9544332,-38.5875,27.618752,7.2562504,0.18289317,-0.698859,0.6768802,995.35614, , , , 
2025-09-28 19:23:54.450,9.176475,-13.873586,2.6632116,0.36308277,-1.7662392,-4.136471,-41.568752,23.71875,6.5625005,0.22135675,-0.69064265,0.6705947,995.3659, , , , 
2025-09-28 19:23:54.471,8.719446,-13.737195,2.160719,0.30199626,-1.4229331,-4.3142323,-42.73125,21.9375,11.1,0.2603486,-0.6806794,0.66299826,995.3659, , , , 
2025-09-28 19:23:54.490,7.183254,-13.8041935,2.1678972,0.24579671,-0.68195415,-4.3282824,-45.018753,18.075,13.875001,0.29585442,-0.66887856,0.65477365,995.3798, , , , 
2025-09-28 19:23:54.510,6.719046,-13.765908,1.2586247,0.25679228,-0.19509494,-4.162738,-43.93125,13.33125,14.043751,0.3261805,-0.65519726,0.64731497,995.3798, , , , 
2025-09-28 19:23:54.530,6.853044,-13.825729,0.5072784,0.16210824,0.12744166,-4.0478954,-44.98125,9.50625,13.593751,0.3519649,-0.6405368,0.6402797,995.3886, , , , 
2025-09-28 19:23:54.550,6.649654,-13.430914,0.7704889,0.04176788,0.21296273,-3.9318311,-47.60625,4.5,13.218751,0.3798932,-0.62195194,0.63062644,995.3886, , , , 
2025-09-28 19:23:54.570,6.101698,-13.098311,1.1581261,0.05948296,0.18364123,-3.8456993,-45.16875,2.775,13.06875,0.39562207,-0.61068904,0.6242115,995.3942, , , , 
2025-09-28 19:23:54.591,4.974678,-12.727424,1.0719845,0.13706279,0.20379977,-3.6697702,-49.29375,-5.1375003,15.50625,0.42043772,-0.5913376,0.61334765,995.3942, , , , 
2025-09-28 19:23:54.610,3.3020952,-12.1459675,0.74177504,0.22258386,0.1787543,-3.4865108,-45.99375,-4.9125004,13.44375,0.43878412,-0.5754062,0.60492873,995.394, , , , 
2025-09-28 19:23:54.630,2.5268207,-11.810972,0.5383851,0.23052509,0.12072215,-3.4046547,-47.2125,-8.6625,15.4875,0.44755387,-0.5674616,0.6007941,995.394, , , , 
2025-09-28 19:23:54.651,-0.41635114,-10.552348,0.023928227,0.20181446,0.03642281,-3.0173666,-45.80625,-12.843751,11.400001,0.468356,-0.54890454,0.590093,995.39276, , , , 
2025-09-28 19:23:54.670,-2.9479575,-10.076176,-0.31585258,0.16516256,0.050472703,-2.5292857,-47.23125,-13.25625,13.743751,0.47896522,-0.53893024,0.584182,995.39276, , , , 
2025-09-28 19:23:54.690,-4.3908296,-9.84168,-0.14356937,0.13400847,-0.116293386,-1.4089596,-44.7,-17.34375,14.00625,0.49216333,-0.5265871,0.5764121,995.3881, , , , 
2025-09-28 19:23:54.710,-2.9766715,-9.439685,0.3493521,0.23907721,-0.25068364,-0.4553997,-47.79375,-16.6875,14.925,0.50070506,-0.5203694,0.57212454,995.3881, , , , 
2025-09-28 19:23:54.730,-1.6821543,-9.49472,-0.4139583,0.29527676,-0.19265148,0.024129158,-45.375,-17.15625,12.375001,0.50296354,-0.51972294,0.5726031,995.3891, , , , 
2025-09-28 19:23:54.750,-1.4979069,-10.427921,-1.4524434,0.15050182,-0.2702313,0.47800168,-46.65,-16.9125,12.806251,0.50289965,-0.521211,0.57461035,995.3891, , , , 
2025-09-28 19:23:54.770,-1.4452649,-11.413764,-1.6773686,0.027107125,-0.4125628,0.883005,-45.487503,-16.931252,13.14375,0.5008848,-0.5262593,0.5766878,995.37836, , , , 
2025-09-28 19:23:54.790,-2.160719,-11.667403,-2.1248264,-0.15248711,-0.42844528,1.4401137,-46.800003,-16.06875,14.625001,0.49758324,-0.5325348,0.5786173,995.37836, , , , 
2025-09-28 19:23:54.810,-1.713261,-11.370693,-1.4620147,-0.34552038,-0.43272135,2.0418155,-48.787502,-15.562501,17.587502,0.49174187,-0.5414228,0.581126,995.35956, , , , 
2025-09-28 19:23:54.830,2.6153553,-11.674582,0.71306115,-0.25266895,-0.24824017,2.9489498,-48.393753,-14.493751,15.168751,0.46770594,-0.56956583,0.59082997,995.35956, , , , 
2025-09-28 19:23:54.850,4.699504,-12.256038,0.45702913,0.010002911,-0.07170025,3.1175485,-49.725002,-11.55,16.837502,0.44984034,-0.58516604,0.5998258,995.3525, , , , 
2025-09-28 19:23:54.870,4.9531426,-12.58864,-0.7106683,0.082084954,-0.0240528,3.182911,-50.025,-7.9687505,16.96875,0.4357365,-0.5956234,0.6075282,995.3525, , , , 
2025-09-28 19:23:54.892,5.17089,-12.617353,-0.5886344,-0.049861837,0.16959134,3.3570075,-48.487503,-3.0937502,19.1625,0.40533787,-0.6163252,0.62200624,995.3503, , , , 
2025-09-28 19:23:54.910,5.0392847,-12.406785,0.0741775,-0.022372922,0.37545276,3.490176,-46.443752,-1.125,16.368752,0.38795736,-0.6263181,0.629264,995.3503, , , , 
2025-09-28 19:23:54.930,4.981857,-11.861222,0.41874397,0.07475458,0.4163807,3.6013534,-46.55625,1.85625,14.962501,0.36291137,-0.6385196,0.6395575,995.3398, , , , 
2025-09-28 19:23:54.950,5.1900325,-11.452049,0.21535404,0.25251624,0.34307694,3.7846127,-45.225002,7.6125,13.575001,0.33038744,-0.65189546,0.65272915,995.3398, , , , 
2025-09-28 19:23:54.970,5.946164,-11.425728,-0.2009971,0.34231335,0.25572327,3.851197,-45.393753,10.44375,14.812501,0.31068897,-0.65904623,0.66038465,995.33856, , , , 
2025-09-28 19:23:54.990,6.666404,-11.507084,-0.8662018,0.3661371,0.17325652,3.8267624,-44.7,13.9875,16.087502,0.28480697,-0.6675429,0.6697925,995.33856, , , , 
2025-09-28 19:23:55.010,7.2287173,-11.736795,-1.5720844,0.28733552,0.14393501,3.779115,-44.081253,18.075,10.6875,0.2658052,-0.6733808,0.67583567,995.332, , , , 
2025-09-28 19:23:55.030,8.685946,-12.191431,-1.7754744,-0.11155918,0.106672265,3.621512,-44.381252,20.2875,10.9125,0.22829899,-0.68548137,0.6837014,995.332, , , , 
2025-09-28 19:23:55.050,9.159725,-12.143575,-1.1509477,-0.23373213,0.013209951,3.5042257,-42.131252,21.375,12.468751,0.21027716,-0.6919064,0.6853249,995.3205, , , , 
2025-09-28 19:23:55.070,9.633504,-12.076576,-0.20338993,-0.2880991,-0.07170025,3.3124142,-41.8875,24.0,12.281251,0.19341531,-0.6981528,0.68580043,995.3205, , , , 
2025-09-28 19:23:55.090,9.348758,-11.569298,0.52163535,-0.15737404,-0.04848739,3.0069818,-41.23125,26.775002,15.918751,0.16297935,-0.70837605,0.6856366,995.3129, , , , 
2025-09-28 19:23:55.110,9.066405,-11.117054,0.55034924,-0.031535894,0.084070265,2.9495606,-36.28125,29.306252,12.01875,0.13853885,-0.7141392,0.6859622,995.3129, , , , 
2025-09-28 19:23:55.130,9.683753,-10.588241,0.8063812,0.115071654,0.29542947,2.9104652,-35.79375,30.468752,14.681251,-0.11816896,0.7171696,-0.6868068,995.3139, , , , 
2025-09-28 19:23:55.150,10.801202,-9.348758,0.971486,0.37102398,0.44142616,2.8023422,-34.143753,32.006252,14.1,-0.0973577,0.71829766,-0.688708,995.3139, , , , 
2025-09-28 19:23:55.170,10.801202,-9.348758,0.971486,0.37102398,0.44142616,2.8023422,-34.143753,32.006252,14.1,-0.0973577,0.71829766,-0.688708,995.3139, , , , 
2025-09-28 19:23:55.190,12.80878,-7.5589266,-2.536392,0.5603921,1.2838087,2.1364996,-30.45,35.756252,12.58125,-0.05349719,0.7144644,-0.6967775,995.3261, , , , 
2025-09-28 19:23:55.210,12.892529,-8.362915,-2.8833513,0.416228,0.91851157,1.7296636,-27.2625,36.73125,8.793751,-0.03351382,0.7125909,-0.69978607,995.33075, , , , 
2025-09-28 19:23:55.231,12.9954195,-9.097511,-2.914458,0.34109163,0.30398157,1.4089596,-25.650002,39.525,7.6875005,-0.01979146,0.7110456,-0.701671,995.33075, , , , 
2025-09-28 19:23:55.250,14.246866,-9.60479,-2.900101,0.13889538,-0.046654798,0.8659008,-21.768751,39.80625,7.1062503,-0.011989518,0.7096134,-0.7028966,995.3183, , , , 
2025-09-28 19:23:55.270,14.703896,-10.875379,-2.565106,-0.05169443,0.15065452,0.3686569,-23.212502,40.0125,8.175,-0.010273293,0.7096897,-0.7027588,995.3183, , , , 
2025-09-28 19:23:55.291,14.196617,-10.916057,-1.9621146,-0.13843723,0.26855144,-0.19700389,-21.993752,38.8875,9.356251,-0.010442997,0.71113825,-0.7015663,995.3117, , , , 
2025-09-28 19:23:55.310,14.761323,-9.506684,-1.9142581,-0.2239583,0.22334744,-0.6490438,-23.19375,39.393753,8.681251,-0.013672617,0.7125749,-0.7004569,995.3117, , , , 
2025-09-28 19:23:55.330,15.101104,-8.848659,-1.0432707,-0.3644572,0.12988512,-1.3625339,-24.206251,39.525,9.543751,-0.019283773,0.7141097,-0.69913,995.31464,37.88835652,127.73987082,151.162109375,0.0
2025-09-28 19:23:55.350,13.880764,-9.913465,-0.18185452,-0.34857473,0.0064904382,-2.1322236,-25.706251,38.737503,10.837501,-0.032669783,0.7162263,-0.6969355,995.31464, , , , 
2025-09-28 19:23:55.371,10.911271,-12.722638,-0.11246266,-0.22701262,-0.4504364,-3.014923,-28.987501,36.91875,9.262501,0.0644196,-0.7170478,0.6939271,995.32025, , , , 
2025-09-28 19:23:55.390,10.1288185,-14.191831,-0.078963146,-0.21479532,-0.79924023,-3.3209665,-29.737501,36.206253,10.931251,0.09170699,-0.71598685,0.6913564,995.32025, , , , 
2025-09-28 19:23:55.410,10.554741,-14.813965,0.6029913,-0.26244277,-1.0637447,-3.5995207,-34.2,32.90625,10.05,0.12268988,-0.7140451,0.6874925,995.3298, , , , 
2025-09-28 19:23:55.430,10.695917,-14.866607,1.4141582,-0.25450155,-1.1248311,-3.827984,-34.331253,32.381252,11.175,0.1478648,-0.71182305,0.6836987,995.3298, , , , 
2025-09-28 19:23:55.450,10.612168,-14.601004,2.1870399,-0.16165009,-1.0619121,-4.097986,-37.40625,28.81875,12.468751,0.1827099,-0.70708823,0.6780513,995.3591, , , , 
2025-09-28 19:23:55.470,9.966106,-14.373686,2.5387847,0.082084954,-1.0411427,-4.455953,-39.05625,25.556252,10.35,0.22779186,-0.69724417,0.6707322,995.3591, , , , 
2025-09-28 19:23:55.490,9.111869,-14.254045,1.4596218,0.13767365,-0.96173024,-4.627606,-40.518753,24.150002,11.3625,0.25564033,-0.68909675,0.6661425,995.3847, , , , 
2025-09-28 19:23:55.510,8.420342,-14.534005,1.3328022,-0.049861837,-0.4718167,-4.804757,-42.112503,20.98125,15.262501,0.30058092,-0.6736793,0.65659046,995.3847, , , , 
2025-09-28 19:23:55.530,7.6953177,-14.871393,1.6773686,-0.06696605,0.01687514,-4.907382,-41.925003,15.281251,14.025001,0.3406349,-0.6557005,0.6456621,995.3991, , , , 
2025-09-28 19:23:55.550,6.2668023,-15.046069,1.2849457,-0.02481638,0.30520332,-4.886613,-44.568752,13.762501,14.08125,0.36923057,-0.63881135,0.6369526,995.3991, , , , 
2025-09-28 19:23:55.571,4.493721,-14.344972,1.2897314,0.009392046,0.36140287,-4.692969,-45.15,5.9812503,15.656251,0.39503062,-0.62065625,0.62802684,995.4074, , , , 
2025-09-28 19:23:55.590,3.9361932,-13.387843,1.3304094,0.072921984,0.26794055,-4.441903,-47.41875,1.25625,16.181252,0.41879523,-0.6021317,0.61873126,995.4074, , , , 
2025-09-28 19:23:55.610,3.0843484,-12.473784,0.89013004,0.13706279,0.29970554,-4.1804533,-48.43125,-5.1937504,16.650002,0.4409534,-0.58336174,0.6092141,995.41473, , , , 
2025-09-28 19:23:55.630,1.4524434,-11.437693,0.13160525,0.09308052,0.39255697,-3.8909032,-47.2125,-5.15625,13.743751,0.46079046,-0.5645731,0.59985304,995.41473, , , , 
2025-09-28 19:23:55.650,-0.64606214,-10.468599,-0.79441714,-0.049861837,0.6912699,-3.6221228,-48.05625,-9.993751,15.0375,0.47738963,-0.5464289,0.5907633,995.40936, , , , 
2025-09-28 19:23:55.670,-4.534399,-10.686346,-0.9810573,-0.2709949,0.6460659,-3.0986116,-48.80625,-15.0375,15.543751,0.48977566,-0.5294286,0.58219457,995.40936, , , , 
2025-09-28 19:23:55.690,-7.0612197,-10.856236,0.91405827,-0.15370885,-0.55183995,-1.8836015,-47.568752,-17.1375,12.750001,0.50202274,-0.51600486,0.57097083,995.3984, , , , 
2025-09-28 19:23:55.710,-5.113462,-10.624132,1.4955142,0.27511823,-1.4443134,-0.7174607,-45.9,-17.587502,12.918751,0.51289946,-0.51439464,0.56237984,995.3984, , , , 
2025-09-28 19:23:55.730,-2.6129622,-10.310673,-0.0526421,0.46692976,-1.2207369,0.044898562,-46.85625,-19.95,15.618751,0.52251935,-0.51712596,0.55716205,995.3859, , , , 
2025-09-28 19:23:55.750,-1.7970098,-10.516456,-1.9094725,0.24824017,-0.2201404,0.61544627,-46.18125,-17.775002,18.206251,0.5260506,-0.5207186,0.55704427,995.3859, , , , 
2025-09-28 19:23:55.770,-1.8424734,-11.952149,-2.8115666,-0.06818778,0.3522399,1.1786636,-46.74375,-18.45,17.53125,0.5216432,-0.5254255,0.56147283,995.37885, , , , 
2025-09-28 19:23:55.790,-1.7874385,-12.406785,-2.9623144,-0.40171996,0.47319114,1.8121303,-45.862503,-17.737501,17.1,0.5106042,-0.5335192,0.5684035,995.37885, , , , 
2025-09-28 19:23:55.810,-1.1629118,-11.710474,-1.6749759,-0.6619483,0.30092725,2.4321582,-45.112503,-15.431251,17.6625,0.49484083,-0.5462515,0.5757435,995.35516, , , , 
2025-09-28 19:23:55.830,0.68195444,-11.916257,0.63170516,-0.5965858,0.19646938,3.024697,-49.65,-14.025001,17.118752,0.4706654,-0.5671803,0.58512515,995.35516, , , , 
2025-09-28 19:23:55.850,2.8378878,-12.602997,1.7012969,-0.1909716,0.0022143847,3.3985462,-47.90625,-11.34375,15.8625,0.44905087,-0.58438534,0.59480596,995.33954, , , , 
2025-09-28 19:23:55.870,4.8382874,-13.203595,1.0695918,0.34781113,-0.4003455,3.585471,-48.187504,-8.400001,15.88125,0.42860624,-0.6000895,0.6061291,995.33954, , , , 
2025-09-28 19:23:55.890,6.491728,-14.019547,-1.4261223,0.5817723,-0.55367255,3.6349509,-46.96875,-3.0375001,16.368752,0.41031185,-0.61382246,0.6179301,995.3376, , , , 
2025-09-28 19:23:55.910,6.5204415,-14.08894,-2.4358935,0.38018698,-0.3447568,3.6612182,-48.318752,-3.1875002,16.518751,0.39181137,-0.6267333,0.6286623,995.3376, , , , 
2025-09-28 19:23:55.930,6.2931237,-13.177275,-2.1248264,0.077198036,-0.112017326,3.7534587,-49.312504,2.1750002,18.16875,0.3705999,-0.63994,0.6377983,995.33514, , , , 
2025-09-28 19:23:55.950,6.3744793,-12.18186,-0.85184485,-0.09628756,0.124998204,3.8566947,-46.537502,7.0875,15.750001,0.34657213,-0.6536005,0.6453012,995.33514, , , , 
2025-09-28 19:23:55.970,7.109076,-11.229517,0.22253251,-0.11033745,0.5135082,3.8774643,-47.25,11.71875,18.65625,0.31266028,-0.6695115,0.6540305,995.31976, , , , 
2025-09-28 19:23:55.990,7.611569,-10.837093,0.17706887,-0.082848534,0.78473216,3.760178,-46.93125,13.125001,16.368752,0.28316134,-0.68004256,0.661192,995.31976, , , , 
2025-09-28 19:23:56.010,7.8053875,-10.973485,-0.26081768,-0.16042836,0.8415426,3.5952446,-44.11875,17.53125,14.906251,0.25334477,-0.68902457,0.66754085,995.3195, , , , 
2025-09-28 19:23:56.030,8.047063,-11.294123,-0.2847459,-0.26549712,0.78717566,3.3985462,-43.350002,20.38125,11.868751,0.2244873,-0.69732964,0.67207956,995.3195, , , , 
2025-09-28 19:23:56.050,8.099705,-11.79183,0.009571291,-0.3540725,0.60819227,3.200015,-43.143753,22.25625,13.44375,0.19735435,-0.70513874,0.6747532,995.31854, , , , 
2025-09-28 19:23:56.070,8.216953,-12.201003,0.10289137,-0.34490952,0.545884,3.096168,-41.925003,23.25,14.025001,0.17216922,-0.71232945,0.6760385,995.31854, , , , 
2025-09-28 19:23:56.090,7.7671022,-11.583654,-0.5240282,-0.36201373,0.7914517,3.100444,-39.61875,26.60625,13.14375,0.1472354,-0.7185793,0.67682046,995.32074, , , , 
2025-09-28 19:23:56.110,8.3581295,-10.3441725,-0.7800602,-0.5452732,0.9502765,3.1108289,-35.5875,29.025002,10.875,0.12042874,-0.72463447,0.6767323,995.32074, , , , 
2025-09-28 19:23:56.130,9.552148,-8.819944,0.78723866,-0.6540071,0.8018364,2.925737,-35.737503,31.237501,12.0,0.08717614,-0.7327002,0.6740502,995.31757, , , , 
2025-09-28 19:23:56.150,10.475778,-8.516056,2.0673988,-0.36201373,0.600251,2.6477933,-32.53125,33.206253,9.69375,0.06376201,-0.7376558,0.6717423,995.31757, , , , 
2025-09-28 19:23:56.170,11.16491,-8.882157,1.5720844,0.1645517,0.108504854,2.3838997,-30.35625,36.037502,10.387501,0.044622406,-0.73918015,0.6719164,995.30756, , , , 
2025-09-28 19:23:56.190,12.64846,-9.430114,-0.6580262,0.6306415,-0.43944085,2.1261148,-27.206251,36.35625,10.05,-0.030981254,0.7371415,-0.67502606,995.30756, , , , 
2025-09-28 19:23:56.210,14.536398,-9.777073,-2.9599216,0.66668254,-0.5860484,1.7974696,-26.906252,36.393753,10.012501,-0.021915982,0.73318315,-0.6794855,995.3139, , , , 
2025-09-28 19:23:56.230,15.92902,-9.868001,-3.7136607,0.3050506,-0.416228,1.2880083,-25.275002,37.93125,9.450001,-0.016183881,0.7299917,-0.6826879,995.3139, , , , 
2025-09-28 19:23:56.250,16.53919,-10.427921,-1.6701902,0.021609342,-0.2928333,0.6368265,-27.618752,37.29375,11.7375,-0.013560097,0.72922987,-0.6832575,995.2978, , , , 
2025-09-28 19:23:56.270,15.661024,-11.1936245,0.11006984,0.33864817,-0.53901184,-0.028405212,-24.35625,38.8875,9.900001,-0.0167587,0.7282248,-0.6841444,995.2978, , , , 
2025-09-28 19:23:56.290,14.364115,-9.554541,-1.430908,0.6636282,-0.81206834,-0.5568032,-24.900002,39.7125,8.83125,-0.025381306,0.7243777,-0.6879443,995.2973, , , , 
2025-09-28 19:23:56.310,12.935599,-8.748159,-2.9359934,0.5151881,-0.9379065,-1.1566725,-24.618752,37.5,9.712501,-0.03910309,0.7197955,-0.6921937,995.2973, , , , 
2025-09-28 19:23:56.330,11.988042,-10.042677,-3.0723844,0.19081889,-1.0014365,-1.763872,-24.431252,38.4,8.868751,-0.057259183,0.7165473,-0.6945302,995.3127,37.8883423,127.7398725,149.9261474609375,1.67
2025-09-28 19:23:56.350,11.944971,-11.62194,-2.845066,-0.1476002,-1.0961205,-2.291659,-25.781252,38.25,9.01875,-0.07941553,0.71468544,-0.69456804,995.3127, , , , 
2025-09-28 19:23:56.370,11.873186,-13.093526,-1.7898313,-0.47074768,-1.1535418,-2.744921,-27.69375,34.6875,10.03125,-0.10575597,0.71422005,-0.69179404,995.3144, , , , 
2025-09-28 19:23:56.390,11.126625,-14.691931,-0.18664017,-0.7444151,-0.8914808,-3.200015,-28.800001,33.581253,10.668751,0.13488668,-0.71449965,0.68650204,995.3144, , , , 
2025-09-28 19:23:56.410,10.459028,-14.167903,1.3639089,-0.84581864,-0.17004949,-3.5237734,-31.143751,32.9625,11.56875,0.17017859,-0.7144562,0.67807966,995.32733, , , , 
2025-09-28 19:23:56.430,9.346365,-13.347165,1.9190438,-0.6992111,0.7572433,-3.8298168,-32.79375,28.425001,12.0,0.1942279,-0.7123401,0.6720715,995.32733, , , , 
2025-09-28 19:23:56.450,8.133204,-12.746566,1.6654046,-0.4322632,1.1927898,-4.046063,-34.2,28.5375,10.44375,0.21462178,-0.7069461,0.66780704,995.3554, , , , 
2025-09-28 19:23:56.470,8.183454,-12.650853,1.5960127,-0.15248711,0.91667897,-4.143801,-39.54375,25.612501,13.8,0.23493285,-0.69837177,0.6643345,995.3554, , , , 
2025-09-28 19:23:56.490,9.851251,-13.048062,1.4476577,0.11018474,0.24045165,-4.421134,-41.568752,22.143751,15.13125,0.2588598,-0.6871875,0.6603427,995.39545, , , , 
2025-09-28 19:23:56.510,9.80818,-13.950156,1.4093726,0.21281002,-0.24701844,-4.878061,-43.425003,18.618752,12.450001,0.2885371,-0.67367357,0.6543441,995.39545, , , , 
2025-09-28 19:23:56.530,8.140383,-14.950356,1.2993027,0.25190535,-0.36186102,-5.134624,-44.79375,14.7375,13.125001,0.3223697,-0.6578974,0.645864,995.4235, , , , 
2025-09-28 19:23:56.550,6.0227346,-15.136996,1.3256238,0.3068832,-0.29161158,-5.070483,-48.131252,7.8,14.793751,0.3644757,-0.6355875,0.6332294,995.4235, , , , 
2025-09-28 19:23:56.570,4.723432,-14.813965,1.026521,0.36308277,-0.31421357,-4.8377438,-45.300003,5.8500004,15.075001,0.3881634,-0.62131476,0.6252858,995.4423, , , , 
2025-09-28 19:23:56.590,3.4121652,-13.466805,0.31345975,0.3569741,-0.32459828,-4.400975,-47.850002,0.82500005,19.48125,0.42441922,-0.5974958,0.61178833,995.4423, , , , 
2025-09-28 19:23:56.610,2.7493532,-12.12204,0.22492532,0.27511823,-0.24457498,-3.986809,-48.9,-3.1125002,16.425001,0.4496502,-0.5795178,0.6008961,995.4462, , , , 
2025-09-28 19:23:56.630,2.2851455,-11.253445,0.076570325,0.18104506,-0.14256057,-3.6783223,-48.2625,-8.025001,16.0125,0.46625635,-0.5667728,0.5928634,995.4462, , , , 
2025-09-28 19:23:56.650,0.5312066,-10.490134,0.24885355,0.124234624,-0.057650365,-3.2421649,-48.525,-9.9375,17.38125,0.48975417,-0.54684913,0.58002704,995.4389, , , , 
2025-09-28 19:23:56.670,-0.74416786,-10.04507,0.2847459,0.15172353,-0.19998185,-2.7840161,-47.30625,-13.293751,17.306252,0.505728,-0.5325495,0.5704995,995.4389, , , , 
2025-09-28 19:23:56.690,-1.8951155,-9.887143,0.11006984,0.199371,-0.31238097,-2.3661847,-45.675003,-16.21875,15.750001,0.5164948,-0.5233564,0.56387043,995.4257, , , , 
2025-09-28 19:23:56.710,-2.7038896,-10.27478,-0.9379865,0.115071654,-0.3728566,-1.4425572,-47.5875,-17.4375,19.10625,0.5337314,-0.5103828,0.55311745,995.4257, , , , 
2025-09-28 19:23:56.730,-2.4335005,-10.24846,-0.7465607,-0.040088,-0.28550294,-0.80481434,-45.46875,-19.44375,17.456251,0.53897303,-0.5074194,0.5493538,995.4179, , , , 
2025-09-28 19:23:56.750,-1.5768701,-9.913465,0.016749758,-0.0938441,-0.020387612,-0.11148282,-42.525,-20.1375,16.25625,0.541762,-0.50700074,0.5465395,995.4179, , , , 
2025-09-28 19:23:56.770,-1.6031911,-11.143375,-0.6939186,-0.06207913,0.2154062,0.41263917,-46.74375,-21.225,20.00625,0.53927815,-0.5088897,0.5482458,995.40497, , , , 
2025-09-28 19:23:56.790,-3.1896327,-11.52862,-2.0578275,-0.2966512,0.2551124,1.248913,-44.0625,-20.4375,18.13125,0.53290355,-0.5137517,0.55265975,995.40497, , , , 
2025-09-28 19:23:56.810,-2.2061825,-11.047662,-0.93559366,-0.61491174,0.2532798,2.189034,-45.525,-19.706251,17.175001,0.5211652,-0.5245126,0.55860263,995.393, , , , 
2025-09-28 19:23:56.830,0.26081768,-10.633704,0.94277215,-0.6430115,0.31375542,2.8035638,-47.193752,-17.868752,16.931252,0.503638,-0.54037786,0.5664696,995.393, , , , 
2025-09-28 19:23:56.850,3.8333018,-11.119447,2.617748,-0.18913901,0.35468337,3.133431,-48.037502,-14.1,15.88125,0.47725457,-0.5609415,0.58005923,995.37225, , , , 
2025-09-28 19:23:56.870,4.345366,-11.705688,1.7611175,0.28733552,0.1579849,3.1645849,-48.956253,-11.981251,18.6375,0.46188402,-0.57136375,0.5898869,995.37225, , , , 
2025-09-28 19:23:56.890,4.0366917,-12.969099,-0.7537391,0.5774963,-0.3013854,3.3967135,-49.537502,-10.650001,15.993751,0.43929583,-0.5868465,0.6068105,995.3847, , , , 
2025-09-28 19:23:56.910,4.4195433,-13.447663,-1.6558332,0.5738311,-0.43638653,3.5903578,-48.15,-6.01875,15.58125,0.4306835,-0.5933911,0.61316556,995.3847, , , , 
2025-09-28 19:23:56.930,5.828916,-13.138989,-2.120041,0.35086545,-0.34781113,3.900677,-48.525,-3.3375,17.79375,0.4072166,-0.6111086,0.62771183,995.39325, , , , 
2025-09-28 19:23:56.950,6.8889365,-12.102897,-1.2466606,0.10407609,0.115835235,3.97337,-49.162502,2.0812502,16.462502,0.3789859,-0.6294159,0.6404412,995.39325, , , , 
2025-09-28 19:23:56.970,6.908079,-11.772687,-0.8063812,-0.031535894,0.55810136,3.97337,-48.300003,7.8750005,17.4375,0.35242766,-0.6429414,0.6500812,995.3818, , , , 
2025-09-28 19:23:56.990,6.9655066,-11.775081,-0.17228323,-0.12255475,0.8018364,4.003302,-45.768753,12.375001,16.9125,0.3149704,-0.6583336,0.6614199,995.3818, , , , 
2025-09-28 19:23:57.010,7.0731835,-11.933006,0.23449662,-0.05291616,0.6778308,4.004524,-46.875,13.9125,13.5375,0.28387007,-0.6693359,0.66951317,995.3764, , , , 
2025-09-28 19:23:57.030,7.3459654,-12.208181,-0.009571291,0.021609342,0.4719694,4.0436196,-44.7,19.5,11.90625,0.26115233,-0.6766552,0.67495763,995.3764, , , , 
2025-09-28 19:23:57.050,9.006584,-12.074183,-0.4019942,0.055206906,0.1928042,3.977646,-42.693752,23.56875,11.325001,0.22497106,-0.68746465,0.68237615,995.3769, , , , 
2025-09-28 19:23:57.070,9.755538,-11.966506,-0.53359944,0.023441937,0.060857404,3.8035495,-42.73125,23.53125,13.481251,0.19845337,-0.6948338,0.6864708,995.3769, , , , 
2025-09-28 19:23:57.090,10.152746,-11.600404,-0.2105684,-0.021762058,0.09812015,3.5561492,-40.612503,26.868752,14.306251,0.17391405,-0.70119965,0.68900144,995.3891, , , , 
2025-09-28 19:23:57.110,10.516456,-11.052447,0.078963146,0.006948587,0.1909716,3.327075,-38.0625,29.75625,10.78125,0.15044399,-0.70640326,0.6906603,995.3891, , , , 
2025-09-28 19:23:57.130,10.63849,-10.63849,0.09810573,0.066813335,0.36567894,3.1560328,-37.068752,30.581251,13.725,0.12770233,-0.7101949,0.69208944,995.3891, , , , 
2025-09-28 19:23:57.150,11.626725,-9.537791,-0.1363909,0.16394083,0.6503419,2.9043565,-34.875,31.425001,15.3,-0.09916519,0.7130079,-0.694107,995.3891, , , , 
2025-09-28 19:23:57.170,12.538391,-8.6141615,-0.078963146,0.25068364,0.58925545,2.6209154,-31.181252,33.3375,10.33125,-0.082626864,0.7137455,-0.6954348,995.3979, , , , 
2025-09-28 19:23:57.190,13.289737,-8.441878,-0.3804588,0.5603921,0.035201084,2.1364996,-28.63125,35.943752,11.2875,-0.06044032,0.7126942,-0.69842154,995.3979, , , , 
2025-09-28 19:23:57.210,14.333008,-9.276974,-1.4835501,0.7711404,-0.4247801,1.8084651,-28.781252,37.3125,10.462501,-0.04949145,0.70926815,-0.7022074,995.3942, , , , 
2025-09-28 19:23:57.230,14.904892,-9.611969,-2.806781,0.81695527,-0.7876338,1.4443898,-28.406252,37.0875,11.981251,-0.04538917,0.70568895,-0.7055011,995.3942, , , , 
2025-09-28 19:23:57.250,14.550755,-9.107083,-3.65384,0.57077676,-1.3368012,0.8316924,-26.681252,39.018753,10.9125,-0.046296693,0.69976383,-0.7100854,995.39105, , , , 
2025-09-28 19:23:57.270,13.655839,-10.042677,-3.1441689,0.2757291,-1.080238,0.34849834,-22.25625,39.61875,7.8,-0.052982785,0.69647384,-0.7118108,995.39105, , , , 
2025-09-28 19:23:57.290,12.890136,-12.232109,-2.6871397,0.12545635,-0.45165816,-0.07177661,-22.987501,40.518753,9.356251,-0.06163828,0.69454926,-0.71240014,995.37274, , , , 
2025-09-28 19:23:57.310,12.911671,-11.655439,-3.6370904,-0.0064904382,0.054748755,-0.36254823,-25.7625,39.225002,11.418751,-0.0666512,0.6940424,-0.7126893,995.37274, , , , 
2025-09-28 19:23:57.330,13.639089,-10.523634,-3.586841,-0.35712683,0.21418446,-0.8481857,-22.087502,40.725002,11.26875,-0.07030078,0.69487107,-0.7120852,995.36273,37.88833079,127.73987643,149.59759521484375,1.53
2025-09-28 19:23:57.350,13.421342,-11.014163,-1.0480564,-0.658894,-0.21708608,-1.886045,-24.843752,40.0875,9.88125,-0.0829723,0.69856614,-0.708434,995.36273, , , , 
2025-09-28 19:23:57.370,11.968899,-11.9306135,-0.3493521,-0.65461797,-0.49319696,-2.5970917,-25.575,38.23125,14.400001,-0.10219944,0.70084095,-0.7047297,995.36273, , , , 
2025-09-28 19:23:57.390,9.018549,-13.366307,0.29910284,-0.71692616,-0.46570805,-3.1841326,-27.862501,36.15,12.13125,-0.12692374,0.7018412,-0.7005549,995.36273, , , , 
2025-09-28 19:23:57.410,7.338787,-14.335401,1.3543376,-0.68638295,-0.4418843,-3.3160794,-30.375002,36.24375,15.01875,-0.15303929,0.70189446,-0.69564253,995.37714, , , , 
2025-09-28 19:23:57.430,7.570891,-14.0291195,1.8544376,-0.5513818,-0.47609273,-3.3508987,-32.7,32.643753,14.08125,0.17906767,-0.7004049,0.69066304,995.37714, , , , 
2025-09-28 19:23:57.450,8.4347,-13.098311,1.524228,-0.3888918,-0.40523243,-3.4999497,-34.78125,31.706251,13.106251,0.21194997,-0.69570756,0.68486893,995.4194, , , , 
2025-09-28 19:23:57.470,8.805588,-12.7082815,1.3567305,-0.35651594,-0.23541202,-3.6819875,-37.10625,28.218752,14.025001,0.2316475,-0.69156563,0.6813538,995.4194, , , , 
2025-09-28 19:23:57.490,9.193225,-12.459428,1.5266209,-0.2917643,-0.20975569,-3.9544332,-38.90625,27.393751,15.01875,0.25807723,-0.68450177,0.6763008,995.43695, , , , 
2025-09-28 19:23:57.510,9.016156,-12.646068,1.0217353,-0.3278053,0.03825541,-4.3973103,-41.8125,25.48125,16.66875,0.29264358,-0.6727128,0.6688865,995.43695, , , , 
2025-09-28 19:23:57.530,8.228917,-13.24188,1.2035898,-0.33941174,0.33696827,-4.6251626,-43.050003,20.98125,19.06875,0.31993255,-0.6610889,0.66171277,995.436, , , , 
2025-09-28 19:23:57.550,7.0061846,-13.593625,0.8327023,-0.28993168,0.58497936,-4.7833767,-43.78125,14.85,14.400001,0.35184184,-0.64332837,0.65211344,995.436, , , , 
2025-09-28 19:23:57.570,6.3194447,-13.612768,0.97866446,-0.23678645,0.57337296,-4.8188066,-46.3125,11.19375,17.493752,0.37015915,-0.6313081,0.6457095,995.42596, , , , 
2025-09-28 19:23:57.590,5.302495,-13.129417,1.1413764,-0.074907295,0.42065677,-4.7668834,-47.775,6.0750003,16.237501,0.40019357,-0.6092305,0.6339742,995.42596, , , , 
2025-09-28 19:23:57.610,4.855037,-12.815958,0.7537391,0.0051159924,0.29604036,-4.7057967,-48.99375,2.2125,16.59375,0.41221437,-0.59979576,0.62893504,995.41376, , , , 
2025-09-28 19:23:57.630,3.2183464,-12.220145,0.23688944,0.028328855,0.16103923,-4.4773335,-50.5875,-2.5687501,18.88125,0.441949,-0.5757314,0.61507255,995.41376, , , , 
2025-09-28 19:23:57.650,1.4045869,-11.62194,0.31585258,0.049709123,0.03886627,-4.014298,-48.750004,-7.5750003,15.58125,0.46895564,-0.5523256,0.6003296,995.39545, , , , 
2025-09-28 19:23:57.670,0.5599205,-11.387443,0.078963146,0.056428634,-0.15294527,-3.5781405,-50.60625,-10.14375,16.5375,0.4882506,-0.53533334,0.5885528,995.39545, , , , 
2025-09-28 19:23:57.690,-0.3589234,-10.887343,0.14596218,0.035048366,-0.38629562,-2.9397867,-48.862503,-15.3,16.03125,0.50550073,-0.52109927,0.57694465,995.36664, , , , 
2025-09-28 19:23:57.711,-1.4069797,-10.145568,0.17467605,0.07353285,-0.5274054,-2.297157,-46.0125,-15.637501,16.837502,0.52050364,-0.51002336,0.56608754,995.36664, , , , 
2025-09-28 19:23:57.730,-1.282553,-9.516255,0.016749758,0.066813335,-0.52435106,-1.7070616,-47.006252,-18.243752,18.31875,0.53274065,-0.5022356,0.5569859,995.3403, , , , 
2025-09-28 19:23:57.750,-1.2227324,-9.60479,-0.63170516,-0.024205517,-0.029550584,-0.9892955,-43.725002,-20.38125,15.937501,0.54211414,-0.4960186,0.54984254,995.3403, , , , 
2025-09-28 19:23:57.770,-1.7467605,-10.724631,-0.96909314,-0.14698933,0.21846052,-0.3857611,-46.10625,-21.13125,17.15625,0.5437212,-0.4934717,0.54822665,995.3227, , , , 
2025-09-28 19:23:57.790,-3.4169507,-11.224731,-1.564906,-0.28687736,0.06207913,0.54641855,-46.575,-21.300001,17.362501,0.54117787,-0.49495673,0.5491844,995.3227, , , , 
2025-09-28 19:23:57.810,-3.1680973,-9.994821,-0.6723832,-0.5104539,-0.16027565,1.6099341,-44.7,-20.212502,14.64375,0.5345917,-0.50310624,0.55175334,995.3, , , , 
2025-09-28 19:23:57.830,-1.0336994,-9.470792,0.89730847,-0.5312233,-0.029550584,2.3863432,-45.28125,-19.29375,16.96875,0.5227693,-0.51745677,0.5567277,995.3, , , , 
2025-09-28 19:23:57.850,2.4670002,-10.329815,1.9549361,-0.20685409,0.4163807,3.0387468,-46.575,-15.69375,15.356251,0.5007321,-0.5373907,0.56919944,995.3, , , , 
2025-09-28 19:23:57.870,4.469793,-11.3683,1.5457634,0.13706279,0.5049561,3.236667,-46.78125,-14.3625,17.15625,0.48509535,-0.5482039,0.5798656,995.3, , , , 
2025-09-28 19:23:57.890,5.271388,-12.569497,0.27996024,0.46876237,0.07429643,3.314247,-48.093754,-12.993751,16.125,0.45999426,-0.5643228,0.59898806,995.3017, , , , 
2025-09-28 19:23:57.910,5.029713,-13.493127,-1.1102697,0.49258608,0.0077121677,3.4999497,-49.0125,-8.85,15.993751,0.4416911,-0.5771414,0.613144,995.3017, , , , 
2025-09-28 19:23:57.930,4.752146,-13.782659,-1.416551,0.2775617,0.38278314,3.8310385,-49.781254,-5.1000004,18.9375,0.4260013,-0.5870688,0.62370855,995.289, , , , 
2025-09-28 19:23:57.950,5.709275,-13.117454,-0.43070808,0.0075594517,0.66988957,4.089434,-48.768753,-0.58125,13.181251,0.3934398,-0.6046688,0.641161,995.289, , , , 
2025-09-28 19:23:57.970,5.953343,-12.629318,0.96430755,0.0032833982,0.7755692,4.251313,-49.218754,3.9562502,15.431251,0.36335713,-0.61877143,0.6542288,995.2751, , , , 
2025-09-28 19:23:57.990,6.2787666,-12.409178,1.2658032,0.19876012,0.5483275,4.356993,-46.725002,7.4437504,14.043751,0.33983663,-0.62842673,0.663865,995.2751, , , , 
2025-09-28 19:23:58.010,7.6977105,-12.045469,-0.4019942,0.43638653,0.34063348,4.3777623,-44.15625,12.825001,13.1625,0.29498962,-0.6443662,0.6821299,995.2692, , , , 
2025-09-28 19:23:58.030,8.350951,-11.653047,-1.7706888,0.26962045,0.48663014,4.2781916,-45.6375,17.550001,9.4875,0.2730934,-0.65104026,0.69002277,995.2692, , , , 
2025-09-28 19:23:58.050,9.473185,-10.717453,-1.6223338,-0.44448048,0.8568142,4.0204067,-45.84375,20.775002,8.56875,0.2348333,-0.6634026,0.69847673,995.2465, , , , 
2025-09-28 19:23:58.070,10.21496,-10.167104,0.7848458,-0.80427986,1.0577887,3.670992,-43.85625,21.225,8.025001,0.20331441,-0.6748123,0.70055425,995.2465, , , , 
2025-09-28 19:23:58.090,10.078569,-10.119247,2.428715,-0.74808025,1.1097122,3.3392923,-42.975002,24.056252,7.9125004,0.1802842,-0.68267715,0.7008756,995.2504, , , , 
2025-09-28 19:23:58.110,8.963513,-10.394422,2.2564318,-0.46402815,1.0467931,3.0668466,-41.475002,25.06875,8.793751,0.14474207,-0.6924062,0.7016522,995.2504, , , , 
2025-09-28 19:23:58.130,8.578269,-10.013963,1.4141582,-0.34490952,1.0186933,3.042412,-38.49375,28.875002,8.1,0.11771194,-0.6977233,0.70281196,995.2651, , , , 
2025-09-28 19:23:58.150,9.410972,-9.741181,0.9451649,-0.32047492,0.93256146,3.0100362,-37.275,30.6,8.793751,0.0978775,-0.7010148,0.7034921,995.2651, , , , 
2025-09-28 19:23:58.170,11.286944,-9.568898,1.038485,-0.26610798,0.6784417,2.7736316,-37.18125,32.49375,7.7625003,0.06695557,-0.7055957,0.70377225,995.26434, , , , 
2025-09-28 19:23:58.190,12.655639,-9.466006,1.3495519,-0.007101303,0.017486004,2.4382668,-32.86875,35.662502,8.043751,0.042583853,-0.7081664,0.7040132,995.26434, , , , 
2025-09-28 19:23:58.210,14.05544,-9.327223,0.6364908,0.35941756,-0.41928232,1.9831725,-29.587502,34.40625,6.0750003,0.030647075,-0.7077315,0.70559233,995.2663, , , , 
2025-09-28 19:23:58.230,14.3569355,-9.3104725,-0.74177504,0.4718167,-0.32093307,1.6160427,-29.831251,35.362503,6.675,0.024811327,-0.7059709,0.7077624,995.2663, , , , 
2025-09-28 19:23:58.250,14.160725,-9.712467,-2.804388,0.21281002,-0.07903063,1.0344995,-29.493752,37.143753,7.14375,-0.017822573,0.702978,-0.71098197,995.2548, , , , 
2025-09-28 19:23:58.270,14.268401,-10.068997,-2.656033,-0.20624322,0.17997603,0.61117023,-27.525002,38.100002,6.7312503,-0.014192131,0.70304334,-0.71097445,995.2548, , , , 
2025-09-28 19:23:58.290,14.708681,-11.535798,-0.72502524,-0.44692394,0.25389066,0.07910699,-26.587502,39.075,5.8125,-0.011766611,0.70642185,-0.70767826,995.24554, , , , 
2025-09-28 19:23:58.310,14.66561,-10.980663,0.92602235,-0.24228424,-0.041157015,-0.34544402,-28.800001,38.456253,7.6125,-0.014149781,0.7089978,-0.70506865,995.24554, , , , 
2025-09-28 19:23:58.330,15.254245,-9.442079,0.77766734,-0.03214676,-0.1786016,-0.82008594,-29.2875,38.268753,8.606251,0.019119961,-0.709541,0.7043943,995.267,37.88831778,127.73988237,149.1666259765625,1.52
2025-09-28 19:23:58.350,15.481563,-9.188439,0.47138608,-0.00160352,-0.17799072,-1.5091414,-28.893751,37.95,7.9687505,0.030137284,-0.7091672,0.70428336,995.267, , , , 
2025-09-28 19:23:58.370,14.038691,-11.284552,0.53359944,0.027717989,-0.3588067,-2.5402813,-30.206251,38.04375,8.868751,0.052026365,-0.7079043,0.70371073,995.309, , , , 
2025-09-28 19:23:58.390,11.736795,-12.957134,0.7800602,0.08513928,-0.9519564,-3.2110107,-31.312502,35.9625,5.86875,0.077141486,-0.7057178,0.7026138,995.309, , , , 
2025-09-28 19:23:58.410,9.891929,-13.514663,1.3112668,0.12789981,-1.5939753,-3.5549276,-32.9625,36.018753,8.8125,0.1091254,-0.7023284,0.7004657,995.3422, , , , 
2025-09-28 19:23:58.430,8.992228,-13.9573345,1.4596218,0.11751511,-1.889023,-3.6899288,-35.362503,31.312502,7.1625004,0.1461027,-0.6977465,0.6969085,995.3422, , , , 
2025-09-28 19:23:58.450,9.142975,-13.890335,1.9046868,0.036270097,-1.6410118,-3.783391,-38.550003,28.837502,10.575001,0.19339745,-0.6907465,0.69027925,995.3686, , , , 
2025-09-28 19:23:58.470,9.32483,-13.610375,2.2181466,0.041157015,-1.2537236,-3.8860164,-40.818752,27.843752,12.262501,0.22012846,-0.68555516,0.68570554,995.3686, , , , 
2025-09-28 19:23:58.490,8.937193,-13.194024,1.902294,0.0900262,-0.91469365,-4.086991,-41.100002,24.956251,12.150001,0.2619389,-0.6744066,0.67793566,995.38885, , , , 
2025-09-28 19:23:58.510,8.432307,-12.916456,1.550549,0.056428634,-0.77969253,-4.2824674,-43.068752,22.518751,12.656251,0.2943305,-0.6634841,0.67097193,995.38885, , , , 
2025-09-28 19:23:58.530,7.745567,-12.911671,1.6438692,0.034437504,-0.6776781,-4.3942556,-43.537502,18.31875,16.800001,0.31834882,-0.6543369,0.6649046,995.4013, , , , 
2025-09-28 19:23:58.550,6.826723,-12.866207,1.8831514,0.08025236,-0.49258608,-4.444347,-46.93125,14.512501,15.525001,0.34937578,-0.6407329,0.6560958,995.4013, , , , 
2025-09-28 19:23:58.570,5.639883,-12.502499,1.416551,0.16088651,-0.17921245,-4.386925,-47.41875,10.087501,17.0625,0.38535336,-0.621142,0.64510506,995.40375, , , , 
2025-09-28 19:23:58.590,4.5918264,-11.770294,1.0073783,0.16149737,0.043142326,-4.248259,-46.5,6.80625,19.1625,0.4109543,-0.60390735,0.6366551,995.40375, , , , 
2025-09-28 19:23:58.610,3.7304106,-10.650454,0.4354937,0.07658717,0.30459246,-3.9153378,-49.218754,3.4125001,18.862501,0.4380705,-0.58188677,0.626496,995.38983, , , , 
2025-09-28 19:23:58.630,3.5126636,-10.222138,0.46899325,0.011835505,0.33696827,-3.692983,-49.331253,-1.3312501,20.38125,0.45189056,-0.5690941,0.62036234,995.38983, , , , 
2025-09-28 19:23:58.650,3.0317063,-10.083355,0.74416786,-0.009544762,0.1598175,-3.3686137,-47.86875,-6.6375003,17.90625,0.47249624,-0.54892546,0.6096442,995.36176, , , , 
2025-09-28 19:23:58.670,2.3377876,-9.915857,0.863809,0.043600474,-0.10346522,-3.1053312,-47.268753,-11.043751,16.087502,0.4881151,-0.53420645,0.60046095,995.36176, , , , 
2025-09-28 19:23:58.690,1.8520447,-9.731609,0.6221339,0.089415334,-0.4058433,-2.7925684,-46.725002,-12.843751,14.887501,0.4998235,-0.5243671,0.5931778,995.34393, , , , 
2025-09-28 19:23:58.710,1.4093726,-10.001999,0.15074782,0.044822205,-0.659963,-2.2586725,-45.54375,-16.331251,15.58125,0.52237797,-0.50880885,0.5778939,995.34393, , , , 
2025-09-28 19:23:58.730,0.6939186,-10.095319,0.0047856453,-0.010155627,-0.6734021,-1.8921536,-46.912502,-18.6,17.400002,0.5321458,-0.50326186,0.5705372,995.31805, , , , 
2025-09-28 19:23:58.750,0.19381863,-9.525827,-0.35413775,-0.1787543,-0.47242755,-1.1927135,-46.3875,-20.175001,19.143751,0.5441954,-0.4977324,0.56025356,995.31805, , , , 
2025-09-28 19:23:58.770,0.19142582,-9.267402,-0.27038896,-0.3577377,0.015042545,-0.7241802,-45.24375,-18.300001,17.362501,0.547904,-0.4963763,0.55595136,995.30414, , , , 
2025-09-28 19:23:58.790,-0.6987042,-9.8321085,-0.42831525,-0.48724103,0.46708247,-0.18845178,-45.3375,-21.675001,17.56875,0.54723537,-0.49580926,0.5532407,995.30414, , , , 
2025-09-28 19:23:58.810,-1.6247265,-10.789237,-0.57427746,-0.5813142,0.5147299,0.41996953,-47.15625,-20.493752,18.150002,0.54159385,-0.4979353,0.5544113,995.29803, , , , 
2025-09-28 19:23:58.830,-2.4909284,-10.078569,-0.31345975,-0.6613375,0.3681224,1.1456769,-44.25,-19.95,17.362501,0.5323726,-0.50428265,0.5575541,995.29803, , , , 
2025-09-28 19:23:58.850,-0.8662018,-9.29133,1.0049855,-0.5959749,0.06330086,2.19331,-46.21875,-19.518751,17.550001,0.51617527,-0.51955473,0.56392825,995.2834, , , , 
2025-09-28 19:23:58.870,1.4859428,-9.643075,1.6366907,-0.36567894,0.03459022,2.685667,-46.706253,-17.7,16.25625,0.5045259,-0.53116196,0.5694988,995.2834, , , , 
2025-09-28 19:23:58.890,3.804588,-10.822737,1.0241281,0.044822205,0.17814344,2.9843798,-48.73125,-15.937501,18.525002,0.4828511,-0.5499586,0.58267397,995.279, , , , 
2025-09-28 19:23:58.910,4.5224347,-11.514262,-0.42592242,0.25679228,0.17264566,3.146259,-47.90625,-12.6,17.79375,0.4645352,-0.5632507,0.5956527,995.279, , , , 
2025-09-28 19:23:58.930,4.883751,-11.973684,-1.6271194,0.2683987,0.1042288,3.3295186,-46.78125,-10.21875,14.437501,0.45047212,-0.5730833,0.60549,995.2668, , , , 
2025-09-28 19:23:58.950,6.1471615,-11.944971,-2.8929226,-0.091400646,0.3730093,3.5592036,-48.05625,-5.4,17.400002,0.42474368,-0.5906682,0.6207358,995.2668, , , , 
2025-09-28 19:23:58.970,6.8410797,-11.6339035,-2.37368,-0.57520556,0.7755692,3.639227,-46.78125,-2.8875,15.731251,0.399495,-0.60605866,0.63130224,995.2382, , , , 
2025-09-28 19:23:58.990,7.6737823,-11.279766,-0.44506502,-0.8378774,1.0290781,3.6832092,-49.10625,2.1000001,13.51875,0.36233073,-0.6262923,0.642057,995.2382, , , , 
2025-09-28 19:23:59.010,8.379665,-10.803595,0.39720857,-0.8934661,0.97715455,3.571421,-50.11875,6.9375005,17.98125,0.33089113,-0.6416575,0.64920616,995.22577, , , , 
2025-09-28 19:23:59.030,8.484949,-10.63849,0.87338024,-0.84887296,0.76396275,3.404044,-48.99375,8.475,13.462501,0.3084961,-0.6524087,0.653303,995.22577, , , , 
2025-09-28 19:23:59.050,7.133004,-10.54517,0.6149554,-0.80122554,0.63690287,3.2611017,-48.487503,10.89375,11.71875,0.27409998,-0.6684454,0.65846723,995.2314, , , , 
2025-09-28 19:23:59.070,6.728617,-10.57149,1.174876,-0.8067233,0.5464949,3.37289,-47.325,12.7875,9.01875,0.246974,-0.680599,0.6614293,995.2314, , , , 
2025-09-28 19:23:59.090,7.391429,-10.648061,1.7706888,-0.6631701,0.48357582,3.5378234,-44.41875,16.3125,8.6625,0.22620471,-0.68922037,0.66351986,995.2399, , , , 
2025-09-28 19:23:59.110,9.298509,-10.19821,1.4883357,-0.33941174,0.405996,3.5463755,-46.518753,19.06875,10.425,0.19158602,-0.701106,0.66790706,995.2399, , , , 
2025-09-28 19:23:59.130,9.80818,-9.899107,0.59581286,-0.19402592,0.4548652,3.3918266,-41.8875,20.8125,8.137501,0.16524597,-0.70781505,0.6720269,995.24896, , , , 
2025-09-28 19:23:59.150,9.894321,-9.355937,-0.37567315,-0.22518003,0.55565786,3.1719153,-42.5625,25.575,10.106251,0.13375033,-0.7141101,0.6764372,995.24896, , , , 
2025-09-28 19:23:59.170,10.387243,-9.403793,-0.16271193,-0.3161989,0.50190175,3.0497425,-42.05625,25.875002,9.58125,0.11533188,-0.7175923,0.6780668,995.2514, , , , 
2025-09-28 19:23:59.190,11.318051,-9.327223,0.38285163,-0.23067781,0.3888918,2.8732026,-38.68125,28.725,9.056251,0.09245002,-0.72178304,0.6793379,995.2514, , , , 
2025-09-28 19:23:59.210,11.880364,-8.989835,0.0526421,0.08147409,0.34796384,2.5830417,-38.775,29.19375,10.89375,0.06735604,-0.72448325,0.68159,995.2651, , , , 
2025-09-28 19:23:59.230,13.127025,-8.602198,-1.0887343,0.17188208,0.46219558,2.3790128,-35.5875,30.393751,9.8625,0.049020547,-0.72464764,0.68423164,995.2651, , , , 
2025-09-28 19:23:59.250,14.701502,-9.45165,-2.589034,0.11323906,0.5153408,1.9507967,-34.21875,34.78125,7.6312504,0.03218215,-0.7241349,0.68656856,995.2685, , , , 
2025-09-28 19:23:59.270,15.287744,-10.217353,-3.3284163,-0.15004367,0.26671883,1.4950916,-33.825,34.6875,8.83125,0.01887217,-0.72437704,0.6872971,995.2685, , , , 
2025-09-28 19:23:59.290,15.816558,-10.911271,-2.7349963,-0.54405147,-0.116904244,1.0351104,-32.34375,36.09375,8.118751,0.009166076,-0.7275201,0.6846052,995.27167, , , , 
2025-09-28 19:23:59.310,16.70908,-11.322837,0.04546363,-0.71509355,-0.5475639,0.5855139,-31.06875,35.98125,8.625,0.007501135,-0.7322096,0.6798979,995.27167, , , , 
2025-09-28 19:23:59.330,17.493927,-10.84188,2.1655045,-0.48296496,-0.8615484,0.19578215,-30.093752,37.2,8.4375,0.010395422,-0.73534125,0.67665845,995.29364,37.88830586,127.73989303,148.6602783203125,1.57
2025-09-28 19:23:59.350,18.09931,-8.496913,1.7635103,0.06253728,-0.8884265,-0.8958332,-30.54375,37.256252,10.5,0.023311665,-0.73661876,0.67508566,995.29364, , , , 
2025-09-28 19:23:59.370,16.101303,-8.82473,1.0576276,0.10713041,-0.5909353,-1.7968588,-32.850002,36.131252,11.887501,0.03991459,-0.73541653,0.6753163,995.33246, , , , 
2025-09-28 19:23:59.390,13.110275,-10.293923,0.93320084,0.14500403,-0.44982556,-2.495688,-31.650002,34.425003,7.6875005,0.055208918,-0.7339282,0.675249,995.33246, , , , 
2025-09-28 19:23:59.410,9.518648,-11.947364,0.57188463,0.22991423,-0.55367255,-2.9709408,-32.737503,35.04375,10.2375,0.0850592,-0.729897,0.67478204,995.3569, , , , 
2025-09-28 19:23:59.430,7.9561353,-12.5551405,0.634098,0.22563818,-0.7161626,-3.0418012,-35.568752,32.756252,11.2875,0.111200176,-0.72557926,0.6737844,995.3569, , , , 
2025-09-28 19:23:59.450,8.183454,-12.311072,1.3710874,0.22930336,-0.9489021,-3.0167558,-37.443752,28.575,11.71875,0.1450836,-0.71948516,0.6713484,995.372, , , , 
2025-09-28 19:23:59.470,9.530613,-11.60519,2.132005,0.29344416,-1.0948987,-3.1181593,-39.487503,28.612501,11.625,0.17358759,-0.71361893,0.6687204,995.372, , , , 
2025-09-28 19:23:59.490,9.954143,-11.32523,2.3138595,0.38934994,-1.112003,-3.363116,-40.0875,27.91875,12.95625,0.19630855,-0.7080892,0.6664997,995.3984, , , , 
2025-09-28 19:23:59.510,9.446864,-11.341979,1.68694,0.4437169,-0.91591537,-3.8090472,-42.9375,26.1375,13.05,0.23586763,-0.69621044,0.662233,995.3984, , , , 
2025-09-28 19:23:59.530,8.740981,-11.648261,1.3375878,0.3655262,-0.7631992,-4.0393434,-42.46875,21.31875,14.6625,0.26803336,-0.6848007,0.6575591,995.4152, , , , 
2025-09-28 19:23:59.550,8.377272,-11.959328,1.6510476,0.34109163,-0.6770672,-4.16396,-45.300003,18.28125,15.750001,0.29193377,-0.6754457,0.6530785,995.4152, , , , 
2025-09-28 19:23:59.570,8.075776,-12.205789,1.3064811,0.42172578,-0.529238,-4.3600473,-45.393753,14.906251,15.95625,0.33141166,-0.6575812,0.644628,995.4255, , , , 
2025-09-28 19:23:59.590,7.396215,-12.2991085,0.5024927,0.3673588,-0.15538873,-4.4993243,-46.85625,5.55,16.650002,0.36920992,-0.6366685,0.6352353,995.4255, , , , 
2025-09-28 19:23:59.611,5.9581285,-12.358929,-0.10049855,0.2494619,0.16287182,-4.4816093,-46.331253,7.2375,14.475,0.39648733,-0.6183078,0.62703264,995.4135, , , , 
2025-09-28 19:23:59.630,4.634897,-12.117254,-0.043070808,0.14500403,0.26671883,-4.2690287,-47.662502,1.725,18.6375,0.41471007,-0.60435086,0.6204794,995.4135, , , , 
2025-09-28 19:23:59.650,4.115655,-11.375479,0.16031912,0.049098257,0.14332415,-3.7980518,-50.662502,-5.2875004,17.04375,0.4413525,-0.5823173,0.6089341,995.4057, , , , 
2025-09-28 19:23:59.670,4.627719,-11.212767,0.7728817,0.04054615,-0.072921984,-3.5311038,-47.550003,-4.9875,18.862501,0.46037215,-0.5664818,0.5989935,995.4057, , , , 
2025-09-28 19:23:59.690,4.9172506,-11.344372,1.3064811,0.19265148,-0.41317368,-3.29531,-48.2625,-9.168751,19.0125,0.47919434,-0.55182296,0.58835965,995.3913, , , , 
2025-09-28 19:23:59.711,3.5964124,-11.294123,0.8709874,0.3691914,-0.44799295,-3.0356925,-46.631252,-13.70625,16.331251,0.49818698,-0.53748435,0.5778109,995.3913, , , , 
2025-09-28 19:23:59.730,2.184647,-10.827522,-0.2321038,0.40462157,-0.38690647,-2.675893,-45.84375,-14.981251,14.625001,0.51556593,-0.52353746,0.5686808,995.3791, , , , 
2025-09-28 19:23:59.750,-0.23928227,-9.4229355,-1.1844472,0.30199626,-0.2787834,-2.0656393,-47.04375,-18.487501,17.56875,0.53330135,-0.508762,0.5591363,995.3791, , , , 
2025-09-28 19:23:59.770,-1.7443677,-8.961121,-1.6606189,0.08452842,-0.10407609,-1.5347978,-44.8875,-20.1375,18.056252,0.5433374,-0.50002193,0.5530942,995.35004, , , , 
2025-09-28 19:23:59.790,-3.1058838,-9.164511,-1.1724831,-0.12255475,-0.0020616686,-0.73884094,-46.29375,-22.03125,17.85,0.54874086,-0.49494037,0.5489189,995.35004, , , , 
2025-09-28 19:23:59.810,-2.7852457,-10.0881405,-0.4977071,-0.074907295,-0.14011711,0.08949169,-44.268753,-22.81875,18.300001,0.54987246,-0.49449122,0.5472185,995.31805, , , , 
2025-09-28 19:23:59.830,-2.400001,-10.006784,-0.91166544,0.0075594517,-0.199371,0.8188642,-44.4,-20.7,17.41875,0.54791164,-0.49852622,0.54852355,995.31805, , , , 
2025-09-28 19:23:59.850,-1.3950156,-8.618947,-1.160519,-0.10545053,-0.030772313,1.7699807,-45.54375,-20.456251,18.45,0.5399393,-0.5092985,0.55434173,995.30536, , , , 
2025-09-28 19:23:59.870,0.62931234,-8.178668,-0.66999036,-0.22090398,0.23861906,2.2507312,-45.787502,-20.868752,19.743752,0.5313767,-0.51821506,0.5598615,995.30536, , , , 
2025-09-28 19:23:59.890,2.87378,-9.317652,0.19860429,-0.17081307,0.5965858,2.5622723,-45.84375,-17.737501,16.3125,0.5113635,-0.5342742,0.57238495,995.2858, , , , 
2025-09-28 19:23:59.910,3.5796626,-10.693524,0.062213387,0.055817768,0.46708247,2.6972735,-47.0625,-15.525001,19.725,0.4930082,-0.54630977,0.5846411,995.2858, , , , 
2025-09-28 19:23:59.930,3.5509489,-11.564512,-0.57427746,0.25007278,0.085292,2.8964152,-45.84375,-11.887501,17.212502,0.47998044,-0.55537546,0.59378326,995.28485, , , , 
2025-09-28 19:23:59.950,4.273581,-12.248859,-1.7395821,0.27450737,-0.27084216,3.286147,-48.281254,-9.4125,17.962502,0.4594269,-0.57211405,0.60795265,995.28485, , , , 
2025-09-28 19:23:59.970,5.113462,-12.067004,-1.6414764,0.1627191,-0.27817255,3.503615,-49.143753,-7.0312505,19.29375,0.44182488,-0.5872652,0.6180895,995.2746, , , , 
2025-09-28 19:23:59.990,5.7810597,-11.626725,-0.701097,0.05459604,-0.14989094,3.6899288,-48.05625,-2.4375,18.768751,0.4219119,-0.6029323,0.6274948,995.2746, , , , 
2025-09-28 19:24:00.010,6.829116,-11.600404,0.51445687,0.112017326,-0.2079231,3.8725772,-50.287502,1.9312501,20.60625,0.39423636,-0.62199616,0.6387624,995.2734, , , , 
2025-09-28 19:24:00.030,8.370093,-11.4903345,1.3495519,0.32582,-0.4834231,3.8670795,-48.24375,3.2625,19.237501,0.37763897,-0.63257694,0.6451682,995.2734, , , , 
2025-09-28 19:24:00.050,9.272188,-11.155339,0.9619147,0.73326683,-0.7613666,3.6209009,-46.18125,9.075001,19.462502,0.35366103,-0.6464676,0.6554224,995.28314, , , , 
2025-09-28 19:24:00.070,8.458628,-10.968699,-0.7752745,0.8053489,-0.65385437,3.454135,-46.143753,12.825001,18.618752,0.33719948,-0.65404123,0.66340077,995.28314, , , , 
2025-09-28 19:24:00.090,7.8221374,-10.662417,-1.5864414,0.54023355,-0.19631667,3.485289,-43.0125,19.3875,15.450001,0.31931362,-0.66092545,0.6704666,995.2785, , , , 
2025-09-28 19:24:00.110,8.429914,-10.557134,-0.93559366,0.29833108,0.26671883,3.5781405,-43.93125,18.65625,17.2875,0.2976607,-0.6685209,0.6763667,995.2785, , , , 
2025-09-28 19:24:00.130,9.592826,-10.085748,-0.39720857,0.19631667,0.73280865,3.5695884,-44.2125,20.98125,18.581251,0.27212542,-0.67623055,0.68170166,995.27704, , , , 
2025-09-28 19:24:00.150,10.485349,-9.315259,0.68195444,0.18287764,1.0834451,3.2494953,-41.4,24.6375,17.456251,0.23726924,-0.6843785,0.68813103,995.27704, , , , 
2025-09-28 19:24:00.170,9.985249,-8.85823,0.6125626,0.2164752,1.1262056,3.0008733,-41.100002,25.406252,17.831251,0.21676417,-0.68785954,0.69193935,995.28973, , , , 
2025-09-28 19:24:00.190,9.848858,-8.477771,0.8255238,0.3502546,1.1451424,2.8701482,-39.675003,26.343752,13.1625,0.19064525,-0.69118106,0.6967539,995.28973, , , , 
2025-09-28 19:24:00.210,11.033305,-8.781659,-1.0145568,0.4870883,1.3088541,2.685667,-37.66875,30.6375,15.4875,0.15865445,-0.69260395,0.70359945,995.2995, , , , 
2025-09-28 19:24:00.230,11.849257,-9.934999,-2.0195422,0.37530005,1.3467277,2.5311182,-36.75,31.368752,13.181251,0.13368125,-0.6931516,0.708286,995.2995, , , , 
2025-09-28 19:24:00.250,14.014762,-10.348958,-1.9932213,0.22991423,1.0516801,2.2641704,-33.54375,32.7,12.150001,-0.11057622,0.694131,-0.7112834,995.2785, , , , 
2025-09-28 19:24:00.270,15.68256,-10.212567,-2.0985055,0.154167,0.7529672,1.7785329,-33.7125,34.050003,12.093751,-0.092081666,0.6949268,-0.7130651,995.2785, , , , 
2025-09-28 19:24:00.290,15.584454,-9.633504,-1.9070797,0.07475458,0.681496,1.3808599,-30.562502,34.893753,9.09375,-0.08178795,0.6954398,-0.713763,995.279, , , , 
2025-09-28 19:24:00.310,15.68256,-10.174282,-1.2777673,-0.053527027,0.5690969,0.66309375,-28.706251,37.575,9.056251,-0.067724474,0.69680405,-0.7138965,995.279, , , , 
2025-09-28 19:24:00.330,15.570097,-10.724631,-0.64606214,0.017333288,0.007101303,0.18906265,-29.925001,36.693752,10.3125,-0.06505047,0.6973029,-0.7136915,995.29193,37.88829405,127.73990272,147.80419921875,1.51
2025-09-28 19:24:00.350,16.017555,-9.784252,-0.50488555,0.2409098,-1.0283145,-0.36438084,-30.093752,36.45,8.793751,-0.0720138,0.6961319,-0.7141659,995.29193, , , , 
2025-09-28 19:24:00.370,16.950756,-8.384451,-1.4141582,0.15783219,-0.96295196,-1.1200206,-28.218752,37.65,7.6125,-0.08682765,0.6937408,-0.71483994,995.30975, , , , 
2025-09-28 19:24:00.390,15.297316,-9.140582,-2.091327,-0.10117448,-0.006948587,-1.9569054,-28.181252,38.006252,9.28125,-0.099404365,0.6923081,-0.71468383,995.30975, , , , 
2025-09-28 19:24:00.410,10.229317,-10.906486,-1.969293,-0.28932083,0.8879683,-2.5482225,-31.500002,36.787502,9.69375,0.11727851,-0.69107103,0.7129776,995.3134, , , , 
2025-09-28 19:24:00.431,8.300702,-11.239088,-2.5818555,-0.37545276,0.86536634,-2.5714352,-35.925003,32.23125,9.1875,0.12944245,-0.69006985,0.7107455,995.3134, , , , 
2025-09-28 19:24:00.450,9.056833,-10.911271,-2.3784657,-0.86353374,0.44692394,-2.5897613,-35.8875,30.993752,8.625,0.1452314,-0.6906261,0.7046548,995.31683, , , , 
2025-09-28 19:24:00.470,10.616954,-10.652846,0.3900301,-1.1622466,-0.46509716,-2.8286095,-38.25,31.743752,10.6875,0.162594,-0.6935518,0.695401,995.31683, , , , 
2025-09-28 19:24:00.490,12.21536,-10.729417,3.790231,-1.1145991,-1.2799908,-3.1804674,-39.5625,28.125002,9.806251,0.18146513,-0.6958331,0.686489,995.3381, , , , 
2025-09-28 19:24:00.510,11.509477,-11.830115,6.9798636,-0.49518228,-2.046626,-3.8255408,-42.16875,25.48125,11.306251,0.22406055,-0.6956668,0.6708261,995.3381, , , , 
2025-09-28 19:24:00.530,10.296316,-12.119647,6.4008007,-0.05169443,-2.029522,-4.0943213,-41.5125,24.54375,13.6125,0.2533251,-0.69164675,0.66260886,995.4018, , , , 
2025-09-28 19:24:00.550,8.719446,-12.634104,4.8215375,0.303218,-1.4669154,-4.1975574,-41.381252,20.2875,16.462502,0.30248696,-0.67904806,0.6511297,995.4018, , , , 
2025-09-28 19:24:00.570,8.5112705,-12.746566,3.1130621,0.49808386,-0.7919098,-4.1951137,-42.956253,16.3875,19.0125,0.33752537,-0.6648691,0.6443041,995.43256, , , , 
2025-09-28 19:24:00.590,8.190632,-12.727424,1.2777673,0.5640573,-0.33009607,-4.2091637,-45.84375,12.843751,18.581251,0.36818838,-0.64786404,0.6392354,995.43256, , , , 
2025-09-28 19:24:00.610,7.810173,-12.540784,-0.70348984,0.36369362,-0.01244637,-4.2647524,-44.98125,9.31875,20.25,0.40209296,-0.6248603,0.63269734,995.4206, , , , 
2025-09-28 19:24:00.630,7.042077,-12.650853,-1.2610176,0.15538873,0.00160352,-4.32645,-45.975002,5.1000004,20.4375,0.42118904,-0.6110346,0.62729394,995.4206, , , , 
2025-09-28 19:24:00.650,5.572884,-12.6987095,-0.8111669,-0.07063124,-0.116904244,-4.2916307,-46.74375,-1.5562501,20.587502,0.45186776,-0.58871615,0.61505747,995.3969, , , , 
2025-09-28 19:24:00.670,4.1874394,-12.344572,-0.64606214,-0.1146135,-0.11568252,-4.113258,-46.0125,-2.4750001,18.5625,0.47496694,-0.57140046,0.6034277,995.3969, , , , 
2025-09-28 19:24:00.690,3.2446675,-11.68176,-0.55513483,-0.20624322,-0.06498074,-3.7986627,-48.225002,-6.6937504,20.41875,0.4956673,-0.554808,0.59143364,995.3764, , , , 
2025-09-28 19:24:00.710,2.1080768,-11.3371935,-0.701097,-0.24289511,0.100563616,-3.512167,-47.175003,-11.793751,19.518751,0.51352334,-0.53899354,0.57967085,995.3764, , , , 
2025-09-28 19:24:00.730,0.85902333,-11.150554,-0.71306115,-0.26794055,0.11766783,-3.1621416,-45.487503,-14.3625,19.03125,0.528345,-0.52411544,0.568755,995.3576, , , , 
2025-09-28 19:24:00.750,-0.27756742,-10.861022,-0.74416786,-0.25022548,-0.028328855,-2.5915937,-47.025,-17.737501,17.362501,0.5434481,-0.5083538,0.55625916,995.3576, , , , 
2025-09-28 19:24:00.770,-1.6247265,-10.851451,-0.64606214,-0.20990841,-0.16699515,-2.1591015,-45.375,-20.1,21.50625,0.5512368,-0.5008388,0.5492505,995.3464, , , , 
2025-09-28 19:24:00.790,-3.400201,-10.667203,-0.6987042,-0.17081307,-0.30932665,-1.5555671,-44.90625,-22.143751,20.643751,0.5599923,-0.49354148,0.541017,995.3464, , , , 
2025-09-28 19:24:00.810,-4.1371903,-11.047662,-0.9284152,-0.05169443,-0.39729118,-0.33628106,-44.175003,-21.46875,21.300001,0.56680506,-0.49068016,0.534111,995.3383, , , , 
2025-09-28 19:24:00.830,-4.6636114,-10.636097,-1.6845472,-0.07551816,-0.3569741,0.44623673,-42.35625,-21.993752,18.825,0.5679432,-0.49251315,0.5327411,995.3383, , , , 
2025-09-28 19:24:00.850,-2.2564318,-9.226724,-0.65324056,-0.19646938,-0.08880447,1.7614286,-42.600002,-22.40625,20.71875,0.5624242,-0.5029762,0.53545177,995.32245, , , , 
2025-09-28 19:24:00.870,1.1772687,-9.284152,-0.08135597,-0.020540329,0.21662793,2.4132214,-44.90625,-20.550001,22.556252,0.55106604,-0.5156195,0.5429507,995.32245, , , , 
2025-09-28 19:24:00.890,3.8285162,-10.018748,-1.0600204,0.16699515,0.4615847,2.6569564,-43.0875,-16.96875,18.618752,0.5318328,-0.5315789,0.55782074,995.3144, , , , 
2025-09-28 19:24:00.910,3.8237305,-10.480563,-1.7491534,0.15477787,0.4408153,2.7333145,-46.95,-17.1375,20.268751,0.5234376,-0.53767985,0.5643986,995.3144, , , , 
2025-09-28 19:24:00.930,4.019942,-11.784652,-1.7228323,-0.011377357,0.026038112,3.0118687,-46.85625,-13.125001,18.9375,0.50178593,-0.554702,0.57931304,995.3024, , , , 
2025-09-28 19:24:00.950,4.6612186,-12.464213,-0.8207382,-0.017486004,-0.3398699,3.3350163,-46.7625,-11.887501,19.78125,0.47977817,-0.5752775,0.59122306,995.3024, , , , 
2025-09-28 19:24:00.970,4.6061835,-12.51207,-0.4426722,0.05215258,-0.35453063,3.5811949,-47.25,-7.70625,20.53125,0.46142125,-0.59263,0.5999521,995.2917, , , , 
2025-09-28 19:24:00.990,4.462614,-12.4426775,-0.2321038,0.098578304,-0.18165591,3.9208355,-48.0,-4.93125,20.456251,0.44075716,-0.60977805,0.60922617,995.2917, , , , 
2025-09-28 19:24:01.010,5.410172,-12.41875,0.13878371,0.13584106,-0.046043932,4.3368344,-46.612503,-0.3,19.575,0.40983057,-0.63093406,0.62197655,995.2983, , , , 
2025-09-28 19:24:01.030,6.661618,-12.296716,0.60777694,0.24518585,-0.049098257,4.514596,-47.53125,2.5687501,21.825,0.38915533,-0.64318764,0.6297923,995.2983, , , , 
2025-09-28 19:24:01.050,8.877372,-11.990435,0.47138608,0.48647743,0.055970486,4.5084877,-45.506252,9.637501,20.118752,0.35340798,-0.6607624,0.6430033,995.3007, , , , 
2025-09-28 19:24:01.070,9.913465,-11.514262,-0.43788654,0.5738311,0.23739733,4.24887,-48.24375,12.075001,21.50625,0.32476607,-0.6713734,0.6534223,995.3007, , , , 
2025-09-28 19:24:01.090,9.30808,-11.136196,-0.9403793,0.45715594,0.31986406,3.9073966,-43.5,17.081251,16.706251,0.29689935,-0.679675,0.6625869,995.30975, , , , 
2025-09-28 19:24:01.110,8.841479,-11.313266,-0.5312066,0.35575238,0.33269224,3.7534587,-44.30625,18.35625,19.2,0.27009556,-0.6870095,0.6697129,995.30975, , , , 
2025-09-28 19:24:01.130,8.640483,-11.456835,0.3397808,0.43027788,0.22579089,3.7259698,-44.4375,21.45,20.118752,0.24384223,-0.69337285,0.67555344,995.30414, , , , 
2025-09-28 19:24:01.150,9.410972,-11.064412,0.42592242,0.66668254,0.084070265,3.7143633,-40.21875,24.6375,16.40625,0.22480184,-0.69681156,0.6799065,995.30414, , , , 
2025-09-28 19:24:01.170,11.030912,-10.226924,-1.0911272,0.8248965,0.2948186,3.5891361,-37.275,28.29375,16.5,0.19426988,-0.69930065,0.68784267,995.31586, , , , 
2025-09-28 19:24:01.190,13.418949,-9.521041,-1.5864414,0.6117047,0.8390991,3.2158976,-36.300003,29.5125,16.63125,-0.16247703,0.7002466,-0.6950341,995.31586, , , , 
2025-09-28 19:24:01.211,14.261223,-9.104691,-0.3900301,0.5646681,0.7108175,2.7143776,-34.85625,31.44375,13.9125,-0.13837153,0.7007239,-0.69938254,995.31, , , , 
2025-09-28 19:24:01.230,15.036497,-9.379865,0.14356937,0.8420007,0.21418446,2.2629485,-33.487503,33.1875,15.056251,-0.12419162,0.6996975,-0.7026621,995.31, , , , 
2025-09-28 19:24:01.250,14.813965,-9.396614,-2.4861426,1.121166,0.073685564,1.6954552,-30.056252,33.300003,12.825001,-0.108435094,0.6937833,-0.7101965,995.32294, , , , 
2025-09-28 19:24:01.270,14.876179,-9.276974,-4.4434714,0.8554398,0.44325876,1.3118321,-28.7625,38.287502,12.4125,-0.09872644,0.6884345,-0.7161863,995.32294, , , , 
2025-09-28 19:24:01.290,14.301901,-9.159725,-4.8646083,0.22808164,1.1677444,0.8451314,-30.525002,36.862503,13.9125,-0.08844494,0.68636197,-0.7194671,995.30975, , , , 
2025-09-28 19:24:01.311,13.730017,-10.009177,-2.5148566,-0.31680974,1.4658464,0.3601048,-27.618752,35.7,9.356251,-0.07441442,0.6892559,-0.719021,995.30975, , , , 
2025-09-28 19:24:01.330,14.239688,-11.207981,0.5479564,-0.3174206,0.89590955,0.033902995,-28.237501,38.60625,11.25,-0.06883534,0.69176596,-0.7176118,995.29803,37.88828307,127.73991037,147.55023193359375,1.42
2025-09-28 19:24:01.350,14.416757,-10.085748,2.2851455,0.1437823,0.3937787,-0.41325003,-25.968752,38.100002,9.65625,-0.066956215,0.69285154,-0.7172675,995.29803, , , , 
2025-09-28 19:24:01.371,14.624932,-8.836694,1.2155539,0.48586658,0.020540329,-1.0363321,-27.562502,38.7,7.3125005,-0.07219597,0.68971944,-0.72009224,995.3298, , , , 
2025-09-28 19:24:01.390,13.519448,-9.312865,-0.6723832,0.5304597,-0.034437504,-1.6899574,-29.19375,37.40625,9.731251,-0.08035753,0.68600327,-0.72299,995.3298, , , , 
2025-09-28 19:24:01.410,11.246266,-11.006984,-2.4430718,0.19876012,-0.102854356,-2.36985,-30.862501,36.881252,7.4625,0.09937001,-0.6801356,0.7263103,995.33734, , , , 
2025-09-28 19:24:01.430,9.875179,-11.923435,-2.495714,-0.18119776,-0.31421357,-2.6795583,-31.968752,35.8875,8.400001,0.118485816,-0.67741793,0.725669,995.33734, , , , 
2025-09-28 19:24:01.450,9.552148,-12.531212,-0.55752766,-0.5782599,-0.65446526,-3.0301948,-35.362503,34.40625,9.618751,0.14105426,-0.6767618,0.7214553,995.32196, , , , 
2025-09-28 19:24:01.470,10.025927,-12.641282,0.6891329,-0.6582832,-0.67218035,-3.3392923,-35.287502,32.550003,9.88125,0.16655903,-0.676595,0.7148361,995.32196, , , , 
2025-09-28 19:24:01.490,9.961321,-12.823136,1.3974084,-0.66500264,-0.5298488,-3.6825984,-40.59375,29.625002,11.3625,0.19388627,-0.67522335,0.70707715,995.33636, , , , 
2025-09-28 19:24:01.511,8.729017,-13.100704,2.5842485,-0.55321443,-0.049709123,-3.9306095,-41.362503,26.56875,11.306251,0.22738579,-0.6705953,0.6970199,995.33636, , , , 
2025-09-28 19:24:01.530,8.420342,-13.162917,3.6083765,-0.36018115,0.056581352,-3.978257,-39.600002,24.7875,7.36875,0.24597788,-0.66590494,0.6914682,995.37274, , , , 
2025-09-28 19:24:01.550,8.456235,-13.091133,4.7545385,0.08086322,-0.37835437,-4.10043,-42.768753,23.2875,12.4125,0.2776369,-0.6544124,0.68307287,995.37274, , , , 
2025-09-28 19:24:01.570,8.353344,-13.060026,4.496114,0.53779006,-0.8114575,-4.289798,-43.893753,18.675001,15.58125,0.30693346,-0.64141047,0.67674196,995.4067, , , , 
2025-09-28 19:24:01.590,7.5517483,-13.289737,2.8283165,0.7491493,-0.90064377,-4.375319,-46.18125,15.731251,11.6625,0.34760812,-0.6207144,0.6686439,995.4067, , , , 
2025-09-28 19:24:01.610,7.1976104,-13.217953,1.4835501,0.6880628,-0.79801846,-4.3533278,-47.643753,10.3125,16.44375,0.37959677,-0.6025762,0.6611763,995.4145, , , , 
2025-09-28 19:24:01.630,6.778867,-12.823136,0.8255238,0.5640573,-0.70028013,-4.335002,-45.506252,5.45625,13.875001,0.40236154,-0.5887822,0.654653,995.4145, , , , 
2025-09-28 19:24:01.650,5.474778,-12.078969,-0.12203395,0.35269806,-0.50358164,-4.26292,-48.412502,2.15625,16.06875,0.4376361,-0.56577605,0.6419616,995.3945, , , , 
2025-09-28 19:24:01.670,4.180261,-11.265409,-0.49052864,0.08880447,-0.3514763,-4.1016517,-48.937504,-2.4,19.0125,0.46245417,-0.5481049,0.6303858,995.3945, , , , 
2025-09-28 19:24:01.690,3.2733815,-10.648061,-0.2536392,-0.09873102,-0.24885105,-3.9171703,-48.91875,-6.7312503,17.71875,0.47899222,-0.53566545,0.6209479,995.3642, , , , 
2025-09-28 19:24:01.710,1.9525433,-10.100104,0.083748795,-0.20196716,-0.036880963,-3.5561492,-47.98125,-11.400001,20.19375,0.50260895,-0.51616573,0.60494816,995.3642, , , , 
2025-09-28 19:24:01.730,0.9667004,-9.781859,0.09092726,-0.2154062,0.16959134,-3.2207847,-47.25,-13.781251,16.85625,0.5174911,-0.50132513,0.5934261,995.34, , , , 
2025-09-28 19:24:01.750,-0.60059845,-9.52822,-0.19860429,-0.15920663,0.2606102,-2.6386304,-46.818752,-16.837502,15.900001,0.5312761,-0.48425084,0.58170795,995.34, , , , 
2025-09-28 19:24:01.770,-2.0171494,-9.370294,-0.40917268,-0.12927426,0.12133302,-2.0375395,-45.5625,-20.0625,15.337501,0.53962153,-0.47310123,0.5741262,995.3234, , , , 
2025-09-28 19:24:01.790,-2.5411777,-9.4229355,-0.05503492,-0.07185297,-0.008170316,-1.299004,-44.925003,-22.612501,16.03125,0.54567283,-0.4657116,0.56827587,995.3234, , , , 
2025-09-28 19:24:01.810,-2.5794628,-9.458828,-0.15314065,0.055817768,0.00160352,-0.47006044,-44.625,-21.206251,15.468751,0.5490252,-0.46201146,0.5653088,995.3051, , , , 
2025-09-28 19:24:01.830,-2.6943183,-9.980463,-0.7178468,0.07108939,-0.055206906,0.22021675,-45.6375,-23.19375,17.0625,0.54934555,-0.46179938,0.5656713,995.3051, , , , 
2025-09-28 19:24:01.850,-2.9838498,-10.255638,-1.4739788,-0.045585785,-0.17066035,1.2421936,-46.162502,-23.625,17.306252,0.5463862,-0.46660405,0.5686601,995.2758, , , , 
2025-09-28 19:24:01.870,-1.2346965,-8.9348,-0.61734825,-0.28321218,-0.16394083,2.1621559,-46.8375,-22.462502,18.54375,0.53891164,-0.47759244,0.5739331,995.2758, , , , 
2025-09-28 19:24:01.890,1.7611175,-8.46102,1.0360922,-0.279547,0.19402592,2.830442,-46.0875,-18.243752,15.918751,0.5220942,-0.49699685,0.58432037,995.2631, , , , 
2025-09-28 19:24:01.910,4.682754,-9.509077,1.0911272,-0.09445497,0.5397754,3.060738,-47.662502,-17.19375,18.487501,0.50376767,-0.51240057,0.596526,995.2631, , , , 
2025-09-28 19:24:01.930,5.7020965,-10.796415,0.30388847,0.09613484,0.5031235,3.0900595,-48.54375,-15.0375,18.150002,0.48878652,-0.5227278,0.60705936,995.2741, , , , 
2025-09-28 19:24:01.950,5.556134,-12.177074,-1.442872,0.15111268,-0.28733552,3.2195628,-49.912502,-10.087501,19.087502,0.4660565,-0.5398228,0.6230482,995.2741, , , , 
2025-09-28 19:24:01.970,5.7786665,-12.68196,-1.5625132,0.057650365,-0.73326683,3.4211483,-48.131252,-7.89375,17.7,0.45083272,-0.5562575,0.63194615,995.28265, , , , 
2025-09-28 19:24:01.990,6.192625,-12.208181,-1.0863415,-0.12866339,-0.53290313,3.7357435,-47.71875,-4.3875003,18.075,0.4349202,-0.5745239,0.6389252,995.28265, , , , 
2025-09-28 19:24:02.010,6.5659056,-11.574083,0.047856454,-0.28932083,0.14026983,3.9458811,-46.96875,0.056250002,18.0375,0.41413125,-0.59290916,0.6463345,995.2863, , , , 
2025-09-28 19:24:02.032,6.5754766,-11.272588,1.2107682,-0.324751,0.6912699,4.112036,-48.600002,2.0062501,17.34375,0.3797955,-0.614026,0.6576275,995.2863, , , , 
2025-09-28 19:24:02.050,7.7647095,-11.217552,2.2564318,-0.14698933,0.5959749,4.1657925,-47.53125,7.4437504,18.768751,0.3490883,-0.62899095,0.66724706,995.29486, , , , 
2025-09-28 19:24:02.070,9.08794,-10.772488,2.6775684,0.29955283,-0.13584106,3.9318311,-45.393753,12.562501,14.231251,0.32162008,-0.64107925,0.6762063,995.29486, , , , 
2025-09-28 19:24:02.090,9.032906,-10.585847,1.4596218,0.7198278,-0.8755983,3.6209009,-46.518753,14.94375,13.293751,0.30176434,-0.64938897,0.68402207,995.30975, , , , 
2025-09-28 19:24:02.110,8.080562,-10.4566345,-0.6364908,0.791299,-1.1315507,3.5127778,-46.48125,15.937501,14.156251,0.28740478,-0.65513885,0.690476,995.30975, , , , 
2025-09-28 19:24:02.130,8.3581295,-10.145568,-1.0504491,0.5316814,-0.7680861,3.5689774,-42.46875,20.56875,14.868751,0.2727657,-0.6608541,0.69514495,995.30536, , , , 
2025-09-28 19:24:02.150,9.238688,-10.033105,-0.16510476,0.28183773,-0.092469655,3.5598145,-41.60625,23.5125,15.675,0.25894445,-0.665746,0.69771004,995.30536, , , , 
2025-09-28 19:24:02.170,10.590633,-10.035499,1.4213367,0.2201404,0.8018364,3.4058766,-37.631252,27.281252,15.975,0.22941236,-0.67365134,0.70202583,995.29486, , , , 
2025-09-28 19:24:02.190,11.542976,-9.77468,1.7371893,0.38263044,1.0785581,3.1853545,-39.46875,28.95,15.618751,0.20252696,-0.6779617,0.70656264,995.29486, , , , 
2025-09-28 19:24:02.210,12.160325,-9.245867,0.9834501,0.6459131,1.124373,2.7186537,-36.16875,30.056252,14.7375,-0.17022263,0.6794913,-0.7136501,995.30707, , , , 
2025-09-28 19:24:02.230,12.325429,-9.468399,-0.28235307,0.76197743,1.1176535,2.3906193,-35.456253,31.893751,11.325001,-0.1528706,0.67862046,-0.7183063,995.30707, , , , 
2025-09-28 19:24:02.250,12.004791,-10.052248,-2.1415763,0.61659163,1.2764783,2.0167701,-31.968752,33.75,9.450001,-0.1265594,0.67606175,-0.72559685,995.29803, , , , 
2025-09-28 19:24:02.270,11.949757,-10.18146,-2.7230322,0.34781113,1.4511856,1.8640538,-31.650002,36.15,10.51875,-0.10613538,0.6751002,-0.72964144,995.29803, , , , 
2025-09-28 19:24:02.290,13.730017,-10.377672,-2.4837499,-0.08590286,1.5776347,1.5616758,-31.81875,36.0,10.087501,-0.08593051,0.67622817,-0.7312263,995.28314, , , , 
2025-09-28 19:24:02.310,14.964713,-10.700703,-1.442872,-0.38033968,1.5238786,1.0241148,-29.250002,38.5125,9.675,-0.06806128,0.6793144,-0.73034316,995.28314, , , , 
2025-09-28 19:24:02.330,15.63231,-11.772687,-0.5838487,-0.49518228,1.2227222,0.36987862,-29.306252,37.29375,6.9750004,-0.055113062,0.68323666,-0.7279452,995.2812,37.88827181,127.73991828,147.53564453125,1.54
2025-09-28 19:24:02.350,15.125031,-11.68176,-0.019142581,-0.46280643,0.90140736,-0.049174614,-28.706251,37.350002,6.1312504,-0.049852263,0.68605655,-0.7257804,995.2812, , , , 
2025-09-28 19:24:02.370,14.849857,-9.456435,0.31345975,-0.33941174,0.61918783,-0.79015356,-28.85625,38.60625,4.21875,0.04921034,-0.6899433,0.7221649,995.3044, , , , 
2025-09-28 19:24:02.390,14.335401,-8.496913,0.7465607,-0.30520332,0.78534305,-1.4498875,-31.575,37.66875,6.8812504,0.052659273,-0.69112897,0.7206219,995.3044, , , , 
2025-09-28 19:24:02.410,11.861222,-9.779466,0.74177504,-0.03642281,1.2422699,-2.328922,-32.30625,36.862503,5.30625,0.061950307,-0.691194,0.71872705,995.31854, , , , 
2025-09-28 19:24:02.430,9.640682,-10.798809,0.14117654,0.21891867,1.322904,-2.6697845,-34.96875,34.48125,5.25,0.07111035,-0.6883481,0.71844846,995.31854, , , , 
2025-09-28 19:24:02.450,8.350951,-11.131411,-1.0145568,0.37530005,0.84398603,-2.8683155,-35.831253,33.787502,4.2937503,0.082462795,-0.68325394,0.7188117,995.3295, , , , 
2025-09-28 19:24:02.470,8.2145605,-11.100305,-1.4548361,0.33070692,0.053527027,-2.997208,-37.818752,31.218752,4.03125,0.09868535,-0.6777121,0.71821713,995.3295, , , , 
2025-09-28 19:24:02.490,8.678768,-11.4496565,-1.3016955,0.21219915,-0.5493965,-3.1206026,-40.818752,29.19375,0.91875005,0.12086669,-0.67306006,0.7154394,995.3305, , , , 
2025-09-28 19:24:02.510,8.827123,-11.58844,-0.9068798,0.09552398,-1.0735185,-3.2311692,-42.881252,27.093752,2.9437501,0.15478455,-0.6682916,0.7088333,995.3305, , , , 
2025-09-28 19:24:02.530,8.9348,-11.332408,-1.160519,-0.0712421,-1.1364375,-3.30936,-43.987503,25.237501,3.16875,0.17665574,-0.66566306,0.7034229,995.33344, , , , 
2025-09-28 19:24:02.550,8.874979,-11.251052,-0.39960137,-0.4004982,-0.8749874,-3.5097237,-43.818752,23.1375,2.6625001,0.21278864,-0.66199774,0.69132185,995.33344, , , , 
2025-09-28 19:24:02.570,8.750552,-11.586047,0.6580262,-0.5086213,-0.655687,-3.653277,-44.9625,20.53125,4.6312504,0.23996797,-0.6588126,0.67952275,995.3403, , , , 
2025-09-28 19:24:02.590,8.736196,-12.169896,1.5050855,-0.42004588,-0.50358164,-3.7730062,-47.11875,18.0375,7.7812505,0.2595411,-0.6554203,0.6702387,995.3403, , , , 
2025-09-28 19:24:02.610,9.226724,-12.4115715,1.5553347,-0.12438734,-0.5805506,-4.0369,-49.0875,13.593751,10.087501,0.29936624,-0.64432335,0.6519487,995.35004, , , , 
2025-09-28 19:24:02.630,9.425328,-12.6676035,0.634098,-0.077961616,-0.52251846,-4.303237,-47.025,8.34375,7.2375,0.3205428,-0.63660455,0.6424487,995.35004, , , , 
2025-09-28 19:24:02.650,8.496913,-13.143775,0.23928227,-0.12988512,-0.3050506,-4.5359764,-48.300003,4.4625,10.51875,0.34909287,-0.62451047,0.62841725,995.3586, , , , 
2025-09-28 19:24:02.670,6.355337,-13.146168,-0.14117654,-0.20868668,0.019929463,-4.592787,-51.093754,0.16875,12.450001,0.38240844,-0.6066997,0.6095633,995.3586, , , , 
2025-09-28 19:24:02.690,4.8646083,-12.6987095,-0.38524446,-0.2154062,0.26794055,-4.430297,-50.625004,-4.7625003,12.225,0.4002277,-0.5950457,0.5981255,995.3483, , , , 
2025-09-28 19:24:02.710,3.3499517,-11.899507,-1.1437693,-0.3229184,0.41088292,-3.9990263,-50.250004,-10.06875,12.937501,0.42546165,-0.5750647,0.5798943,995.3483, , , , 
2025-09-28 19:24:02.730,2.861816,-11.298908,-0.75613195,-0.38767007,0.37239844,-3.692983,-48.131252,-13.575001,11.0625,0.44192767,-0.56034744,0.5654842,995.33075, , , , 
2025-09-28 19:24:02.750,1.6510476,-10.827522,-0.59581286,-0.3363574,0.2135736,-3.2751515,-48.05625,-16.9125,9.243751,0.45975327,-0.54359853,0.5479599,995.33075, , , , 
2025-09-28 19:24:02.770,0.18664017,-10.535598,-0.6197411,-0.292986,0.09445497,-2.8762567,-48.0,-18.768751,10.125,0.46939123,-0.5346359,0.5379495,995.32245, , , , 
2025-09-28 19:24:02.790,-1.6773686,-10.155139,-1.0408778,-0.26977316,-2.290743E-4,-2.1462734,-47.625,-21.45,7.9125004,0.48261794,-0.5227061,0.52341634,995.32245, , , , 
2025-09-28 19:24:02.810,-2.7206392,-9.473185,-1.2873386,-0.3681224,-0.08513928,-1.3185517,-44.04375,-24.69375,8.34375,0.4892965,-0.51728487,0.51462245,995.3066, , , , 
2025-09-28 19:24:02.830,-2.4765713,-8.956335,-0.98584294,-0.47685632,-0.0900262,-0.5091558,-45.05625,-25.931252,9.6,0.49140206,-0.51633126,0.5098743,995.3066, , , , 
2025-09-28 19:24:02.850,-1.8807586,-9.38465,-1.1533405,-0.47991064,-0.033215772,0.24953826,-44.30625,-26.831251,7.2562504,0.4896247,-0.519431,0.50606894,995.29364, , , , 
2025-09-28 19:24:02.870,-2.3353949,-9.099904,-1.9310079,-0.62163126,-0.033826638,1.0002911,-46.275,-25.44375,9.69375,0.48396116,-0.5255496,0.50663584,995.29364, , , , 
2025-09-28 19:24:02.890,-1.3351951,-8.685946,-1.3040884,-0.90140736,-0.06314815,1.9288056,-46.575,-25.462502,10.03125,0.4700289,-0.5398612,0.51068956,995.28827, , , , 
2025-09-28 19:24:02.910,0.61734825,-8.750552,-0.29192436,-1.0125847,0.10117448,2.6300783,-46.5,-23.94375,6.8625,0.4527042,-0.55583555,0.51682925,995.28827, , , , 
2025-09-28 19:24:02.930,2.7062824,-9.15494,0.34456646,-0.99609137,0.41699156,2.993543,-48.318752,-22.650002,8.512501,0.43629164,-0.5686307,0.5235276,995.28314, , , , 
2025-09-28 19:24:02.950,3.6993039,-9.62154,0.63888365,-0.8952987,0.7218131,3.1456482,-48.300003,-20.5125,6.6937504,0.41106772,-0.58450824,0.53489065,995.28314, , , , 
2025-09-28 19:24:02.970,3.9218364,-11.143375,0.0741775,-0.7560215,0.7926734,3.3069165,-48.675003,-17.081251,8.700001,0.37678137,-0.601837,0.55142206,995.2863, , , , 
2025-09-28 19:24:02.990,3.306881,-12.134004,-0.5240282,-0.78656477,0.68638295,3.5701993,-50.86875,-13.8,4.2562504,0.3554259,-0.6121244,0.5615346,995.2863, , , , 
2025-09-28 19:24:03.010,3.4743786,-12.835101,-0.1268196,-0.9783763,0.42737627,4.198779,-50.475002,-6.7875004,4.9125004,0.3166905,-0.63142437,0.57800853,995.2817, , , , 
2025-09-28 19:24:03.030,4.5320063,-13.021741,1.0935199,-0.9838741,0.18669555,4.6111126,-51.54375,-3.4125001,3.5812502,0.2825197,-0.6489752,0.59063244,995.2817, , , , 
2025-09-28 19:24:03.050,6.8075805,-12.930814,2.359323,-0.681496,-0.066813335,4.894554,-52.0875,0.50625,5.11875,0.23843639,-0.6701466,0.6066326,995.2861, , , , 
2025-09-28 19:24:03.070,8.382058,-12.674782,2.603391,-0.34124434,-0.17249294,4.835911,-49.65,6.61875,2.98125,0.20459208,-0.68397194,0.6197829,995.2861, , , , 
2025-09-28 19:24:03.090,9.126225,-12.602997,2.0721843,-0.04925097,0.06330086,4.6624255,-50.906254,10.59375,3.6562502,0.17238455,-0.69375455,0.6332193,995.30634, , , , 
2025-09-28 19:24:03.110,9.533006,-12.485748,0.62452674,0.03565923,0.5605448,4.360658,-48.0,18.243752,1.3687501,0.1319737,-0.7005345,0.6496203,995.30634, , , , 
2025-09-28 19:24:03.130,9.525827,-12.579068,-0.11006984,-0.10361794,0.7688497,4.167014,-47.737503,18.768751,0.84375006,0.10729462,-0.7029661,0.6580387,995.3171, , , , 
2025-09-28 19:24:03.150,9.659825,-12.684353,-0.15314065,-0.36567894,0.8030581,3.9745917,-46.125,20.831251,-1.7625,0.08257345,-0.70528746,0.6645805,995.3171, , , , 
2025-09-28 19:24:03.170,10.628919,-12.669996,1.0648061,-0.5959749,0.79878205,3.6832092,-45.075,22.5375,0.80625004,0.042683277,-0.70975316,0.6712845,995.3161, , , , 
2025-09-28 19:24:03.190,11.272588,-12.12204,2.0003998,-0.5959749,0.89652044,3.4144287,-44.831253,26.775002,1.7812501,0.012578275,-0.7127413,0.6742383,995.3161, , , , 
2025-09-28 19:24:03.210,12.313465,-11.298908,2.3928227,-0.39561132,1.5544218,2.974606,-41.15625,29.6625,0.91875005,-0.023906568,-0.7136744,0.67692584,995.32416, , , , 
2025-09-28 19:24:03.230,12.753745,-10.588241,1.0576276,-0.3681224,2.2288165,2.577544,-37.631252,31.7625,-0.3375,-0.04656363,-0.71218723,0.6781772,995.32416, , , , 
2025-09-28 19:24:03.250,12.155539,-9.583255,0.7106683,-0.6607266,2.7706535,1.9709553,-35.4,32.4,-4.1625004,-0.085826494,-0.70885545,0.6767664,995.3344, , , , 
2025-09-28 19:24:03.270,11.408978,-9.523434,1.6462619,-0.68088514,2.592281,1.6771293,-34.78125,35.325,-5.15625,-0.11574258,-0.7067442,0.672352,995.3344, , , , 
2025-09-28 19:24:03.290,11.643475,-9.722038,2.1463618,-0.44997826,1.9746968,1.4963133,-32.268753,37.59375,-5.86875,-0.13511394,-0.70492864,0.6691171,995.3371, , , , 
2025-09-28 19:24:03.310,12.516855,-9.4229355,1.5266209,-0.06024654,1.0736712,1.2263111,-31.050001,36.3375,-6.0750003,-0.15856585,-0.70097643,0.6667531,995.3371, , , , 
2025-09-28 19:24:03.330,13.287344,-9.367901,0.94755775,0.08269582,0.6259073,0.92210037,-30.91875,37.725002,-6.3187504,-0.17004776,-0.6976554,0.6670824,995.3481,37.88825997,127.7399261,147.3868408203125,1.49
2025-09-28 19:24:03.350,13.753944,-9.954143,0.81595254,0.17615813,0.4566978,0.5574141,-31.10625,37.4625,-6.9,-0.1779169,-0.69422084,0.66814744,995.3481, , , , 
2025-09-28 19:24:03.370,13.818551,-9.145369,0.9284152,0.35391977,0.34796384,0.29718572,-29.587502,36.881252,-8.118751,-0.18083818,-0.6914388,0.6693893,995.3547, , , , 
2025-09-28 19:24:03.390,14.534005,-8.288737,0.6771688,0.5493965,0.25999933,0.037568185,-27.675001,39.7125,-10.012501,-0.18089871,-0.6889312,0.6710562,995.3547, , , , 
2025-09-28 19:24:03.410,15.548561,-7.4249287,-1.1150553,0.62025684,0.30459246,-0.9337068,-30.712502,37.893753,-8.0625,-0.1758798,-0.68457836,0.6739113,995.3569, , , , 
2025-09-28 19:24:03.430,14.763716,-8.482556,-1.7635103,0.45837766,0.3345248,-1.7058399,-29.587502,38.04375,-12.0375,-0.16624467,-0.6830949,0.6734496,995.3569, , , , 
2025-09-28 19:24:03.450,13.016955,-10.626525,-1.9214365,0.28122687,0.27160576,-2.4889686,-28.725,36.506252,-11.887501,-0.1518182,-0.6838809,0.6696675,995.33417, , , , 
2025-09-28 19:24:03.470,11.808579,-12.3708935,-1.8448663,0.17615813,0.11522437,-2.9403975,-33.75,35.625,-11.925,-0.13327436,-0.6862091,0.66335934,995.33417, , , , 
2025-09-28 19:24:03.490,10.951949,-13.177275,-1.7994026,0.09735657,0.073685564,-3.200015,-34.143753,34.21875,-13.668751,-0.11185343,-0.6892659,0.6551374,995.31805, , , , 
2025-09-28 19:24:03.510,10.303494,-13.651053,-1.3136597,-0.054748755,0.08223767,-3.484678,-38.362503,31.650002,-11.212501,-0.08320525,-0.69341,0.6420748,995.31805, , , , 
2025-09-28 19:24:03.530,10.399207,-13.756337,-0.526421,0.0026725335,0.11766783,-3.6948156,-39.24375,27.975,-12.150001,-0.06527065,-0.6956048,0.63294196,995.3056, , , , 
2025-09-28 19:24:03.550,10.360922,-13.763515,-0.5694918,0.24029893,0.14393501,-4.036289,-42.45,27.375002,-11.00625,-0.03293109,-0.69688207,0.61699003,995.3056, , , , 
2025-09-28 19:24:03.571,9.920643,-13.854444,-1.5218352,0.38018698,0.15309799,-4.420523,-45.018753,24.88125,-10.293751,-0.004179202,-0.69548607,0.60346085,995.30145, , , , 
2025-09-28 19:24:03.590,9.480363,-14.222938,-2.024328,0.348422,0.16103923,-4.652652,-45.65625,21.581251,-11.7375,0.0188034,-0.69345933,0.59212357,995.30145, , , , 
2025-09-28 19:24:03.610,8.252846,-15.079568,-2.292324,0.28183773,0.07857248,-4.9452558,-45.84375,18.45,-12.0,0.058850892,-0.688925,0.5700486,995.2907, , , , 
2025-09-28 19:24:03.630,6.9344,-15.225531,-2.6081767,0.19020802,-0.047265664,-4.993514,-48.99375,12.281251,-12.243751,0.091849804,-0.68438625,0.5500006,995.2907, , , , 
2025-09-28 19:24:03.650,5.4293146,-14.687145,-2.4789643,0.0026725335,-0.22563818,-4.8469067,-47.4375,7.70625,-11.212501,0.13237825,-0.6785642,0.52244306,995.2719, , , , 
2025-09-28 19:24:03.670,4.898108,-13.674981,-1.8113668,-0.13843723,-0.46082112,-4.628217,-47.737503,2.0625,-9.637501,0.16320351,-0.67455333,0.49895972,995.2719, , , , 
2025-09-28 19:24:03.690,4.4458647,-12.839887,-1.1676974,-0.19219333,-0.5500074,-4.4724464,-50.100002,-2.2875001,-8.512501,0.18552934,-0.6718844,0.48081538,995.2587, , , , 
2025-09-28 19:24:03.710,2.9359934,-12.007184,-0.99302137,-0.18180864,-0.35636324,-4.099208,-50.287502,-8.2875,-8.15625,0.22028907,-0.6663806,0.4509929,995.2587, , , , 
2025-09-28 19:24:03.730,1.6127625,-11.650654,-1.1772687,-0.20502149,-0.16760603,-3.7418523,-52.781254,-12.637501,-7.8,0.24432267,-0.66059303,0.42898282,995.2624, , , , 
2025-09-28 19:24:03.750,0.047856454,-10.932807,-1.3567305,-0.25755587,-0.1749364,-3.1584764,-49.2,-15.150001,-7.425,0.2643012,-0.6544164,0.40915006,995.2624, , , , 
2025-09-28 19:24:03.770,-0.91884387,-10.389636,-1.3304094,-0.30703592,-0.5157989,-2.4969099,-47.4,-17.41875,-10.875,0.28085637,-0.6501447,0.3914199,995.2536, , , , 
2025-09-28 19:24:03.790,-1.2753744,-9.583255,-1.3854443,-0.36384633,-0.8389464,-1.8322889,-45.75,-20.643751,-7.6125,0.29402426,-0.64961874,0.37614045,995.2536, , , , 
2025-09-28 19:24:03.810,-0.10289137,-8.729017,-1.2705889,-0.5648208,-0.8841504,-1.0009019,-47.362503,-22.050001,-7.6875005,0.30447334,-0.65409744,0.36063707,995.2487, , , , 
2025-09-28 19:24:03.830,0.6795616,-8.834301,-1.2203395,-0.70531976,-0.60315263,-0.58001614,-45.975002,-23.8875,-8.025001,0.30695054,-0.6578262,0.35329962,995.2487, , , , 
2025-09-28 19:24:03.850,0.3397808,-9.827323,-1.7611175,-0.975322,-0.10529782,-0.09315688,-47.925003,-23.98125,-6.2812505,0.30483285,-0.6637634,0.3440837,995.2492, , , , 
2025-09-28 19:24:03.870,-1.2729816,-9.317652,-1.7946169,-1.3149627,0.234343,0.5061015,-46.5,-22.837502,-6.95625,0.29679063,-0.6684401,0.33902064,995.2492, , , , 
2025-09-28 19:24:03.890,-1.3184453,-9.0233345,-0.9499506,-1.6100105,0.42798713,1.172555,-48.45,-23.1375,-8.418751,0.28141603,-0.6742933,0.33627614,995.25116, , , , 
2025-09-28 19:24:03.910,0.4833502,-9.387043,0.72023964,-1.6869794,0.6246856,1.9874486,-47.025,-19.125,-10.05,0.25259858,-0.683179,0.3372623,995.25116, , , , 
2025-09-28 19:24:03.930,2.0673988,-9.982856,1.1222339,-1.5684717,0.70715237,2.3704607,-49.74375,-18.0375,-9.356251,0.23199978,-0.68841267,0.34068054,995.2685, , , , 
2025-09-28 19:24:03.950,3.1680973,-10.782059,0.54317075,-1.3900992,0.681496,2.6459608,-48.61875,-16.9125,-11.08125,0.1954808,-0.69624853,0.35003003,995.2685, , , , 
2025-09-28 19:24:03.970,3.1537402,-11.382657,-0.059820566,-1.3992622,0.58803374,2.9098544,-49.725002,-13.1625,-13.181251,0.1651005,-0.70243293,0.35925746,995.28754, , , , 
2025-09-28 19:24:03.990,3.0867412,-11.499906,-0.17228323,-1.4890592,0.6466767,3.2311692,-48.975002,-10.856251,-12.31875,0.14075269,-0.7072347,0.36674032,995.28754, , , , 
2025-09-28 19:24:04.010,3.6873398,-11.25823,0.2847459,-1.661934,0.86475545,3.6654942,-49.10625,-6.4875,-13.950001,0.09541823,-0.7142461,0.38024956,995.289, , , , 
2025-09-28 19:24:04.030,4.4554358,-11.157732,0.91405827,-1.7334051,0.8934661,3.8994553,-47.5875,-1.9687501,-14.981251,0.05525584,-0.71835995,0.39144894,995.289, , , , 
2025-09-28 19:24:04.050,5.6997037,-11.009377,1.9621146,-1.6472732,0.7108175,4.0790496,-49.593754,1.575,-18.525002,0.003338466,-0.72207236,0.4057081,995.30145, , , , 
2025-09-28 19:24:04.070,6.7740808,-10.939985,2.2492533,-1.4603486,0.6595049,4.0558367,-49.631252,6.6562505,-16.331251,-0.037134714,-0.72352004,0.41754913,995.30145, , , , 
2025-09-28 19:24:04.090,7.183254,-11.109876,2.172683,-1.3070215,0.6912699,3.9489353,-45.65625,13.275001,-15.731251,-0.06620953,-0.7232545,0.42640224,995.3232, , , , 
2025-09-28 19:24:04.110,6.8243303,-12.095718,1.6007984,-1.1787399,0.7419716,3.90984,-42.84375,15.225,-20.925001,-0.11265848,-0.720287,0.440811,995.3232, , , , 
2025-09-28 19:24:04.130,6.8578296,-13.294522,1.3351951,-1.1860703,0.7462477,4.0521717,-42.412502,18.018751,-21.6,-0.14956196,-0.71612966,0.4521155,995.33246, , , , 
2025-09-28 19:24:04.150,7.812566,-14.194224,1.8185452,-1.1598032,0.7554107,4.3447757,-43.443752,22.612501,-18.35625,-0.18760277,-0.7103717,0.4635195,995.33246, , , , 
2025-09-28 19:24:04.170,10.186246,-13.682159,2.565106,-1.0345758,0.73525214,4.4168577,-40.0125,25.837502,-18.900002,-0.2261386,-0.7026391,0.47534254,995.341, , , , 
2025-09-28 19:24:04.190,11.892328,-12.531212,2.8761728,-0.83237964,0.80061466,4.1743445,-38.8125,28.81875,-19.5,-0.26245332,-0.6930026,0.48682204,995.341, , , , 
2025-09-28 19:24:04.210,12.693924,-10.722239,2.1655045,-0.6173552,1.3729949,3.571421,-36.46875,30.91875,-19.40625,-0.30316928,-0.6780546,0.498392,995.351, , , , 
2025-09-28 19:24:04.230,12.366107,-10.226924,1.5529419,-0.60819227,1.8476369,3.0900595,-29.400002,33.9,-21.393751,-0.32613614,-0.6675889,0.50228125,995.351, , , , 
2025-09-28 19:24:04.250,11.188839,-10.243673,1.1820544,-0.6271291,1.9246058,2.7021604,-27.300001,34.125,-21.31875,-0.3623826,-0.6493547,0.5038375,995.3547, , , , 
2025-09-28 19:24:04.270,11.650654,-10.267602,1.3686945,-0.53672105,1.535485,2.5115705,-24.13125,36.581253,-24.2625,-0.38829595,-0.63565075,0.50399745,995.3547, , , , 
2025-09-28 19:24:04.290,12.622139,-10.480563,1.3304094,-0.3937787,1.1194861,2.2715006,-22.650002,38.2125,-22.5,-0.40478364,-0.62643754,0.5047903,995.35736, , , , 
2025-09-28 19:24:04.310,12.906885,-9.865608,1.0863415,-0.21418446,0.7602976,1.890321,-20.962502,39.487503,-20.60625,-0.42592013,-0.613668,0.5073554,995.35736, , , , 
2025-09-28 19:24:04.330,13.787444,-9.391829,1.294517,-0.13416117,0.9221767,1.6429209,-17.56875,38.625,-24.300001,-0.43940958,-0.604611,0.50925004,995.3588,37.88824794,127.73993289,147.20721435546875,1.46
2025-09-28 19:24:04.350,15.043676,-9.927821,2.0291135,0.29894194,0.9380592,1.4120139,-13.9875,39.61875,-24.73125,-0.45405653,-0.592419,0.51041627,995.3588, , , , 
2025-09-28 19:24:04.370,16.438692,-9.722038,0.6580262,0.8847613,0.36201373,1.1615593,-15.918751,39.768753,-21.45,-0.46038887,-0.58207893,0.5144523,995.36346, , , , 
2025-09-28 19:24:04.390,18.240486,-8.274381,-1.8664017,1.0619121,-0.25190535,0.67592186,-13.44375,41.025,-22.706251,-0.46035674,-0.5757308,0.51994145,995.36346, , , , 
2025-09-28 19:24:04.410,18.539589,-7.389036,-3.2925239,0.5915462,-0.7161626,-0.6404917,-15.4875,40.8375,-25.425001,-0.4513232,-0.5736779,0.52726066,995.3488, , , , 
2025-09-28 19:24:04.430,16.393229,-8.822337,-2.4837499,0.20181446,-0.6636282,-1.5512911,-13.031251,39.862503,-26.550001,-0.43820664,-0.5808693,0.5261803,995.3488, , , , 
2025-09-28 19:24:04.450,13.1078825,-10.975878,-1.39023,-0.06635518,-0.4492147,-2.4291039,-14.250001,38.11875,-27.243752,-0.4220903,-0.59267974,0.51882327,995.3254, , , , 
2025-09-28 19:24:04.470,10.51167,-12.847065,-0.5982057,-0.17264566,-0.40401068,-2.8903067,-18.16875,38.4375,-24.843752,-0.40390933,-0.60654056,0.50708,995.3254, , , , 
2025-09-28 19:24:04.490,8.965906,-13.926228,0.2416751,-0.16470441,-0.533514,-3.1028876,-21.112501,37.0125,-24.45,-0.38372183,-0.62137085,0.49345535,995.331, , , , 
2025-09-28 19:24:04.510,8.300702,-14.431113,1.1150553,-0.043142326,-0.623922,-3.2959208,-21.6,38.100002,-26.175001,-0.35555804,-0.6399707,0.47620693,995.331, , , , 
2025-09-28 19:24:04.530,8.169097,-14.215759,1.5409778,0.13034327,-0.5946005,-3.4168723,-26.718752,36.825,-24.31875,-0.33727962,-0.6504261,0.46583188,995.34686, , , , 
2025-09-28 19:24:04.550,8.5016985,-13.708481,0.28953153,0.43821913,-0.22502731,-3.7565129,-28.63125,35.362503,-23.56875,-0.30420732,-0.66564476,0.448424,995.34686, , , , 
2025-09-28 19:24:04.570,7.133004,-13.986049,-2.1224337,0.3917934,0.54099715,-4.0191846,-30.73125,33.54375,-25.25625,-0.27669522,-0.674469,0.4318664,995.3598, , , , 
2025-09-28 19:24:04.590,5.9150577,-14.103296,-3.5940197,0.083306685,1.1298708,-4.032013,-34.10625,29.962502,-23.775002,-0.2523143,-0.67971313,0.410718,995.3598, , , , 
2025-09-28 19:24:04.610,6.518049,-14.143974,-2.7349963,-0.2587776,1.2679262,-4.014909,-34.85625,27.88125,-22.03125,-0.2318055,-0.6828849,0.38561848,995.3344, , , , 
2025-09-28 19:24:04.630,7.24786,-14.038691,-1.5050855,-0.292986,0.96127206,-4.181064,-37.03125,24.075,-25.143751,-0.21164548,-0.6859865,0.35860395,995.3344, , , , 
