Time,Accel_X,Accel_Y,Accel_Z,Gyro_X,Gyro_Y,Gyro_Z,Mag_X,Mag_Y,Mag_Z,Orient_X,Orient_Y,Orient_Z,Pressure,Lat,Lng,Alt,Speed
2026-03-19 21:05:43.150,-1.7204394,6.262017,4.4458647,-0.12079851,-0.6321687,-0.44913834,-15.225,-47.60625,-27.468752,0.28976443,0.11894023,0.10234144,998.3361,37.88751065,127.73736674,176.65301513671875,1.27
2026-03-19 21:05:43.167,-2.7158537,4.7042894,9.245867,-1.4170536,-0.052458014,-0.16447534,-10.650001,-48.35625,-29.925001,0.27033538,0.10732216,0.09187149,998.27484, , , , 
2026-03-19 21:05:43.186,-1.4787644,5.395815,9.777073,-1.2753329,0.094760396,-0.23044874,-9.918751,-47.268753,-33.768753,0.25726238,0.10676519,0.09177913,998.27484, , , , 
2026-03-19 21:05:43.206,-1.2610176,5.1661043,10.365707,-1.0517564,-0.06345358,-0.5829177,-9.918751,-46.631252,-35.04375,0.24556619,0.10698458,0.090104245,998.2714, , , , 
2026-03-19 21:05:43.226,-1.6965113,4.5487556,9.449257,-0.8355103,-0.5167152,-0.85475254,-9.806251,-45.2625,-34.2,0.23371045,0.10532532,0.08261764,998.2714, , , , 
2026-03-19 21:05:43.247,-2.143969,4.462614,8.520842,-0.8135192,-1.0359503,-0.8950696,-8.625,-46.74375,-34.85625,0.22573416,0.09983089,0.07345336,998.2702, , , , 
2026-03-19 21:05:43.266,-2.0147567,4.359723,8.176275,-0.9277509,-1.4690534,-0.830318,-6.99375,-46.18125,-38.456253,0.2177778,0.08985589,0.06348542,998.2702, , , , 
2026-03-19 21:05:43.294,-1.6438692,5.089534,10.064212,-0.949742,-1.922926,-0.8620829,-7.4062505,-46.725002,-37.29375,0.20698316,0.07149078,0.05029456,998.3007, , , , 
2026-03-19 21:05:43.306,-0.48095736,3.9768713,12.540784,-0.6412553,-2.3279293,-1.0899355,-7.5750003,-44.737503,-39.24375,0.2011811,0.05770241,0.040761366,998.3007, , , , 
2026-03-19 21:05:43.326,-1.8831514,3.7878382,12.452249,-0.107359484,-2.2912774,-1.0490075,-5.68125,-45.131252,-42.675003,0.19662182,0.037146755,0.026233617,998.3837, , , , 
2026-03-19 21:05:43.346,-3.8500516,6.1160545,11.777473,0.5083922,-0.41408995,-0.40088,-2.11875,-43.40625,-42.84375,0.19730867,0.022426749,0.0144632,998.3837, , , , 
2026-03-19 21:05:43.366,-3.1250265,5.345566,8.257631,0.75762504,0.8705587,0.868497,-4.5,-45.65625,-40.7625,0.20567717,0.024891889,0.016196005,998.4748, , , , 
2026-03-19 21:05:43.386,-2.7397819,3.3140593,4.76411,-0.2838994,2.5846453,2.056629,-6.80625,-43.050003,-38.49375,0.20937929,0.039157446,0.03380133,998.4748, , , , 
2026-03-19 21:05:43.406,0.22492532,1.9980069,7.4536424,-1.6668973,2.6640577,2.2490513,-8.26875,-44.568752,-38.41875,0.20060109,0.060639,0.06064929,998.488, , , , 
2026-03-19 21:05:43.426,1.402194,1.9453648,9.961321,-2.0767875,2.4765222,1.939343,-8.85,-43.987503,-40.55625,0.18159448,0.07917458,0.08703728,998.488, , , , 
2026-03-19 21:05:43.446,2.8091738,-0.02632105,13.782659,-1.2111921,0.7105121,0.981507,-7.6312504,-40.85625,-41.775,0.16306849,0.09337067,0.10771568,998.52045, , , , 
2026-03-19 21:05:43.466,-3.8931224,3.0963125,11.818151,0.015424335,-1.0603849,0.5374083,-9.88125,-41.9625,-42.881252,0.15518884,0.090004295,0.11550742,998.52045, , , , 
2026-03-19 21:05:43.486,-2.8259234,1.0600204,8.975478,0.8987348,-0.8368084,0.7958041,-10.856251,-41.0625,-43.443752,0.1596432,0.08011895,0.1196355,998.50507, , , , 
2026-03-19 21:05:43.506,-0.32542387,0.38763726,8.678768,1.200502,-0.0041996953,0.6394227,-11.08125,-42.9375,-43.78125,0.17263195,0.07494206,0.12642036,998.50507, , , , 
2026-03-19 21:05:43.526,0.086141616,4.261617,9.870394,1.3067925,0.17722714,0.59727305,-10.89375,-42.45,-40.725002,0.18406461,0.07747297,0.13135532,998.4638, , , , 
2026-03-19 21:05:43.546,2.9359934,6.242874,8.939586,1.3935353,-1.0273982,0.047494736,-10.087501,-43.612503,-41.2125,0.19786942,0.074988544,0.1343719,998.4638, , , , 
2026-03-19 21:05:43.566,0.72741807,3.8213377,7.1688967,1.2884666,-1.6559781,-1.0227404,-10.3125,-43.78125,-38.71875,0.21275313,0.06299299,0.12622851,998.4499, , , , 
2026-03-19 21:05:43.586,-1.6558332,3.7040894,5.912665,0.8590286,-1.8239659,-1.2725841,-12.3,-45.487503,-37.162502,0.22481926,0.05210147,0.11118499,998.4499, , , , 
2026-03-19 21:05:43.607,-1.7946169,4.6636114,8.956335,0.5878046,-2.2460735,-1.0496184,-10.087501,-44.756252,-37.125,0.23303881,0.0377044,0.094961874,998.41034, , , , 
2026-03-19 21:05:43.626,-0.08853444,5.046463,10.387243,0.77534014,-3.1312165,-0.6299543,-8.2875,-45.206253,-36.825,0.24082819,0.017322844,0.08047512,998.41034, , , , 
2026-03-19 21:05:43.646,0.26081768,4.7856455,7.6953177,0.78511393,-3.8050003,-0.61712617,-10.51875,-45.09375,-33.05625,0.25056818,-0.012203908,0.066882074,998.4416, , , , 
2026-03-19 21:05:43.666,-1.7204394,5.0105705,6.5898337,0.5218312,-3.8557022,-0.6250674,-9.95625,-45.393753,-35.568752,0.26185328,-0.054368626,0.047046926,998.4416, , , , 
2026-03-19 21:05:43.686,0.043070808,4.981857,3.7710886,-0.093309596,-2.7414849,0.13668099,-11.8125,-47.100002,-32.643753,0.26697293,-0.08537494,0.034745608,998.40717, , , , 
2026-03-19 21:05:43.707,-0.38763726,6.06102,4.7832522,-1.0633628,0.6482039,0.5997165,-12.637501,-46.800003,-32.11875,0.2630225,-0.10066808,0.032721817,998.40717, , , , 
2026-03-19 21:05:43.726,1.5553347,6.317052,8.080562,-1.1177298,3.5088837,0.9802852,-11.83125,-44.456253,-34.96875,0.25201753,-0.08783287,0.04236978,998.3908, , , , 
2026-03-19 21:05:43.746,2.737389,3.0125637,10.573883,-1.0786345,4.93342,1.0169371,-12.58125,-44.550003,-34.575,0.23952644,-0.05170722,0.0611223,998.3908, , , , 
2026-03-19 21:05:43.766,-0.35413775,4.398008,13.512269,-1.0633628,1.9969933,0.845895,-12.637501,-44.15625,-35.8125,0.22495022,-0.016719526,0.07863742,998.4504, , , , 
2026-03-19 21:05:43.786,-1.3519448,4.098905,12.899707,0.13026692,0.27740896,1.5441134,-13.9125,-45.6375,-38.53125,0.21664703,-0.006146777,0.091554895,998.4504, , , , 
2026-03-19 21:05:43.806,2.8905299,2.0602202,11.150554,1.0025818,-0.52343476,1.5367831,-11.94375,-43.818752,-38.081253,0.2225361,-0.010652021,0.11028893,998.46014, , , , 
2026-03-19 21:05:43.826,2.7469604,4.694718,7.8604226,0.6378955,0.0025198173,0.95096374,-13.9125,-44.04375,-36.768753,0.23058537,-0.01655064,0.12185943,998.46014, , , , 
2026-03-19 21:05:43.846,1.7922242,5.0823555,6.439086,0.028863361,0.27374378,0.22708899,-14.700001,-44.362503,-36.975002,0.2340053,-0.016370354,0.12800862,998.44403, , , , 
2026-03-19 21:05:43.866,0.50009996,4.369294,8.719446,-0.32360563,0.11186461,0.12079851,-15.1125,-44.90625,-36.600002,0.23248634,-0.014766339,0.12989193,998.44403, , , , 
2026-03-19 21:05:43.886,-0.11485548,3.7064822,11.617154,0.031306818,0.24197881,0.20815217,-14.325001,-46.29375,-39.54375,0.2298476,-0.014001744,0.13167524,998.40497, , , , 
2026-03-19 21:05:43.906,0.9212367,4.237689,10.533205,0.60796314,-0.16241367,0.1226311,-15.6,-44.34375,-35.643753,0.23119174,-0.012291796,0.13391528,998.40497, , , , 
2026-03-19 21:05:43.926,0.4833502,4.5320063,8.185846,0.7930552,-0.3841576,-1.527162E-4,-15.4125,-43.4625,-35.71875,0.23783474,-0.014233832,0.13397531,998.39545, , , , 
2026-03-19 21:05:43.948,2.3569303,5.5202417,6.1232333,0.40882125,-0.440968,-0.27259842,-15.8625,-44.775,-33.28125,0.24674812,-0.017391125,0.1324273,998.39545, , , , 
2026-03-19 21:05:43.968,1.4668003,5.3718867,7.240681,0.10155627,-0.608345,-0.29642212,-16.5375,-43.8375,-34.2,0.25053978,-0.021139134,0.12823355,998.3378, , , , 
2026-03-19 21:05:43.987,1.2849457,4.546363,8.611769,0.010537418,-0.5753583,-0.46440995,-16.087502,-44.30625,-31.893751,0.2520049,-0.025494253,0.12346111,998.3378, , , , 
2026-03-19 21:05:44.006,1.1006985,4.520042,8.449057,0.14553854,-0.5118283,-0.3733911,-17.71875,-44.568752,-34.03125,0.25355893,-0.029884381,0.11816982,998.3166, , , , 
2026-03-19 21:05:44.026,0.4546363,4.462614,7.946564,-0.1574504,0.8039744,-0.116217025,-17.118752,-45.018753,-32.2125,0.25473866,-0.030793017,0.11464745,998.3166, , , , 
2026-03-19 21:05:44.046,1.4069797,4.938786,9.138189,-0.17516547,0.21815509,-0.1583667,-16.1625,-44.04375,-33.131252,0.252173,-0.023198683,0.11578776,998.3149, , , , 
2026-03-19 21:05:44.066,0.5838487,4.388437,10.265209,0.13332124,-0.58940816,-0.2603811,-16.7625,-44.98125,-34.40625,0.25134993,-0.023926651,0.11354364,998.3149, , , , 
2026-03-19 21:05:44.086,-0.6053841,4.6468616,8.262417,0.2780962,-1.0487784,-0.056963142,-13.89375,-44.662502,-36.581253,0.25500682,-0.032139033,0.10869653,998.3339, , , , 
2026-03-19 21:05:44.106,0.9020941,4.7306104,7.8149586,0.12171481,-0.9363794,0.07620538,-12.900001,-46.29375,-36.9,0.2573683,-0.03886208,0.106815204,998.3339, , , , 
2026-03-19 21:05:44.126,1.8065811,4.6779685,8.343773,0.04780017,-0.7323505,0.060322896,-13.762501,-44.550003,-33.506252,0.25912717,-0.046915635,0.105375595,998.32806, , , , 
2026-03-19 21:05:44.146,1.4380864,4.8191447,7.7144604,-0.13362667,-0.16302454,0.06887501,-14.775001,-45.15,-33.225002,0.2597314,-0.052321546,0.104546465,998.32806,37.88749856,127.73736442,176.60418701171875,0.0
2026-03-19 21:05:44.166,1.7084754,4.8598228,8.353344,-0.18555018,0.2627482,0.031001387,-16.331251,-45.675003,-34.575,0.25826105,-0.05246977,0.1050155,998.32684, , , , 
2026-03-19 21:05:44.186,0.96430755,4.8095737,8.114061,-0.27595815,0.28779367,0.016951498,-15.4125,-45.46875,-33.45,0.255531,-0.049670488,0.10584833,998.32684, , , , 
2026-03-19 21:05:44.207,1.2323036,4.95075,8.236095,-0.31627524,0.24075708,0.15134175,-13.06875,-45.693752,-37.237503,0.25265482,-0.047563773,0.10685061,998.3254, , , , 
2026-03-19 21:05:44.226,1.6486548,4.5726843,7.3459654,-0.4885391,0.5156462,0.17333288,-15.993751,-45.61875,-36.15,0.24895114,-0.04541293,0.10894203,998.3254, , , , 
2026-03-19 21:05:44.246,1.8640088,4.45065,9.750752,-0.77747816,0.7367793,0.09025527,-14.94375,-46.256252,-36.375,0.24049482,-0.0395059,0.1122753,998.3134, , , , 
2026-03-19 21:05:44.266,0.9667004,4.321438,10.9375925,-0.4628828,0.36109746,0.009010255,-16.10625,-44.006252,-36.693752,0.23500784,-0.03570343,0.11366454,998.3134, , , , 
2026-03-19 21:05:44.286,0.2321038,4.2185464,9.946963,-0.035888307,-0.23266312,0.058490302,-14.981251,-45.131252,-38.925003,0.23130357,-0.034887657,0.113956206,998.32, , , , 
2026-03-19 21:05:44.306,1.052842,4.2759743,9.717253,0.123547405,-0.4965567,0.07803798,-16.1625,-45.018753,-36.787502,0.2319301,-0.038128823,0.113849334,998.32, , , , 
2026-03-19 21:05:44.326,0.6867401,4.0414777,9.439685,0.2866483,-0.24060437,0.14095704,-15.637501,-44.5875,-36.7125,0.234136,-0.042129137,0.11361507,998.30536, , , , 
2026-03-19 21:05:44.346,0.91405827,4.4602213,8.539984,0.11866048,-0.02008218,0.22708899,-16.800001,-43.8375,-36.6375,0.23638435,-0.043581843,0.1149443,998.30536, , , , 
2026-03-19 21:05:44.366,1.4787644,4.6612186,8.925228,0.014202606,-0.014584397,0.16661337,-15.000001,-43.65,-36.525,0.23698765,-0.043909688,0.11693364,998.2941, , , , 
2026-03-19 21:05:44.386,0.6556334,3.9457645,8.939586,0.029474225,-0.14836378,0.12018765,-15.806251,-43.987503,-36.73125,0.23722745,-0.04498372,0.11805734,998.2941, , , , 
2026-03-19 21:05:44.406,1.2873386,4.287938,8.836694,0.12110394,-0.21800236,0.12568542,-15.806251,-44.737503,-36.84375,0.23787808,-0.04657013,0.1188263,998.28436, , , , 
2026-03-19 21:05:44.426,1.8185452,4.4195433,7.795816,0.16447534,-0.43302676,0.06887501,-15.918751,-44.625,-36.99375,0.23976408,-0.050285626,0.1188579,998.28436, , , , 
2026-03-19 21:05:44.446,1.9669002,4.462614,7.2933235,0.023365578,-0.39576402,-0.006261364,-16.29375,-45.65625,-36.112503,0.24135867,-0.054104682,0.11834216,998.25433, , , , 
2026-03-19 21:05:44.466,1.672583,4.316652,7.6163545,-0.057879437,-0.46295914,-0.077121675,-16.800001,-44.5875,-36.75,0.24184407,-0.05706017,0.117433235,998.25433, , , , 
2026-03-19 21:05:44.486,1.2251252,3.790231,8.563912,0.020311253,-0.37438375,-0.020311253,-18.300001,-44.625,-35.34375,0.24199419,-0.061972875,0.115235284,998.2236, , , , 
2026-03-19 21:05:44.506,1.7946169,4.005585,7.793423,0.16142102,-0.6981421,-0.04535671,-16.518751,-44.568752,-35.7,0.2429998,-0.06578938,0.1141714,998.2236, , , , 
2026-03-19 21:05:44.526,1.7108682,4.0390844,6.8339014,0.2658789,-1.412243,-0.087506376,-17.56875,-43.18125,-35.662502,0.24681431,-0.076723285,0.110696025,998.1994, , , , 
2026-03-19 21:05:44.546,1.942972,3.5964124,5.680561,0.23838998,-1.836794,-0.044745844,-17.53125,-44.41875,-35.287502,0.25111288,-0.09108456,0.10628466,998.1994, , , , 
2026-03-19 21:05:44.566,2.1798615,3.290131,4.4985065,0.0490219,-1.9766821,0.2716821,-20.15625,-44.325,-34.256252,0.2545873,-0.10899472,0.10236908,998.15765, , , , 
2026-03-19 21:05:44.586,2.993421,2.658426,3.318845,-0.03405571,-2.812345,0.26801693,-19.556252,-43.518753,-33.9,0.25707674,-0.1312367,0.099164955,998.15765, , , , 
2026-03-19 21:05:44.606,2.062613,1.9405792,3.4049866,-0.05177079,-3.1214426,0.5893318,-20.1,-44.081253,-34.275,0.25868708,-0.15841322,0.09538686,998.1193, , , , 
2026-03-19 21:05:44.626,0.95712906,0.2416751,4.2831526,0.22739442,-4.150139,1.0273218,-22.95,-44.1375,-31.500002,0.26050785,-0.19171637,0.09318506,998.1193, , , , 
2026-03-19 21:05:44.646,4.2041893,0.3924229,-0.37806597,0.39477137,-4.216112,1.4201078,-25.63125,-43.443752,-29.250002,0.26473904,-0.23325934,0.09381204,998.1049, , , , 
2026-03-19 21:05:44.666,5.032106,-0.5766702,-2.3545375,-0.6675225,-3.1813073,1.4311035,-26.04375,-43.987503,-28.556252,0.2650421,-0.28149924,0.09771456,998.1049, , , , 
2026-03-19 21:05:44.686,2.0721843,-1.2777673,-0.21296121,-1.2735003,-2.5227952,1.7634139,-28.44375,-42.0,-27.337502,0.2548326,-0.31240574,0.101342164,998.0644, , , , 
2026-03-19 21:05:44.706,1.2011969,-2.6416762,1.2873386,-1.4408773,-2.8001277,2.408487,-30.862501,-43.0125,-25.331251,0.2383347,-0.34168375,0.10898493,998.0644, , , , 
2026-03-19 21:05:44.726,0.7585248,-4.019942,0.4139583,-1.4103341,-3.779344,3.2343762,-33.0,-41.98125,-25.462502,0.2195721,-0.3769818,0.12088023,998.0561, , , , 
2026-03-19 21:05:44.746,3.751946,-5.369494,1.0911272,-1.7597487,-4.2741446,4.0553784,-35.006252,-35.850002,-24.375002,0.19701543,-0.41995504,0.13767537,998.0561, , , , 
2026-03-19 21:05:44.766,6.463014,-6.5611196,1.0600204,-1.8012875,-4.14403,4.613709,-38.737503,-33.2625,-23.6625,0.16902879,-0.4663374,0.15896307,998.05975, , , , 
2026-03-19 21:05:44.786,6.5778694,-8.12124,1.3232309,-2.0230315,-3.6095235,4.988169,-42.675003,-30.075,-21.112501,0.13662027,-0.509839,0.18347307,998.05975, , , , 
2026-03-19 21:05:44.808,7.4344997,-9.980463,1.0193424,-2.3113596,-2.695059,5.5153456,-44.193752,-25.875002,-20.41875,0.08786789,-0.5542242,0.218075,998.0876, , , , 
2026-03-19 21:05:44.826,9.784252,-11.765509,2.766103,-2.4512477,-3.3065348,5.847656,-45.75,-21.9375,-19.556252,0.04286909,-0.58553463,0.2473497,998.0876, , , , 
2026-03-19 21:05:44.847,13.797015,-11.990435,4.2352962,-2.0932808,-4.3676066,5.7529716,-47.41875,-17.025002,-18.28125,-7.559534E-5,-0.6205679,0.27680686,998.1064, , , , 
2026-03-19 21:05:44.868,17.12304,-11.004591,3.8907297,-1.6021456,-3.7897286,5.0089383,-49.3875,-12.656251,-13.687501,-0.03591109,-0.6538609,0.3048014,998.1064, , , , 
2026-03-19 21:05:44.886,15.235102,-11.212767,2.6153553,-1.3962842,-2.9088616,4.382191,-47.568752,-7.0312505,-10.181251,-0.06591808,-0.6789363,0.32811555,998.1391, , , , 
2026-03-19 21:05:44.906,13.890335,-11.4018,1.7778672,-1.3718495,-2.0579271,4.059044,-46.95,-3.1125002,-9.225,-0.09435012,-0.6958297,0.34729248,998.1391, , , , 
2026-03-19 21:05:44.926,11.5932255,-11.822937,1.2490535,-1.26617,-1.3468804,3.9967356,-47.456253,-0.3375,-6.4125004,-0.12350195,-0.70594025,0.36375004,998.15985, , , , 
2026-03-19 21:05:44.947,11.71526,-12.610175,0.4953143,-1.1391101,-1.150182,4.0547676,-46.03125,2.41875,-5.4750004,-0.15339333,-0.71180207,0.37996092,998.15985, , , , 
2026-03-19 21:05:44.966,12.047862,-13.438092,0.40677986,-1.0865757,-0.9718095,4.048048,-45.7125,4.93125,-3.3375,-0.18322094,-0.7150161,0.39595884,998.1711, , , , 
2026-03-19 21:05:44.986,13.10549,-12.602997,0.55034924,-0.9613485,-0.7745002,3.845241,-46.10625,7.9875,-3.15,-0.21950619,-0.7157345,0.41466913,998.1711, , , , 
2026-03-19 21:05:45.006,13.033705,-12.117254,0.49292147,-0.9436334,-0.62606007,3.5349216,-44.15625,10.650001,-0.43125,-0.24608535,-0.71451294,0.42754254,998.18915, , , , 
2026-03-19 21:05:45.026,13.299308,-11.870793,1.6701902,-0.90759236,-0.3652208,3.0627234,-42.393753,12.825001,-0.73125005,-0.27033654,-0.71248066,0.43772584,998.18915, , , , 
2026-03-19 21:05:45.048,12.287145,-11.16491,2.6608188,-0.6528617,-0.067118764,2.6479461,-42.037502,16.95,1.3125,-0.29176888,-0.70906574,0.44550514,998.18866, , , , 
2026-03-19 21:05:45.066,12.638889,-10.191031,2.8881369,-0.37797257,0.2945132,2.3156357,-39.43125,18.112501,-0.112500004,-0.31056634,-0.7034062,0.4523738,998.18866, , , , 
2026-03-19 21:05:45.087,12.863814,-8.094919,4.237689,0.32268932,0.4325686,1.1867576,-38.568752,18.056252,0.73125005,-0.32695058,-0.6944686,0.45913354,998.1796, , , , 
2026-03-19 21:05:45.106,11.535798,-8.054241,2.8522446,0.84253526,0.417297,0.7799216,-37.818752,20.15625,-1.95,-0.33063364,-0.6885454,0.46376863,998.1796, , , , 
2026-03-19 21:05:45.126,10.351351,-8.030313,0.3469593,1.0703878,0.54008085,0.39080074,-37.800003,21.88125,0.73125005,-0.33110762,-0.6802754,0.47071388,998.1796, , , , 
2026-03-19 21:05:45.146,7.9106717,-7.9130645,-2.507678,0.7270818,0.94325155,0.07315106,-39.05625,21.2625,-1.725,-0.33036768,-0.67042905,0.47561255,998.1796,37.88749856,127.73736442,176.60418701171875,0.0
2026-03-19 21:05:45.166,7.5230346,-7.8891363,-1.6773686,0.24083345,1.0642028,-0.008704823,-39.65625,21.09375,-3.35625,-0.3325483,-0.6637837,0.47502923,998.18036, , , , 
2026-03-19 21:05:45.186,5.907879,-7.884351,0.33499518,0.17608178,1.0373248,-0.056963142,-41.2125,20.79375,-1.7812501,-0.3356291,-0.65851283,0.4721068,998.18036, , , , 
2026-03-19 21:05:45.206,5.7547383,-7.6331043,0.2321038,0.30863944,1.2963314,-0.00320704,-39.65625,22.575,-2.34375,-0.33896565,-0.6524652,0.4693703,998.20087, , , , 
2026-03-19 21:05:45.226,4.0510488,-7.728817,-0.24885355,0.3764454,1.3140465,0.08048143,-39.300003,22.650002,-5.9437504,-0.34303728,-0.6446346,0.46677408,998.20087, , , , 
2026-03-19 21:05:45.246,5.4293146,-8.202596,-1.3663018,0.32268932,0.909654,0.17577635,-40.8375,21.618752,-5.71875,-0.34790534,-0.6351296,0.46570954,998.21625, , , , 
2026-03-19 21:05:45.266,6.5515485,-7.7551384,-0.9954142,0.25488332,0.49121165,-0.07834341,-41.831253,21.75,-5.15625,-0.35007593,-0.6302049,0.46477908,998.21625, , , , 
2026-03-19 21:05:45.286,5.9820566,-8.140383,-1.6941184,0.13820815,0.18028148,-0.3923279,-41.4375,23.550001,-7.1625004,-0.34862334,-0.6287466,0.46324846,998.2287, , , , 
2026-03-19 21:05:45.306,5.1493545,-8.812766,-0.28953153,-0.040775225,0.5296961,-0.5065596,-41.98125,22.3875,-7.0312505,-0.3466379,-0.62913465,0.45975623,998.2287, , , , 
2026-03-19 21:05:45.326,5.003392,-9.389436,0.971486,0.07467822,0.7752638,-0.56642437,-41.23125,21.712502,-7.2375,-0.34607214,-0.6283749,0.456033,998.24164, , , , 
2026-03-19 21:05:45.346,3.7256248,-9.609575,0.31106696,0.34590217,1.0196097,-0.55115277,-43.725002,22.44375,-6.5437503,-0.34487858,-0.6240696,0.4499943,998.24164, , , , 
2026-03-19 21:05:45.366,4.4171505,-9.0544405,-1.3016955,0.3281871,0.79847664,-0.45952302,-38.643753,21.73125,-0.99375004,-0.34425297,-0.6190087,0.44619334,998.2675, , , , 
2026-03-19 21:05:45.386,5.9916277,-8.666803,-1.4380864,0.17974696,0.020845762,-0.84070265,-39.46875,23.5125,-0.22500001,-0.34081632,-0.6170291,0.44172075,998.2675, , , , 
2026-03-19 21:05:45.406,5.386244,-8.867801,-0.62931234,0.21395539,-0.7103594,-1.2646428,-42.05625,22.368752,0.5625,-0.3319212,-0.62181926,0.43795907,998.27997, , , , 
2026-03-19 21:05:45.426,3.0005996,-8.62134,-1.942972,0.14492767,-0.6474403,-1.3336705,-41.568752,21.91875,0.075,-0.31958324,-0.62933534,0.434203,998.27997, , , , 
2026-03-19 21:05:45.446,1.5433706,-8.595019,-2.589034,-0.21303909,-0.0994946,-0.95126915,-43.21875,21.0,0.61875004,-0.31079885,-0.6355479,0.42902374,998.3061, , , , 
2026-03-19 21:05:45.466,2.053042,-8.327023,-1.3423735,-0.3254382,0.07887791,-0.64400417,-44.0625,18.300001,1.1625,-0.30759895,-0.63941646,0.42300498,998.3061, , , , 
2026-03-19 21:05:45.486,3.493521,-7.925029,-1.3974084,-0.30955574,-0.02008218,-0.51327914,-42.768753,18.9375,0.84375006,-0.3064562,-0.6420354,0.41789767,998.3276, , , , 
2026-03-19 21:05:45.506,3.438486,-8.17149,-2.1822543,-0.43050694,-0.19478951,-0.4411971,-43.10625,17.90625,0.7875,-0.30499884,-0.6456294,0.41321737,998.3276, , , , 
2026-03-19 21:05:45.526,5.1421757,-8.111669,-1.8376877,-0.6565269,-0.042073313,-0.423482,-42.09375,17.025002,-0.975,-0.3052434,-0.6506191,0.4064933,998.33734, , , , 
2026-03-19 21:05:45.546,4.7306104,-7.879565,-0.031106694,-0.7841977,0.34704757,-0.46013388,-41.8125,18.4125,-0.76875,-0.3068377,-0.6545118,0.39889923,998.33734, , , , 
2026-03-19 21:05:45.566,3.1609187,-7.676175,0.22253251,-0.67546374,0.6066651,-0.25427246,-44.081253,17.643751,3.525,-0.30912697,-0.6557089,0.39277798,998.33636, , , , 
2026-03-19 21:05:45.586,3.7567315,-6.8099732,0.2943172,-0.7029526,0.8766673,0.15683953,-44.025,16.95,-0.15,-0.31693298,-0.6536764,0.384119,998.33636, , , , 
2026-03-19 21:05:45.606,6.2931237,-6.192625,1.6223338,-0.6357575,0.5736784,0.3657553,-44.8125,16.85625,1.63125,-0.3250506,-0.65100825,0.37874818,998.3586, , , , 
2026-03-19 21:05:45.626,8.116454,-6.273981,2.7182465,-0.45799586,0.051389,0.37369654,-43.256252,18.525002,-0.93750006,-0.3301749,-0.64969194,0.37623346,998.3586, , , , 
2026-03-19 21:05:45.648,10.162318,-6.4295144,2.5555346,-0.26618433,-0.6437751,0.30955574,-44.34375,16.9125,0.50625,-0.3326974,-0.65253085,0.37702146,998.3769, , , , 
2026-03-19 21:05:45.666,11.739188,-6.1471615,5.005785,-0.39629853,-0.061620984,0.4506655,-42.65625,16.575,0.95625,-0.3341385,-0.6540733,0.37729734,998.3769, , , , 
2026-03-19 21:05:45.686,13.395021,-6.489335,7.01097,0.020311253,-0.30596688,0.36819875,-42.956253,17.2875,1.40625,-0.3365862,-0.653981,0.37823364,998.39935, , , , 
2026-03-19 21:05:45.708,13.701303,-5.9653068,6.879365,0.640339,-0.71463543,0.08231403,-39.45,18.4125,-1.6500001,-0.3332085,-0.6540251,0.3822747,998.39935, , , , 
2026-03-19 21:05:45.726,13.887942,-5.5633125,6.2715883,1.0306816,-1.1599559,-0.27748534,-42.84375,19.29375,1.7625,-0.32371205,-0.6554679,0.3891009,998.424, , , , 
2026-03-19 21:05:45.746,14.952748,-5.625526,5.5250273,1.4729477,-1.5374703,-0.82420933,-41.456253,19.6875,1.5937501,-0.30785477,-0.6588074,0.3973032,998.424, , , , 
2026-03-19 21:05:45.766,14.500505,-5.8217373,3.9170506,1.7643301,-2.0334926,-1.3691007,-42.600002,17.56875,1.3687501,-0.2840665,-0.66460836,0.4059558,998.4289, , , , 
2026-03-19 21:05:45.786,14.957535,-6.1710896,2.053042,1.7765476,-2.4342198,-1.9536983,-43.03125,17.75625,3.4125001,-0.253337,-0.6736384,0.41387406,998.4289, , , , 
2026-03-19 21:05:45.806,16.106089,-7.097112,0.782453,1.5108213,-2.0011168,-2.45644,-42.9375,16.143751,4.40625,-0.21925329,-0.68435156,0.4180559,998.4211, , , , 
2026-03-19 21:05:45.826,16.883757,-8.676374,0.15553348,1.0685552,-1.1074215,-3.0459244,-42.318752,14.212501,4.7625003,-0.17767444,-0.6953616,0.41377306,998.4211, , , , 
2026-03-19 21:05:45.847,15.873985,-9.702896,1.5337993,0.8633047,-0.7286853,-3.4081674,-44.006252,13.05,4.0875,-0.15393975,-0.70019245,0.40614513,998.4028, , , , 
2026-03-19 21:05:45.866,15.414563,-10.535598,1.969293,0.8785763,-0.612621,-3.8003426,-43.706253,9.58125,5.7937503,-0.11353138,-0.7061641,0.38956082,998.4028, , , , 
2026-03-19 21:05:45.886,14.744574,-11.215159,1.294517,0.91706073,-0.450131,-4.2481065,-45.84375,6.24375,6.20625,-0.078803234,-0.70936406,0.3736047,998.40204, , , , 
2026-03-19 21:05:45.906,13.926228,-11.684153,-0.019142581,0.8150463,-0.25954118,-4.5095563,-46.65,4.5375004,7.93125,-0.042544026,-0.71080685,0.35502204,998.40204, , , , 
2026-03-19 21:05:45.926,11.083554,-12.169896,-0.62931234,0.49739665,0.2529744,-4.556593,-48.187504,-0.84375006,8.25,-0.0074716457,-0.71002436,0.33332643,998.4023, , , , 
2026-03-19 21:05:45.946,8.133204,-11.935399,0.26081768,0.44852746,0.5327504,-4.2487173,-48.487503,-3.0,8.55,0.031115573,-0.70472,0.30459344,998.4023, , , , 
2026-03-19 21:05:45.967,7.075577,-10.705488,-0.16031912,0.56337005,0.36659524,-3.942063,-46.65,-7.89375,6.3187504,0.059241764,-0.6984871,0.28381214,998.38885, , , , 
2026-03-19 21:05:45.986,6.515656,-10.037891,-0.59581286,0.63117605,0.07765619,-3.7606363,-44.79375,-11.0625,6.3187504,0.086935185,-0.6930154,0.2646335,998.38885, , , , 
2026-03-19 21:05:46.007,3.306881,-9.956535,-0.27517462,0.73807734,-0.098272875,-3.36052,-42.54375,-12.825001,7.2562504,0.11410164,-0.68817604,0.24676883,998.3732, , , , 
2026-03-19 21:05:46.026,-0.086141616,-9.140582,-0.74177504,0.92194766,-0.4709004,-2.4998114,-43.8375,-15.58125,8.325001,0.13884035,-0.6841275,0.23301677,998.3732, , , , 
2026-03-19 21:05:46.046,-0.18664017,-7.7216387,-2.0745773,0.87246764,-0.91744256,-1.5615231,-43.78125,-17.962502,10.762501,0.15933861,-0.6836391,0.22527304,998.35516, , , , 
2026-03-19 21:05:46.066,0.5455636,-7.1282187,-2.5172493,0.58047426,-0.7922153,-0.83887005,-42.600002,-18.712502,10.21875,0.17397997,-0.6864332,0.2215374,998.35516, , , , 
2026-03-19 21:05:46.086,1.1676974,-8.427522,-2.8809586,0.23961172,-0.26198465,-0.3434587,-42.2625,-18.431252,10.950001,0.18296596,-0.68963313,0.22032276,998.33295, , , , 
2026-03-19 21:05:46.106,-0.8757731,-8.602198,-3.0604203,-0.092087865,-0.034742933,0.06582068,-43.987503,-19.612501,11.8125,0.18373784,-0.6908155,0.22094184,998.33295, , , , 
2026-03-19 21:05:46.126,-2.4885356,-8.159525,-2.5124638,-0.41462448,0.092927806,0.5044216,-42.131252,-19.9125,11.325001,0.17914626,-0.6926921,0.22234015,998.3283, , , , 
2026-03-19 21:05:46.147,-4.261617,-8.927621,-2.062613,-0.59360784,0.60361075,1.0034981,-40.987503,-19.425001,10.875,0.16937709,-0.69388163,0.2251879,998.3283,37.88749856,127.73736442,176.60418701171875,0.0
2026-03-19 21:05:46.167,-4.831109,-11.018949,-2.7996025,-0.7499892,0.78748107,1.6485714,-43.3875,-18.16875,11.212501,0.15424554,-0.6935039,0.23123726,998.3361, , , , 
2026-03-19 21:05:46.187,-3.6634114,-12.9236355,-3.050849,-1.0444261,0.64026266,2.4262023,-41.925003,-17.00625,8.3625,0.132548,-0.6940578,0.24075551,998.3361, , , , 
2026-03-19 21:05:46.207,-1.2993027,-13.765908,-1.7156538,-1.3406955,0.4331795,3.2160504,-45.16875,-14.7375,9.95625,0.10355205,-0.6971283,0.2530833,998.3444, , , , 
2026-03-19 21:05:46.226,1.7898313,-14.179867,-0.25842485,-1.5031855,0.32811075,3.79515,-48.16875,-13.781251,8.681251,0.06813778,-0.7015014,0.267991,998.3444, , , , 
2026-03-19 21:05:46.248,4.2448673,-14.526826,0.8327023,-1.4799726,0.17050762,4.1775517,-48.487503,-10.33125,8.043751,0.018946666,-0.7066549,0.28917843,998.3564, , , , 
2026-03-19 21:05:46.266,5.6781683,-14.608182,1.430908,-1.3571888,0.0074067353,4.4664907,-49.537502,-7.5750003,7.6875005,-0.021608692,-0.7098736,0.30792195,998.3564, , , , 
2026-03-19 21:05:46.288,7.3842506,-14.47897,1.5074782,-1.2686135,-0.13125958,4.6784606,-51.075,-4.875,9.09375,-0.062392816,-0.71199805,0.32819104,998.373, , , , 
2026-03-19 21:05:46.306,7.975278,-14.809179,1.7587247,-1.1782055,0.02328922,4.9405217,-50.04375,0.075,8.08125,-0.10348777,-0.712175,0.34927097,998.373, , , , 
2026-03-19 21:05:46.327,9.116654,-15.000606,2.361716,-1.017548,0.066049755,5.322312,-51.206253,3.075,8.025001,-0.14606024,-0.708954,0.37168464,998.394, , , , 
2026-03-19 21:05:46.348,11.052447,-14.706288,2.251646,-0.7499892,0.11308634,5.512291,-47.15625,7.1062503,7.2187505,-0.19915025,-0.70059454,0.4018785,998.394, , , , 
2026-03-19 21:05:46.368,13.040883,-13.751552,0.9906286,-0.7017309,0.39041895,5.3174253,-48.581253,11.793751,9.1125,-0.24003632,-0.6902174,0.4254202,998.39764, , , , 
2026-03-19 21:05:46.388,14.098511,-12.748959,0.29192436,-0.9937243,0.6982948,4.873937,-48.187504,17.550001,10.9125,-0.27934846,-0.6780051,0.44438037,998.39764, , , , 
2026-03-19 21:05:46.407,13.6199465,-12.58864,2.3162522,-1.1244494,0.8235221,4.5287986,-45.84375,20.400002,11.26875,-0.31729048,-0.6655286,0.45773137,998.39154, , , , 
2026-03-19 21:05:46.426,13.909478,-12.057433,3.1345978,-0.9582941,0.84612405,4.2813983,-43.5,24.0,10.05,-0.35295698,-0.6519721,0.46847105,998.39154, , , , 
2026-03-19 21:05:46.446,15.017355,-11.150554,2.347359,-0.8348994,0.841848,3.8653996,-41.25,27.206251,10.556251,-0.3848543,-0.63770324,0.47792646,998.3835, , , , 
2026-03-19 21:05:46.466,14.708681,-9.9038925,1.3878372,-0.93691385,1.0990222,3.2282677,-39.787502,29.343752,11.043751,-0.41293108,-0.6242614,0.48395085,998.3835, , , , 
2026-03-19 21:05:46.486,14.163117,-8.9348,2.2277179,-1.0621412,1.3470331,2.7065892,-37.95,31.1625,9.825001,-0.4389843,-0.61198694,0.48518494,998.37665, , , , 
2026-03-19 21:05:46.506,13.591232,-8.054241,3.5988052,-0.93569213,1.4374412,2.2209516,-34.10625,32.8125,9.95625,-0.4628022,-0.6005793,0.4826996,998.37665, , , , 
2026-03-19 21:05:46.527,13.481163,-7.556534,3.103491,-0.61315554,1.3195443,1.7194316,-32.643753,33.975002,6.95625,-0.48714545,-0.58706236,0.4781705,998.3713, , , , 
2026-03-19 21:05:46.547,13.339986,-7.5326056,1.8185452,-0.3828595,1.0128902,1.293048,-32.53125,34.59375,7.9875,-0.50135976,-0.5778519,0.47490066,998.3713, , , , 
2026-03-19 21:05:46.566,13.208381,-7.597212,0.8997013,-0.3065014,0.6298779,0.88804466,-32.175003,34.78125,6.39375,-0.51086044,-0.5715564,0.47227252,998.3757, , , , 
2026-03-19 21:05:46.586,13.502698,-7.9154572,0.6029913,-0.3065014,0.2438114,0.46715885,-33.506252,35.49375,7.1062503,-0.51657933,-0.5684193,0.46975023,998.3757, , , , 
2026-03-19 21:05:46.607,14.108083,-7.9034934,1.1820544,-0.21426082,-0.22044583,0.102472566,-31.181252,36.112503,6.675,-0.51802313,-0.56935936,0.46735394,998.37103, , , , 
2026-03-19 21:05:46.626,15.043676,-7.350751,1.835295,0.017867794,-0.58635384,-0.3336849,-30.54375,36.43125,7.2000003,-0.51382715,-0.5734211,0.46706554,998.37103, , , , 
2026-03-19 21:05:46.646,15.467206,-6.4008007,2.3545375,0.18524474,-0.6566033,-0.9133956,-30.562502,35.4375,5.5687504,-0.5052321,-0.5796588,0.46675187,998.37836, , , , 
2026-03-19 21:05:46.666,14.545969,-6.6352973,3.07717,0.37949973,-0.75617427,-1.6201661,-30.000002,36.862503,6.5062504,-0.49187663,-0.58831793,0.46492222,998.37836, , , , 
2026-03-19 21:05:46.686,13.438092,-8.020741,3.5174494,0.6006328,-1.0475568,-2.289063,-33.131252,34.537502,7.74375,-0.47266516,-0.59973294,0.46229902,998.3879, , , , 
2026-03-19 21:05:46.706,12.80878,-9.896714,3.940979,0.79122263,-1.4036909,-2.808909,-33.75,34.350002,7.6687503,-0.44736853,-0.61372435,0.45966417,998.3879, , , , 
2026-03-19 21:05:46.726,12.727424,-11.535798,4.7401814,1.0147991,-1.6541455,-3.278053,-34.631252,31.406252,7.4625,-0.4165147,-0.62944597,0.45717183,998.40936, , , , 
2026-03-19 21:05:46.746,12.815958,-13.416556,4.156333,1.2560908,-1.8557309,-3.8467681,-38.04375,29.906252,9.75,-0.3801907,-0.6459121,0.45433092,998.40936, , , , 
2026-03-19 21:05:46.766,13.617554,-15.120246,2.658426,1.2878556,-1.8789437,-4.3464556,-39.7125,26.868752,10.875,-0.33897358,-0.6628652,0.44985843,998.4255, , , , 
2026-03-19 21:05:46.787,12.997812,-16.223337,1.7491534,1.0887138,-1.6877431,-4.792387,-41.381252,24.975,9.618751,-0.28337047,-0.6840804,0.4387198,998.4255, , , , 
2026-03-19 21:05:46.807,12.313465,-16.728224,1.8329022,0.95371264,-1.6504803,-5.021461,-42.84375,22.087502,9.0,-0.23791185,-0.70001805,0.42537358,998.4316, , , , 
2026-03-19 21:05:46.827,11.301301,-17.017756,0.38285163,0.76067936,-1.1306343,-5.168069,-41.625,17.23125,9.46875,-0.19230273,-0.7140002,0.4090051,998.4316, , , , 
2026-03-19 21:05:46.846,10.255638,-16.761723,0.5623133,0.45097092,-0.38965538,-5.121032,-46.987503,13.425,12.8625,-0.15067364,-0.72373015,0.38814715,998.4157, , , , 
2026-03-19 21:05:46.868,11.030912,-16.039091,1.4380864,0.56275916,-0.019471316,-5.0648327,-46.93125,9.20625,11.1,-0.10274538,-0.73024094,0.35953066,998.4157, , , , 
2026-03-19 21:05:46.886,11.688938,-15.531812,0.15314065,0.5487093,0.47166398,-5.2444267,-50.343754,4.74375,12.637501,-0.07432663,-0.7310218,0.34191936,998.4003, , , , 
2026-03-19 21:05:46.906,8.946764,-15.495919,0.0526421,0.51083565,0.6964622,-5.402641,-49.143753,1.8937501,11.4375,-0.03684003,-0.7284262,0.31590855,998.4003, , , , 
2026-03-19 21:05:46.926,6.458228,-15.139389,0.5479564,0.662941,-0.07078396,-5.2566442,-49.912502,-1.1812501,11.53125,9.00433E-4,-0.7244848,0.28930432,998.3996, , , , 
2026-03-19 21:05:46.946,5.6303115,-14.553147,1.1006985,0.9140064,-1.2851832,-4.995805,-48.6375,-5.025,11.15625,0.051193427,-0.72463775,0.25883374,998.3996, , , , 
2026-03-19 21:05:46.966,4.3094735,-13.564912,1.0887343,1.0850486,-1.538692,-4.6763225,-47.362503,-9.618751,10.51875,0.09288344,-0.72786033,0.23696572,998.39496, , , , 
2026-03-19 21:05:46.986,2.8522446,-12.629318,-1.2418749,1.0471749,-0.9528727,-4.246885,-42.375,-12.468751,10.931251,0.1321715,-0.728839,0.21781424,998.39496, , , , 
2026-03-19 21:05:47.006,0.82313097,-12.160325,-3.251846,0.6690496,-0.15447243,-3.6873326,-42.99375,-14.6625,12.50625,0.16527498,-0.72560096,0.2006019,998.37494, , , , 
2026-03-19 21:05:47.026,-0.6412765,-11.497513,-3.290131,0.18402301,0.21998768,-2.813185,-44.550003,-17.831251,15.168751,0.18970078,-0.7195547,0.1850919,998.37494, , , , 
2026-03-19 21:05:47.046,-0.038285162,-10.619347,-2.1224337,0.044134982,0.006185006,-2.1027493,-42.24375,-20.19375,15.056251,0.20637189,-0.7144698,0.1720371,998.37054, , , , 
2026-03-19 21:05:47.066,0.50488555,-10.652846,-1.5266209,0.10827578,0.031230463,-1.6708679,-41.456253,-21.243752,16.125,0.2213865,-0.7104418,0.15979779,998.37054, , , , 
2026-03-19 21:05:47.087,-1.1294123,-11.420942,-2.9336007,0.019089524,0.25053093,-1.2408191,-42.75,-23.25,16.837502,0.23048167,-0.7071401,0.15323262,998.362, , , , 
2026-03-19 21:05:47.108,-3.1058838,-11.550155,-2.9479575,-0.24480405,0.5040398,-0.5218312,-41.475002,-24.35625,14.75625,0.23418051,-0.70393205,0.14932397,998.362, , , , 
2026-03-19 21:05:47.128,-3.845266,-10.609776,-2.481357,-0.47571096,0.46494445,0.48731738,-40.575,-25.63125,16.125,0.2285008,-0.7018406,0.14988424,998.35175, , , , 
2026-03-19 21:05:47.148,-2.8809586,-10.360922,-1.727618,-0.5264127,0.24258968,1.2441789,-39.2625,-23.625,14.175,0.22027428,-0.70275843,0.15317008,998.35175,37.88749856,127.73736442,176.60418701171875,0.0
2026-03-19 21:05:47.168,-1.6127625,-11.545369,-1.7587247,-0.5245801,0.0721584,1.9570581,-40.575,-23.737501,12.468751,0.20076758,-0.7072208,0.16369767,998.3493, , , , 
2026-03-19 21:05:47.186,-0.61734825,-12.650853,-1.1437693,-0.54718214,-0.10254893,2.5343254,-42.375,-23.925001,12.656251,0.18570305,-0.71147484,0.17282519,998.3493, , , , 
2026-03-19 21:05:47.206,1.3854443,-13.450056,-0.59342,-0.51724976,-0.22350015,3.1629052,-42.99375,-20.5125,12.525001,0.16155441,-0.71861774,0.18847282,998.35443, , , , 
2026-03-19 21:05:47.226,3.1657043,-14.175081,-0.20817557,-0.5062542,-0.09460768,3.7517788,-44.11875,-18.768751,13.1625,0.12553899,-0.727831,0.21316941,998.35443, , , , 
2026-03-19 21:05:47.246,4.359723,-14.603396,0.4977071,-0.32238388,0.05383246,4.333933,-47.90625,-15.7875,12.31875,0.09242029,-0.73335093,0.23684935,998.36053, , , , 
2026-03-19 21:05:47.268,6.113662,-14.634503,-0.53359944,-0.20693044,0.06971494,4.776199,-47.68125,-12.525001,12.4125,0.05651973,-0.73690075,0.2645552,998.36053, , , , 
2026-03-19 21:05:47.288,8.630911,-14.012369,-0.9379865,-0.4298961,0.38064513,5.1127853,-48.843754,-8.15625,11.981251,0.0073986202,-0.7385369,0.30101696,998.3532, , , , 
2026-03-19 21:05:47.307,9.267402,-13.584054,0.4331009,-0.53496486,0.6897427,5.250841,-47.287502,-4.875,10.387501,-0.024485618,-0.7370146,0.32185307,998.3532, , , , 
2026-03-19 21:05:47.326,10.753345,-13.086347,0.6269195,-0.4732675,0.6243802,5.238013,-48.956253,-1.4625001,12.075001,-0.068075925,-0.73199886,0.34889334,998.3442, , , , 
2026-03-19 21:05:47.346,11.0811615,-12.717853,0.21296121,-0.4072941,0.3635409,5.033373,-49.031254,3.9,11.306251,-0.109386615,-0.72575366,0.37464243,998.3442, , , , 
2026-03-19 21:05:47.366,9.985249,-12.827922,-0.62931234,-0.45127636,0.27313292,4.98878,-47.268753,8.925,10.5375,-0.15727709,-0.71727824,0.40447506,998.34, , , , 
2026-03-19 21:05:47.388,10.033105,-13.63191,-1.0289137,-0.6327032,0.47044224,5.2148,-47.381252,12.243751,13.593751,-0.19643703,-0.7088024,0.42664093,998.34, , , , 
2026-03-19 21:05:47.408,13.311273,-13.371093,-0.74416786,-0.8312343,0.543746,5.274665,-45.525,16.95,11.118751,-0.23776866,-0.69811666,0.4467804,998.33124, , , , 
2026-03-19 21:05:47.427,16.20898,-12.806387,0.4139583,-0.8703296,0.2627482,4.963124,-44.90625,20.85,13.1625,-0.27746987,-0.68698174,0.4639004,998.33124, , , , 
2026-03-19 21:05:47.448,18.809978,-11.729616,2.2492533,-0.43600473,-0.3096321,4.234973,-41.90625,23.2875,11.775001,-0.3171271,-0.67479235,0.48330995,998.3359, , , , 
2026-03-19 21:05:47.466,18.936798,-10.392029,1.4907285,-0.19226968,-0.142866,3.6302166,-38.49375,27.112501,11.962501,-0.33479184,-0.667793,0.4945214,998.3359, , , , 
2026-03-19 21:05:47.486,17.723637,-8.422736,-0.526421,-0.45982847,0.7642682,3.0260713,-36.75,28.650002,13.087501,-0.36117208,-0.6551939,0.50742227,998.3359, , , , 
2026-03-19 21:05:47.507,17.187645,-7.7790666,0.8255238,-0.8330668,1.4673736,2.5868597,-34.0125,29.681252,11.512501,-0.38477236,-0.6447807,0.5090456,998.3359, , , , 
2026-03-19 21:05:47.527,18.518055,-7.1186476,3.0699914,-0.5826123,1.2853359,2.087783,-34.59375,32.625,10.78125,-0.40735626,-0.63454646,0.50670063,998.3393, , , , 
2026-03-19 21:05:47.546,19.561325,-6.084948,2.9910283,0.0716239,0.439899,1.3742931,-32.8125,34.18125,10.81875,-0.4211974,-0.6261605,0.50667816,998.3393, , , , 
2026-03-19 21:05:47.566,19.41297,-5.7427745,0.06460621,0.5071705,-0.021914775,0.6711877,-33.1875,34.5,11.306251,-0.4243323,-0.62088567,0.51023227,998.3288, , , , 
2026-03-19 21:05:47.587,18.881763,-5.5226345,-2.0985055,0.33307403,0.16806418,0.020005822,-32.9625,34.893753,11.1,-0.4222148,-0.6185887,0.51254004,998.3288, , , , 
2026-03-19 21:05:47.606,18.43909,-5.54417,-1.5337993,0.048411034,0.4246274,-0.47296205,-32.2125,34.987503,10.70625,-0.41938615,-0.6187888,0.5098629,998.3117, , , , 
2026-03-19 21:05:47.626,18.266808,-5.3790655,-0.11964113,-0.007177661,0.16439898,-1.051451,-31.25625,34.59375,10.1625,-0.41492993,-0.62139964,0.503525,998.3117, , , , 
2026-03-19 21:05:47.646,17.603996,-6.32423,2.1176481,0.20234896,-0.6950878,-1.9011639,-33.73125,36.075,10.03125,-0.40015563,-0.6303635,0.49496236,998.31537, , , , 
2026-03-19 21:05:47.666,16.969898,-7.9776707,2.4502504,0.44302967,-1.3603195,-2.6360343,-35.662502,33.99375,12.356251,-0.3771845,-0.6427691,0.48959017,998.31537, , , , 
2026-03-19 21:05:47.686,15.766309,-10.949556,1.3040884,0.41187558,-1.6584215,-3.4661994,-36.581253,32.79375,9.900001,-0.34603113,-0.65885425,0.48320213,998.3322, , , , 
2026-03-19 21:05:47.707,14.940784,-13.567305,1.5816557,0.10583232,-1.57962,-3.992765,-36.018753,30.712502,12.58125,-0.31139034,-0.67693406,0.47266304,998.3322, , , , 
2026-03-19 21:05:47.727,15.790236,-15.608382,2.8498518,-0.06276636,-1.4018583,-4.526661,-39.80625,28.706251,12.637501,-0.265922,-0.70002747,0.45333913,998.34955, , , , 
2026-03-19 21:05:47.747,15.163317,-16.534405,3.385844,0.04657844,-1.1416299,-5.003746,-41.25,25.312502,14.531251,-0.22678962,-0.71694666,0.43370196,998.34955, , , , 
2026-03-19 21:05:47.766,14.289937,-16.752151,3.3834512,0.3019199,-1.3035091,-5.3940887,-42.9375,22.03125,14.418751,-0.18436824,-0.7313915,0.41225833,998.36224, , , , 
2026-03-19 21:05:47.786,12.356536,-16.620546,2.4478576,0.61529356,-1.8752785,-5.6714215,-43.5,17.118752,14.75625,-0.13646482,-0.74495274,0.39107913,998.36224, , , , 
2026-03-19 21:05:47.807,11.112268,-16.512869,-0.31345975,0.46624255,-1.74211,-5.7117386,-45.24375,13.575001,15.918751,-0.08534475,-0.7578395,0.3694603,998.3593, , , , 
2026-03-19 21:05:47.827,10.772488,-16.436298,-1.7922242,-0.05177079,-0.45562875,-5.4716687,-46.40625,5.8500004,18.487501,-0.039342593,-0.76623964,0.3442771,998.3593, , , , 
2026-03-19 21:05:47.847,11.341979,-16.24248,-0.9954142,-0.42012227,0.83085245,-5.301848,-47.362503,0.39375,17.98125,0.006061419,-0.7664868,0.30796024,998.34564, , , , 
2026-03-19 21:05:47.868,9.891929,-16.168303,-0.3804588,-0.35109454,0.9872338,-5.3220067,-48.131252,-2.6625001,18.075,0.030579085,-0.7625574,0.28512663,998.34564, , , , 
2026-03-19 21:05:47.886,7.82453,-15.804593,0.20817557,-0.10491603,0.5248092,-5.167458,-47.71875,-7.4437504,14.2875,0.063561484,-0.7557363,0.2554577,998.33856, , , , 
2026-03-19 21:05:47.907,6.4845495,-14.670396,0.3924229,0.21395539,-0.034742933,-4.9206686,-46.631252,-11.4375,15.01875,0.106340624,-0.74841535,0.22181232,998.33856, , , , 
2026-03-19 21:05:47.926,4.941179,-13.306487,-0.45942193,0.3941605,-0.28886268,-4.630508,-44.5125,-14.700001,14.981251,0.14107856,-0.74355346,0.19760573,998.3359, , , , 
2026-03-19 21:05:47.948,3.0293136,-12.232109,-1.8185452,0.3367392,-0.045127634,-4.304917,-42.693752,-18.13125,14.38125,0.17402767,-0.73762816,0.17511973,998.3359, , , , 
2026-03-19 21:05:47.966,0.4761717,-11.341979,-2.091327,0.12843432,0.2694677,-3.8278315,-43.66875,-21.35625,16.518751,0.20278277,-0.72992593,0.15401217,998.3354, , , , 
2026-03-19 21:05:47.987,-2.2325034,-10.3848505,-1.375873,-0.00962112,0.41607526,-2.953073,-41.79375,-24.393751,16.650002,0.22567089,-0.7211284,0.1354419,998.3354, , , , 
2026-03-19 21:05:48.006,-2.2612174,-9.4229355,-0.4881358,0.10033454,0.19677481,-2.0935862,-40.48125,-25.237501,15.01875,0.24239467,-0.71358645,0.12142829,998.3432, , , , 
2026-03-19 21:05:48.026,-1.294517,-8.41795,-0.7082755,0.33796093,-0.0035888306,-1.5603013,-39.99375,-27.825,16.181252,0.25510398,-0.7087044,0.11276671,998.3432, , , , 
2026-03-19 21:05:48.046,-1.2251252,-7.9513497,-2.3688943,0.4564687,-0.07689261,-1.0612248,-39.99375,-27.806252,15.712501,0.2659931,-0.70584846,0.108364835,998.3398, , , , 
2026-03-19 21:05:48.066,-1.4955142,-8.585447,-3.196811,0.28420484,-0.047571093,-0.43325585,-38.475002,-29.775002,15.825001,0.2750423,-0.70422566,0.106817745,998.3398, , , , 
2026-03-19 21:05:48.088,-1.1294123,-9.592826,-3.1872396,0.11133011,-0.0891099,0.17699806,-37.10625,-29.400002,17.212502,0.27645117,-0.70502055,0.108529225,998.3266, , , , 
2026-03-19 21:05:48.107,-1.5050855,-9.427721,-2.7828526,-0.007788526,-0.109268434,0.88315773,-35.456253,-29.343752,15.337501,0.272457,-0.7079505,0.11323132,998.3266, , , , 
2026-03-19 21:05:48.126,-0.6843473,-9.846465,-2.9766715,-0.16661337,0.091706075,1.5856522,-36.1875,-29.400002,14.025001,0.26268974,-0.71244395,0.12173673,998.3144, , , , 
2026-03-19 21:05:48.146,0.4426722,-10.30828,-2.5316064,-0.41462448,0.45272717,2.2038474,-38.625,-28.29375,16.06875,0.24646957,-0.7168833,0.13374844,998.3144,37.88750383,127.73737534,175.7806396484375,1.26
2026-03-19 21:05:48.166,1.402194,-11.148161,-1.579263,-0.56367546,0.6622538,2.7365215,-41.381252,-26.081251,14.85,0.22412933,-0.7204912,0.14867039,998.3149, , , , 
2026-03-19 21:05:48.186,1.8424734,-12.105289,-0.29671,-0.48609564,0.38675377,3.3730426,-41.0625,-24.675001,13.031251,0.19718847,-0.7243471,0.16662182,998.3149, , , , 
2026-03-19 21:05:48.206,3.2590244,-12.832707,0.078963146,-0.2527453,-0.092164226,3.9075494,-41.625,-23.1,12.375001,0.16732602,-0.7303647,0.18833973,998.3232, , , , 
2026-03-19 21:05:48.226,4.8502517,-13.543376,-0.2416751,-0.016340632,-0.1465312,4.4047933,-42.825,-18.88125,13.031251,0.12751555,-0.73966813,0.22089699,998.3232, , , , 
2026-03-19 21:05:48.246,5.5106707,-14.254045,-1.2179468,0.035582874,0.11003202,4.8421726,-43.93125,-14.887501,13.087501,0.092706695,-0.74489635,0.2507383,998.3305, , , , 
2026-03-19 21:05:48.266,6.355337,-14.895321,-1.7706888,-0.062155493,0.19982915,5.2471757,-45.1875,-13.25625,12.0375,0.06399641,-0.7472083,0.27446264,998.3305, , , , 
2026-03-19 21:05:48.287,8.772088,-15.366707,-1.2011969,-0.27046037,0.23464844,5.6955504,-47.475002,-7.7812505,13.81875,0.010949808,-0.74882764,0.3145729,998.31586, , , , 
2026-03-19 21:05:48.306,10.631311,-15.046069,-0.2847459,-0.30405796,0.29023713,5.777406,-50.41875,-2.8500001,12.150001,-0.034361683,-0.7474872,0.34583586,998.31586, , , , 
2026-03-19 21:05:48.326,11.107483,-14.778072,0.10767702,-0.19165882,0.18639012,5.657066,-51.7125,1.21875,16.06875,-0.07890732,-0.74339265,0.37565914,998.3166, , , , 
2026-03-19 21:05:48.346,10.839486,-15.113068,-0.64845496,-0.17211115,0.124692775,5.6265225,-47.11875,6.1875005,12.20625,-0.12116461,-0.73738265,0.40426683,998.3166, , , , 
2026-03-19 21:05:48.367,12.203396,-15.223138,-1.5026926,-0.33887723,0.30001098,5.6540117,-47.8875,9.712501,13.33125,-0.17368753,-0.7269623,0.43718556,998.3027, , , , 
2026-03-19 21:05:48.386,14.813965,-14.498113,-1.1557333,-0.70967215,0.41241008,5.5110693,-44.30625,15.075001,11.71875,-0.21630277,-0.71704125,0.45899698,998.3027, , , , 
2026-03-19 21:05:48.406,16.80958,-13.342379,0.26081768,-0.8972076,0.5474112,5.0504775,-42.9375,21.28125,14.00625,-0.25745577,-0.7065265,0.47556773,998.29877, , , , 
2026-03-19 21:05:48.426,17.168503,-12.500106,1.3304094,-0.88682294,0.76487905,4.4976444,-39.91875,22.237501,11.775001,-0.28596038,-0.6982256,0.48467705,998.29877, , , , 
2026-03-19 21:05:48.446,15.981663,-10.779666,1.835295,-0.66080296,0.941419,3.8519607,-38.2125,26.2875,10.9125,-0.32805187,-0.6831814,0.49562684,998.30585, , , , 
2026-03-19 21:05:48.466,16.070196,-9.456435,1.3136597,-0.49831295,1.0923026,3.488496,-35.081253,31.06875,12.618751,-0.35745782,-0.6701076,0.50236297,998.30585, , , , 
2026-03-19 21:05:48.486,16.47219,-8.403593,0.51445687,-0.3914116,1.2682316,2.9228354,-34.96875,32.30625,12.993751,-0.3837725,-0.656661,0.50676364,998.3061, , , , 
2026-03-19 21:05:48.506,16.706688,-8.551949,-0.10767702,-0.28084508,1.0690898,2.4616323,-31.406252,33.9375,12.075001,-0.40640467,-0.64404714,0.5090182,998.3061, , , , 
2026-03-19 21:05:48.526,17.156538,-8.453842,-0.59581286,-0.117744185,0.6121629,2.0572398,-31.781252,34.893753,10.81875,-0.42398873,-0.6334171,0.51118547,998.3029, , , , 
2026-03-19 21:05:48.546,18.233309,-7.2526455,-1.0289137,-0.12751803,0.26213735,1.473864,-28.575,36.225002,10.556251,-0.43836066,-0.6241599,0.5144263,998.3029, , , , 
2026-03-19 21:05:48.566,18.494125,-7.094719,-0.21296121,-0.18616104,0.14362958,0.9014837,-29.250002,37.162502,9.337501,-0.44351968,-0.6213027,0.5150708,998.3017, , , , 
2026-03-19 21:05:48.586,18.372093,-7.5589266,1.5026926,0.030695954,-0.10621411,0.24297146,-28.087502,36.412502,9.58125,-0.44611934,-0.62029666,0.5143372,998.3017, , , , 
2026-03-19 21:05:48.606,18.587446,-6.8506513,1.4907285,0.45707956,-0.5417607,-0.48334676,-28.48125,39.09375,12.243751,-0.44120437,-0.6216794,0.5149747,998.31976, , , , 
2026-03-19 21:05:48.626,18.35295,-6.9726853,0.7704889,0.6159044,-0.7787762,-1.3122903,-29.94375,36.075,11.025001,-0.42894968,-0.6259354,0.5162053,998.31976, , , , 
2026-03-19 21:05:48.646,17.111074,-8.295917,0.4426722,0.5994111,-0.8905645,-2.2285874,-29.250002,36.525,10.6125,-0.41011557,-0.63382,0.51535106,998.3278, , , , 
2026-03-19 21:05:48.666,14.802001,-10.262816,1.0959128,0.52855074,-0.9962441,-3.0129378,-31.406252,35.30625,11.0625,-0.38545012,-0.64533764,0.51094663,998.3278, , , , 
2026-03-19 21:05:48.686,12.473784,-13.203595,1.7706888,0.55115277,-1.1269692,-3.5040731,-34.068752,33.787502,11.4375,-0.3483864,-0.6623733,0.50211596,998.3532, , , , 
2026-03-19 21:05:48.706,11.916257,-15.192031,1.7682959,0.549931,-1.1495712,-3.7685776,-35.475002,32.025,12.76875,-0.3155272,-0.6762584,0.4934605,998.3532, , , , 
2026-03-19 21:05:48.726,11.641082,-16.137196,2.2444677,0.5413789,-1.1220822,-3.9634435,-37.66875,29.175001,13.1625,-0.28111866,-0.6895933,0.4832655,998.36615, , , , 
2026-03-19 21:05:48.746,11.330015,-15.967305,2.5052853,0.568257,-0.9229403,-4.2022915,-37.5,24.618752,9.375,-0.24557178,-0.7017248,0.4714747,998.36615, , , , 
2026-03-19 21:05:48.766,10.944771,-15.378671,2.440679,0.6250674,-0.7464004,-4.4472485,-39.975002,23.362501,11.1,-0.20911822,-0.7118921,0.45770067,998.38153, , , , 
2026-03-19 21:05:48.786,9.006584,-15.036497,1.7060826,0.7197514,-0.5985711,-4.7490153,-43.2,20.643751,13.9125,-0.17089789,-0.7200896,0.4419822,998.38153, , , , 
2026-03-19 21:05:48.806,7.5517483,-14.8378935,1.18684,0.7961095,-0.5655844,-4.7490153,-44.49375,14.925,12.675,-0.12223047,-0.7273302,0.4206529,998.39325, , , , 
2026-03-19 21:05:48.826,6.9678993,-14.289937,-0.15553348,0.8260419,-0.4812851,-4.5602584,-44.5875,12.937501,11.71875,-0.08341892,-0.73121184,0.4038566,998.39325, , , , 
2026-03-19 21:05:48.846,7.611569,-13.713266,-0.863809,0.5688678,0.037949976,-4.393492,-47.643753,10.125,12.0375,-0.047980435,-0.7324308,0.38630378,998.38446, , , , 
2026-03-19 21:05:48.866,7.288538,-13.445271,-0.9667004,0.33246315,0.42645997,-4.376999,-48.2625,6.20625,10.78125,-0.016361928,-0.7308535,0.36650515,998.38446, , , , 
2026-03-19 21:05:48.886,6.302695,-13.4022,-0.16271193,0.23228133,0.44906196,-4.3385143,-46.78125,3.4875002,11.868751,0.012791696,-0.72719395,0.34493956,998.383, , , , 
2026-03-19 21:05:48.906,4.7784667,-13.414164,0.35653058,0.446084,-0.39393142,-4.263989,-46.93125,-0.35625002,9.31875,0.04258298,-0.72403187,0.32351652,998.383, , , , 
2026-03-19 21:05:48.926,3.1441689,-12.765709,-0.17467605,0.58047426,-1.2473096,-4.104553,-46.95,-3.8625002,11.53125,0.07534537,-0.7242259,0.30340686,998.3754, , , , 
2026-03-19 21:05:48.946,1.7036897,-12.117254,-1.1557333,0.43142325,-1.4476732,-3.7771297,-46.93125,-5.2312503,11.75625,0.11702598,-0.72855437,0.27918917,998.3754, , , , 
2026-03-19 21:05:48.966,-0.17228323,-12.279965,-2.172683,0.084452055,-0.7060833,-3.409389,-49.2,-8.85,16.5375,0.13884501,-0.7303689,0.26483765,998.37225, , , , 
2026-03-19 21:05:48.986,-3.8644085,-12.026326,-1.5816557,-0.3205513,0.245644,-2.5505133,-46.706253,-12.450001,16.331251,0.16402903,-0.7279374,0.24278513,998.37225, , , , 
2026-03-19 21:05:49.007,-4.369294,-11.169696,-0.9020941,-0.38163778,0.2529744,-1.575573,-44.34375,-14.062501,13.387501,0.17407128,-0.72420686,0.2300204,998.36566, , , , 
2026-03-19 21:05:49.026,-2.6536403,-10.904093,-0.69152576,-0.25763223,-0.10377065,-0.866359,-44.0625,-16.275002,13.8,0.17869827,-0.72269404,0.22214828,998.36566, , , , 
2026-03-19 21:05:49.046,-2.292324,-11.71526,-1.0217353,-0.13790272,-0.472733,-0.4668534,-43.85625,-17.38125,14.45625,0.18126577,-0.72383165,0.21771276,998.36835, , , , 
2026-03-19 21:05:49.066,-2.7996025,-11.983255,-1.308874,-0.1122464,-0.44463322,-0.03375028,-43.068752,-19.3875,12.468751,0.18194051,-0.7272005,0.21613511,998.36835, , , , 
2026-03-19 21:05:49.088,-3.6753755,-11.437693,-1.3782659,-0.19532402,0.012904518,0.7768673,-42.525,-18.84375,12.69375,0.17798707,-0.73033416,0.2183073,998.3649, , , , 
2026-03-19 21:05:49.106,-2.928815,-11.882757,-1.672583,-0.27229297,0.18761185,1.7597487,-41.475002,-18.09375,11.15625,0.1634766,-0.73339546,0.22783318,998.3649, , , , 
2026-03-19 21:05:49.126,-0.16749759,-12.366107,-1.579263,-0.37186393,0.19494222,2.4659083,-42.65625,-15.01875,14.343751,0.14437728,-0.7368446,0.24050978,998.3576, , , , 
2026-03-19 21:05:49.146,2.347359,-12.94517,-0.5407779,-0.42378744,0.21387903,2.9478807,-45.43125,-15.168751,12.7875,0.12037578,-0.7405508,0.25584653,998.3576,37.88750999,127.73738473,174.9091796875,1.34
2026-03-19 21:05:49.166,3.4432719,-13.03849,0.3182454,-0.28328854,0.09598213,3.1989462,-45.35625,-11.15625,12.093751,0.09390157,-0.7437841,0.27329323,998.3569, , , , 
2026-03-19 21:05:49.186,4.7449675,-13.42852,0.64606214,0.030695954,-0.13309216,3.4628396,-46.18125,-9.39375,12.69375,0.067265205,-0.74678916,0.2932799,998.3569, , , , 
2026-03-19 21:05:49.206,5.237889,-13.887942,-0.15314065,0.25671592,-0.10682498,3.7175703,-48.825,-6.43125,14.043751,0.040971983,-0.7488755,0.31611776,998.3591, , , , 
2026-03-19 21:05:49.226,5.7834525,-14.129618,-0.8781659,0.2866483,0.044669487,4.093863,-47.737503,-2.3625002,15.8625,0.0061550136,-0.74903,0.34757444,998.3591, , , , 
2026-03-19 21:05:49.246,6.9798636,-13.904693,-0.92602235,0.19013166,0.14240785,4.368141,-48.468754,0.43125,15.000001,-0.024711438,-0.74721736,0.37348482,998.34784, , , , 
2026-03-19 21:05:49.266,8.188239,-13.390236,-0.91884387,0.10949751,0.22365287,4.491536,-47.175003,4.55625,13.2375,-0.04924643,-0.7447649,0.39256075,998.34784, , , , 
2026-03-19 21:05:49.286,9.044869,-12.610175,-1.2705889,-0.075594515,0.40385798,4.4903145,-47.11875,8.6625,15.468751,-0.09143133,-0.73869985,0.42217895,998.33856, , , , 
2026-03-19 21:05:49.306,9.068798,-12.550355,-1.2658032,-0.3846921,0.7520509,4.51536,-46.443752,11.85,14.137501,-0.12659732,-0.7321333,0.44259715,998.33856, , , , 
2026-03-19 21:05:49.326,9.540184,-12.770494,-0.4235296,-0.5539016,0.93103427,4.6473064,-44.4375,15.918751,12.76875,-0.1548122,-0.725937,0.45591012,998.3337, , , , 
2026-03-19 21:05:49.346,12.303894,-12.464213,0.21774685,-0.7163917,1.1539999,4.6839585,-43.95,19.2,14.231251,-0.20443319,-0.7131573,0.47556275,998.3337, , , , 
2026-03-19 21:05:49.366,14.620147,-11.669796,0.7106683,-0.7805325,1.2199733,4.2416925,-40.6875,22.1625,12.31875,-0.24352323,-0.7013629,0.48790613,998.32635, , , , 
2026-03-19 21:05:49.386,13.586447,-10.293923,0.39481574,-0.7976367,1.1478913,3.6051712,-38.53125,24.750002,11.64375,-0.28626436,-0.6869844,0.49806958,998.32635, , , , 
2026-03-19 21:05:49.406,12.758531,-9.736395,0.4211368,-0.88682294,1.1173481,3.3492188,-38.0625,27.900002,12.337501,-0.31657642,-0.6765039,0.5030349,998.32684, , , , 
2026-03-19 21:05:49.426,12.990634,-9.099904,1.4620147,-0.8965968,1.298164,3.2178829,-37.40625,29.587502,11.868751,-0.3458057,-0.6658628,0.5061035,998.32684, , , , 
2026-03-19 21:05:49.446,14.526826,-8.080562,3.330809,-0.6204859,1.2602904,2.9295547,-34.575,31.25625,11.325001,-0.37376633,-0.6540519,0.5079398,998.3366, , , , 
2026-03-19 21:05:49.466,16.72583,-7.5996046,2.6249263,-0.06520981,1.1723258,2.5013385,-34.237503,33.018753,11.793751,-0.39664295,-0.64132816,0.51090056,998.3366, , , , 
2026-03-19 21:05:49.487,16.953148,-6.879365,-1.5002998,0.17424917,1.0324378,1.7573053,-31.687502,34.55625,9.13125,-0.41296357,-0.6286676,0.51432604,998.3415, , , , 
2026-03-19 21:05:49.507,15.811772,-6.9224358,-2.4143581,-0.15195261,0.56695884,1.2680025,-30.768751,36.881252,8.90625,-0.42461738,-0.6198127,0.5153778,998.3415, , , , 
2026-03-19 21:05:49.527,16.000805,-6.836294,-1.4237294,-0.41523534,0.09842559,0.945466,-31.781252,35.41875,8.00625,-0.43246546,-0.61633825,0.5148657,998.3322, , , , 
2026-03-19 21:05:49.546,16.567904,-7.678568,1.4644074,-0.47082403,-0.17157665,0.3810269,-29.156252,36.05625,7.8562503,-0.4369161,-0.617732,0.5127195,998.3322, , , , 
2026-03-19 21:05:49.566,17.101503,-7.9561353,2.8761728,-0.12751803,-0.34628397,-0.07651082,-28.743752,37.48125,8.34375,-0.4356768,-0.6206865,0.5109205,998.33563, , , , 
2026-03-19 21:05:49.586,17.64228,-7.30768,2.400001,0.2536616,-0.7250201,-0.7484621,-31.331251,37.93125,11.0625,-0.4285464,-0.6246554,0.51057816,998.33563, , , , 
2026-03-19 21:05:49.606,17.97967,-7.233503,2.7182465,0.4063778,-1.055498,-1.4882193,-31.2,37.818752,10.59375,-0.41440552,-0.63160723,0.51044375,998.3503, , , , 
2026-03-19 21:05:49.626,16.19941,-9.293723,2.8091738,0.60796314,-1.4433972,-2.578002,-31.85625,36.0,11.38125,-0.39184982,-0.6424813,0.5091464,998.3503, , , , 
2026-03-19 21:05:49.646,13.57209,-12.064611,2.8091738,0.7325796,-1.611385,-3.2566729,-32.2125,34.987503,10.70625,-0.36175665,-0.6562169,0.5061959,998.3693, , , , 
2026-03-19 21:05:49.666,12.212967,-14.158332,2.7589245,0.7973313,-1.7146211,-3.6134179,-34.725002,33.46875,12.3,-0.32704228,-0.67075527,0.5018626,998.3693, , , , 
2026-03-19 21:05:49.686,12.64846,-15.129818,2.629712,0.84009176,-1.8404592,-3.8504333,-35.175003,31.181252,11.38125,-0.29902777,-0.6815883,0.49784157,998.3693, , , , 
2026-03-19 21:05:49.706,13.6606245,-15.684953,1.442872,0.80771595,-1.8569525,-4.4472485,-36.7125,28.031252,12.656251,-0.2369278,-0.7034779,0.48665935,998.3835, , , , 
2026-03-19 21:05:49.726,12.100504,-15.14896,-0.1794617,0.56214833,-1.2063816,-4.8088803,-39.487503,25.987501,14.137501,-0.19351219,-0.7167949,0.47397095,998.3864, , , , 
2026-03-19 21:05:49.746,10.219746,-15.060426,-1.0145568,0.11071924,-0.13187043,-5.000692,-41.60625,21.300001,13.2375,-0.15367779,-0.7266683,0.45520046,998.3864, , , , 
2026-03-19 21:05:49.766,8.544769,-14.976677,-0.7369894,-0.09636392,0.38797548,-4.9585423,-42.693752,18.09375,13.2375,-0.11893825,-0.7325279,0.43138093,998.3759, , , , 
2026-03-19 21:05:49.786,8.188239,-14.251652,-0.22492532,-0.029168794,0.25847217,-4.86508,-47.1375,13.51875,14.118751,-0.08674643,-0.7355219,0.40618393,998.3759, , , , 
2026-03-19 21:05:49.806,8.068598,-13.911871,-1.1772687,-0.12873976,0.6964622,-4.7624545,-47.943752,8.71875,13.2375,-0.054801676,-0.73685426,0.38109368,998.3686, , , , 
2026-03-19 21:05:49.826,7.1138616,-13.741981,0.16271193,-0.14278965,1.0788635,-4.6720467,-48.393753,5.68125,12.525001,-0.019312344,-0.7333918,0.3481184,998.3686, , , , 
2026-03-19 21:05:49.846,5.0656056,-13.497912,0.7585248,0.17180572,0.8754456,-4.484511,-50.30625,0.41250002,10.40625,0.00826791,-0.7275653,0.32289225,998.373, , , , 
2026-03-19 21:05:49.866,4.06062,-12.890136,0.18664017,0.5896372,0.08193224,-4.0520186,-47.9625,-2.5687501,8.625,0.036948808,-0.72186416,0.3015428,998.373, , , , 
2026-03-19 21:05:49.886,4.223332,-11.959328,-0.9738788,0.7692315,-0.6547707,-3.8443248,-51.91875,-5.9812503,11.25,0.067289986,-0.71908146,0.28372934,998.3735, , , , 
2026-03-19 21:05:49.906,3.1058838,-11.30848,-2.3665016,0.56642437,-0.9376011,-3.6628978,-49.893753,-9.01875,12.13125,0.09845269,-0.7191947,0.2665965,998.3735, , , , 
2026-03-19 21:05:49.926,2.2229323,-11.035698,-2.1942184,0.26160285,-0.9168317,-3.4246607,-47.100002,-9.6,12.95625,0.126821,-0.72048414,0.24836831,998.37054, , , , 
2026-03-19 21:05:49.946,0.36610186,-11.617154,-1.1676974,0.0019853106,-0.94309884,-2.9854488,-47.362503,-15.243751,13.462501,0.15645236,-0.722284,0.22512469,998.37054, , , , 
2026-03-19 21:05:49.966,-0.71306115,-12.107682,-0.72741807,-0.058490302,-1.0298417,-2.4985898,-45.43125,-17.04375,15.525001,0.17128254,-0.7239512,0.21235001,998.3664, , , , 
2026-03-19 21:05:49.986,-1.5002998,-11.8899355,-0.38524446,-0.09392046,-0.8447496,-1.8254167,-43.93125,-17.643751,15.243751,0.1903643,-0.7274442,0.1952053,998.3664, , , , 
2026-03-19 21:05:50.007,-2.5339992,-11.330015,0.1052842,-0.057268575,-0.47028953,-1.1253656,-44.006252,-20.1375,15.543751,0.20020382,-0.7294964,0.18588719,998.372, , , , 
2026-03-19 21:05:50.026,-2.7397819,-12.449856,-1.4500505,-0.032223117,-0.108657576,-0.45219266,-40.0125,-20.831251,14.1,0.20534392,-0.73050046,0.18152586,998.372, , , , 
2026-03-19 21:05:50.046,-3.778267,-12.593426,-2.87378,-0.29000807,0.19005531,0.3810269,-40.331253,-20.868752,15.20625,0.20439836,-0.73125386,0.18180127,998.3759, , , , 
2026-03-19 21:05:50.066,-2.8666015,-12.576675,-2.2564318,-0.55878854,0.41057748,1.1977531,-40.350002,-21.84375,12.637501,0.19486919,-0.7326664,0.18588144,998.3759, , , , 
2026-03-19 21:05:50.086,-0.47377887,-12.404392,-0.89730847,-0.66080296,0.5486329,1.9674428,-40.0875,-22.06875,12.168751,0.17748752,-0.7344546,0.19385642,998.3649, , , , 
2026-03-19 21:05:50.106,1.7563318,-12.614961,0.1268196,-0.5044216,0.3287216,2.4463608,-41.943752,-20.625,9.1875,0.1498521,-0.7372335,0.20862785,998.3649, , , , 
2026-03-19 21:05:50.126,2.7996025,-12.947563,0.076570325,-0.22892158,0.02328922,2.7585127,-44.04375,-19.237501,11.175,0.12667437,-0.7405579,0.2240513,998.3671, , , , 
2026-03-19 21:05:50.146,3.0675986,-13.268202,-0.38763726,0.020311253,-0.19723296,3.2062764,-45.506252,-16.1625,13.012501,0.10316333,-0.7447586,0.24278438,998.3671,37.88750857,127.73739966,174.80908203125,1.65
2026-03-19 21:05:50.166,3.2207394,-13.696517,-0.74177504,0.12782346,-0.19051345,3.6766424,-46.143753,-14.231251,12.975,0.07774753,-0.7489066,0.26510614,998.36786, , , , 
2026-03-19 21:05:50.186,4.3238306,-14.129618,-0.8279166,0.13087778,-0.07017309,4.364476,-45.84375,-11.34375,13.087501,0.048355028,-0.75187325,0.29091462,998.36786, , , , 
2026-03-19 21:05:50.206,6.1710896,-13.976477,0.023928227,0.21700971,-0.053679742,4.8543897,-48.225002,-7.2375,12.637501,0.014633274,-0.7530907,0.31942764,998.3608, , , , 
2026-03-19 21:05:50.226,8.906086,-13.299308,-0.4211368,0.4027126,0.03367392,5.046812,-48.45,-3.9,13.70625,-0.029962383,-0.7512703,0.35783258,998.3608, , , , 
2026-03-19 21:05:50.246,9.669396,-12.839887,-1.4955142,0.39721483,0.19677481,4.9551826,-46.706253,1.125,13.5375,-0.06516596,-0.74667716,0.38806418,998.3571, , , , 
2026-03-19 21:05:50.267,8.748159,-12.777673,-1.835295,0.26282457,0.3165043,4.947852,-47.79375,5.86875,13.387501,-0.091466956,-0.7418473,0.40912196,998.3571, , , , 
2026-03-19 21:05:50.286,8.623733,-12.928421,-2.3688943,0.01847866,0.6084977,5.358353,-45.225002,9.975,14.118751,-0.13808228,-0.7313546,0.4420577,998.33514, , , , 
2026-03-19 21:05:50.306,12.339787,-12.859029,-1.308874,-0.35353798,0.72028595,5.4707522,-42.412502,14.38125,13.425,-0.1800062,-0.72039586,0.46570003,998.33514, , , , 
2026-03-19 21:05:50.326,15.11546,-12.35175,-0.34217364,-0.41279188,0.760603,5.1353874,-42.525,20.34375,13.087501,-0.22130284,-0.70852375,0.4854505,998.3305, , , , 
2026-03-19 21:05:50.346,16.627724,-11.076376,-0.3804588,-0.47754353,0.80030924,4.311331,-40.36875,24.54375,13.387501,-0.2581302,-0.69622684,0.50082767,998.3305, , , , 
2026-03-19 21:05:50.366,14.857036,-10.143175,-0.20578274,-0.56550807,0.8919389,3.701077,-38.775,27.31875,13.687501,-0.28969228,-0.6849874,0.5111862,998.34906, , , , 
2026-03-19 21:05:50.386,13.892728,-10.140782,0.031106694,-0.4818196,0.86445004,3.4726136,-37.518753,29.812502,12.337501,-0.32530025,-0.6711053,0.52017546,998.34906, , , , 
2026-03-19 21:05:50.406,15.364314,-9.533006,-0.25842485,-0.3657553,0.8302416,3.2887433,-33.61875,32.456253,12.543751,-0.3512259,-0.65951735,0.5269664,998.3476, , , , 
2026-03-19 21:05:50.426,16.888542,-8.262417,-0.27996024,-0.31383178,0.88338685,2.8660247,-33.09375,34.3875,12.525001,-0.37451744,-0.6480226,0.5322797,998.3476, , , , 
2026-03-19 21:05:50.446,17.197216,-6.3385873,-0.031106694,-0.18188499,0.8198569,2.2288928,-32.8125,36.525,12.993751,-0.3939884,-0.63758826,0.53557456,998.34564, , , , 
2026-03-19 21:05:50.466,18.072989,-6.4295144,-0.2847459,-0.062155493,0.57428926,1.6314671,-31.275002,36.80625,11.887501,-0.40827835,-0.62909514,0.53758943,998.34564, , , , 
2026-03-19 21:05:50.487,18.137596,-7.176075,-0.56470615,0.044134982,0.21571162,1.0120503,-27.937502,36.65625,12.637501,-0.41457763,-0.62490094,0.5386279,998.34564, , , , 
2026-03-19 21:05:50.506,17.69253,-7.3459654,-0.79920274,0.027030766,-0.19173518,0.21914774,-26.643751,37.6875,8.887501,-0.41706142,-0.6225972,0.539785,998.3381, , , , 
2026-03-19 21:05:50.526,17.39582,-8.432307,0.16749759,-0.00962112,-0.32123852,-0.31535894,-25.35,38.4375,9.9375,-0.4134578,-0.62493217,0.5389951,998.3427, , , , 
2026-03-19 21:05:50.546,16.9364,-8.781659,1.3734802,0.2603811,-0.4482984,-0.947604,-26.325,37.3125,11.34375,-0.40277216,-0.63071823,0.5367687,998.3427, , , , 
2026-03-19 21:05:50.566,16.840685,-8.16431,1.0193424,0.37949973,-0.5949059,-1.6678135,-29.643751,36.862503,11.56875,-0.38908622,-0.6365403,0.5346546,998.3571, , , , 
2026-03-19 21:05:50.586,16.14916,-9.083155,1.4093726,0.37461284,-0.84597135,-2.5138612,-30.31875,35.662502,11.700001,-0.36975732,-0.6452939,0.5304859,998.3571, , , , 
2026-03-19 21:05:50.606,14.230116,-10.820344,2.0841484,0.41920596,-1.1697297,-3.2499533,-30.768751,35.5125,9.75,-0.34368327,-0.65737456,0.5239258,998.3681, , , , 
2026-03-19 21:05:50.626,13.299308,-12.6987095,1.9525433,0.5077813,-1.3725368,-3.716654,-32.53125,32.8125,12.712501,-0.31165826,-0.67134696,0.51601934,998.3681, , , , 
2026-03-19 21:05:50.646,13.459627,-14.514862,1.6031911,0.44425142,-1.3065634,-4.163196,-34.912502,31.2,12.750001,-0.2667104,-0.68922246,0.50350493,998.38495, , , , 
2026-03-19 21:05:50.666,13.210773,-15.783058,1.268196,0.36300638,-1.0805434,-4.504059,-34.987503,28.462502,11.3625,-0.2383238,-0.6995138,0.49352854,998.38495, , , , 
2026-03-19 21:05:50.686,11.904293,-16.280766,0.97866446,0.23350306,-0.7903827,-4.7991066,-41.193752,26.306252,14.606251,-0.19036865,-0.7147425,0.47230306,998.383, , , , 
2026-03-19 21:05:50.706,10.813166,-15.751951,0.8327023,0.12538,-0.73845917,-4.9567094,-43.350002,21.487501,15.262501,-0.15201958,-0.7250912,0.45214716,998.383, , , , 
2026-03-19 21:05:50.726,8.566305,-14.964713,0.57427746,0.027030766,-0.440968,-4.9212794,-43.875,18.075,14.587501,-0.11403803,-0.7337797,0.4299667,998.3847, , , , 
2026-03-19 21:05:50.746,7.2861447,-13.971691,0.5623133,-0.03161225,0.37942338,-4.6781554,-48.112503,14.64375,16.462502,-0.07968884,-0.7385961,0.4065658,998.3847, , , , 
2026-03-19 21:05:50.766,6.8578296,-13.325629,-0.32303107,-0.07803798,1.4918082,-4.3116364,-46.55625,10.59375,14.38125,-0.051051717,-0.7374064,0.38301146,998.3835, , , , 
2026-03-19 21:05:50.786,7.5996046,-12.346965,-0.27756742,-0.102472566,1.8546618,-4.182744,-50.4,6.7125,13.6125,-0.028636876,-0.7300076,0.3594244,998.3835, , , , 
2026-03-19 21:05:50.807,6.9128647,-11.928221,-0.3804588,0.06734784,1.4233913,-4.273152,-50.756252,2.71875,12.01875,-0.006412828,-0.72076005,0.33566853,998.3808, , , , 
2026-03-19 21:05:50.826,4.7401814,-11.899507,-0.63888365,0.18890993,0.65064734,-4.217563,-48.693752,-0.52500004,7.05,0.025333522,-0.7114446,0.30632296,998.3808, , , , 
2026-03-19 21:05:50.846,3.5892339,-11.641082,0.148355,0.25732678,-0.02008218,-3.951837,-49.987503,-4.74375,6.80625,0.052109566,-0.70731294,0.28400013,998.3671, , , , 
2026-03-19 21:05:50.866,2.9862428,-11.217552,0.8781659,0.4882337,-0.5106066,-3.7142105,-49.3875,-7.4437504,9.20625,0.079460755,-0.7056539,0.2637324,998.3671, , , , 
2026-03-19 21:05:50.886,2.0027926,-11.126625,-0.083748795,0.69714946,-0.72013324,-3.4380996,-47.9625,-10.650001,7.55625,0.1074918,-0.70496595,0.2460777,998.3647, , , , 
2026-03-19 21:05:50.906,0.85902333,-11.645867,-1.7180467,0.653778,-0.9088904,-3.1149523,-49.48125,-13.575001,10.96875,0.13464549,-0.7046874,0.23048533,998.3647, , , , 
2026-03-19 21:05:50.926,-0.6867401,-11.868401,-2.3641088,0.40576693,-0.9962441,-2.636645,-45.487503,-15.525001,10.96875,0.15886326,-0.70605445,0.21605234,998.3669, , , , 
2026-03-19 21:05:50.946,-2.416751,-11.176874,-1.6462619,0.15225805,-0.7115811,-1.8474078,-45.525,-17.8875,11.56875,0.18115525,-0.70871943,0.20062147,998.3669, , , , 
2026-03-19 21:05:50.966,-2.9599216,-11.526227,-1.5768701,0.044134982,-0.32184938,-1.1650718,-43.818752,-19.462502,12.243751,0.1894389,-0.70970297,0.19428682,998.3649, , , , 
2026-03-19 21:05:50.986,-3.196811,-12.722638,-1.4955142,-0.05421425,0.04894554,-0.26282457,-40.59375,-20.25,11.962501,0.19444214,-0.7100797,0.19004396,998.3649, , , , 
2026-03-19 21:05:51.006,-3.3547373,-12.361321,-1.6773686,-0.03894263,0.1277471,0.59727305,-44.4375,-20.2875,14.062501,0.1912,-0.7106255,0.19285099,998.3654, , , , 
2026-03-19 21:05:51.026,-2.254039,-11.30848,-2.2348964,-0.091477,0.084375694,1.3040435,-45.487503,-20.400002,13.70625,0.18493271,-0.7119558,0.19841205,998.3654, , , , 
2026-03-19 21:05:51.046,0.39720857,-11.014163,-2.2492533,-0.32360563,0.051389,2.0492985,-47.04375,-19.3125,14.26875,0.16757871,-0.71636176,0.21191521,998.3608, , , , 
2026-03-19 21:05:51.066,2.184647,-11.473584,-1.1940185,-0.42012227,0.030619597,2.4500258,-47.381252,-18.975,12.900001,0.14827536,-0.7208415,0.22489218,998.3608, , , , 
2026-03-19 21:05:51.086,3.3355947,-12.509677,-0.19381863,-0.27107126,-0.12881611,2.8037167,-44.456253,-14.906251,9.900001,0.12052474,-0.7268193,0.24394695,998.36005, , , , 
2026-03-19 21:05:51.106,3.8165522,-13.131811,-0.20578274,-0.08659008,-0.24732387,3.186118,-46.8375,-11.94375,12.3,0.097037196,-0.7317492,0.26248264,998.36005, , , , 
2026-03-19 21:05:51.126,5.15414,-13.634303,-0.8709874,-0.045051277,-0.17524183,3.6644251,-48.843754,-11.137501,10.9125,0.07145762,-0.7362368,0.28406247,998.3649, , , , 
2026-03-19 21:05:51.146,6.1710896,-13.543376,-0.9379865,-0.053603385,-0.029856017,4.021781,-47.9625,-7.4437504,11.08125,0.042788118,-0.7393075,0.3076168,998.3649,37.88749812,127.73741457,174.3096923828125,1.34
2026-03-19 21:05:51.166,6.65444,-13.301702,-1.2490535,-0.105526894,0.010461059,4.2679596,-49.7625,-4.5375004,13.725,0.011485909,-0.7406936,0.33222964,998.3671, , , , 
2026-03-19 21:05:51.186,7.298109,-12.880565,-1.0480564,-0.23930627,0.0049632764,4.5391836,-48.9,-1.81875,12.39375,-0.022058858,-0.7409303,0.35679078,998.3671, , , , 
2026-03-19 21:05:51.206,8.035098,-12.452249,-0.6939186,-0.32849252,0.07154754,4.6845694,-50.100002,3.7687502,12.50625,-0.057385832,-0.73991096,0.38070098,998.36273, , , , 
2026-03-19 21:05:51.226,8.573483,-11.794223,-0.22253251,-0.41034842,0.18577924,4.776199,-47.025,6.8250003,13.556251,-0.09388826,-0.7370534,0.40347898,998.36273, , , , 
2026-03-19 21:05:51.246,9.516255,-11.578869,0.33738798,-0.46532625,0.39713848,4.9050913,-46.068752,9.918751,11.4375,-0.14098723,-0.730468,0.43011805,998.3637, , , , 
2026-03-19 21:05:51.266,11.4496565,-11.466406,0.31345975,-0.5013673,0.5938369,4.9472413,-45.61875,15.918751,13.81875,-0.17006856,-0.72447675,0.44516584,998.3637, , , , 
2026-03-19 21:05:51.286,14.5100765,-10.908878,0.5623133,-0.45494154,0.7074578,4.729773,-45.768753,18.768751,13.05,-0.21797639,-0.71170115,0.46761557,998.36224, , , , 
2026-03-19 21:05:51.307,16.840685,-9.336794,-0.23688944,-0.36453354,0.61888236,3.994292,-42.73125,22.181252,13.1625,-0.2520491,-0.700292,0.48258686,998.36224, , , , 
2026-03-19 21:05:51.326,17.391035,-8.216953,-1.3974084,-0.45188722,0.43012518,3.3021822,-41.49375,26.062502,12.187501,-0.27952904,-0.6906449,0.49344778,998.3669, , , , 
2026-03-19 21:05:51.346,16.563118,-7.798209,-0.20578274,-0.53252137,0.034284785,2.7047565,-41.1375,28.06875,14.512501,-0.30107847,-0.68431383,0.5004766,998.3669, , , , 
2026-03-19 21:05:51.366,16.845472,-6.439086,0.485743,-0.28512114,0.15095995,2.3009748,-38.193752,29.493752,13.81875,-0.321755,-0.678119,0.5081375,998.3564, , , , 
2026-03-19 21:05:51.386,16.764116,-5.986842,-0.13160525,-0.23136504,0.7263946,1.8788674,-36.862503,31.85625,14.775001,-0.33619684,-0.6718783,0.512171,998.3564, , , , 
2026-03-19 21:05:51.406,16.52244,-5.5298133,0.44745782,-0.11713332,0.94630593,1.4842488,-37.03125,32.34375,13.9875,-0.3500487,-0.66468793,0.5131146,998.3537, , , , 
2026-03-19 21:05:51.426,16.962719,-5.4436717,0.10767702,0.14859286,0.66958416,1.0132719,-34.5,33.24375,12.58125,-0.3601218,-0.6578331,0.51373553,998.3537, , , , 
2026-03-19 21:05:51.446,17.051254,-5.76431,-0.6867401,0.27992877,0.28473935,0.40607235,-34.0875,35.268753,12.431251,-0.36435235,-0.6531175,0.5146322,998.3576, , , , 
2026-03-19 21:05:51.466,16.747366,-6.62094,-0.95712906,0.2952004,-0.012140937,-0.03619374,-35.081253,33.693752,9.69375,-0.36327156,-0.6513385,0.5149364,998.3576, , , , 
2026-03-19 21:05:51.486,16.551155,-7.4033933,-0.49052864,0.3006982,-0.3334558,-0.4723512,-32.381252,35.475002,9.0,-0.35776362,-0.65248,0.51455456,998.35223, , , , 
2026-03-19 21:05:51.506,17.00579,-7.530213,-0.5838487,0.33124143,-0.49228066,-0.94149536,-34.912502,33.956253,11.6625,-0.34837443,-0.65568507,0.5137013,998.35223, , , , 
2026-03-19 21:05:51.526,17.079967,-8.054241,-0.27996024,0.21151192,-0.66820973,-1.589012,-34.18125,32.30625,9.20625,-0.33496487,-0.6612855,0.51089865,998.3581, , , , 
2026-03-19 21:05:51.546,16.074982,-10.320244,0.58624154,0.13820815,-1.0273982,-2.4509423,-33.600002,33.206253,11.56875,-0.31071767,-0.67304593,0.503299,998.3581, , , , 
2026-03-19 21:05:51.566,14.459827,-12.80878,0.8422736,0.031917684,-1.2082142,-2.9793403,-38.30625,31.10625,13.106251,-0.28517145,-0.6856797,0.49439514,998.36444, , , , 
2026-03-19 21:05:51.586,13.217953,-14.414364,2.184647,-0.017562363,-1.032896,-3.2884378,-36.7125,28.66875,11.231251,-0.25735706,-0.69900143,0.48309034,998.36444, , , , 
2026-03-19 21:05:51.607,12.940385,-14.983855,2.9120653,0.12476913,-0.7085268,-3.5529423,-41.30625,25.800001,14.962501,-0.22886464,-0.7106669,0.47016323,998.373, , , , 
2026-03-19 21:05:51.626,11.97847,-14.498113,2.2971098,0.35873035,-0.32795802,-3.84799,-40.125,22.087502,13.500001,-0.19929086,-0.71937007,0.45611775,998.373, , , , 
2026-03-19 21:05:51.646,10.66481,-14.117654,0.7178468,0.4668534,-0.122707464,-4.2474957,-43.818752,20.56875,14.2875,-0.16012979,-0.7264138,0.43670526,998.3869, , , , 
2026-03-19 21:05:51.666,8.389236,-13.907085,0.5838487,0.5212204,-0.17707443,-4.4069314,-48.7125,17.325,14.531251,-0.12661354,-0.7307176,0.4191706,998.3869, , , , 
2026-03-19 21:05:51.686,6.9559355,-13.093526,0.52163535,0.604298,-0.15263984,-4.2542152,-46.85625,14.925,13.687501,-0.09303158,-0.733496,0.40177187,998.3923, , , , 
2026-03-19 21:05:51.706,6.5228343,-12.100504,-0.1363909,0.6091849,0.16806418,-4.081951,-50.100002,9.618751,12.637501,-0.060637265,-0.73428255,0.38503632,998.3923, , , , 
2026-03-19 21:05:51.726,5.9820566,-11.172089,-0.8470592,0.5102248,0.9072105,-3.8999135,-51.468754,5.86875,13.931251,-0.031864222,-0.7311742,0.36795762,998.3969, , , , 
2026-03-19 21:05:51.746,6.1974106,-10.549955,-1.1246266,0.39538223,1.1228458,-3.8351617,-51.206253,4.8,11.175,-0.007003445,-0.724278,0.3501043,998.3969, , , , 
2026-03-19 21:05:51.770,5.1900325,-10.4566345,-1.2514462,0.39660397,0.60238904,-3.8718138,-53.062504,-0.8625,10.14375,0.023978556,-0.71536934,0.3265196,998.39594, , , , 
2026-03-19 21:05:51.786,3.9553359,-10.475778,-1.1413764,0.39538223,0.21998768,-3.7924013,-47.90625,-2.53125,5.3812504,0.043557253,-0.7114519,0.31210116,998.39594, , , , 
2026-03-19 21:05:51.808,2.4382863,-10.176675,-0.9595219,0.38072148,-0.16058108,-3.5443902,-49.125004,-5.55,7.8375,0.069781326,-0.70799804,0.29334286,998.3896, , , , 
2026-03-19 21:05:51.826,1.7084754,-10.332209,-0.8805587,0.2952004,-0.4012618,-3.2194102,-50.025,-10.6125,8.85,0.1006557,-0.70580256,0.27128226,998.3896, , , , 
2026-03-19 21:05:51.846,0.81834537,-10.657632,-0.7298109,0.20906848,-0.48617202,-2.8791585,-50.756252,-13.44375,9.243751,0.122655764,-0.70497614,0.25484303,998.38983, , , , 
2026-03-19 21:05:51.866,-0.36131623,-10.334601,-0.5982057,0.18829907,-0.58757555,-2.4124577,-49.18125,-13.5375,10.931251,0.14170259,-0.70485586,0.2402814,998.38983, , , , 
2026-03-19 21:05:51.886,-0.62931234,-10.004392,-1.2801601,0.113162704,-0.5112175,-1.7777692,-47.550003,-16.35,10.6125,0.1572727,-0.70564526,0.22863919,998.394, , , , 
2026-03-19 21:05:51.906,-0.86859465,-10.313066,-1.7324036,-0.13790272,0.0043524117,-1.1730131,-46.068752,-17.7,10.5375,0.16753165,-0.705936,0.21999542,998.394, , , , 
2026-03-19 21:05:51.926,-1.3806586,-10.870593,-1.457229,-0.366977,0.47716177,-0.40759954,-47.34375,-18.206251,11.306251,0.17048441,-0.7039689,0.21368738,998.3962, , , , 
2026-03-19 21:05:51.946,-1.3734802,-11.052447,-1.1724831,-0.43050694,0.498542,0.30527967,-44.86875,-19.800001,10.21875,0.16570732,-0.7020325,0.2130542,998.3962, , , , 
2026-03-19 21:05:51.967,-0.8039884,-10.619347,-1.3567305,-0.5031999,0.37026042,0.98700476,-46.706253,-18.6375,11.7375,0.155949,-0.7017652,0.21644549,998.39594, , , , 
2026-03-19 21:05:51.986,0.46660042,-10.576276,-0.91405827,-0.64247704,0.30550876,1.5453352,-49.55625,-19.050001,10.81875,0.14145997,-0.7032056,0.22283617,998.39594, , , , 
2026-03-19 21:05:52.006,1.524228,-10.889736,0.0071784677,-0.6760746,0.27374378,2.011425,-49.0125,-17.118752,10.200001,0.12282918,-0.7054739,0.23164968,998.39716, , , , 
2026-03-19 21:05:52.026,2.6273193,-11.789437,0.78723866,-0.534354,0.13691007,2.4506369,-50.925003,-16.44375,10.35,0.10138392,-0.7080882,0.24348153,998.39716, , , , 
2026-03-19 21:05:52.046,3.6179478,-12.354143,0.46660042,-0.2545779,-0.10071633,2.9289439,-51.61875,-15.525001,9.75,0.07860857,-0.711194,0.25922334,998.4111, , , , 
2026-03-19 21:05:52.066,5.0512486,-12.7393875,-0.35653058,-0.17150028,-0.29497132,3.263087,-51.91875,-12.806251,8.400001,0.05483651,-0.7148205,0.27847052,998.4111, , , , 
2026-03-19 21:05:52.087,5.663811,-13.052848,-0.22731815,-0.1262963,-0.3664425,3.5300348,-51.45,-9.01875,8.587501,0.02977325,-0.71875894,0.29950956,998.4196, , , , 
2026-03-19 21:05:52.106,6.317052,-13.103097,-0.61016977,-0.013897174,-0.42264208,3.927708,-51.750004,-6.8250003,9.1125,-0.00360679,-0.7225446,0.32844716,998.4196, , , , 
2026-03-19 21:05:52.127,7.125826,-12.880565,-1.1294123,-0.007788526,-0.49716756,4.1531167,-50.1375,-1.8937501,6.3562503,-0.024589583,-0.724091,0.34699944,998.4211, , , , 
2026-03-19 21:05:52.146,8.377272,-12.000006,-1.227518,-0.14584397,-0.46601346,4.27529,-50.850002,1.35,10.25625,-0.06087295,-0.72578084,0.3776479,998.4211,37.88748227,127.73742527,173.7899169921875,1.33
2026-03-19 21:05:52.166,9.212367,-11.30848,-0.62452674,-0.31810784,-0.18379395,4.258186,-51.018753,4.93125,11.306251,-0.09129509,-0.7253914,0.40003768,998.4128, , , , 
2026-03-19 21:05:52.186,8.925228,-10.748559,0.076570325,-0.39752024,0.16317725,4.260629,-50.193752,9.0,10.9875,-0.12280981,-0.7226133,0.42010042,998.4128, , , , 
2026-03-19 21:05:52.206,9.379865,-10.540383,-0.27517462,-0.51236284,0.6482039,4.362033,-50.287502,12.225,11.887501,-0.15617332,-0.71673936,0.43863615,998.4018, , , , 
2026-03-19 21:05:52.226,10.542776,-10.382458,-0.09092726,-0.6345358,0.84795666,4.3602,-47.25,18.50625,11.212501,-0.19185467,-0.7081616,0.4549525,998.4018, , , , 
2026-03-19 21:05:52.246,12.313465,-9.946963,0.0526421,-0.6052143,0.8534545,4.1415105,-47.53125,21.46875,11.231251,-0.23576304,-0.6954858,0.47236085,998.4001, , , , 
2026-03-19 21:05:52.266,13.354343,-9.250652,-0.10049855,-0.59666216,0.7624356,3.8537931,-43.443752,24.243752,10.5,-0.2601101,-0.68756384,0.4813837,998.4001, , , , 
2026-03-19 21:05:52.286,13.387843,-8.518449,-0.28713873,-0.64064443,0.6237693,3.370599,-42.881252,27.16875,11.34375,-0.296074,-0.67528886,0.49337816,998.3942, , , , 
2026-03-19 21:05:52.308,13.153346,-7.893922,0.37328035,-0.7499892,0.50342894,2.9381068,-41.268753,29.94375,10.2375,-0.3209313,-0.66713053,0.5001528,998.3942, , , , 
2026-03-19 21:05:52.326,13.521841,-7.367501,1.4548361,-0.7628174,0.6164389,2.5007277,-39.7125,31.968752,11.19375,-0.34299412,-0.66014683,0.5044566,998.38666, , , , 
2026-03-19 21:05:52.346,13.294522,-7.051648,2.629712,-0.6003274,0.76610076,2.0407465,-38.643753,33.581253,10.6875,-0.3623595,-0.6533629,0.50629705,998.38666, , , , 
2026-03-19 21:05:52.366,13.191631,-7.6570325,3.0652058,-0.16294818,0.6958513,1.7524183,-35.90625,34.8375,11.56875,-0.37824285,-0.6460111,0.50762427,998.38055, , , , 
2026-03-19 21:05:52.386,15.000606,-7.702496,1.2634103,0.40882125,0.223042,1.4805835,-36.412502,35.287502,11.90625,-0.3913795,-0.6357108,0.51300216,998.38055, , , , 
2026-03-19 21:05:52.408,17.079967,-7.499106,-1.0336994,0.51327914,-0.09888373,1.0163263,-35.0625,36.16875,11.55,-0.3953515,-0.62914866,0.51957244,998.3903, , , , 
2026-03-19 21:05:52.426,18.082561,-8.236095,-1.8687944,0.25854853,-0.19601123,0.36270097,-34.29375,37.537502,8.00625,-0.39502677,-0.6263899,0.5236366,998.3903, , , , 
2026-03-19 21:05:52.446,17.58246,-8.700303,-0.30149564,0.020922119,-0.28092143,-0.31902415,-33.43125,37.48125,8.53125,-0.39148772,-0.6278797,0.5235673,998.3669, , , , 
2026-03-19 21:05:52.466,17.534605,-8.525627,1.1150553,0.074067354,-0.41042477,-0.8657481,-33.43125,37.48125,8.53125,-0.3841493,-0.6322649,0.52110785,998.3669, , , , 
2026-03-19 21:05:52.486,16.80958,-8.477771,2.2492533,0.2921461,-0.55092365,-1.719737,-33.46875,35.756252,7.8562503,-0.37130034,-0.6388425,0.5172927,998.363, , , , 
2026-03-19 21:05:52.506,15.433706,-9.635897,1.591227,0.40088,-0.6101776,-2.4937027,-35.737503,36.131252,8.38125,-0.35237753,-0.64715385,0.5117209,998.363, , , , 
2026-03-19 21:05:52.526,13.931013,-11.229517,1.7467605,0.38683012,-0.8759037,-3.0453136,-35.925003,34.5,8.6625,-0.32832634,-0.65750134,0.503714,998.3715, , , , 
2026-03-19 21:05:52.546,13.533805,-12.806387,2.914458,0.41431904,-1.1202496,-3.5095708,-38.625,31.35,9.1125,-0.29204857,-0.6731078,0.49164152,998.3715, , , , 
2026-03-19 21:05:52.566,13.129417,-13.914264,3.1345978,0.5358811,-0.9724204,-3.915796,-42.61875,29.812502,10.387501,-0.25914916,-0.6854815,0.4802694,998.38104, , , , 
2026-03-19 21:05:52.586,12.354143,-14.313865,1.9573289,0.5780308,-0.6150645,-4.304306,-41.04375,26.737501,10.25625,-0.2243784,-0.6959255,0.4666587,998.38104, , , , 
2026-03-19 21:05:52.606,11.787045,-14.426328,2.115255,0.5175552,-0.40187266,-4.70992,-46.800003,20.04375,11.231251,-0.1888342,-0.70448315,0.44982383,998.3974, , , , 
2026-03-19 21:05:52.626,8.090134,-14.574683,3.2566316,0.7509055,-0.80321085,-4.9664836,-48.99375,18.581251,10.931251,-0.15061001,-0.71191,0.43037242,998.3974, , , , 
2026-03-19 21:05:52.646,4.615755,-13.8353,1.9405792,1.1198678,-1.2326487,-4.585304,-50.7,15.281251,12.075001,-0.10896601,-0.7186346,0.41315678,998.403, , , , 
2026-03-19 21:05:52.666,4.5942197,-12.433106,-0.634098,0.9121738,-1.1129192,-3.9548912,-50.381252,9.6,11.587501,-0.06879573,-0.72431445,0.39963844,998.403, , , , 
2026-03-19 21:05:52.686,5.9342003,-10.360922,-1.4668003,0.3434587,-0.04818196,-3.44543,-51.05625,6.39375,13.70625,-0.029047135,-0.7281966,0.38209754,998.4128, , , , 
2026-03-19 21:05:52.706,6.3960147,-9.272188,0.25603202,0.12171481,0.56695884,-3.3391397,-52.66875,4.3500004,15.225,-0.0060400898,-0.7264462,0.36537388,998.4128, , , , 
2026-03-19 21:05:52.726,6.9726853,-9.19801,0.15074782,0.28909177,0.32994333,-3.513236,-48.581253,1.06875,11.418751,0.016098615,-0.72259486,0.3481489,998.4018, , , , 
2026-03-19 21:05:52.746,5.3144593,-9.286545,-1.1102697,0.3251328,0.059941106,-3.6256351,-50.49375,-1.9687501,10.40625,0.04104713,-0.7191723,0.33044937,998.4018, , , , 
2026-03-19 21:05:52.766,3.6634114,-9.190832,-2.0338993,0.15958843,-0.07506001,-3.5847073,-49.3875,-4.6875,6.7312503,0.06671018,-0.7166392,0.31183493,998.4035, , , , 
2026-03-19 21:05:52.786,2.2420747,-9.891929,-2.2037897,-0.15500695,-0.12637265,-3.4032805,-48.975002,-6.7875004,9.6,0.0905813,-0.71475554,0.29199147,998.4035, , , , 
2026-03-19 21:05:52.808,1.2753744,-11.035698,-0.20338993,-0.3254382,-0.29985824,-3.0642505,-48.73125,-10.5,11.475,0.110870354,-0.7136819,0.2713869,998.383, , , , 
2026-03-19 21:05:52.826,0.82313097,-10.923235,2.184647,0.050854493,-0.88445586,-2.5462372,-48.2625,-14.812501,10.293751,0.13323694,-0.7143288,0.24887641,998.383, , , , 
2026-03-19 21:05:52.846,0.45942193,-10.829915,1.4333007,0.649502,-1.2302053,-2.0477715,-46.575,-15.656251,12.937501,0.15198728,-0.7169043,0.23718056,998.392, , , , 
2026-03-19 21:05:52.867,0.2009971,-11.200803,-2.120041,0.8168789,-1.2143228,-1.426522,-47.0625,-18.69375,14.700001,0.17039281,-0.72032905,0.23149733,998.392, , , , 
2026-03-19 21:05:52.887,0.009571291,-11.796616,-3.993621,0.41615164,-1.01457,-0.9195042,-45.15,-17.8875,15.543751,0.18415356,-0.72449523,0.22866756,998.4062, , , , 
2026-03-19 21:05:52.906,-0.46181476,-12.306287,-3.3667014,-0.20815217,-0.46906778,-0.22128576,-41.737503,-17.550001,16.237501,0.18980831,-0.7290925,0.2262539,998.4062, , , , 
2026-03-19 21:05:52.926,-1.7156538,-12.576675,-2.0578275,-0.53863,0.20044,0.5270236,-44.8875,-19.368752,16.6875,0.18658778,-0.7322778,0.22556679,998.3991, , , , 
2026-03-19 21:05:52.946,-1.538585,-12.277573,-0.997807,-0.69378966,0.5803979,1.4091123,-44.550003,-17.081251,14.962501,0.17468822,-0.73376006,0.2289345,998.3991, , , , 
2026-03-19 21:05:52.968,0.8470592,-11.983255,0.11006984,-0.72555465,0.7795398,2.287536,-46.03125,-18.6,15.675,0.14957157,-0.7348984,0.23966493,998.40497, , , , 
2026-03-19 21:05:52.986,2.6416762,-11.779866,1.0983056,-0.6046034,0.7917571,2.658331,-47.11875,-17.56875,13.575001,0.124402046,-0.7352922,0.25241867,998.40497, , , , 
2026-03-19 21:05:53.006,4.1180477,-12.069397,1.1629118,-0.2942841,0.8027527,2.8892376,-47.4375,-14.137501,13.725,0.09809306,-0.7347318,0.26843318,998.40497, , , , 
2026-03-19 21:05:53.026,4.4745784,-12.473784,-0.552742,-0.114689864,0.89499325,3.1616833,-51.037502,-13.125001,12.95625,0.07174657,-0.73264444,0.28741613,998.40497, , , , 
2026-03-19 21:05:53.046,4.76411,-12.842279,-2.0027926,-0.28084508,1.1521673,3.5037677,-49.537502,-9.46875,10.89375,0.043423098,-0.72945654,0.30792415,998.4228, , , , 
2026-03-19 21:05:53.066,5.3383875,-13.380664,-2.6991038,-0.787252,1.6787328,3.9289296,-48.787502,-6.6375003,9.4125,0.009705805,-0.7242771,0.32815203,998.4228, , , , 
2026-03-19 21:05:53.087,7.429714,-13.024134,-0.701097,-1.2282964,1.5211296,4.2740684,-50.343754,-3.5625002,8.175,-0.041834515,-0.7156177,0.35063523,998.41254, , , , 
2026-03-19 21:05:53.106,9.492328,-12.016755,0.8566305,-1.2001966,0.86933696,4.2233663,-52.593754,-0.1875,8.3625,-0.08374821,-0.70987743,0.36703008,998.41254, , , , 
2026-03-19 21:05:53.126,10.07139,-10.956735,1.3974084,-0.949742,0.16623157,3.9949028,-51.037502,3.0,5.2312503,-0.120582014,-0.7063031,0.3830505,998.40155, , , , 
2026-03-19 21:05:53.146,9.19801,-9.987641,0.34217364,-0.8623884,0.0410043,3.8385215,-48.750004,5.4750004,3.4687502,-0.1522338,-0.70403457,0.398923,998.40155,37.88746421,127.73743416,173.49151611328125,1.29
2026-03-19 21:05:53.166,9.190832,-9.41815,-0.46899325,-1.0920736,0.50465065,3.9215991,-49.612503,10.950001,7.7250004,-0.18417448,-0.70023215,0.41318792,998.41205, , , , 
2026-03-19 21:05:53.186,9.839287,-8.717052,0.76331043,-1.4402665,0.9518037,3.8403542,-47.568752,14.418751,5.925,-0.21972828,-0.6938272,0.42362583,998.41205, , , , 
2026-03-19 21:05:53.208,9.997213,-8.889337,1.6199409,-1.4366013,0.8717804,3.7578874,-47.9625,15.468751,8.0625,-0.24683277,-0.68814707,0.42931038,998.41205, , , , 
2026-03-19 21:05:53.226,11.076376,-9.499506,2.359323,-1.0725259,0.06421716,3.54775,-45.73125,18.975,4.2375,-0.28742778,-0.6791943,0.43927622,998.4101, , , , 
2026-03-19 21:05:53.246,11.980863,-8.961121,2.1559331,-0.70661783,-0.612621,3.3986988,-43.74375,22.63125,7.9875,-0.318848,-0.6724423,0.45304587,998.41327, , , , 
2026-03-19 21:05:53.266,13.083954,-8.049456,1.9884356,-0.5044216,-0.6590467,3.2301002,-43.425003,24.7875,6.2812505,-0.338706,-0.66777843,0.46601844,998.41327, , , , 
2026-03-19 21:05:53.286,14.012369,-6.943971,2.6153553,-0.31749696,-0.36766425,2.879464,-41.737503,27.656252,10.425,-0.35633665,-0.66209584,0.47784,998.4211, , , , 
2026-03-19 21:05:53.306,15.560526,-6.3792653,2.7349963,0.04291325,-0.24488042,2.4921756,-40.425003,28.931252,8.83125,-0.37125278,-0.6551374,0.48843777,998.4211, , , , 
2026-03-19 21:05:53.327,17.316858,-6.4438715,1.2370893,0.39660397,-0.10560325,2.056629,-39.037502,30.806252,9.65625,-0.3819708,-0.64723516,0.49881333,998.4235, , , , 
2026-03-19 21:05:53.346,17.848064,-6.6975107,-1.6797615,0.43447757,0.08315397,1.3767365,-35.9625,33.0,9.356251,-0.38867125,-0.6395737,0.5072892,998.4235, , , , 
2026-03-19 21:05:53.367,18.005991,-6.769295,-2.792424,0.08384119,0.13629921,0.8342886,-36.05625,32.362503,8.025001,-0.39286283,-0.6345216,0.5118226,998.4113, , , , 
2026-03-19 21:05:53.386,17.840885,-7.200003,-1.3663018,-0.4243983,0.20288347,0.14462224,-33.28125,34.40625,6.8437505,-0.39605498,-0.6338672,0.5101006,998.4113, , , , 
2026-03-19 21:05:53.406,17.19961,-7.783852,1.6007984,-0.4506655,0.13202316,-0.40515608,-34.631252,35.11875,8.325001,-0.39586103,-0.63723606,0.50411433,998.3908, , , , 
2026-03-19 21:05:53.426,16.766508,-7.960921,3.3810585,-0.10063997,-0.09705114,-0.9488257,-33.375,33.393753,8.45625,-0.3909125,-0.64186877,0.49788842,998.3908, , , , 
2026-03-19 21:05:53.446,16.287943,-8.365308,3.6083765,0.43875363,-0.4916698,-1.6684245,-34.425003,34.0125,9.450001,-0.3791366,-0.64744365,0.49322122,998.39594, , , , 
2026-03-19 21:05:53.466,15.081961,-9.671789,2.7421749,0.69348425,-0.7983239,-2.2908957,-35.643753,32.287502,8.75625,-0.3595946,-0.6546577,0.48954841,998.39594, , , , 
2026-03-19 21:05:53.486,13.138989,-11.99522,2.4478576,0.81138116,-1.2069924,-2.8418956,-36.9375,31.66875,7.6875005,-0.33355168,-0.6641548,0.4855614,998.3984, , , , 
2026-03-19 21:05:53.506,11.913864,-13.208381,2.5292134,0.8462004,-1.2491422,-3.124726,-40.2,29.325,8.925,-0.30344245,-0.6749435,0.48099196,998.3984, , , , 
2026-03-19 21:05:53.527,11.030912,-14.134403,2.6344976,0.8816306,-1.0707695,-3.305542,-41.081253,25.743752,9.69375,-0.27184406,-0.6851198,0.47507504,998.3996, , , , 
2026-03-19 21:05:53.546,10.691132,-14.297115,1.9645073,0.9604322,-0.8740711,-3.423439,-43.350002,24.6375,9.69375,-0.23183365,-0.6954482,0.4660886,998.3996, , , , 
2026-03-19 21:05:53.566,10.803595,-13.454842,0.8709874,0.9005674,-0.60345805,-3.630522,-45.2625,22.575,11.25,-0.19971527,-0.7018193,0.45717224,998.3962, , , , 
2026-03-19 21:05:53.586,10.018748,-12.976277,0.47377887,0.75212723,-0.47151124,-3.956113,-45.54375,19.6875,10.05,-0.16732576,-0.70722604,0.44517592,998.3962, , , , 
2026-03-19 21:05:53.606,8.463413,-12.722638,0.51206404,0.6562215,-0.24182609,-4.0850053,-46.78125,15.712501,9.7875,-0.13443278,-0.71189505,0.4303763,998.40594, , , , 
2026-03-19 21:05:53.626,7.3986077,-12.134004,0.63170516,0.6348412,-0.019471316,-4.0660686,-49.18125,12.58125,10.9875,-0.10261881,-0.714518,0.41396344,998.40594, , , , 
2026-03-19 21:05:53.646,6.704689,-11.595618,0.56470615,0.70753413,0.039171703,-3.9664977,-49.800003,9.4125,10.14375,-0.07189279,-0.714978,0.3971965,998.4079, , , , 
2026-03-19 21:05:53.666,7.3363943,-11.339586,-0.124426775,0.71425366,-0.13370302,-4.0037603,-50.250004,6.6375003,11.2875,-0.03365383,-0.7140409,0.37655017,998.4079, , , , 
2026-03-19 21:05:53.686,7.0492554,-11.265409,-0.73459655,0.6488911,-0.21861324,-4.08806,-51.99375,4.4625,10.5,-0.017925913,-0.71372604,0.3678654,998.4079, , , , 
2026-03-19 21:05:53.706,5.0273204,-11.229517,-1.4763715,0.27931792,-0.10682498,-4.0941687,-47.5875,0.58125,7.33125,0.028426396,-0.7127698,0.3384734,998.4047, , , , 
2026-03-19 21:05:53.726,3.7423747,-11.253445,-1.1078769,-0.056046844,0.22853978,-3.906633,-48.375004,-3.8625002,8.90625,0.055300575,-0.7108466,0.3165286,998.39764, , , , 
2026-03-19 21:05:53.746,2.6823542,-11.466406,0.5024927,-0.1470657,0.42035133,-3.631744,-47.71875,-7.2562504,7.33125,0.077918954,-0.7069225,0.29410467,998.39764, , , , 
2026-03-19 21:05:53.766,1.7850457,-11.08834,0.93320084,0.0050396346,0.33299765,-3.2988226,-47.04375,-10.5375,6.675,0.09847863,-0.7019347,0.27343366,998.40594, , , , 
2026-03-19 21:05:53.786,1.3208381,-11.502298,-0.85902333,-0.043218683,0.8436806,-2.8443391,-47.79375,-12.750001,7.65,0.1211996,-0.694018,0.25167683,998.40594, , , , 
2026-03-19 21:05:53.806,-0.3397808,-12.126825,-1.524228,-0.2942841,1.2835033,-2.2139268,-47.475002,-16.3125,6.43125,0.13287523,-0.6848211,0.23710799,998.403, , , , 
2026-03-19 21:05:53.826,-0.82313097,-11.787045,-0.1794617,-0.32849252,0.9689079,-1.6678135,-47.081253,-17.268751,5.83125,0.13748895,-0.6778391,0.22817682,998.403, , , , 
2026-03-19 21:05:53.846,-1.3519448,-10.727024,0.31106696,0.0368046,0.050778136,-1.1363612,-46.4625,-17.94375,5.34375,0.14350896,-0.6714094,0.21787201,998.4035, , , , 
2026-03-19 21:05:53.873,-1.5984055,-10.853844,-1.3256238,0.18585561,-0.42691812,-0.6226239,-44.100002,-19.3125,4.8562503,0.14884114,-0.67155856,0.21411939,998.4035, , , , 
2026-03-19 21:05:53.886,-1.3160524,-11.210374,-2.6009982,-0.012064579,-0.517937,0.08414663,-45.975002,-19.7625,5.8500004,0.15122126,-0.6748601,0.21369666,998.403, , , , 
2026-03-19 21:05:53.906,-0.8877372,-10.466207,-2.3138595,-0.3413207,-0.18807,0.8153518,-46.537502,-20.325,6.5625005,0.14750995,-0.67937493,0.21616054,998.403, , , , 
2026-03-19 21:05:53.926,-0.2943172,-10.243673,-1.6917256,-0.60949033,0.34032804,1.4811944,-46.875,-19.96875,5.49375,0.13616562,-0.68263596,0.22178295,998.39813, , , , 
2026-03-19 21:05:53.946,0.53599226,-10.7126665,-0.7752745,-0.72188944,0.5315287,2.1507022,-48.206253,-18.393751,8.025001,0.1127321,-0.68406546,0.23349704,998.39813, , , , 
2026-03-19 21:05:53.966,1.4691931,-11.507084,-0.4642076,-0.64003354,0.23953535,2.6149595,-48.881252,-16.06875,5.64375,0.095572814,-0.6850956,0.24315079,998.4108, , , , 
2026-03-19 21:05:53.986,2.9168508,-12.524034,-0.8207382,-0.48609564,-0.45623964,3.2026112,-49.912502,-15.431251,5.55,0.064878136,-0.6902908,0.26388773,998.4108, , , , 
2026-03-19 21:05:54.008,4.7018967,-13.2921295,-1.2083755,-0.46043932,-0.86490816,3.7041314,-48.43125,-11.043751,4.6875,0.038859084,-0.6978285,0.28415242,998.41425, , , , 
2026-03-19 21:05:54.026,5.749953,-13.643875,-0.59342,-0.5056433,-0.82886714,4.102415,-50.325,-10.14375,6.6937504,0.0104870405,-0.70584774,0.30635452,998.41425, , , , 
2026-03-19 21:05:54.046,6.927222,-13.624732,0.124426775,-0.41034842,-0.68959,4.4713774,-51.187504,-6.4875,5.7937503,-0.020628598,-0.7119528,0.33028477,998.41473, , , , 
2026-03-19 21:05:54.066,8.489735,-13.045669,0.4953143,-0.21487169,-0.5936842,4.709004,-51.187504,-2.7562501,7.1250005,-0.05331166,-0.7151694,0.35619274,998.41473, , , , 
2026-03-19 21:05:54.086,9.894321,-12.263216,-0.0526421,-0.04016436,-0.49900016,4.7022843,-50.60625,0.90000004,7.6312504,-0.09348655,-0.71524566,0.3899249,998.4152, , , , 
2026-03-19 21:05:54.106,9.707682,-12.004791,-0.10767702,-0.025503604,-0.34506226,4.6381435,-49.518753,7.8375,9.28125,-0.12434536,-0.71270573,0.41580078,998.4152, , , , 
2026-03-19 21:05:54.126,9.667004,-12.177074,0.1363909,-0.084757484,0.1918879,4.789027,-49.800003,11.025001,11.137501,-0.15628718,-0.70714474,0.4403412,998.4001, , , , 
2026-03-19 21:05:54.146,11.636296,-11.344372,0.22013968,-0.29184064,0.7917571,4.7303843,-45.54375,15.225,9.056251,-0.19135173,-0.69742155,0.46266153,998.4001,37.88744708,127.73744248,173.8515625,1.22
2026-03-19 21:05:54.166,12.533605,-10.679168,0.6029913,-0.44089165,0.95974493,4.3815804,-44.68125,19.650002,10.875,-0.22705787,-0.68553084,0.4804786,998.3879, , , , 
2026-03-19 21:05:54.186,12.806387,-10.076176,0.41635114,-0.42500916,0.76610076,3.9167123,-42.9375,22.95,8.34375,-0.25984776,-0.6735778,0.4945493,998.3879, , , , 
2026-03-19 21:05:54.206,12.679567,-9.686146,-0.19142582,-0.48365217,0.40752316,3.4964373,-39.2625,26.587502,6.525,-0.28802648,-0.6631014,0.50644803,998.3752, , , , 
2026-03-19 21:05:54.226,12.320643,-9.195618,-0.08853444,-0.583834,0.19921827,3.1879506,-38.925003,31.312502,9.150001,-0.31198448,-0.6550052,0.5162293,998.3752, , , , 
2026-03-19 21:05:54.246,12.437892,-8.2456665,1.308874,-0.6308706,0.20899211,2.8733552,-39.35625,30.768751,11.08125,-0.3385194,-0.64671654,0.5255721,998.3742, , , , 
2026-03-19 21:05:54.266,13.490734,-7.9034934,2.359323,-0.38591382,0.13935353,2.580751,-35.831253,32.1375,9.39375,-0.35700798,-0.6399906,0.53199464,998.3742, , , , 
2026-03-19 21:05:54.286,14.421542,-7.719246,2.0147567,0.0050396346,-0.075670876,2.241721,-36.2625,35.193752,10.03125,-0.3710839,-0.6328814,0.5392606,998.38495, , , , 
2026-03-19 21:05:54.306,16.118053,-7.735996,0.44745782,0.29764387,-0.4079813,1.7597487,-34.55625,35.60625,10.462501,-0.3797601,-0.6263318,0.54780513,998.38495, , , , 
2026-03-19 21:05:54.326,18.084953,-7.783852,-0.7369894,0.20295982,-0.52709997,1.2588396,-32.15625,38.100002,9.900001,-0.3835932,-0.6218463,0.5557695,998.3786, , , , 
2026-03-19 21:05:54.346,20.16671,-7.4440713,0.11724831,-0.0151189035,-0.5399281,0.51175195,-28.968752,38.456253,7.3875003,-0.3838502,-0.6209276,0.5605827,998.3786, , , , 
2026-03-19 21:05:54.366,20.092531,-7.893922,1.4955142,-0.06520981,-0.27420193,-0.41920596,-29.60625,37.631252,9.20625,-0.37976408,-0.62381524,0.56090355,998.3732, , , , 
2026-03-19 21:05:54.386,17.754744,-8.5423765,2.2372892,0.18585561,0.223042,-1.2102759,-28.2,38.53125,6.525,-0.3696761,-0.62912905,0.5557339,998.3732, , , , 
2026-03-19 21:05:54.406,16.364513,-8.257631,1.5361922,0.4320341,0.38858637,-1.7716606,-31.837502,36.54375,7.65,-0.3587995,-0.6322894,0.549291,998.3852, , , , 
2026-03-19 21:05:54.428,15.670595,-8.420342,0.4354937,0.52671814,0.18639012,-2.4020731,-34.237503,35.775,9.95625,-0.34772888,-0.63518476,0.5435849,998.3852, , , , 
2026-03-19 21:05:54.446,12.780066,-10.403993,0.016749758,0.3978257,-0.32184938,-3.2206318,-34.818752,34.237503,9.168751,-0.32162106,-0.64409286,0.5312422,998.37274, , , , 
2026-03-19 21:05:54.466,10.777273,-11.684153,0.82313097,0.30802858,-0.5576432,-3.4527605,-37.706253,32.30625,9.731251,-0.29559302,-0.65459895,0.5191942,998.37274, , , , 
2026-03-19 21:05:54.487,10.332209,-13.10549,1.6199409,0.29642212,-0.6413317,-3.5596619,-39.037502,30.075,9.075001,-0.2609852,-0.66811824,0.5029626,998.3752, , , , 
2026-03-19 21:05:54.506,10.753345,-13.543376,1.9453648,0.38011062,-0.8105412,-3.662287,-40.18125,27.337502,9.825001,-0.23929247,-0.67579657,0.4929179,998.3752, , , , 
2026-03-19 21:05:54.527,11.511869,-13.430914,1.294517,0.46807513,-1.0713805,-3.9164069,-44.71875,24.50625,10.14375,-0.20781557,-0.6860402,0.4794882,998.3759, , , , 
2026-03-19 21:05:54.546,11.246266,-13.5074835,1.1102697,0.3593412,-1.1623993,-4.3647814,-44.775,22.743752,10.725,-0.16403095,-0.69945395,0.4600757,998.3759, , , , 
2026-03-19 21:05:54.566,8.496913,-13.751552,2.359323,0.42164943,-1.4207951,-4.6134033,-48.05625,18.16875,11.325001,-0.12585334,-0.71027976,0.4416196,998.38617, , , , 
2026-03-19 21:05:54.586,7.2693954,-13.234702,1.4979069,0.51266825,-1.3731476,-4.310415,-48.43125,13.63125,13.931251,-0.08671849,-0.71978647,0.42373732,998.38617, , , , 
2026-03-19 21:05:54.606,7.2957163,-11.992827,0.2416751,0.39171705,-0.9082796,-4.061793,-47.475002,11.75625,12.543751,-0.050161395,-0.72691584,0.40655214,998.3984, , , , 
2026-03-19 21:05:54.626,7.8604226,-11.117054,-0.78723866,0.058795735,0.04344776,-3.838827,-49.875004,8.64375,13.593751,-0.019344622,-0.7300299,0.38820368,998.3984, , , , 
2026-03-19 21:05:54.646,8.518449,-10.535598,0.5072784,-0.14889829,0.6164389,-3.8712027,-50.175003,3.5062501,13.931251,0.010758238,-0.72752714,0.36193973,998.38837, , , , 
2026-03-19 21:05:54.666,7.9369926,-10.607383,0.99302137,0.01847866,0.26885685,-4.077064,-47.756252,0.056250002,10.63125,0.029133016,-0.7248884,0.34532693,998.38837, , , , 
2026-03-19 21:05:54.686,5.206782,-10.480563,0.6556334,0.23900084,-0.22899793,-4.091114,-49.0125,-2.68125,9.525001,0.06411262,-0.7214478,0.3177759,998.38837, , , , 
2026-03-19 21:05:54.706,3.5724843,-10.135997,0.014356935,0.28359398,-0.5295434,-3.803397,-49.143753,-5.3250003,11.08125,0.09310964,-0.71993846,0.2970584,998.38837, , , , 
2026-03-19 21:05:54.726,2.7732813,-10.131211,-0.6939186,0.19013166,-0.35666868,-3.4484844,-47.8875,-8.55,11.137501,0.119903564,-0.7186311,0.27778497,998.38763, , , , 
2026-03-19 21:05:54.746,2.1966112,-10.77488,-1.0049855,-0.021838415,0.14179699,-2.9817836,-46.331253,-13.012501,12.76875,0.14207882,-0.7155575,0.2600054,998.38763, , , , 
2026-03-19 21:05:54.766,1.430908,-11.112268,-0.74177504,-0.075594515,0.32322383,-2.5321872,-45.65625,-14.700001,14.175,0.15912032,-0.71060646,0.2442381,998.4018, , , , 
2026-03-19 21:05:54.786,0.40917268,-11.207981,-0.8446664,-0.060322896,0.16195552,-2.0618215,-44.53125,-16.44375,12.918751,0.17259489,-0.7056718,0.23121278,998.4018, , , , 
2026-03-19 21:05:54.806,-0.45224348,-12.279965,-1.3519448,-0.17150028,-0.03718639,-1.4931062,-43.95,-18.84375,10.837501,0.18498735,-0.70217645,0.2184386,998.40326, , , , 
2026-03-19 21:05:54.826,-1.5960127,-13.610375,-1.2658032,-0.24113888,-0.11476622,-0.8804089,-42.24375,-20.41875,11.83125,0.19014461,-0.70157945,0.21126942,998.40326, , , , 
2026-03-19 21:05:54.846,-3.1154552,-12.68196,-1.6965113,-0.28328854,-0.2277762,-0.07773254,-42.037502,-22.3875,11.15625,0.19047135,-0.7030422,0.20819111,998.4123, , , , 
2026-03-19 21:05:54.866,-3.1082766,-11.454442,-1.8257236,-0.5404626,-5.345067E-4,0.8135192,-44.475002,-20.53125,13.312501,0.18428196,-0.7062664,0.20938899,998.4123, , , , 
2026-03-19 21:05:54.886,-1.4979069,-11.018949,-0.4019942,-0.72372204,0.4191296,1.6809472,-45.45,-20.38125,11.55,0.17003942,-0.70923066,0.21469271,998.41156, , , , 
2026-03-19 21:05:54.906,0.03589234,-11.478371,0.33738798,-0.6210968,0.50281805,2.2356124,-47.287502,-19.3125,11.681251,0.1499553,-0.7111096,0.2242821,998.41156, , , , 
2026-03-19 21:05:54.926,1.3663018,-12.547962,0.11246266,-0.3901899,0.25663957,2.6968153,-47.86875,-16.3875,11.71875,0.1271545,-0.71305454,0.2381006,998.4284, , , , 
2026-03-19 21:05:54.946,2.5603201,-13.53859,-0.8111669,-0.20326525,-0.1862374,3.2698064,-50.1375,-16.125,10.556251,0.09673927,-0.71759546,0.26100168,998.4284, , , , 
2026-03-19 21:05:54.968,4.54397,-14.328222,-1.5122639,-0.24358234,-0.42875072,3.7542222,-49.3875,-12.543751,9.20625,0.06994689,-0.7232983,0.2827927,998.42914, , , , 
2026-03-19 21:05:54.986,6.0658054,-14.323437,-0.95473623,-0.31994042,-0.3701077,4.143954,-47.568752,-11.493751,8.94375,0.03989341,-0.72901654,0.30605504,998.42914, , , , 
2026-03-19 21:05:55.006,7.1569324,-13.777873,-0.13160525,-0.2784016,-0.17279838,4.428617,-49.425003,-7.4625,10.762501,0.0070307897,-0.7326303,0.33043048,998.4328, , , , 
2026-03-19 21:05:55.026,8.185846,-13.028919,-0.078963146,-0.1385136,-0.056734066,4.5697265,-51.16875,-3.16875,10.087501,-0.027037451,-0.7333724,0.35579905,998.4328, , , , 
2026-03-19 21:05:55.046,8.848659,-12.421143,-1.3160524,-0.1574504,0.09353867,4.5947723,-51.393753,1.7625,12.918751,-0.061023217,-0.7316972,0.3811512,998.42523, , , , 
2026-03-19 21:05:55.066,8.685946,-12.21536,-1.4835501,-0.31199917,0.17783801,4.6289806,-51.05625,4.9125004,12.69375,-0.09560226,-0.72825795,0.40468952,998.42523, , , , 
2026-03-19 21:05:55.086,9.365508,-12.019148,-1.1940185,-0.48365217,0.118584126,4.816516,-50.41875,8.08125,13.218751,-0.14036229,-0.72245264,0.43177304,998.4069, , , , 
2026-03-19 21:05:55.106,11.420942,-11.696117,-0.68195444,-0.67851806,0.2352593,4.8177376,-48.281254,13.5375,12.69375,-0.17730731,-0.71668947,0.4513998,998.4069, , , , 
2026-03-19 21:05:55.128,13.24188,-11.406586,-0.021535404,-0.7976367,0.6921862,4.538573,-45.037502,18.09375,13.781251,-0.21442236,-0.7091095,0.46754116,998.40155, , , , 
2026-03-19 21:05:55.146,13.672588,-11.152946,0.10767702,-0.82329303,0.8894955,4.288118,-43.78125,19.85625,12.01875,-0.25081402,-0.69933724,0.4798782,998.40155,37.88742388,127.73744968,173.6783447265625,1.32
2026-03-19 21:05:55.166,14.660825,-10.04507,0.09571291,-0.85200363,0.80519617,3.945423,-45.075,22.95,12.900001,-0.28496274,-0.68889123,0.4895031,998.3952, , , , 
2026-03-19 21:05:55.186,15.290136,-7.9106717,0.41635114,-0.9772309,0.909654,3.3412776,-40.5,25.1625,11.212501,-0.31550398,-0.67929476,0.49608985,998.3952, , , , 
2026-03-19 21:05:55.206,14.828321,-6.7645097,1.7228323,-1.0664172,1.0984112,2.77073,-39.318752,28.893751,11.793751,-0.34308103,-0.67063636,0.49819928,998.3886, , , , 
2026-03-19 21:05:55.226,14.601004,-6.6161547,3.4695928,-0.77503467,1.0104467,2.3431246,-38.268753,29.962502,15.01875,-0.36730137,-0.66242623,0.49759296,998.3886, , , , 
2026-03-19 21:05:55.246,15.3906355,-6.5754766,3.426522,-0.09392046,0.56756973,1.8953607,-37.237503,30.468752,11.793751,-0.38952437,-0.65168506,0.4993361,998.3991, , , , 
2026-03-19 21:05:55.266,16.084555,-6.9726853,1.713261,0.37705627,0.03367392,1.4530946,-36.0,32.9625,11.83125,-0.3972486,-0.6455954,0.5029803,998.3991, , , , 
2026-03-19 21:05:55.287,17.087147,-7.259824,-0.4953143,0.46135563,-0.3352884,1.0114393,-35.025,34.068752,10.743751,-0.40147668,-0.6395273,0.50957626,998.3864, , , , 
2026-03-19 21:05:55.306,16.941185,-7.350751,-1.0001999,0.15897755,-0.44463322,0.3394881,-33.35625,33.61875,9.975,-0.40016344,-0.63717335,0.5158721,998.3864, , , , 
2026-03-19 21:05:55.326,16.55594,-8.023134,0.91884387,0.022754714,-0.40248352,-0.053908817,-31.181252,34.85625,9.525001,-0.39654264,-0.6389986,0.51703304,998.36786, , , , 
2026-03-19 21:05:55.346,16.493727,-7.513463,2.4335005,0.3006982,-0.30902123,-0.52488554,-33.787502,34.331253,9.825001,-0.3903937,-0.64175063,0.51680714,998.36786, , , , 
2026-03-19 21:05:55.366,16.491333,-7.1808605,2.0578275,0.56092656,-0.32368198,-1.1070397,-34.36875,33.75,11.475,-0.38053462,-0.64439976,0.51621896,998.382, , , , 
2026-03-19 21:05:55.386,15.783058,-8.207381,1.1581261,0.7857248,-0.58452123,-1.8913901,-33.862503,34.6875,9.975,-0.36048725,-0.6497711,0.5143412,998.382, , , , 
2026-03-19 21:05:55.406,14.770894,-9.686146,0.1794617,0.7808379,-0.770835,-2.5407393,-35.5125,33.15,11.306251,-0.33148128,-0.65888274,0.5099999,998.3769, , , , 
2026-03-19 21:05:55.426,13.481163,-11.6339035,0.38524446,0.64400417,-0.9547053,-3.0489788,-37.2,31.237501,10.05,-0.31102207,-0.6661721,0.5052808,998.3769, , , , 
2026-03-19 21:05:55.446,12.890136,-13.3352,1.4524434,0.6061306,-1.2912918,-3.3800676,-38.0625,27.562502,8.493751,-0.2807573,-0.6774589,0.49741608,998.36835, , , , 
2026-03-19 21:05:55.466,13.019348,-14.347364,1.6031911,0.64828026,-1.5057054,-3.7074912,-38.25,26.025002,10.14375,-0.24672423,-0.6897525,0.48878613,998.36835, , , , 
2026-03-19 21:05:55.486,12.815958,-14.3569355,0.7537391,0.5346594,-1.340161,-4.119825,-42.05625,25.500002,12.58125,-0.20989348,-0.7020667,0.47808883,998.3664, , , , 
2026-03-19 21:05:55.506,12.026326,-14.452649,0.63170516,0.28420484,-0.8728494,-4.4991717,-43.6875,21.09375,13.1625,-0.1726278,-0.71327984,0.46319422,998.3664, , , , 
2026-03-19 21:05:55.526,9.765109,-14.605789,2.0315065,0.21762058,-0.56497353,-4.8302608,-43.3125,19.275002,12.76875,-0.12669113,-0.7243538,0.43840417,998.3786, , , , 
2026-03-19 21:05:55.546,8.035098,-14.208581,1.9525433,0.39843655,-0.4067596,-4.7771153,-47.8125,12.95625,12.975,-0.08974499,-0.7299809,0.4173598,998.3786, , , , 
2026-03-19 21:05:55.566,7.539784,-12.935599,0.38524446,0.4894554,-0.24915648,-4.6085167,-49.18125,10.06875,15.6,-0.053301215,-0.7328789,0.39727074,998.39496, , , , 
2026-03-19 21:05:55.586,8.207381,-11.877972,-0.8327023,0.2762636,0.27985242,-4.4655743,-48.91875,6.1125,14.1,-0.019872995,-0.7328153,0.37664416,998.39496, , , , 
2026-03-19 21:05:55.606,8.482556,-11.523834,-0.46181476,0.091782436,0.566348,-4.5413213,-50.7,2.98125,11.700001,0.01039201,-0.7299707,0.35383627,998.39594, , , , 
2026-03-19 21:05:55.626,6.6975107,-11.660225,-0.27517462,0.058795735,0.6634755,-4.592634,-48.075,-0.73125005,11.325001,0.039789412,-0.72498715,0.3292289,998.39594, , , , 
2026-03-19 21:05:55.646,5.3336015,-11.686545,0.19621146,0.1443168,0.38064513,-4.4130397,-48.43125,-3.2625,11.34375,0.06864764,-0.7188879,0.3044856,998.4001, , , , 
2026-03-19 21:05:55.666,4.304688,-11.064412,0.13399807,0.34162614,-0.22044583,-4.185798,-49.29375,-8.94375,11.306251,0.09772556,-0.71367717,0.28127766,998.4001, , , , 
2026-03-19 21:05:55.686,3.2350962,-10.717453,-1.1988041,0.364839,-0.657825,-3.8895288,-47.550003,-11.25,10.78125,0.13498977,-0.71047574,0.25444424,998.39545, , , , 
2026-03-19 21:05:55.706,2.2229323,-10.882557,-2.1511476,0.08872811,-0.49716756,-3.5486662,-46.95,-14.681251,12.0,0.16215953,-0.7089235,0.23366271,998.39545, , , , 
2026-03-19 21:05:55.728,1.038485,-11.648261,-1.68694,-0.19715661,-0.20578507,-3.0556984,-45.75,-18.056252,13.6125,0.1837569,-0.70642483,0.21354206,998.39374, , , , 
2026-03-19 21:05:55.746,-0.6580262,-12.260823,-1.105484,-0.2961167,-0.06223185,-2.2652392,-44.86875,-19.575,12.675,0.19948424,-0.70347846,0.19612263,998.39374, , , , 
2026-03-19 21:05:55.768,-1.9238294,-11.631511,-1.1365907,-0.3431533,0.18883358,-1.3214532,-42.525,-22.556252,11.3625,0.21064503,-0.70019644,0.1811756,998.3952, , , , 
2026-03-19 21:05:55.786,-2.457429,-11.042876,-0.7537391,-0.35537058,0.25480697,-0.49617493,-41.11875,-25.143751,9.825001,0.21263811,-0.6981212,0.17515075,998.3952, , , , 
2026-03-19 21:05:55.806,-1.7252251,-11.157732,-0.53599226,-0.240528,0.10331251,0.2612974,-41.5875,-22.331251,10.78125,0.20955919,-0.6977354,0.17443533,998.4018, , , , 
2026-03-19 21:05:55.826,-1.119841,-10.949556,-0.9523434,-0.11346813,-0.08422298,0.9418008,-42.768753,-23.081251,11.26875,0.20282693,-0.6997124,0.17884326,998.4018, , , , 
2026-03-19 21:05:55.846,-0.0,-10.801202,-1.5433706,-0.13362667,-0.1343139,1.5862631,-44.268753,-23.25,11.7375,0.19226609,-0.70374995,0.18765536,998.403, , , , 
2026-03-19 21:05:55.866,1.2155539,-10.63849,-1.4452649,-0.2319759,-0.050014555,2.151924,-45.862503,-23.79375,12.562501,0.1770917,-0.7087654,0.1998303,998.403, , , , 
2026-03-19 21:05:55.886,2.306681,-11.069198,-0.7896315,-0.26251915,0.1051451,2.7542365,-46.050003,-21.300001,10.575001,0.15727477,-0.71358454,0.21500464,998.3903, , , , 
2026-03-19 21:05:55.906,3.8237305,-11.552547,-0.70348984,-0.19349141,0.045891218,3.225824,-46.893753,-18.7875,11.606251,0.13362212,-0.71806437,0.23355134,998.3903, , , , 
2026-03-19 21:05:55.927,5.0368915,-11.801401,-1.2753744,-0.18066326,0.014737112,3.5013242,-45.80625,-17.175001,10.78125,0.10748275,-0.72252995,0.25476393,998.3835, , , , 
2026-03-19 21:05:55.946,4.9866424,-12.306287,-1.3686945,-0.31199917,0.07948878,3.8867798,-46.96875,-12.806251,9.88125,0.07151379,-0.72754025,0.28266713,998.3835, , , , 
2026-03-19 21:05:55.966,5.0009995,-12.559926,-1.0983056,-0.39752024,0.27618724,4.2905617,-48.093754,-9.675,9.825001,0.047178898,-0.7295554,0.3001786,998.3769, , , , 
2026-03-19 21:05:55.986,6.1830535,-13.270595,-1.3567305,-0.5539016,0.5779544,4.803077,-48.24375,-5.45625,8.512501,7.475132E-4,-0.7297598,0.33117944,998.3769, , , , 
2026-03-19 21:05:56.006,8.286345,-13.383057,-1.1772687,-0.7994693,0.80336356,5.0999575,-49.65,-0.75,8.700001,-0.041437972,-0.72723,0.35597488,998.3754, , , , 
2026-03-19 21:05:56.026,10.549955,-13.103097,-0.8422736,-1.1525491,1.3531419,5.1231704,-50.643753,3.0,8.4375,-0.08704752,-0.7217489,0.3784927,998.3754, , , , 
2026-03-19 21:05:56.046,12.521641,-11.306087,0.27756742,-1.3596323,1.7599778,4.8293443,-49.48125,8.606251,6.61875,-0.13435303,-0.71283346,0.39618945,998.37006, , , , 
2026-03-19 21:05:56.068,13.301702,-10.076176,0.63888365,-1.4408773,1.8302273,4.383413,-48.112503,11.00625,6.01875,-0.19205914,-0.69767624,0.41162953,998.37006, , , , 
2026-03-19 21:05:56.088,13.639089,-9.399008,0.96909314,-1.4714205,1.2792273,4.061487,-47.30625,15.562501,4.74375,-0.22345214,-0.68919086,0.41838303,998.37933, , , , 
2026-03-19 21:05:56.106,12.957134,-8.752945,2.0578275,-1.21669,-0.07628174,3.5282023,-45.6375,18.112501,4.89375,-0.26556367,-0.6806474,0.42893198,998.37933, , , , 
2026-03-19 21:05:56.126,13.593625,-8.803194,2.2348964,-1.0236566,-0.40004006,3.289354,-46.5,21.975,7.70625,-0.29117206,-0.67758125,0.43881574,998.3864, , , , 
2026-03-19 21:05:56.146,13.840086,-9.2075815,2.4239295,-0.8617775,-0.17890702,3.0175192,-45.881252,24.281252,7.65,-0.3135837,-0.67400825,0.44810775,998.3864,37.8874046,127.73745977,173.4217529296875,1.37
2026-03-19 21:05:56.166,13.337593,-9.140582,2.5722845,-0.6540835,0.049556404,2.8189883,-44.2125,25.425001,9.431251,-0.33421433,-0.6686464,0.45627248,998.3881, , , , 
2026-03-19 21:05:56.186,12.803994,-7.676175,2.4741786,-0.43417215,0.18700098,2.6962044,-41.325,27.35625,8.231251,-0.35342342,-0.661424,0.46413526,998.3881, , , , 
2026-03-19 21:05:56.206,13.897514,-6.5228343,2.8929226,-0.06520981,-0.34994915,2.5178318,-40.29375,30.206251,7.0312505,-0.36998233,-0.65367967,0.47283837,998.39935, , , , 
2026-03-19 21:05:56.226,16.457834,-6.2811594,2.3521447,0.5523745,-1.2118794,2.1928518,-39.318752,31.406252,7.9500003,-0.38117948,-0.6461105,0.48916376,998.39935, , , , 
2026-03-19 21:05:56.246,18.348164,-6.2931237,0.7680961,0.8614721,-1.4330124,1.7218751,-36.075,32.362503,9.09375,-0.38129506,-0.64198536,0.50546503,998.3964, , , , 
2026-03-19 21:05:56.267,20.145174,-6.1160545,-1.3375878,0.7814488,-1.0573306,0.99250257,-31.575,34.8375,6.3187504,-0.37832642,-0.639929,0.51606447,998.3964, , , , 
2026-03-19 21:05:56.286,19.740788,-6.879365,-1.1246266,0.3715585,-0.599182,0.06887501,-33.393753,36.35625,10.293751,-0.37116307,-0.6396922,0.524996,998.38007, , , , 
2026-03-19 21:05:56.306,18.534803,-7.1952176,0.5168497,0.26282457,-0.50388706,-0.6397281,-31.2,33.862503,7.1062503,-0.36321136,-0.64259744,0.52571946,998.38007, , , , 
2026-03-19 21:05:56.326,18.484554,-7.0229344,0.9499506,0.3251328,-0.44890925,-1.1882848,-31.66875,33.825,7.6312504,-0.3516384,-0.6472445,0.524061,998.3757, , , , 
2026-03-19 21:05:56.346,17.673388,-7.408179,0.8446664,0.28970262,-0.22594361,-2.126573,-32.625,34.95,8.587501,-0.33612552,-0.6533271,0.5191361,998.3757, , , , 
2026-03-19 21:05:56.366,14.790037,-9.006584,1.0432707,0.2121228,-0.06345358,-2.8425066,-35.5875,33.28125,8.53125,-0.31667,-0.66105497,0.5096186,998.3764, , , , 
2026-03-19 21:05:56.386,12.825529,-10.820344,2.0841484,0.27931792,-0.20761767,-3.210858,-38.68125,31.10625,8.83125,-0.29437387,-0.66954327,0.49702492,998.3764, , , , 
2026-03-19 21:05:56.406,12.521641,-12.897314,2.2277179,0.56520265,-0.81848246,-3.4888015,-40.893753,28.237501,10.6125,-0.2607229,-0.6808634,0.48187837,998.3759, , , , 
2026-03-19 21:05:56.426,12.270394,-13.9166565,1.39023,0.685543,-1.3206133,-3.757582,-39.506252,25.425001,7.2375,-0.22788708,-0.69130784,0.4710976,998.3759, , , , 
2026-03-19 21:05:56.446,11.66501,-14.170296,0.41156548,0.53221595,-1.6199371,-3.961,-43.162502,22.78125,11.00625,-0.19160372,-0.70311594,0.45959577,998.37616, , , , 
2026-03-19 21:05:56.466,11.684153,-13.864015,0.31345975,0.2328922,-1.7133993,-4.163196,-46.4625,19.462502,10.6125,-0.1543245,-0.71580863,0.44552943,998.37616, , , , 
2026-03-19 21:05:56.486,10.743773,-13.473985,1.9669002,0.0490219,-1.602222,-4.3018627,-45.581253,17.41875,12.337501,-0.1167441,-0.7289249,0.42797953,998.3759, , , , 
2026-03-19 21:05:56.506,10.078569,-12.813565,1.7491534,-0.034666575,-0.68348134,-4.2542152,-46.0875,13.63125,13.387501,-0.080809,-0.7391932,0.40843412,998.3759, , , , 
2026-03-19 21:05:56.526,9.315259,-12.251252,0.9834501,-0.20631959,0.8699478,-4.180911,-47.775,8.85,13.837501,-0.043765806,-0.74264437,0.38113603,998.39276, , , , 
2026-03-19 21:05:56.546,9.212367,-12.019148,1.9094725,-0.09086613,1.4667627,-4.168694,-49.18125,6.2250004,13.200001,-0.020242605,-0.73740697,0.3577879,998.39276, , , , 
2026-03-19 21:05:56.567,8.551949,-11.870793,1.727618,0.3996583,0.91576266,-4.345234,-51.675003,1.7437501,11.868751,0.0051755942,-0.7295384,0.3357331,998.39886, , , , 
2026-03-19 21:05:56.586,6.647261,-11.904293,0.09571291,0.73868823,-0.108657576,-4.466185,-47.86875,-1.3125,9.168751,0.036614593,-0.7236464,0.31532308,998.39886, , , , 
2026-03-19 21:05:56.606,4.989035,-11.911471,-0.5886344,0.7166971,-0.7274636,-4.379442,-49.218754,-6.5625005,9.918751,0.07157731,-0.721171,0.2951613,998.393, , , , 
2026-03-19 21:05:56.626,3.5006995,-11.717652,-0.4331009,0.6556106,-1.0176244,-4.149146,-48.600002,-8.493751,10.743751,0.10637723,-0.7208735,0.2748621,998.393, , , , 
2026-03-19 21:05:56.646,1.9166509,-11.459228,-1.3495519,0.5053379,-0.9040035,-3.7074912,-45.693752,-13.687501,11.043751,0.13880801,-0.7211873,0.2555622,998.3825, , , , 
2026-03-19 21:05:56.666,0.2440679,-11.191232,-1.8879371,0.19868377,-0.3682751,-3.1858125,-46.7625,-15.056251,14.625001,0.16611502,-0.7200333,0.23754835,998.3825, , , , 
2026-03-19 21:05:56.686,-0.7178468,-11.272588,-1.1676974,-0.025503604,-0.10071633,-2.4252858,-44.268753,-16.650002,11.83125,0.19034421,-0.7160812,0.21802524,998.3652, , , , 
2026-03-19 21:05:56.706,-0.06699903,-11.057234,-1.0624132,-0.03161225,-0.067118764,-1.8156428,-43.3125,-19.800001,13.14375,0.20346187,-0.71345615,0.20638923,998.3652, , , , 
2026-03-19 21:05:56.728,-0.83030945,-11.241481,-1.4117653,-0.13179408,0.1485165,-1.3238966,-45.1875,-21.75,14.85,0.21246976,-0.71083015,0.19794202,998.35834, , , , 
2026-03-19 21:05:56.746,-2.3114667,-12.246467,-1.1916257,-0.21914774,-0.034742933,-0.7826705,-41.1375,-20.79375,11.118751,0.21752258,-0.7087491,0.19184974,998.35834, , , , 
2026-03-19 21:05:56.766,-3.1513474,-12.973885,-0.6652047,-0.16539164,-0.30596688,-0.06062833,-43.631252,-22.706251,15.50625,0.21841593,-0.70958436,0.1888346,998.3559, , , , 
2026-03-19 21:05:56.786,-4.254439,-11.703296,-0.38763726,-0.06459895,-0.32917976,0.845895,-43.6875,-23.081251,14.137501,0.21478339,-0.7131257,0.1908263,998.3559, , , , 
2026-03-19 21:05:56.806,-2.172683,-11.454442,-0.997807,-0.07987057,-0.06406444,1.8923063,-43.29375,-22.425001,15.450001,0.20160405,-0.7191541,0.20216495,998.3608, , , , 
2026-03-19 21:05:56.826,0.24885355,-11.504691,-1.227518,-0.20631959,0.094760396,2.457967,-44.5875,-18.825,14.306251,0.18864997,-0.7228239,0.21281876,998.3608, , , , 
2026-03-19 21:05:56.847,2.428715,-12.335001,-0.17706887,-0.2283107,0.06543889,2.914283,-45.1875,-18.88125,14.062501,0.16693346,-0.7277636,0.22930333,998.34735, , , , 
2026-03-19 21:05:56.866,4.048656,-13.134204,0.66999036,0.060017463,-0.12942697,3.3797622,-47.0625,-16.575,14.118751,0.13616091,-0.73423976,0.25412896,998.34735, , , , 
2026-03-19 21:05:56.886,5.1158547,-13.753944,-0.39720857,0.3159698,-0.093996815,3.845241,-48.206253,-12.093751,14.306251,0.110336035,-0.73896915,0.27847707,998.35004, , , , 
2026-03-19 21:05:56.906,6.1064835,-14.007584,-1.3878372,0.2866483,0.13080142,4.2893395,-46.256252,-9.76875,12.731251,0.08185069,-0.7420804,0.30585057,998.35004, , , , 
2026-03-19 21:05:56.926,7.298109,-13.753944,-1.8161523,0.10461059,0.36415178,4.6063786,-47.90625,-6.2250004,14.85,0.04914324,-0.7431413,0.334282,998.34735, , , , 
2026-03-19 21:05:56.946,9.138189,-12.942778,-1.579263,-0.24174973,0.5406917,4.8055205,-49.256252,-3.3750002,15.3,0.0028362717,-0.7418444,0.3680052,998.34735, , , , 
2026-03-19 21:05:56.967,9.60479,-12.179467,-0.57188463,-0.39629853,0.53641564,4.775588,-47.550003,1.9125,12.50625,-0.026264615,-0.7401147,0.3862238,998.33954, , , , 
2026-03-19 21:05:56.986,9.530613,-11.332408,0.3900301,-0.41034842,0.49121165,4.7071714,-49.66875,4.6687503,14.26875,-0.07433146,-0.73555106,0.41393313,998.33954, , , , 
2026-03-19 21:05:57.006,9.705289,-11.222338,0.70588267,-0.33032513,0.54130256,4.714502,-47.4,9.900001,11.71875,-0.11165764,-0.7300124,0.4348566,998.34247, , , , 
2026-03-19 21:05:57.031,11.533405,-11.724831,-0.66759753,-0.3743074,0.6903536,4.789638,-47.006252,12.675,13.06875,-0.15818068,-0.7200254,0.4600566,998.34247, , , , 
2026-03-19 21:05:57.046,13.574483,-11.330015,-0.5838487,-0.57833624,0.75021833,4.699841,-45.73125,16.78125,13.1625,-0.18653049,-0.71307415,0.47337294,998.33856, , , , 
2026-03-19 21:05:57.066,15.51267,-10.485349,0.8662018,-0.62903804,0.63476485,4.327824,-42.318752,18.900002,9.75,-0.22306632,-0.70360297,0.48796737,998.33856, , , , 
2026-03-19 21:05:57.086,16.639688,-9.698111,1.591227,-0.38347036,0.36781695,3.74567,-42.6375,23.212502,11.08125,-0.25453344,-0.6943579,0.50023717,998.3432, , , , 
2026-03-19 21:05:57.106,16.864614,-8.788837,1.4763715,-0.0707076,0.051389,3.0572255,-39.206253,27.16875,11.118751,-0.28366944,-0.6837946,0.51420194,998.3432, , , , 
2026-03-19 21:05:57.126,17.603996,-7.125826,1.119841,0.31230462,-0.17890702,2.476293,-37.537502,28.10625,9.65625,-0.29900268,-0.6762645,0.5253234,998.34467, , , , 
2026-03-19 21:05:57.146,16.77608,-6.233303,-2.4741786,0.12965605,0.6982948,1.7151556,-38.625,30.075,11.962501,-0.3096147,-0.6688389,0.5343366,998.34467,37.88738601,127.73746993,173.468505859375,1.51
2026-03-19 21:05:57.166,14.402399,-6.168697,-2.5196424,-0.42073312,1.664072,1.4017819,-38.100002,32.006252,11.962501,-0.32346722,-0.66146123,0.5350049,998.3359, , , , 
2026-03-19 21:05:57.186,13.58884,-5.852844,0.5407779,-0.6339249,1.8674899,1.2399027,-35.287502,34.050003,9.075001,-0.34223,-0.65366656,0.5290096,998.3359, , , , 
2026-03-19 21:05:57.206,14.299508,-6.1328044,1.9884356,-0.082924895,0.8723913,0.9619593,-34.893753,34.59375,9.0,-0.36056122,-0.64489466,0.52322686,998.33124, , , , 
2026-03-19 21:05:57.226,15.211174,-6.2548385,0.7178468,0.39477137,0.054443322,0.7072287,-33.581253,33.862503,8.90625,-0.3648173,-0.64097655,0.5240464,998.33124, , , , 
2026-03-19 21:05:57.246,16.374084,-7.223932,-1.0336994,0.6183479,-0.6254492,0.31932956,-33.09375,34.78125,8.34375,-0.3622475,-0.637896,0.529845,998.33344, , , , 
2026-03-19 21:05:57.266,17.771494,-7.618747,-1.7802601,0.6226239,-0.9498184,-0.07284562,-33.318752,35.1375,8.8125,-0.35430977,-0.6386907,0.5352461,998.33344, , , , 
2026-03-19 21:05:57.286,19.405792,-7.1856465,-2.3521447,0.297033,-0.89728403,-0.81810063,-31.987501,35.90625,8.00625,-0.3426468,-0.6426223,0.5382955,998.3144, , , , 
2026-03-19 21:05:57.306,18.982262,-7.3579297,-1.0648061,-0.11896592,-0.52709997,-1.8046473,-34.893753,35.34375,8.8125,-0.32833922,-0.6502736,0.5349775,998.3144, , , , 
2026-03-19 21:05:57.326,16.567904,-9.037691,0.87338024,-0.26923865,-0.37194028,-2.601215,-34.5,32.268753,10.33125,-0.3109089,-0.6608798,0.52449286,998.2995, , , , 
2026-03-19 21:05:57.346,14.050654,-10.849058,2.5220351,-0.06459895,-0.5729148,-3.2249079,-36.506252,32.325,7.5937505,-0.2890314,-0.67266077,0.51086724,998.2995, , , , 
2026-03-19 21:05:57.367,13.031312,-12.205789,2.2636101,0.24449863,-0.7207441,-3.6879435,-38.775,29.212502,9.88125,-0.25461647,-0.68703955,0.4939258,998.3078, , , , 
2026-03-19 21:05:57.386,12.184253,-13.342379,1.6007984,0.32879797,-0.6877574,-4.0123124,-38.737503,25.63125,8.38125,-0.22305639,-0.6976375,0.4795427,998.3078, , , , 
2026-03-19 21:05:57.406,11.375479,-14.277973,1.0935199,0.31474808,-0.7812197,-4.2389436,-41.081253,22.987501,11.231251,-0.18966395,-0.7073995,0.46353215,998.32635, , , , 
2026-03-19 21:05:57.426,10.291531,-14.115261,1.1270195,0.31535894,-1.0481676,-4.367225,-44.456253,20.04375,10.6875,-0.16332328,-0.71472925,0.45069334,998.32635, , , , 
