Time,Accel_X,Accel_Y,Accel_Z,Gyro_X,Gyro_Y,Gyro_Z,Mag_X,Mag_Y,Mag_Z,Orient_X,Orient_Y,Orient_Z,Pressure,Lat,Lng,Alt,Speed
2026-03-20 17:40:45.268,-0.701097,5.4221363,6.977471,-0.35254532,-0.48349947,-0.44638944,-11.118751,-42.037502,-12.618751,0.1376032,0.25078282,0.7191721,999.75336,37.88748485,127.73738902,176.073486328125,0.0
2026-03-20 17:40:45.288,-2.7158537,5.151747,7.688139,-0.8681152,-0.3582722,-0.2545779,-8.681251,-41.756252,-15.056251,0.13351072,0.23631527,0.7156026,999.7382, , , , 
2026-03-20 17:40:45.306,-1.591227,5.383851,8.16431,-1.0886374,-0.26480988,-0.06276636,-9.918751,-41.268753,-14.493751,0.12996106,0.23044795,0.71628904,999.72797, , , , 
2026-03-20 17:40:45.327,-0.66999036,5.5968122,9.286545,-1.2132539,-0.33628106,-0.308334,-8.681251,-41.756252,-15.675,0.123002246,0.21840282,0.7178045,999.72797, , , , 
2026-03-20 17:40:45.346,-0.42831525,4.7377887,9.79143,-1.2187515,-0.5665771,-0.7212786,-8.493751,-40.85625,-16.518751,0.11759731,0.20771195,0.7163453,999.73553, , , , 
2026-03-20 17:40:45.366,-0.5192425,3.4863427,8.362915,-1.6316962,-0.9581414,-0.9973895,-10.725,-40.96875,-15.0375,0.11283064,0.19375564,0.7124386,999.73553, , , , 
2026-03-20 17:40:45.386,-1.4452649,3.8500516,9.339187,-1.9151374,-0.63316137,-0.87643826,-9.46875,-40.706253,-16.725,0.104824506,0.17758071,0.708614,999.7497, , , , 
2026-03-20 17:40:45.406,-0.94277215,4.2185464,10.578669,-1.8479424,-0.85551614,-0.7903063,-7.4437504,-37.36875,-18.975,0.0957041,0.16062474,0.70565414,999.7497, , , , 
2026-03-20 17:40:45.426,-0.59581286,4.4339004,11.856436,-1.4404955,-0.96913695,-0.92286396,-6.0937505,-37.21875,-19.44375,0.08968794,0.14374202,0.7017432,999.7819, , , , 
2026-03-20 17:40:45.446,-0.2105684,3.8739798,12.550355,-0.8839977,-0.5415316,-0.88682294,-3.4125001,-37.068752,-20.34375,0.08512046,0.12837397,0.6949079,999.7819, , , , 
2026-03-20 17:40:45.466,-2.7637103,5.477171,10.884951,-0.33177593,0.7241802,-0.45249808,-1.1625,-33.975002,-21.375,0.08030847,0.12501222,0.69079846,999.8693, , , , 
2026-03-20 17:40:45.487,-1.1246266,3.3379877,10.999805,0.1636354,1.4462224,0.26282457,-2.41875,-35.943752,-23.1375,0.070760235,0.13500075,0.6915061,999.8693, , , , 
2026-03-20 17:40:45.506,-2.5794628,3.5365918,9.856036,0.13553563,1.2244785,0.73013616,-2.4375,-35.23125,-20.868752,0.0641549,0.14431098,0.695194,999.9494, , , , 
2026-03-20 17:40:45.530,-0.4019942,1.0600204,10.442278,-0.17905974,0.7119629,1.6653701,-1.81875,-34.29375,-20.98125,0.056734074,0.15282813,0.70713735,999.9494, , , , 
2026-03-20 17:40:45.546,0.7609176,1.1389836,11.416157,-0.25663957,-0.5659662,1.5450298,-3.2250001,-36.16875,-20.737501,0.057126317,0.1504797,0.7156235,999.9775, , , , 
2026-03-20 17:40:45.566,-1.0648061,2.2301106,11.444871,0.05856666,-0.7779363,1.439961,-6.9375005,-36.43125,-20.94375,0.06354324,0.14297177,0.7250996,999.9775, , , , 
2026-03-20 17:40:45.586,0.43070808,2.9862428,10.770095,0.58757555,-0.38515025,1.3342814,-8.25,-35.0625,-21.956251,0.07128446,0.14002573,0.733588,999.9836, , , , 
2026-03-20 17:40:45.606,1.0576276,1.9118652,9.229117,1.12758,-0.7192933,0.62873256,-9.375,-35.4375,-20.737501,0.08505304,0.1423814,0.7397147,999.9836, , , , 
2026-03-20 17:40:45.627,0.4139583,1.6223338,7.446464,1.0432807,-0.48533207,-0.17455462,-11.587501,-36.28125,-20.775002,0.09715832,0.14565878,0.73871374,999.95844, , , , 
2026-03-20 17:40:45.647,-0.6723832,2.6799614,6.62094,0.62117314,0.29779658,-0.6565269,-13.031251,-36.693752,-18.75,0.10194283,0.15138726,0.73454267,999.95844, , , , 
2026-03-20 17:40:45.666,-1.1724831,3.546163,7.611569,0.5606975,0.124310985,-0.68707013,-12.168751,-38.9625,-19.1625,0.102588706,0.15797193,0.72960323,999.9045, , , , 
2026-03-20 17:40:45.686,-1.038485,4.072584,9.298509,0.748233,-0.66065025,-0.7041744,-10.931251,-36.46875,-19.44375,0.108009316,0.16114433,0.72383934,999.9045, , , , 
2026-03-20 17:40:45.706,-0.82313097,3.3714871,8.116454,0.81848246,-1.0247257,-0.9320269,-9.731251,-37.21875,-21.225,0.11740504,0.16251805,0.7165587,999.8754, , , , 
2026-03-20 17:40:45.726,-2.07697,3.129812,8.255239,0.7292962,-1.398575,-0.7695369,-8.962501,-37.65,-19.275002,0.12912452,0.16145968,0.70785207,999.8754, , , , 
2026-03-20 17:40:45.747,-1.8640088,2.845066,9.6071825,0.73662657,-1.1475095,-0.091477,-10.106251,-38.25,-19.893751,0.14469297,0.15772238,0.7008015,999.8515, , , , 
2026-03-20 17:40:45.767,0.22492532,4.261617,8.633304,0.7763328,-1.2519673,0.05146536,-7.8,-38.4,-18.73125,0.15700495,0.15551941,0.69836694,999.8515, , , , 
2026-03-20 17:40:45.786,0.8805587,5.139783,7.8029947,0.6437751,-1.655749,-0.28878632,-8.90625,-38.025,-18.487501,0.17144586,0.15096469,0.6942906,999.86957, , , , 
2026-03-20 17:40:45.806,-0.66041905,4.23051,7.7312098,0.46051568,-1.7247767,-0.4329504,-10.1625,-39.037502,-17.212502,0.18642919,0.14390127,0.6875494,999.86957, , , , 
2026-03-20 17:40:45.828,-1.902294,4.666004,7.8053875,0.22655447,-1.6117667,-0.037110034,-10.6875,-38.71875,-16.875,0.19922085,0.13611805,0.6820025,999.8588, , , , 
2026-03-20 17:40:45.847,-0.09092726,5.5274205,8.3174515,0.08422298,-1.7907501,0.34956738,-10.51875,-39.318752,-16.06875,0.21102701,0.1261382,0.67947704,999.8588, , , , 
2026-03-20 17:40:45.867,2.1870399,4.6396832,6.5347986,-0.16012293,-1.0754274,0.28176138,-10.856251,-38.850002,-16.6875,0.22310571,0.11425972,0.6780001,999.86444, , , , 
2026-03-20 17:40:45.886,1.9597218,4.345366,7.2263246,-0.3910298,1.4492767,0.43020153,-11.08125,-38.5125,-17.1375,0.21952316,0.11288953,0.68199646,999.86444, , , , 
2026-03-20 17:40:45.906,2.009971,5.197211,7.3268228,-0.55168724,2.2879941,0.49861836,-11.75625,-38.831253,-15.056251,0.20318282,0.12302847,0.6902064,999.87616, , , , 
2026-03-20 17:40:45.929,0.14356937,5.058427,9.370294,-0.7935897,1.4205661,0.68309957,-10.556251,-38.081253,-16.612501,0.18348564,0.1300052,0.6995558,999.87616, , , , 
2026-03-20 17:40:45.947,1.4476577,2.7206392,10.013963,-0.6622538,0.7638864,0.69287336,-10.725,-36.84375,-18.35625,0.17505603,0.13085876,0.7053796,999.87885, , , , 
2026-03-20 17:40:45.967,0.2632105,4.0797625,10.959127,-0.07704532,-0.47006044,0.17241658,-10.5,-37.3125,-19.44375,0.17204179,0.12634821,0.7085235,999.87885, , , , 
2026-03-20 17:40:45.987,0.6652047,3.5820556,8.707481,0.047571093,-0.41263917,0.28909177,-10.856251,-35.98125,-17.625,0.17517526,0.12356319,0.70892334,999.88617, , , , 
2026-03-20 17:40:46.007,1.4979069,4.0534415,8.398808,-0.36964956,0.22876886,0.27931792,-11.325001,-36.787502,-16.9125,0.17467935,0.12130221,0.7115735,999.88617, , , , 
2026-03-20 17:40:46.027,1.3208381,4.063013,9.762716,-0.3617083,-0.025961753,0.107054055,-10.89375,-36.225002,-18.69375,0.17217252,0.11960524,0.7131127,999.86664, , , , 
2026-03-20 17:40:46.047,-0.14356937,3.591627,9.997213,-0.07032581,-0.47189304,0.0716239,-12.806251,-37.050003,-18.75,0.17292106,0.11521234,0.71319145,999.86664, , , , 
2026-03-20 17:40:46.067,0.2656033,3.737589,9.408579,0.031688612,-0.13286309,0.2121228,-11.83125,-36.46875,-17.643751,0.1750588,0.112903245,0.71366245,999.8527, , , , 
2026-03-20 17:40:46.088,1.5146568,3.9960139,10.1288185,0.09521855,-0.22021675,0.16936226,-12.95625,-37.575,-16.5375,0.17642446,0.11212684,0.71476007,999.8527, , , , 
2026-03-20 17:40:46.107,2.0075781,4.4051867,9.595219,0.32001677,-0.47739083,-0.057879437,-12.95625,-37.575,-16.5375,0.17997359,0.11143413,0.7144883,999.82416, , , , 
2026-03-20 17:40:46.127,1.7156538,4.536792,8.1020975,0.34872743,-0.95569795,-0.31749696,-11.7375,-36.581253,-16.10625,0.18963438,0.10877659,0.710421,999.82416, , , , 
2026-03-20 17:40:46.147,1.6773686,4.287938,8.106883,0.18684827,-0.81031215,-0.3113883,-12.281251,-37.893753,-16.59375,0.19568607,0.10613111,0.7072548,999.7924, , , , 
2026-03-20 17:40:46.167,1.7324036,4.223332,8.609376,-0.015958842,-0.31734425,-0.27351472,-14.137501,-37.59375,-15.4875,0.20101885,0.102930345,0.7035391,999.7924, , , , 
2026-03-20 17:40:46.187,1.7156538,4.347759,9.15494,-0.19005531,0.41202828,-0.19165882,-13.14375,-38.475002,-15.39375,0.199739,0.10300619,0.70268375,999.7668, , , , 
2026-03-20 17:40:46.207,1.7300107,4.4434714,9.317652,-0.021456625,-0.30695954,-0.31199917,-11.606251,-36.80625,-17.962502,0.19812873,0.10303728,0.7009522,999.7668, , , , 
2026-03-20 17:40:46.227,0.3924229,3.8572302,9.08794,0.07506001,-0.3979784,-0.29061893,-12.150001,-37.987503,-16.7625,0.20054491,0.10152891,0.6980489,999.74994, , , , 
2026-03-20 17:40:46.247,0.8877372,3.9601214,9.3200445,0.17646356,-0.41141742,0.03619374,-13.650001,-37.40625,-16.1625,0.20376,0.100128554,0.69635975,999.74994, , , , 
2026-03-20 17:40:46.267,1.9908284,4.28076,8.748159,0.14897464,-0.44929105,0.0129808765,-12.95625,-36.956253,-17.19375,0.20865954,0.09799297,0.6953783,999.74774,37.88748485,127.73738902,176.073486328125,0.0
2026-03-20 17:40:46.288,1.6941184,4.354937,8.315059,0.035964664,-0.4065305,-0.07192933,-13.875001,-38.550003,-16.85625,0.21234335,0.095682554,0.69418377,999.74774, , , , 
2026-03-20 17:40:46.310,0.9499506,4.220939,8.161918,-0.16378812,-0.01802051,0.01725693,-11.0625,-37.125,-18.91875,0.21326362,0.09398443,0.69350314,999.75555, , , , 
2026-03-20 17:40:46.327,1.7252251,4.3405805,8.262417,-0.2126573,-0.014966187,0.061239194,-12.4125,-36.412502,-16.66875,0.21204638,0.0927397,0.6939849,999.75555, , , , 
2026-03-20 17:40:46.347,2.062613,4.0151563,8.609376,-0.3165043,0.32284203,0.03619374,-13.556251,-38.381252,-16.59375,0.20957942,0.091665916,0.69479215,999.75116, , , , 
2026-03-20 17:40:46.367,1.524228,3.9816568,9.399008,-0.20838125,0.5403099,0.084452055,-12.337501,-36.131252,-18.54375,0.20493592,0.09240419,0.6961952,999.75116, , , , 
2026-03-20 17:40:46.387,1.4620147,4.065406,8.717052,-0.13202316,0.61178106,0.027641632,-13.762501,-37.29375,-16.63125,0.1999868,0.09497814,0.69796056,999.75385, , , , 
2026-03-20 17:40:46.407,0.9236295,4.2352962,7.793423,-0.17172936,0.38698283,0.091782436,-12.675,-37.162502,-18.900002,0.19465758,0.097831905,0.69976926,999.75385, , , , 
2026-03-20 17:40:46.427,1.9812572,4.106084,8.472985,-0.23648103,-0.057726722,0.052076224,-12.543751,-37.256252,-19.5375,0.19293754,0.09743438,0.7005751,999.7341, , , , 
2026-03-20 17:40:46.447,1.4261223,3.5988052,8.236095,-0.17417282,0.0070249448,-0.002290743,-13.593751,-37.36875,-19.425001,0.1922615,0.09499444,0.700648,999.7341, , , , 
2026-03-20 17:40:46.467,1.0935199,3.4097722,7.891529,-0.2786307,0.022907428,0.07040217,-13.462501,-36.73125,-19.462502,0.19039899,0.09364516,0.7011839,999.7192, , , , 
2026-03-20 17:40:46.487,1.4356936,3.3116665,7.298109,-0.24869832,-0.70707595,0.048411034,-13.650001,-37.0125,-19.893751,0.19066389,0.08981317,0.70135945,999.7192, , , , 
2026-03-20 17:40:46.507,1.2466606,2.940779,6.71426,-0.22915065,-1.2910627,0.10583232,-11.625,-36.300003,-18.91875,0.19620803,0.081269436,0.70006365,999.69525, , , , 
2026-03-20 17:40:46.527,1.4883357,2.4095724,5.326423,-0.245644,-1.6728532,0.22311836,-13.743751,-36.131252,-21.487501,0.20485494,0.06958551,0.69846225,999.69525, , , , 
2026-03-20 17:40:46.547,0.86859465,1.0887343,4.007978,-0.20105088,-2.5115705,0.41431904,-16.78125,-36.581253,-20.5125,0.21686003,0.05444861,0.69647485,999.6718, , , , 
2026-03-20 17:40:46.567,1.902294,0.15074782,3.6251264,0.04329504,-4.3124,0.6330086,-15.843751,-36.975002,-19.96875,0.24432354,0.02464772,0.6916731,999.6718, , , , 
2026-03-20 17:40:46.587,1.8065811,0.019142581,2.8713872,0.291917,-5.233584,0.9152281,-21.13125,-36.16875,-17.925001,0.26936784,2.743031E-5,0.6863818,999.6174, , , , 
2026-03-20 17:40:46.607,3.4241292,-0.36370903,-2.28036,-0.18394665,-4.565298,1.2609776,-24.206251,-35.25,-16.425001,0.31202886,-0.04377081,0.67767745,999.6174, , , , 
2026-03-20 17:40:46.627,5.0344987,-1.4333007,-1.0145568,-1.0232749,-3.6441138,1.4534,-27.54375,-34.237503,-14.118751,0.3337026,-0.078955926,0.6735183,999.5539, , , , 
2026-03-20 17:40:46.647,2.3832514,-2.3641088,2.4095724,-1.1796563,-3.9587092,1.6696461,-29.775002,-34.125,-10.181251,0.34859028,-0.11539892,0.6699763,999.5539, , , , 
2026-03-20 17:40:46.667,3.4887354,-3.0029924,4.476971,-0.71967506,-5.3863,2.06793,-32.568752,-33.43125,-10.087501,0.36935973,-0.15728988,0.6645667,999.50775, , , , 
2026-03-20 17:40:46.687,7.9633136,-2.7038896,2.9312077,-0.21571162,-5.7870274,2.212094,-34.95,-30.975,-4.7250004,0.400439,-0.20393902,0.6553792,999.50775, , , , 
2026-03-20 17:40:46.707,7.893922,-3.0436704,0.30388847,-0.8705587,-4.196336,2.5352416,-36.693752,-29.19375,-1.0875001,0.4253608,-0.24689095,0.6472591,999.4997, , , , 
2026-03-20 17:40:46.727,9.801002,-3.4576287,1.6606189,-1.7844124,-2.2366815,2.8296783,-38.100002,-27.993752,1.6125001,0.43167475,-0.2945406,0.6451142,999.4997, , , , 
2026-03-20 17:40:46.747,11.339586,-3.8356948,4.0677986,-2.1631486,-2.3539674,2.6580253,-41.456253,-25.725,1.3687501,0.42625803,-0.3313878,0.64434344,999.4909, , , , 
2026-03-20 17:40:46.767,11.569298,-4.4243293,6.9535427,-1.9249113,-2.291659,2.7624834,-41.475002,-23.737501,1.25625,0.42083144,-0.3683395,0.641748,999.4909, , , , 
2026-03-20 17:40:46.787,12.090933,-4.3094735,4.8765726,-1.6048181,-1.9251404,2.700175,-42.43125,-21.09375,1.66875,0.41460913,-0.40090045,0.6409696,999.5224, , , , 
2026-03-20 17:40:46.807,11.057234,-4.6612186,3.9840498,-1.6659046,-1.69179,2.6329799,-43.0125,-18.806252,3.45,0.40676734,-0.43034804,0.64039564,999.5224, , , , 
2026-03-20 17:40:46.827,10.616954,-5.4053864,3.7304106,-1.7599778,-1.5005894,2.8467827,-43.7625,-16.7625,3.2625,0.39647287,-0.45925438,0.6398075,999.5507, , , , 
2026-03-20 17:40:46.847,11.306087,-5.7667027,4.328616,-1.6769001,-1.3716968,2.917032,-44.737503,-14.887501,4.65,0.38348857,-0.4874907,0.63984287,999.5507, , , , 
2026-03-20 17:40:46.867,12.461821,-6.0370917,3.397808,-1.6023747,-1.4731004,2.8541129,-45.956253,-10.78125,5.0062504,0.37063253,-0.51443815,0.63961184,999.5776, , , , 
2026-03-20 17:40:46.887,10.99502,-6.5946193,4.115655,-1.5254058,-1.4407246,2.7099488,-46.425003,-10.106251,6.2625003,0.3559033,-0.5461049,0.63739985,999.5776, , , , 
2026-03-20 17:40:46.907,10.616954,-7.0636125,2.7756743,-1.4105631,-1.4046836,2.8394523,-47.23125,-7.5750003,6.5062504,0.3468334,-0.5639105,0.63632286,999.622, , , , 
2026-03-20 17:40:46.927,11.763116,-7.3363943,1.6247265,-1.5309035,-1.2171481,2.880991,-46.631252,-5.3812504,5.8500004,0.32996386,-0.5928179,0.6343522,999.622, , , , 
2026-03-20 17:40:46.947,13.067204,-7.233503,1.6319051,-1.5418991,-1.1762202,2.749655,-46.21875,-2.3812501,8.56875,0.3154134,-0.6150681,0.6315659,999.65106, , , , 
2026-03-20 17:40:46.967,12.335001,-7.8484583,1.6630118,-1.5473969,-1.0632101,2.6763513,-46.912502,0.0375,9.13125,0.30112767,-0.6359994,0.6277178,999.65106, , , , 
2026-03-20 17:40:46.987,12.674782,-8.090134,1.4213367,-1.5950443,-0.8805616,2.6794057,-45.80625,1.3687501,11.25,0.28125396,-0.6603881,0.6228518,999.64716, , , , 
2026-03-20 17:40:47.007,12.911671,-7.8604226,3.345166,-1.4869212,-0.6478221,2.4637704,-47.11875,3.4687502,10.950001,0.26503643,-0.6782329,0.6183948,999.64716, , , , 
2026-03-20 17:40:47.027,11.952149,-7.8149586,3.778267,-1.1735476,-0.22937973,2.3599234,-45.318752,5.15625,10.668751,0.24802549,-0.6919433,0.6161436,999.62396, , , , 
2026-03-20 17:40:47.047,11.703296,-7.542177,3.0747771,-0.7899245,-0.13530655,2.2224789,-47.475002,6.9187503,11.887501,0.23108532,-0.70217514,0.6162032,999.62396, , , , 
2026-03-20 17:40:47.067,12.179467,-7.070791,2.2229323,-0.54985464,-0.39675668,1.9708025,-45.768753,9.450001,11.25,0.21719731,-0.71058935,0.61689967,999.62494, , , , 
2026-03-20 17:40:47.087,11.91865,-7.0205417,2.4335005,-0.37087128,-0.29107708,1.5957315,-46.350002,10.387501,12.637501,0.20654917,-0.7170701,0.61759806,999.62494, , , , 
2026-03-20 17:40:47.107,9.322437,-6.695118,1.5936198,-0.19372049,-0.0632245,1.3996439,-45.09375,12.76875,10.6875,0.19751659,-0.72104436,0.6191384,999.6059, , , , 
2026-03-20 17:40:47.127,9.18126,-6.4366927,0.9499506,-0.11797326,0.107817635,1.3691007,-45.393753,12.95625,13.1625,0.1850503,-0.7245273,0.62218755,999.6059, , , , 
2026-03-20 17:40:47.147,10.660025,-6.0753765,1.1557333,-0.06421716,0.015577052,1.0306816,-43.575,15.39375,12.225,0.17654024,-0.726584,0.62436247,999.5732, , , , 
2026-03-20 17:40:47.167,9.073584,-7.092326,0.6125626,0.08116866,0.013133593,0.6824887,-43.96875,15.6,12.712501,0.1715062,-0.7272104,0.6264043,999.5732, , , , 
2026-03-20 17:40:47.187,6.2548385,-7.8963146,0.45702913,0.17951788,0.19700389,0.74724036,-43.10625,15.450001,11.08125,0.16664496,-0.7268042,0.6291718,999.5478, , , , 
2026-03-20 17:40:47.207,7.908279,-6.8099732,0.552742,0.27847797,0.21899502,0.90484345,-40.912502,17.550001,10.59375,0.15937442,-0.72599286,0.6331584,999.5478, , , , 
2026-03-20 17:40:47.227,9.090333,-7.1545396,-0.0023928226,0.4153117,0.037568185,0.5572614,-42.24375,18.393751,12.525001,0.15451773,-0.72430646,0.63741314,999.52997, , , , 
2026-03-20 17:40:47.247,6.309873,-7.3579297,-0.04546363,0.53565204,-0.3924806,0.29642212,-43.40625,18.393751,12.187501,0.15477015,-0.7220893,0.64109933,999.52997, , , , 
2026-03-20 17:40:47.267,6.422336,-7.743174,-0.7106683,0.6120101,-0.36193737,0.3819432,-40.875,20.025002,11.981251,0.15638074,-0.719609,0.64524657,999.5173,37.88748485,127.73738902,176.073486328125,0.0
2026-03-20 17:40:47.288,7.176075,-7.499106,-0.66999036,0.5118283,0.107817635,0.20051636,-42.318752,19.275002,10.33125,0.15692176,-0.716216,0.65039694,999.5173, , , , 
2026-03-20 17:40:47.307,5.383851,-7.9369926,-0.6221339,0.49961102,0.49754936,0.10338886,-42.018753,19.29375,10.762501,0.15542065,-0.7125572,0.65450335,999.51166, , , , 
2026-03-20 17:40:47.327,5.4676,-7.9369926,-0.95473623,0.44035715,0.6637046,0.13881902,-40.96875,20.15625,11.0625,0.15158373,-0.70857257,0.6588461,999.51166, , , , 
2026-03-20 17:40:47.347,7.0396843,-7.5349984,-1.430908,0.34322965,0.47861254,-0.059101168,-42.768753,19.237501,10.368751,0.1483199,-0.7050401,0.6622826,999.518, , , , 
2026-03-20 17:40:47.367,7.109076,-7.432107,-2.57707,0.15386157,-0.11942407,-0.5740602,-42.975002,20.962502,9.225,0.15046653,-0.7027236,0.663299,999.518, , , , 
2026-03-20 17:40:47.387,5.070391,-8.152347,-2.4502504,-0.16073379,-0.20616686,-0.7542653,-42.525,21.13125,9.7875,0.15687728,-0.7023065,0.6612198,999.5273, , , , 
2026-03-20 17:40:47.409,3.2638102,-7.9800634,-0.2656033,-0.24136795,0.21716243,-0.3724748,-43.0875,18.956251,9.337501,0.16114558,-0.7033208,0.657497,999.5273, , , , 
2026-03-20 17:40:47.427,4.6372905,-7.5900335,-0.45702913,-0.17417282,0.3649917,-0.19471315,-43.162502,18.69375,9.825001,0.16053705,-0.7035057,0.65646714,999.54535, , , , 
2026-03-20 17:40:47.447,6.0251274,-7.3172517,-1.6749759,-0.17539455,0.029016078,-0.22281294,-42.91875,19.10625,8.85,0.15982565,-0.70385486,0.65497214,999.54535, , , , 
2026-03-20 17:40:47.467,7.322037,-6.9128647,-1.0360922,-0.22426373,-0.43218684,-0.38347036,-43.537502,19.03125,10.3125,0.16214563,-0.70500255,0.6529541,999.59, , , , 
2026-03-20 17:40:47.487,6.5491557,-7.786245,-0.46899325,-0.19982915,-0.53053606,-0.4488329,-42.65625,18.2625,9.1875,0.16992638,-0.7070772,0.6486519,999.59, , , , 
2026-03-20 17:40:47.507,4.9842496,-7.4775705,0.031106694,-0.13874267,-0.047952887,-0.11285727,-41.5125,17.493752,10.96875,0.17362076,-0.7081428,0.6464351,999.6049, , , , 
2026-03-20 17:40:47.527,7.312466,-5.9988065,-0.64606214,-0.1918879,0.5904008,0.05146536,-43.631252,17.268751,11.962501,0.17110552,-0.7083511,0.64598775,999.6049, , , , 
2026-03-20 17:40:47.547,7.5756764,-5.3359947,-0.3182454,-0.15951207,0.5751292,-0.06093376,-43.3875,18.1875,8.962501,0.16713628,-0.70800173,0.6455484,999.63007, , , , 
2026-03-20 17:40:47.567,7.9346,-5.465207,0.5766702,0.07933606,-0.13408482,-0.20143266,-44.68125,16.181252,9.675,0.16661815,-0.70713466,0.6450545,999.63007, , , , 
2026-03-20 17:40:47.587,8.602198,-5.871987,1.0959128,0.32917976,-0.7846558,-0.29367325,-43.706253,16.03125,10.03125,0.1710015,-0.7064528,0.64505863,999.6474, , , , 
2026-03-20 17:40:47.607,8.425129,-6.3888364,1.0600204,0.39026624,-0.7858775,-0.23014331,-43.78125,16.3875,10.481251,0.18174872,-0.70468986,0.6457921,999.6474, , , , 
2026-03-20 17:40:47.627,10.0881405,-5.8337016,2.6105695,0.44218975,-0.38148504,-0.15683953,-42.75,15.1125,12.0,0.19017269,-0.70166636,0.64786553,999.6816, , , , 
2026-03-20 17:40:47.647,10.992627,-5.6446686,2.9072795,0.5851321,-0.5696314,-0.22220206,-43.10625,17.456251,9.900001,0.19325747,-0.69997096,0.6491169,999.6816, , , , 
2026-03-20 17:40:47.667,13.150953,-5.493921,2.737389,0.8765146,-1.0852013,-0.48120874,-43.59375,17.2875,10.106251,0.20390078,-0.6955456,0.65197986,999.7214, , , , 
2026-03-20 17:40:47.686,13.167703,-6.1232333,2.6608188,0.9846377,-0.8481857,-0.7170025,-42.46875,17.025002,10.1625,0.21702814,-0.6895987,0.65504915,999.7214, , , , 
2026-03-20 17:40:47.706,13.289737,-5.9676995,2.2707887,1.0457242,-0.6716458,-0.8978185,-43.18125,15.937501,12.618751,0.2303125,-0.68219745,0.6585496,999.736, , , , 
2026-03-20 17:40:47.727,13.119846,-5.639883,1.4644074,1.0072397,-0.61117023,-1.0926844,-43.800003,15.000001,12.431251,0.24748193,-0.6717053,0.66256535,999.736, , , , 
2026-03-20 17:40:47.746,13.909478,-5.0392847,1.2299109,0.9046144,-0.7492257,-1.2899936,-41.5875,15.093751,13.106251,0.25859013,-0.6654743,0.6640454,999.7304, , , , 
2026-03-20 17:40:47.766,15.280565,-5.197211,2.062613,0.842917,-1.1236857,-1.8324416,-43.3875,13.5375,13.856251,0.2819612,-0.6550884,0.6635204,999.7304, , , , 
2026-03-20 17:40:47.787,14.988641,-6.1639113,2.1296122,0.88017976,-1.163392,-2.453691,-44.60625,11.90625,14.700001,0.30602416,-0.64513475,0.66079915,999.7297, , , , 
2026-03-20 17:40:47.807,13.639089,-6.771688,1.2346965,0.73418313,-0.95386535,-2.7988298,-42.825,10.59375,15.656251,0.33164343,-0.63343847,0.65668076,999.7297, , , , 
2026-03-20 17:40:47.827,13.103097,-6.9248285,1.4141582,0.544815,-0.584903,-3.0071347,-43.706253,7.65,14.85,0.3561743,-0.6211594,0.6510317,999.7402, , , , 
2026-03-20 17:40:47.847,13.849657,-7.463214,1.3782659,0.5014436,-0.12553272,-3.1958919,-44.8875,6.2812505,16.275002,0.38361564,-0.60393095,0.64357716,999.7402, , , , 
2026-03-20 17:40:47.867,13.550554,-8.312666,0.6628119,0.5191587,0.25076,-3.3498297,-44.5125,2.4375,17.38125,0.39866054,-0.5918734,0.6394423,999.74774, , , , 
2026-03-20 17:40:47.888,11.906686,-8.255239,-0.65324056,0.3407862,0.8512401,-3.267974,-45.018753,2.025,16.21875,0.41912162,-0.56986064,0.63356036,999.74774, , , , 
2026-03-20 17:40:47.907,12.177074,-7.5589266,0.09571291,0.1343139,0.9764674,-3.2276568,-45.35625,-1.2375001,15.375001,0.43122905,-0.55261856,0.6285322,999.7414, , , , 
2026-03-20 17:40:47.927,11.676974,-7.4129643,0.98584294,0.26015204,0.6679806,-3.312567,-45.693752,-5.11875,14.231251,0.443522,-0.53515744,0.6222717,999.7414, , , , 
2026-03-20 17:40:47.946,10.167104,-7.456035,0.552742,0.3523926,0.47494736,-3.3638797,-45.525,-8.587501,15.337501,0.45785856,-0.5170818,0.61464494,999.72845, , , , 
2026-03-20 17:40:47.967,7.9657063,-7.166504,0.38524446,0.4067596,0.3594939,-3.190394,-44.081253,-10.181251,14.19375,0.47237694,-0.4989974,0.6064041,999.72845, , , , 
2026-03-20 17:40:47.987,7.3363943,-6.8339014,0.2847459,0.46906778,0.065667965,-2.9570436,-43.18125,-13.06875,13.8,0.4866475,-0.48186606,0.5979419,999.7321, , , , 
2026-03-20 17:40:48.007,7.499106,-6.71426,-0.2656033,0.43852454,-0.35888305,-2.7890558,-42.61875,-15.993751,14.85,0.5057486,-0.46315616,0.5856239,999.7321, , , , 
2026-03-20 17:40:48.027,5.812166,-6.6855464,-0.93559366,0.30718863,-0.39492407,-2.5667012,-42.375,-19.087502,15.150001,0.5208029,-0.45030257,0.5745085,999.72894, , , , 
2026-03-20 17:40:48.048,4.4434714,-6.302695,-0.9738788,0.108657576,-0.30757043,-2.1671956,-42.15,-20.0625,16.10625,0.5331306,-0.43978095,0.5639245,999.72894, , , , 
2026-03-20 17:40:48.066,3.586841,-5.986842,-1.1006985,-0.042226028,-0.11759147,-1.6956079,-40.36875,-22.237501,15.1125,0.5418356,-0.4316142,0.5551226,999.7336, , , , 
2026-03-20 17:40:48.087,2.9072795,-5.8504515,-1.0600204,-0.15951207,0.08093958,-1.1818706,-38.643753,-23.8125,15.01875,0.54685724,-0.42566085,0.5486972,999.7336, , , , 
2026-03-20 17:40:48.107,1.942972,-5.4963136,-1.8113668,-0.19372049,0.01802051,-0.7298307,-38.268753,-24.018751,16.3875,0.5493355,-0.42201993,0.54439795,999.7426, , , , 
2026-03-20 17:40:48.128,-0.38524446,-4.855037,-2.347359,-0.30001098,-0.05894845,-0.15500695,-39.24375,-25.237501,16.25625,0.55008894,-0.4219771,0.5407927,999.7426, , , , 
2026-03-20 17:40:48.147,-0.89491564,-4.8239303,-2.565106,-0.43684468,0.032681264,0.34590217,-38.175003,-25.125002,15.356251,0.54851,-0.42456028,0.54011196,999.74774, , , , 
2026-03-20 17:40:48.167,-0.4881358,-5.9246287,-1.6247265,-0.5248092,0.10720677,1.0050253,-39.581253,-24.88125,13.950001,0.5413925,-0.4327291,0.5422378,999.74774, , , , 
2026-03-20 17:40:48.188,0.43788654,-6.666404,-1.4452649,-0.4606684,-0.053450666,1.4033091,-39.768753,-24.4125,14.400001,0.5333623,-0.4424727,0.5464045,999.74896, , , , 
2026-03-20 17:40:48.209,1.68694,-7.4416785,-1.5768701,-0.43867728,-0.23732096,1.747226,-39.35625,-22.143751,16.3875,0.5247639,-0.45478716,0.551445,999.74896, , , , 
2026-03-20 17:40:48.227,1.7922242,-8.224132,-1.6558332,-0.47838348,-0.35766134,2.0037892,-40.10625,-21.075,13.481251,0.51529664,-0.4691455,0.5568548,999.7548, , , , 
2026-03-20 17:40:48.247,1.9669002,-9.446864,-1.3854443,-0.5296961,-0.56291187,2.4039056,-41.41875,-19.48125,14.2875,0.50461304,-0.48596597,0.56244373,999.7548, , , , 
2026-03-20 17:40:48.267,2.6129622,-10.679168,-0.71306115,-0.45944667,-0.8304707,2.9469645,-42.2625,-17.71875,16.29375,0.48943087,-0.5107441,0.57014126,999.7663,37.88748485,127.73738902,176.073486328125,0.0
2026-03-20 17:40:48.287,3.8117664,-11.440085,-0.4354937,-0.31772605,-0.9495893,3.4631453,-43.8375,-16.0125,16.81875,0.4754342,-0.5328245,0.57770777,999.7663, , , , 
2026-03-20 17:40:48.307,5.3647084,-11.856436,-0.46660042,-0.25480697,-0.80176,3.9359546,-41.41875,-13.63125,14.887501,0.4585085,-0.55571973,0.58701324,999.7756, , , , 
2026-03-20 17:40:48.327,6.9798636,-11.947364,-0.059820566,-0.2126573,-0.3857611,4.3140798,-43.85625,-10.40625,15.731251,0.43695763,-0.5780174,0.59842396,999.7756, , , , 
2026-03-20 17:40:48.347,8.109276,-12.107682,0.3182454,-0.11308634,-0.017409647,4.5132217,-43.85625,-6.80625,15.843751,0.41112888,-0.5983931,0.61154854,999.79095, , , , 
2026-03-20 17:40:48.367,7.812566,-12.760923,0.41874397,0.06101012,0.047952887,4.7337437,-45.24375,-2.7375002,16.987501,0.38283765,-0.61662155,0.62547135,999.79095, , , , 
2026-03-20 17:40:48.388,8.147561,-13.569697,0.5694918,0.2534325,0.011911863,4.981144,-45.693752,1.6875001,18.16875,0.35274702,-0.63316834,0.63987964,999.7956, , , , 
2026-03-20 17:40:48.409,10.509277,-13.923835,-0.17228323,0.50694144,-0.021685699,5.1179776,-44.90625,6.0375004,14.137501,0.31360093,-0.65058357,0.6580478,999.7956, , , , 
2026-03-20 17:40:48.427,12.110075,-13.306487,-1.3998013,0.37316203,-0.07849612,4.920058,-45.075,10.481251,17.456251,0.28288165,-0.66226584,0.67032915,999.7922, , , , 
2026-03-20 17:40:48.447,12.184253,-13.3639145,-1.5337993,0.084833845,-0.043065965,4.6579967,-41.9625,15.01875,17.025002,0.25341302,-0.673292,0.678786,999.7922, , , , 
2026-03-20 17:40:48.468,12.832707,-13.150953,-1.0360922,-0.2163225,0.16523892,4.5003934,-41.23125,17.85,16.3125,0.22356749,-0.6842421,0.6839322,999.7719, , , , 
2026-03-20 17:40:48.487,14.282759,-11.7463665,-0.4546363,-0.4796052,0.4205804,4.078897,-40.48125,21.525002,15.712501,0.19366792,-0.6947595,0.68628997,999.7719, , , , 
2026-03-20 17:40:48.507,14.474184,-10.669596,-1.1772687,-0.7282272,0.8347467,3.6457937,-39.28125,24.750002,17.71875,0.16450009,-0.7044675,0.686308,999.74506, , , , 
2026-03-20 17:40:48.527,13.986049,-9.425328,-0.38285163,-1.122235,1.2886193,3.0642505,-36.825,28.0125,15.58125,0.13544896,-0.71456754,0.6833605,999.74506, , , , 
2026-03-20 17:40:48.547,12.787244,-9.042477,0.6771688,-1.2407427,1.4059052,2.6354234,-35.4,29.38125,17.362501,0.107780166,-0.7245769,0.678251,999.7253, , , , 
2026-03-20 17:40:48.567,12.236895,-8.860622,1.0959128,-1.1863757,1.3246603,2.3684754,-35.362503,30.900002,15.1125,0.07581186,-0.7357225,0.67089075,999.7253, , , , 
2026-03-20 17:40:48.587,12.263216,-8.664411,1.5098711,-1.0751984,1.171944,2.1650574,-33.131252,32.60625,16.48125,0.05845623,-0.74145895,0.6664672,999.717, , , , 
2026-03-20 17:40:48.607,12.832707,-7.8699937,1.7419748,-0.83085245,0.9471458,1.9249877,-32.287502,35.30625,15.76875,0.033101168,-0.7489045,0.6601207,999.717, , , , 
2026-03-20 17:40:48.627,13.722837,-7.3028946,1.5194423,-0.57062405,0.60200727,1.5829034,-32.456253,34.425003,15.843751,0.01696907,-0.7529134,0.6563667,999.71234, , , , 
2026-03-20 17:40:48.647,15.359529,-7.1306114,1.0576276,-0.31100652,0.19944735,1.1583524,-30.993752,35.193752,16.725,0.0059317886,-0.7553308,0.6539818,999.71234, , , , 
2026-03-20 17:40:48.667,16.228123,-6.474978,0.44027936,-0.17417282,-0.030237807,0.685543,-30.300001,36.393753,15.187501,0.0010506007,-0.7564522,0.6528589,999.71747, , , , 
2026-03-20 17:40:48.687,16.271194,-6.5371914,-0.38285163,-0.31283912,0.041233372,0.04963276,-27.91875,35.8875,16.2,9.714298E-4,-0.7576164,0.6514608,999.71747, , , , 
2026-03-20 17:40:48.707,15.950556,-6.91765,1.2323036,-0.37881252,0.18723005,-0.35414886,-29.831251,36.5625,15.6,0.003576831,-0.75970924,0.6486959,999.7065, , , , 
2026-03-20 17:40:48.727,16.398014,-6.73101,3.199204,-0.09659299,0.091324285,-0.93996817,-30.7875,36.956253,16.7625,0.010948777,-0.76091534,0.6463983,999.7065, , , , 
2026-03-20 17:40:48.747,15.804593,-6.6999035,4.2999024,0.29741478,-0.16829325,-1.5477786,-31.1625,34.3125,15.712501,0.019761322,-0.75975484,0.64682186,999.69403, , , , 
2026-03-20 17:40:48.767,13.720445,-7.4679995,3.4695928,0.8099303,-0.36804602,-2.2844815,-31.1625,34.3125,15.712501,0.042856634,-0.75357205,0.651178,999.69403, , , , 
2026-03-20 17:40:48.787,11.452049,-9.0544405,2.2947168,1.0652719,-0.43646288,-2.7145305,-32.006252,32.98125,15.562501,0.06636322,-0.74557537,0.65639883,999.7133, , , , 
2026-03-20 17:40:48.807,10.782059,-10.753345,1.6319051,1.1520146,-0.74372786,-2.9723153,-34.66875,31.35,14.55,0.092717305,-0.7360842,0.66158026,999.7133, , , , 
2026-03-20 17:40:48.827,11.507084,-11.942577,1.5218352,1.1061997,-1.0564907,-3.1818419,-35.5875,30.393751,13.931251,0.122502625,-0.725976,0.66551924,999.7253, , , , 
2026-03-20 17:40:48.847,12.842279,-13.536198,1.6654046,0.9718095,-1.3515383,-3.5672977,-37.10625,27.993752,14.531251,0.15606642,-0.7155979,0.6672212,999.7253, , , , 
2026-03-20 17:40:48.867,12.873385,-14.790037,1.847259,0.8190933,-1.2415826,-3.9631379,-38.643753,25.462502,14.83125,0.19231029,-0.70456123,0.6663714,999.70795, , , , 
2026-03-20 17:40:48.887,12.069397,-15.3356,2.3353949,0.6700423,-0.85612696,-4.4035716,-40.912502,22.35,16.03125,0.23769075,-0.68902266,0.6622711,999.70795, , , , 
2026-03-20 17:40:48.907,10.849058,-15.885949,2.9048867,0.75006557,-0.7858775,-4.6662436,-40.725002,19.0125,16.96875,0.2738316,-0.6741806,0.65738904,999.70135, , , , 
2026-03-20 17:40:48.927,9.473185,-15.818951,1.2418749,0.9321033,-0.6221658,-4.6442523,-42.675003,15.712501,15.50625,0.30986208,-0.6566712,0.6522051,999.70135, , , , 
2026-03-20 17:40:48.947,9.241081,-14.976677,-1.160519,0.69692034,0.057726722,-4.4396124,-42.825,11.56875,18.225,0.34179187,-0.637788,0.6469647,999.7131, , , , 
2026-03-20 17:40:48.967,10.152746,-14.050654,-1.7611175,0.12637265,1.0112866,-4.3718066,-44.49375,8.306251,16.893751,0.3709173,-0.614657,0.63924056,999.7131, , , , 
2026-03-20 17:40:48.987,10.061819,-13.785051,0.30149564,-0.023900084,1.1963787,-4.483595,-43.85625,6.3750005,16.931252,0.38447705,-0.60055333,0.6334758,999.71576, , , , 
2026-03-20 17:40:49.007,8.420342,-13.887942,2.0410776,0.29130614,0.64171344,-4.5746136,-45.80625,1.5937501,14.793751,0.40847367,-0.5750606,0.62212956,999.71576, , , , 
2026-03-20 17:40:49.027,7.281359,-13.445271,1.6510476,0.72135496,-0.053450666,-4.5110836,-45.3375,-1.85625,14.775001,0.43212765,-0.55322415,0.61175334,999.7143, , , , 
2026-03-20 17:40:49.047,5.7116675,-12.882957,0.55752766,0.93149245,-0.6490438,-4.379748,-44.362503,-6.4875,15.093751,0.45946124,-0.5314674,0.5995603,999.7143, , , , 
2026-03-20 17:40:49.067,4.211368,-11.9019,-0.047856454,0.95042926,-1.0192279,-4.125017,-42.43125,-9.262501,14.906251,0.48814258,-0.5111225,0.58539957,999.73553, , , , 
2026-03-20 17:40:49.087,2.7014968,-10.60499,-0.92602235,0.7457895,-0.8946115,-3.7401724,-43.612503,-12.750001,16.462502,0.5150413,-0.49231878,0.57046366,999.73553, , , , 
2026-03-20 17:40:49.107,1.4333007,-9.707682,-0.782453,0.48495027,-0.5079341,-3.2759151,-41.643753,-15.3,17.325,0.5371313,-0.47513622,0.5564392,999.73285, , , , 
2026-03-20 17:40:49.127,0.70348984,-9.12144,-0.51206404,0.37804893,-0.14385866,-2.6882632,-40.40625,-18.4125,19.06875,0.5568471,-0.4557458,0.54273564,999.73285, , , , 
2026-03-20 17:40:49.147,0.148355,-8.930014,-1.0935199,0.31696245,0.15790854,-2.2576034,-39.975002,-19.987501,18.806252,0.56526685,-0.4451527,0.536915,999.73065, , , , 
2026-03-20 17:40:49.167,-0.6221339,-9.238688,-1.5960127,0.19906557,0.33078328,-1.6730059,-37.48125,-20.737501,18.431252,0.5744555,-0.43012157,0.53063625,999.73065, , , , 
2026-03-20 17:40:49.187,-1.1629118,-9.346365,-2.105684,0.08239039,0.24770567,-1.1421645,-38.11875,-20.925001,19.44375,0.5785314,-0.4218703,0.5277125,999.7402, , , , 
2026-03-20 17:40:49.207,-2.1750758,-9.327223,-2.115255,-0.05383246,0.16829325,-0.5545125,-37.725002,-24.0,19.875,0.5803232,-0.4178946,0.5259739,999.7402, , , , 
2026-03-20 17:40:49.227,-3.1058838,-9.726824,-1.9477576,-0.1485165,0.1395826,0.19257513,-37.518753,-23.85,18.300001,0.5790041,-0.41840932,0.52657956,999.74115, , , , 
2026-03-20 17:40:49.247,-2.495714,-10.267602,-2.347359,-0.27740896,-0.014355322,1.1943934,-37.95,-22.275002,18.4125,0.5742923,-0.42458194,0.5300696,999.74115, , , , 
2026-03-20 17:40:49.267,-0.5072784,-10.420743,-1.9262222,-0.42218393,-0.118202336,1.973246,-37.48125,-21.46875,18.018751,0.56596696,-0.43684584,0.5359795,999.7463,37.88748485,127.73738902,176.073486328125,0.0
2026-03-20 17:40:49.287,1.4213367,-10.057034,-0.72502524,-0.48632473,-0.14569125,2.6543603,-38.71875,-20.475,16.85625,0.5506317,-0.4582837,0.5462696,999.7463, , , , 
2026-03-20 17:40:49.307,3.225525,-10.164711,0.43788654,-0.3653735,-0.24342962,3.0856307,-41.006252,-18.6,17.75625,0.53561693,-0.47801542,0.55640036,999.7614, , , , 
2026-03-20 17:40:49.327,5.3623157,-10.939985,0.27996024,-0.11247548,-0.40042186,3.3208137,-40.893753,-16.59375,18.09375,0.519958,-0.4981409,0.5677345,999.7614, , , , 
2026-03-20 17:40:49.348,6.3625154,-12.2991085,-0.63888365,-0.005574141,-0.7168498,3.4833038,-41.5125,-13.931251,17.85,0.5049946,-0.51857424,0.5785933,999.7668, , , , 
2026-03-20 17:40:49.366,6.927222,-13.081561,-0.45942193,0.031688612,-0.93615025,3.6989388,-42.300003,-11.15625,19.1625,0.49391618,-0.5347036,0.58588773,999.7668, , , , 
2026-03-20 17:40:49.386,7.623533,-13.871193,0.5910272,0.2296088,-0.8420771,4.042245,-41.71875,-8.231251,20.025002,0.47363064,-0.56156313,0.5984316,999.7807, , , , 
2026-03-20 17:40:49.406,8.056634,-13.708481,0.53599226,0.47517645,-0.44562587,4.4130397,-41.49375,-5.08125,17.34375,0.45351326,-0.58110434,0.61122644,999.7807, , , , 
2026-03-20 17:40:49.428,10.377672,-12.473784,-1.5696917,0.50755227,0.20189081,4.5779734,-41.1375,-1.1812501,16.78125,0.4219253,-0.6021737,0.6303242,999.7873, , , , 
2026-03-20 17:40:49.446,10.210175,-11.550155,-2.4765713,0.23877177,0.4499019,4.412429,-41.362503,3.5062501,17.456251,0.40084928,-0.61355096,0.6409212,999.7873, , , , 
2026-03-20 17:40:49.466,9.473185,-11.743974,-1.5122639,-0.03489565,0.4071414,4.3776097,-40.893753,7.4062505,19.2,0.36427534,-0.6325477,0.6546873,999.7629, , , , 
2026-03-20 17:40:49.486,9.987641,-12.349358,0.033499517,-0.01962403,0.0980438,4.4374743,-38.643753,9.637501,16.66875,0.33543172,-0.6475636,0.6628808,999.7629, , , , 
2026-03-20 17:40:49.506,10.449456,-12.74178,0.19381863,0.08666644,0.20189081,4.5321584,-37.66875,13.6125,15.1125,0.30630934,-0.6607975,0.6704851,999.7504, , , , 
2026-03-20 17:40:49.526,11.614761,-12.480963,0.043070808,0.06772963,0.5537489,4.617069,-37.331253,17.737501,18.225,0.27450055,-0.6723303,0.67794436,999.7504, , , , 
2026-03-20 17:40:49.546,13.6199465,-11.298908,-0.58624154,-0.17661628,1.167668,4.4301443,-35.025,20.118752,13.687501,0.23987399,-0.68267345,0.6842717,999.72675, , , , 
2026-03-20 17:40:49.566,14.270794,-10.497313,-0.8350951,-0.40996662,1.4578288,4.0886707,-32.25,22.893751,12.76875,0.21272257,-0.68997884,0.68754226,999.72675, , , , 
2026-03-20 17:40:49.586,13.318451,-10.085748,-0.39960137,-0.66897327,1.1499529,3.522399,-32.362503,25.875002,11.681251,0.17073609,-0.7017046,0.689059,999.7104, , , , 
2026-03-20 17:40:49.607,13.323236,-9.458828,-0.19142582,-0.828409,0.7480039,3.066083,-30.056252,28.593752,12.20625,0.13645877,-0.71294284,0.6863583,999.7104, , , , 
2026-03-20 17:40:49.626,13.03849,-8.800801,0.567099,-0.94569504,0.7693842,2.7056727,-29.362501,30.0375,13.762501,0.11901149,-0.7194857,0.68326634,999.705, , , , 
2026-03-20 17:40:49.646,12.765709,-8.190632,0.9379865,-1.0373248,1.2495239,2.4533856,-28.0125,30.16875,13.6125,0.09622024,-0.7278592,0.67833894,999.705, , , , 
2026-03-20 17:40:49.666,13.493127,-7.109076,0.9667004,-1.0776418,1.561065,2.1308491,-26.343752,33.956253,11.981251,0.06623579,-0.73772395,0.6713397,999.70624, , , , 
2026-03-20 17:40:49.686,13.751552,-6.546763,1.0504491,-0.9847904,1.4828743,1.7301217,-27.35625,34.8375,12.95625,0.044094793,-0.7446223,0.665446,999.70624, , , , 
2026-03-20 17:40:49.706,14.25883,-6.029913,1.5720844,-0.80153096,1.2250893,1.3984222,-22.556252,34.36875,9.39375,0.02593153,-0.75010115,0.6601088,999.70306, , , , 
2026-03-20 17:40:49.727,15.156138,-6.003592,1.7706888,-0.4954877,0.8158099,0.87491107,-21.525002,36.581253,10.087501,0.013052318,-0.7536403,0.65629584,999.70306, , , , 
2026-03-20 17:40:49.747,15.756737,-6.771688,1.8424734,-0.1833358,0.33078328,0.3526217,-22.3125,35.737503,11.925,0.006657576,-0.7553142,0.65428036,999.7109, , , , 
2026-03-20 17:40:49.766,16.19941,-7.8604226,1.7611175,0.14530946,-0.28252497,-0.13240494,-21.28125,36.35625,9.76875,0.0077259415,-0.7550653,0.65440154,999.7109, , , , 
2026-03-20 17:40:49.786,17.094324,-8.035098,1.174876,0.45807222,-0.72845626,-0.72738725,-21.13125,34.78125,7.8375,0.01898276,-0.75208443,0.65744925,999.72406, , , , 
2026-03-20 17:40:49.806,17.173288,-7.9704924,0.7704889,0.5173261,-0.75411254,-1.4408773,-22.59375,33.600002,11.45625,0.03481294,-0.74841565,0.66066957,999.72406, , , , 
2026-03-20 17:40:49.826,14.617754,-8.207381,0.64845496,0.44341147,-0.3686569,-2.2789838,-22.63125,36.225002,9.918751,0.05481104,-0.7442823,0.6631375,999.7326, , , , 
2026-03-20 17:40:49.846,12.110075,-9.040084,1.282553,0.47700903,-0.06750056,-2.7450736,-24.056252,33.80625,13.293751,0.07634906,-0.7394865,0.66471875,999.7326, , , , 
2026-03-20 17:40:49.866,11.243874,-10.140782,1.6342978,0.71768975,-0.12797616,-3.0566146,-27.562502,30.112501,11.71875,0.099188976,-0.7328628,0.6665791,999.7331, , , , 
2026-03-20 17:40:49.886,11.68176,-11.018949,0.79441714,0.9669226,-0.5018254,-3.407862,-26.718752,31.2,9.8625,0.12551558,-0.7236025,0.6692663,999.7331, , , , 
2026-03-20 17:40:49.906,12.191431,-12.610175,0.0047856453,0.9168317,-0.9770782,-3.818363,-30.525002,28.312502,10.575001,0.15715487,-0.71275926,0.670865,999.72845, , , , 
2026-03-20 17:40:49.926,11.4018,-14.974284,0.36131623,0.6278926,-1.23975,-4.1280713,-31.087502,26.156252,9.225,0.20277193,-0.69928116,0.6681149,999.72845, , , , 
2026-03-20 17:40:49.946,10.872986,-15.192031,1.4333007,0.472733,-1.0754274,-4.081646,-35.831253,23.400002,14.19375,0.23884162,-0.6885676,0.66298705,999.7243, , , , 
2026-03-20 17:40:49.966,12.552748,-14.656038,1.9453648,0.42813987,-0.82314026,-4.232529,-38.49375,20.268751,13.106251,0.27247155,-0.6767126,0.656961,999.7243, , , , 
2026-03-20 17:40:49.986,12.669996,-15.096318,2.7397819,0.5136609,-1.0607667,-4.7157235,-39.09375,17.34375,13.8,0.30746517,-0.66266614,0.64929116,999.7509, , , , 
2026-03-20 17:40:50.006,11.062019,-15.160924,1.9094725,0.7219658,-1.1988221,-4.905702,-39.787502,13.387501,15.637501,0.34592298,-0.64562625,0.64002776,999.7509, , , , 
2026-03-20 17:40:50.026,10.116854,-14.684752,-0.67477596,0.49961102,-0.3753764,-4.771923,-39.037502,8.3625,15.8625,0.38222474,-0.6265597,0.63027173,999.7741, , , , 
2026-03-20 17:40:50.046,9.97807,-14.175081,-1.3974084,-0.084375694,1.0375538,-4.599048,-39.54375,5.71875,13.593751,0.4137512,-0.60200894,0.6189497,999.7741, , , , 
2026-03-20 17:40:50.066,9.296116,-13.789837,-0.148355,-0.23770276,1.4969242,-4.591107,-40.612503,1.1437501,13.35,0.43009615,-0.5811894,0.61051416,999.7912, , , , 
2026-03-20 17:40:50.086,8.161918,-13.3687,0.32303107,-0.097814724,1.1071924,-4.6124873,-39.54375,-4.59375,11.700001,0.44596285,-0.55921686,0.6009019,999.7912, , , , 
2026-03-20 17:40:50.107,6.546763,-12.751352,0.7106683,0.15386157,0.48411033,-4.6021028,-42.075,-6.8625,13.8,0.4646489,-0.5369708,0.5889626,999.80756, , , , 
2026-03-20 17:40:50.126,4.1347976,-12.268002,0.5383851,0.35911214,0.2073886,-4.3992953,-41.23125,-12.337501,10.931251,0.48540637,-0.5146071,0.5754922,999.80756, , , , 
2026-03-20 17:40:50.147,2.3712873,-11.655439,-0.2416751,0.43669197,0.14446951,-3.9252644,-41.79375,-16.3875,12.3,0.5052037,-0.4928146,0.5624749,999.8205, , , , 
2026-03-20 17:40:50.166,1.8831514,-10.856236,-0.65324056,0.4586831,0.054061532,-3.3235626,-39.1875,-18.75,12.637501,0.5262998,-0.4684117,0.5480382,999.8205, , , , 
2026-03-20 17:40:50.186,1.8783658,-10.114461,-1.0863415,0.46357,-0.1621846,-2.9289439,-37.275,-20.268751,11.2875,0.5376773,-0.45579717,0.53996503,999.8212, , , , 
2026-03-20 17:40:50.206,1.6749759,-9.49472,-1.4404793,0.39209884,-0.3460549,-2.539823,-35.175003,-22.29375,10.25625,0.5520748,-0.44166273,0.5291103,999.8212, , , , 
2026-03-20 17:40:50.226,0.36370903,-9.016156,-1.8711873,0.20517421,-0.13286309,-2.0279183,-35.15625,-25.425001,14.2875,0.56659,-0.42749113,0.5170106,999.8295, , , , 
2026-03-20 17:40:50.246,-1.2179468,-8.508878,-1.2586247,0.12637265,0.14202607,-1.4188862,-32.71875,-25.1625,12.31875,0.57344013,-0.41866943,0.510729,999.8295, , , , 
2026-03-20 17:40:50.266,-2.0673988,-8.051848,-1.2801601,0.23938264,0.2556469,-0.62292933,-33.91875,-25.9125,13.106251,0.576616,-0.41228396,0.50873953,999.8315,37.88746988,127.73738519,175.53717041015625,0.91
2026-03-20 17:40:50.286,-1.8424734,-8.724232,-2.9982069,0.21800236,0.10293072,0.074067354,-33.9,-28.031252,12.750001,0.57750314,-0.40957803,0.5101742,999.8315, , , , 
2026-03-20 17:40:50.307,-1.174876,-8.472985,-3.9170506,-0.0074067353,-0.17195843,0.7680097,-33.73125,-27.375002,10.856251,0.5763224,-0.41264823,0.51307166,999.83246, , , , 
2026-03-20 17:40:50.327,0.09571291,-8.243274,-3.330809,-0.3171152,-0.31367907,1.4167482,-34.162502,-24.956251,13.387501,0.57112163,-0.42485008,0.517422,999.83246, , , , 
2026-03-20 17:40:50.346,0.6364908,-8.13799,-2.105684,-0.49304423,-0.19211698,1.9469788,-35.006252,-25.5375,13.500001,0.5628229,-0.43899897,0.5227081,999.8256, , , , 
2026-03-20 17:40:50.366,1.1796615,-8.300702,-1.39023,-0.5321396,-0.15729769,2.339154,-34.2,-25.95,12.825001,0.5542189,-0.45135477,0.5282234,999.8256, , , , 
2026-03-20 17:40:50.386,3.2470603,-9.430114,-0.3924229,-0.4557815,-0.28313583,2.9384122,-37.350002,-22.556252,14.812501,0.53678036,-0.47503284,0.5397265,999.83466, , , , 
2026-03-20 17:40:50.406,4.551149,-10.676775,-0.03589234,-0.22365287,-0.5213731,3.378846,-34.74375,-19.275002,11.56875,0.5214416,-0.4959137,0.5504044,999.83466, , , , 
2026-03-20 17:40:50.426,6.541977,-11.942577,-0.9762716,-0.04650208,-0.69058263,3.6989388,-38.362503,-17.41875,14.175,0.5056135,-0.517804,0.56198394,999.8366, , , , 
2026-03-20 17:40:50.446,7.4033933,-12.658031,-1.5864414,-0.012293654,-0.7003565,3.9952083,-39.28125,-14.137501,11.90625,0.48860845,-0.5402669,0.57384944,999.8366, , , , 
2026-03-20 17:40:50.466,8.015956,-12.894921,-1.0576276,0.0029779659,-0.56352276,4.2792606,-40.6875,-10.81875,14.493751,0.46364394,-0.56843525,0.58918387,999.83417, , , , 
2026-03-20 17:40:50.486,8.56152,-12.825529,-0.39960137,0.07994693,-0.18234314,4.5517063,-38.71875,-6.76875,15.3,0.43981543,-0.5895935,0.60262644,999.83417, , , , 
2026-03-20 17:40:50.506,9.260223,-12.428321,-0.61734825,0.0891099,0.34910923,4.705644,-40.78125,-4.6125,15.543751,0.41140288,-0.60841686,0.61762786,999.8332, , , , 
2026-03-20 17:40:50.526,9.537791,-12.404392,-0.782453,-0.003130682,0.6233875,4.737409,-41.68125,1.0125,15.000001,0.37937683,-0.62528145,0.63254684,999.8332, , , , 
2026-03-20 17:40:50.546,10.150353,-12.847065,0.39720857,0.101327196,0.3026835,4.7771153,-42.2625,3.9375002,15.356251,0.34660926,-0.6408724,0.6458761,999.8298, , , , 
2026-03-20 17:40:50.567,11.832508,-12.997812,0.37806597,0.337121,-0.07299834,4.720916,-39.956253,11.75625,15.3,0.3160438,-0.6544521,0.65776,999.8298, , , , 
2026-03-20 17:40:50.586,12.839887,-12.839887,-0.61016977,0.36460993,-0.17989968,4.503448,-38.71875,16.368752,14.75625,0.28828362,-0.66556716,0.66798514,999.8132, , , , 
2026-03-20 17:40:50.606,13.349558,-12.58864,-1.3878372,0.039629854,0.1414152,4.2560477,-37.725002,18.46875,15.150001,0.2610994,-0.6754659,0.6757785,999.8132, , , , 
2026-03-20 17:40:50.626,13.306487,-12.078969,0.5599205,-0.3409389,0.54764026,3.906022,-36.487503,22.331251,14.175,0.22520211,-0.68805254,0.681181,999.79706, , , , 
2026-03-20 17:40:50.646,13.086347,-11.406586,1.753939,-0.2700786,0.4798343,3.5529423,-35.325,25.931252,14.625001,0.19773395,-0.6965893,0.6837911,999.79706, , , , 
2026-03-20 17:40:50.667,12.457035,-10.411171,1.1389836,-0.18944444,0.45967576,3.265225,-35.30625,27.431252,13.9125,0.17284325,-0.70297205,0.6860667,999.7939, , , , 
2026-03-20 17:40:50.686,11.827723,-9.403793,0.04546363,-0.31467173,0.6563742,3.0104942,-32.49375,29.7,13.8,0.14910825,-0.7084526,0.68742436,999.7939, , , , 
2026-03-20 17:40:50.706,11.837294,-9.016156,0.083748795,-0.51992226,0.86040306,2.8137958,-32.71875,31.5375,14.325001,0.1253709,-0.7142851,0.6870309,999.78485, , , , 
2026-03-20 17:40:50.726,12.126825,-8.398808,0.66041905,-0.575511,1.0320561,2.655582,-28.275002,34.631252,12.6,0.10148291,-0.72022617,0.6853152,999.78485, , , , 
2026-03-20 17:40:50.746,13.222738,-7.223932,0.31585258,-0.5333613,1.0754274,2.4576616,-29.156252,35.4,13.743751,0.07801396,-0.72535485,0.68331504,999.77875, , , , 
2026-03-20 17:40:50.767,14.943177,-6.2644095,-0.05742774,-0.5522981,1.063821,2.040441,-26.718752,36.6375,14.19375,0.051700257,-0.73083925,0.68018323,999.77875, , , , 
2026-03-20 17:40:50.786,16.218552,-5.302495,0.20338993,-0.5278635,0.959974,1.4790564,-23.98125,38.30625,11.325001,0.03501163,-0.7346859,0.6771319,999.77826, , , , 
2026-03-20 17:40:50.806,16.3358,-5.474778,0.13878371,-0.36903867,0.54641855,0.89262617,-25.087502,38.175003,14.700001,0.024151769,-0.7376157,0.6743743,999.77826, , , , 
2026-03-20 17:40:50.826,17.414963,-6.245267,0.23928227,-0.13324489,0.018631376,0.61040664,-23.643751,38.5875,11.587501,0.019524379,-0.7391804,0.6727968,999.77435, , , , 
2026-03-20 17:40:50.846,20.070997,-5.9246287,-0.50488555,0.1220966,-0.6423243,0.00320704,-25.518751,38.775,12.543751,0.022075728,-0.7389987,0.6729589,999.77435, , , , 
2026-03-20 17:40:50.866,20.477776,-5.0679984,-0.14356937,0.09888373,-1.0173953,-0.9668462,-23.118752,38.287502,11.08125,0.033513088,-0.7380842,0.67347246,999.7734, , , , 
2026-03-20 17:40:50.886,17.788244,-6.5204415,1.2897314,0.04329504,-1.054658,-2.1061091,-23.456251,37.48125,13.181251,0.06019991,-0.7365597,0.6729763,999.7734, , , , 
2026-03-20 17:40:50.906,15.347565,-8.781659,2.0147567,0.083612114,-0.7858775,-2.6497786,-26.925001,37.10625,14.64375,0.079565555,-0.7348475,0.6723554,999.77264, , , , 
2026-03-20 17:40:50.926,14.038691,-10.238888,2.359323,0.27236933,-0.5555815,-3.0175192,-28.725,35.550003,15.993751,0.11262814,-0.7294898,0.67195815,999.77264, , , , 
2026-03-20 17:40:50.946,14.297115,-11.380264,1.6941184,0.3523926,-0.5415316,-3.3950338,-31.368752,33.80625,13.14375,0.1404989,-0.7229075,0.6718665,999.78485, , , , 
2026-03-20 17:40:50.966,14.349757,-13.416556,1.591227,0.3786598,-0.67103493,-3.8519607,-32.362503,31.312502,16.462502,0.17147341,-0.7146592,0.6707257,999.78485, , , , 
2026-03-20 17:40:50.986,13.622339,-14.620147,1.8233309,0.32368198,-0.81031215,-4.3082767,-32.53125,28.95,14.775001,0.20571807,-0.70496064,0.6676978,999.78265, , , , 
2026-03-20 17:40:51.007,13.596018,-14.967106,1.4237294,0.21616977,-0.6911935,-4.622261,-34.068752,26.306252,14.00625,0.24170306,-0.69375026,0.6626188,999.78265, , , , 
2026-03-20 17:40:51.026,12.8518505,-15.940985,1.6390835,0.09582941,-0.092546016,-4.8177376,-36.73125,22.66875,14.94375,0.27653688,-0.68097824,0.6556776,999.7824, , , , 
2026-03-20 17:40:51.046,12.581462,-16.371693,1.1006985,0.024358233,0.5024363,-4.9014263,-36.787502,18.46875,11.34375,0.3136011,-0.66206414,0.64654356,999.7824, , , , 
2026-03-20 17:40:51.066,12.488141,-16.261623,1.160519,0.050625417,0.58307046,-5.03826,-36.0,17.41875,12.69375,0.33420077,-0.6492,0.64034694,999.8017, , , , 
2026-03-20 17:40:51.086,10.798809,-16.252052,1.5553347,0.3004691,0.27091852,-5.2624474,-43.4625,8.90625,15.825001,0.369933,-0.624554,0.62827617,999.8017, , , , 
2026-03-20 17:40:51.107,9.686146,-15.6873455,0.5383851,0.56008667,0.016187917,-5.2294607,-42.6375,4.9125004,14.118751,0.40052122,-0.6024124,0.6173383,999.8239, , , , 
2026-03-20 17:40:51.126,8.52802,-14.993426,-0.67477596,0.52526736,0.07666353,-5.183035,-43.537502,1.95,14.062501,0.43038914,-0.5787858,0.6054687,999.8239, , , , 
2026-03-20 17:40:51.146,7.070791,-14.175081,-0.7968099,0.3615556,0.013133593,-5.0688033,-43.85625,-3.1875002,15.468751,0.45838898,-0.55501044,0.5917957,999.8256, , , , 
2026-03-20 17:40:51.166,5.881558,-13.488341,-0.6891329,0.23388486,-0.13591741,-4.8293443,-43.800003,-7.4062505,13.856251,0.49080718,-0.526462,0.57209843,999.8256, , , , 
2026-03-20 17:40:51.186,4.8191447,-12.849458,0.33499518,0.2870301,-0.3252855,-4.6033244,-40.706253,-12.31875,14.587501,0.51512897,-0.5046584,0.55513734,999.821, , , , 
2026-03-20 17:40:51.206,2.8977082,-12.268002,0.58624154,0.53687376,-0.6007855,-4.2337513,-39.09375,-17.38125,14.55,0.53910524,-0.48352182,0.53834254,999.821, , , , 
2026-03-20 17:40:51.226,1.2610176,-11.892328,-1.4955142,0.5423716,-0.4951059,-3.6210537,-37.59375,-19.237501,16.96875,0.5611329,-0.46387094,0.522975,999.8298, , , , 
2026-03-20 17:40:51.246,-0.55513483,-11.540584,-1.7946169,0.24182609,0.0058032153,-2.8446445,-36.24375,-21.84375,17.90625,0.5774248,-0.4467847,0.5104641,999.8298, , , , 
2026-03-20 17:40:51.266,-1.524228,-10.581061,-1.1294123,0.13981168,0.25076,-2.1366522,-33.956253,-24.225,18.88125,0.5872434,-0.4328986,0.50216746,999.83344,37.88745902,127.7373878,176.0216064453125,1.32
2026-03-20 17:40:51.286,-2.2492533,-9.717253,-2.3832514,0.043905906,0.4816669,-1.347415,-34.78125,-24.806252,17.925001,0.592516,-0.4223467,0.49785253,999.83344, , , , 
2026-03-20 17:40:51.306,-3.196811,-10.258031,-2.7948167,-0.21754421,0.6997456,-0.570395,-33.75,-26.41875,14.962501,0.59289914,-0.41564545,0.49717903,999.84076, , , , 
2026-03-20 17:40:51.326,-2.6416762,-10.899307,-2.1535404,-0.2926806,0.41141742,0.31719154,-31.500002,-26.2875,13.481251,0.5876147,-0.41505587,0.5005396,999.84076, , , , 
2026-03-20 17:40:51.346,-1.8424734,-10.71506,-1.753939,-0.23403756,-0.025961753,1.0294598,-33.35625,-27.375002,15.13125,0.5820431,-0.42138073,0.5047737,999.8376, , , , 
2026-03-20 17:40:51.368,-0.92602235,-10.265209,-2.1415763,-0.326889,-0.059559315,1.6110032,-34.068752,-24.562502,12.88125,0.57674134,-0.42940745,0.5090483,999.8376, , , , 
2026-03-20 17:40:51.386,0.3493521,-9.446864,-0.7728817,-0.48632473,0.1065959,2.2316418,-35.568752,-23.98125,13.63125,0.56298846,-0.4471666,0.5191552,999.84174, , , , 
2026-03-20 17:40:51.406,1.7156538,-10.057034,0.17706887,-0.38186684,0.18784092,2.6543603,-37.29375,-22.181252,15.4125,0.5482993,-0.4633284,0.5301592,999.84174, , , , 
2026-03-20 17:40:51.426,2.9455647,-11.595618,-0.36131623,-0.15157083,0.1084285,3.1155632,-36.80625,-20.625,13.406251,0.5318966,-0.48029536,0.54358864,999.8559, , , , 
2026-03-20 17:40:51.446,4.3740797,-12.806387,-1.0552348,-0.039171703,-0.19578215,3.5034623,-39.581253,-18.4125,13.725,0.5146351,-0.49899217,0.55801487,999.8559, , , , 
2026-03-20 17:40:51.466,5.4891353,-13.801801,-1.7706888,-0.062384564,-0.51526445,3.843714,-39.45,-14.681251,15.675,0.49706015,-0.5200367,0.57166886,999.8559, , , , 
2026-03-20 17:40:51.486,6.391229,-14.443077,-1.4620147,-0.14912736,-0.6423243,4.249328,-39.825,-11.606251,14.45625,0.47285056,-0.54920703,0.5872572,999.8559, , , , 
2026-03-20 17:40:51.506,6.8913293,-14.711074,-0.8422736,-0.15401429,-0.5720749,4.5724754,-43.36875,-7.89375,17.23125,0.4561633,-0.5673263,0.59646094,999.84515, , , , 
2026-03-20 17:40:51.526,8.260024,-14.902499,0.059820566,-0.04405862,-0.3894263,4.9664836,-41.68125,-4.0875,14.83125,0.42399162,-0.5967077,0.61256325,999.84515, , , , 
2026-03-20 17:40:51.547,9.695718,-14.926428,0.08135597,0.113544494,-0.16584979,5.084991,-40.65,0.375,15.093751,0.39499393,-0.6178701,0.6261091,999.84564, , , , 
2026-03-20 17:40:51.567,10.4016,-14.955141,-0.49052864,0.26015204,-0.12553272,5.1466885,-39.91875,7.65,15.675,0.36423996,-0.6361024,0.63965535,999.84564, , , , 
2026-03-20 17:40:51.586,11.727223,-14.720645,-0.8781659,0.31696245,-0.27885976,5.221214,-40.256252,8.75625,14.56875,0.33316442,-0.65232867,0.651879,999.83124, , , , 
2026-03-20 17:40:51.608,13.624732,-13.861622,-1.2801601,0.29130614,-0.3252855,5.0568914,-41.737503,14.681251,16.706251,0.30270353,-0.6666409,0.6619839,999.83124, , , , 
2026-03-20 17:40:51.626,14.440684,-13.136597,-1.8496519,-0.0019089525,-0.04856375,4.731911,-39.075,18.31875,15.281251,0.26568913,-0.6822281,0.67057425,999.7939, , , , 
2026-03-20 17:40:51.646,16.141981,-12.100504,-2.1008983,-0.49060076,0.50976664,4.3873835,-36.975002,21.50625,16.59375,0.23459068,-0.6944245,0.67378604,999.7939, , , , 
2026-03-20 17:40:51.666,16.44587,-11.117054,-1.442872,-0.9713514,1.095586,3.8467681,-34.143753,24.54375,15.187501,0.21056166,-0.7038658,0.6736688,999.74677, , , , 
2026-03-20 17:40:51.686,13.914264,-10.164711,0.11006984,-1.4893647,1.5451825,3.2236862,-34.068752,25.800001,16.35,0.17036468,-0.72018176,0.66905004,999.74677, , , , 
2026-03-20 17:40:51.706,12.454642,-9.5760765,1.713261,-1.5816053,1.5085306,3.0740242,-31.63125,29.6625,14.325001,0.13902333,-0.7332585,0.66256964,999.71576, , , , 
2026-03-20 17:40:51.726,12.8518505,-9.083155,3.0293136,-1.3891829,1.5030328,2.9830055,-31.331251,30.675001,16.556252,0.10844327,-0.74477845,0.6558371,999.71576, , , , 
2026-03-20 17:40:51.746,14.440684,-7.8867435,2.507678,-0.9878447,1.4132357,2.8797693,-30.50625,31.650002,14.55,0.07868121,-0.753407,0.6505853,999.7233, , , , 
2026-03-20 17:40:51.766,16.814365,-6.384051,0.2847459,-0.6744711,0.84146625,2.479042,-27.750002,36.54375,13.687501,0.052530095,-0.7589811,0.64714396,999.7233, , , , 
2026-03-20 17:40:51.786,18.664017,-5.855237,-0.9523434,-0.7410553,0.4254673,1.9231551,-28.500002,36.693752,16.21875,0.029747313,-0.76470375,0.6423291,999.7231, , , , 
2026-03-20 17:40:51.806,19.81257,-5.1900325,0.27038896,-0.81313735,0.1933387,1.3245076,-29.437502,35.60625,15.918751,0.020947171,-0.7684729,0.6383644,999.7231, , , , 
2026-03-20 17:40:51.827,20.245672,-4.5942197,1.268196,-0.73372495,0.15485422,0.65866494,-25.650002,36.24375,15.4875,0.013392378,-0.77417314,0.6317248,999.7143, , , , 
2026-03-20 17:40:51.846,20.482561,-4.3645086,3.4217365,-0.28596106,0.17867795,-0.09880738,-24.54375,36.600002,15.656251,0.013019451,-0.77698725,0.6280291,999.7143, , , , 
2026-03-20 17:40:51.866,20.681166,-4.2329035,3.251846,0.26137376,0.025961753,-0.74326974,-25.593752,36.487503,15.76875,0.018449996,-0.7761282,0.6284155,999.73285, , , , 
2026-03-20 17:40:51.886,19.508682,-5.15414,1.9812572,0.7897718,-0.48044515,-1.7096578,-25.518751,36.881252,16.050001,0.032116562,-0.77186364,0.6322623,999.73285, , , , 
2026-03-20 17:40:51.906,17.204395,-6.8865438,0.701097,1.0176244,-0.901331,-2.4842343,-26.2875,35.175003,15.3,0.054976333,-0.76511997,0.63775295,999.7331, , , , 
2026-03-20 17:40:51.926,14.845072,-8.9108715,0.9619147,1.0047961,-1.0919209,-3.0602798,-28.63125,34.575,15.900001,0.09210022,-0.7549774,0.64369744,999.7331, , , , 
2026-03-20 17:40:51.946,13.88555,-10.609776,1.550549,1.0744348,-1.0002911,-3.435351,-30.393751,34.612503,17.775002,0.124964364,-0.7451781,0.64755833,999.71576, , , , 
2026-03-20 17:40:51.966,13.536198,-12.227324,0.67477596,1.0383937,-0.82314026,-3.7652178,-32.175003,31.462502,15.825001,0.15899967,-0.733668,0.6504953,999.71576, , , , 
2026-03-20 17:40:51.988,13.287344,-13.741981,0.3900301,0.8087086,-0.62827444,-4.09875,-35.23125,28.031252,16.650002,0.19330782,-0.7213415,0.65122736,999.69794, , , , 
2026-03-20 17:40:52.006,13.710874,-14.756537,0.6891329,0.61750793,-0.5995638,-4.3638654,-33.225002,25.518751,15.0375,0.22785737,-0.70846885,0.6492991,999.69794, , , , 
2026-03-20 17:40:52.026,13.395021,-15.180067,0.4235296,0.4757873,-0.45051277,-4.6112657,-35.34375,22.706251,12.187501,0.2628484,-0.6946859,0.64482266,999.67816, , , , 
2026-03-20 17:40:52.046,13.24188,-15.694524,-0.40917268,0.19967642,0.008857539,-4.844005,-38.41875,19.3875,15.000001,0.3045425,-0.6758319,0.63617635,999.67816, , , , 
2026-03-20 17:40:52.066,13.088739,-16.24248,-0.13399807,-0.008628465,0.49938196,-5.074912,-41.04375,13.762501,16.5375,0.33446708,-0.659276,0.6269858,999.68646, , , , 
2026-03-20 17:40:52.086,12.086147,-16.321444,0.85184485,0.048792824,0.66187197,-5.29238,-43.050003,10.950001,15.20625,0.36257464,-0.640208,0.6165692,999.68646, , , , 
2026-03-20 17:40:52.106,10.535598,-16.280766,1.0743774,0.32429284,0.45417798,-5.3577423,-41.943752,6.20625,14.7375,0.3911528,-0.6182658,0.6054511,999.715, , , , 
2026-03-20 17:40:52.126,9.475577,-16.046268,0.715454,0.60223633,-0.02046397,-5.3284206,-45.112503,-0.075,13.725,0.4210769,-0.59439945,0.593397,999.715, , , , 
2026-03-20 17:40:52.146,7.884351,-15.440885,0.23928227,0.7421244,-0.5079341,-5.2148,-43.8375,-3.9375002,14.2875,0.45296556,-0.569976,0.5793449,999.73773, , , , 
2026-03-20 17:40:52.166,6.367301,-14.426328,0.11964113,0.73418313,-0.59650946,-4.8806567,-42.037502,-8.7375,15.13125,0.48492405,-0.54604024,0.5635601,999.73773, , , , 
2026-03-20 17:40:52.186,5.151747,-13.351951,-0.22971097,0.5906299,-0.1273653,-4.4444995,-41.662502,-12.562501,16.237501,0.5191207,-0.51662695,0.54477054,999.7519, , , , 
2026-03-20 17:40:52.206,4.627719,-12.363714,-0.37328035,0.50510883,0.36804602,-4.066985,-39.525,-15.075001,16.0125,0.53484577,-0.49894932,0.5355678,999.7519, , , , 
2026-03-20 17:40:52.226,3.5006995,-11.73201,-0.9834501,0.4794525,0.6814197,-3.6741989,-39.1875,-19.143751,16.35,0.55482805,-0.4691994,0.52368426,999.76337, , , , 
2026-03-20 17:40:52.246,0.6987042,-11.660225,-2.050649,0.44585493,0.3582722,-3.15924,-36.881252,-20.8875,15.13125,0.5682598,-0.4472393,0.515098,999.76337, , , , 
2026-03-20 17:40:52.267,-0.4642076,-11.700903,-2.036292,0.35178176,-0.05894845,-2.6100724,-37.256252,-24.675001,18.018751,0.5807082,-0.43031758,0.50578344,999.767,37.88744799,127.73739211,176.33770751953125,1.0
2026-03-20 17:40:52.286,-1.3519448,-11.511869,-1.0504491,0.37621635,-0.3265072,-1.8452698,-36.412502,-26.437502,16.0125,0.5917394,-0.41878864,0.4968731,999.767, , , , 
2026-03-20 17:40:52.310,-1.8233309,-11.191232,-1.2705889,0.44707665,-0.3594939,-1.2924372,-34.10625,-27.45,15.225,0.59860176,-0.41275394,0.4920065,999.77216, , , , 
2026-03-20 17:40:52.326,-2.2660031,-10.69831,-2.7972097,0.29008442,-0.26725334,-0.2594648,-30.843752,-27.975,14.906251,0.6073465,-0.40790057,0.4877634,999.77216, , , , 
2026-03-20 17:40:52.346,-2.5866413,-9.798609,-3.1322048,0.0054214248,-0.07849612,0.5236638,-32.850002,-27.581251,17.71875,0.60760146,-0.41073433,0.48903364,999.78485, , , , 
2026-03-20 17:40:52.366,-1.4261223,-9.272188,-3.0556345,-0.30367616,0.05650499,1.2310452,-34.66875,-27.0375,18.956251,0.6026943,-0.41859147,0.49339926,999.78485, , , , 
2026-03-20 17:40:52.386,-0.4019942,-9.085547,-2.1296122,-0.5284744,0.18661919,1.7844887,-36.99375,-26.79375,20.737501,0.59328175,-0.43061677,0.50006664,999.78265, , , , 
2026-03-20 17:40:52.406,0.59342,-9.942178,-0.9738788,-0.5791762,0.23854269,2.298837,-35.15625,-24.468752,17.775002,0.58014405,-0.44563675,0.5090441,999.78265, , , , 
2026-03-20 17:40:52.426,1.6582261,-11.224731,-0.19381863,-0.37453645,0.057115857,2.8754933,-37.6875,-23.23125,17.5125,0.5647798,-0.4631306,0.5202504,999.7878, , , , 
2026-03-20 17:40:52.446,2.9312077,-12.330215,-0.44506502,-0.14485131,-0.25747952,3.3990045,-39.5625,-22.3125,18.75,0.54859865,-0.48307383,0.53305423,999.7878, , , , 
2026-03-20 17:40:52.467,3.6658044,-13.119846,-1.012164,-0.029397868,-0.41630435,3.9084656,-40.2,-19.0125,18.0,0.53141284,-0.50534564,0.5467929,999.80096, , , , 
2026-03-20 17:40:52.486,4.709075,-13.77548,-1.18684,-0.06421716,-0.24709481,4.562091,-39.600002,-15.337501,17.118752,0.50518394,-0.5358015,0.5657408,999.80096, , , , 
2026-03-20 17:40:52.507,7.051648,-13.849657,-1.268196,-0.14973822,0.08032872,4.9261665,-40.95,-11.75625,18.13125,0.48539305,-0.55466276,0.57833457,999.79803, , , , 
2026-03-20 17:40:52.526,8.748159,-13.600804,-1.1629118,-0.32139122,0.6056724,5.04162,-45.61875,-5.25,17.00625,0.44586697,-0.58442813,0.59996,999.79803, , , , 
2026-03-20 17:40:52.546,8.79123,-13.856836,-0.8135597,-0.4380664,0.71013033,5.150354,-46.59375,-1.5,16.275002,0.41019222,-0.6065469,0.6161654,999.7922, , , , 
2026-03-20 17:40:52.566,8.975478,-14.624932,-0.09571291,-0.3427715,0.41141742,5.303681,-46.143753,4.51875,17.737501,0.37335756,-0.62767637,0.6305326,999.7922, , , , 
2026-03-20 17:40:52.586,10.573883,-15.469599,-0.0526421,-0.155236,0.17928882,5.5993395,-46.987503,6.80625,16.63125,0.33669436,-0.64741755,0.6435092,999.779, , , , 
2026-03-20 17:40:52.606,14.560326,-14.9096775,-0.44506502,-0.15767947,0.17623448,5.6109457,-45.881252,12.993751,17.38125,0.2991363,-0.66528296,0.6551439,999.779, , , , 
2026-03-20 17:40:52.628,16.467405,-13.808979,-1.1222339,-0.44539678,0.40408704,5.2639747,-41.2125,17.118752,14.343751,0.26191488,-0.6810173,0.66368157,999.7597, , , , 
2026-03-20 17:40:52.646,16.859829,-12.629318,-0.18664017,-1.1063524,0.90499616,4.746572,-39.975002,21.206251,16.462502,0.2151248,-0.70005023,0.66768265,999.7597, , , , 
2026-03-20 17:40:52.666,15.893128,-11.459228,2.4239295,-1.3794091,1.3704752,4.2303915,-38.60625,24.862501,13.33125,0.17689908,-0.71464604,0.66648126,999.7104, , , , 
2026-03-20 17:40:52.686,14.605789,-10.561919,4.165904,-1.0941352,1.1646137,3.7019932,-37.36875,27.468752,14.7375,0.14090976,-0.7264363,0.6643007,999.7104, , , , 
2026-03-20 17:40:52.708,13.971691,-9.769895,3.0963125,-0.65431255,0.7724385,3.517512,-36.05625,31.06875,15.168751,0.11009499,-0.7342454,0.66348463,999.70355, , , , 
2026-03-20 17:40:52.726,15.409778,-8.190632,0.35653058,-0.4673879,0.6337722,3.2169666,-33.9,31.556252,14.156251,0.0831175,-0.7393131,0.6636177,999.70355, , , , 
2026-03-20 17:40:52.746,15.754344,-7.111469,-0.9379865,-0.6879101,0.8121447,2.8162394,-31.35,34.050003,14.512501,0.05862357,-0.74399835,0.66224366,999.6806, , , , 
2026-03-20 17:40:52.766,16.608582,-6.3625154,-0.078963146,-0.9340886,0.7492257,2.3342671,-30.281252,35.662502,14.00625,0.03118047,-0.7511396,0.65688115,999.6806, , , , 
2026-03-20 17:40:52.787,18.11606,-6.5659056,0.72502524,-0.86383915,0.33933538,1.810756,-27.862501,36.65625,12.76875,0.018395776,-0.75546485,0.6527474,999.6574, , , , 
2026-03-20 17:40:52.806,20.00639,-6.0729837,0.46660042,-0.7001274,0.06627883,1.2255474,-27.056252,36.99375,12.975,0.005704818,-0.7612647,0.64667493,999.6574, , , , 
2026-03-20 17:40:52.826,20.635702,-5.912665,0.93320084,-0.75449437,0.12553272,0.523053,-25.10625,37.93125,12.543751,0.0018311843,-0.7655027,0.6417145,999.65204, , , , 
2026-03-20 17:40:52.846,21.001804,-5.5872407,3.4767714,-0.5248092,0.054672398,-0.2441932,-26.8875,39.46875,15.13125,0.0027117822,-0.7692471,0.63690305,999.65204, , , , 
2026-03-20 17:40:52.866,20.968306,-5.493921,4.9674997,0.051236283,-0.42729992,-1.2173008,-27.487501,39.412502,15.187501,0.011340124,-0.7701955,0.63503146,999.6523, , , , 
2026-03-20 17:40:52.886,18.455841,-6.7836523,5.2163534,0.7793871,-1.0516037,-2.224006,-28.125002,37.10625,16.3125,0.031397518,-0.76685363,0.63750243,999.6523, , , , 
2026-03-20 17:40:52.907,16.357336,-9.030513,2.5052853,1.2479204,-1.3973532,-2.9087853,-28.650002,36.5625,14.700001,0.061103426,-0.7589902,0.6436466,999.6801, , , , 
2026-03-20 17:40:52.926,14.842679,-11.279766,1.3830515,1.2735767,-1.2971714,-3.4316857,-31.687502,34.74375,17.2875,0.10457055,-0.74610615,0.65116763,999.6801, , , , 
2026-03-20 17:40:52.946,14.443077,-12.799209,0.80159557,1.1966077,-1.046106,-3.8055348,-31.237501,32.4375,14.587501,0.14056061,-0.7342034,0.65556204,999.67084, , , , 
2026-03-20 17:40:52.966,14.2851515,-13.964513,0.37328035,1.018846,-0.8139773,-4.2368054,-32.643753,30.54375,15.150001,0.17696922,-0.7213014,0.6576679,999.67084, , , , 
2026-03-20 17:40:52.986,13.385449,-15.017355,0.61016977,0.91316646,-0.7956514,-4.6039352,-34.85625,28.331251,15.20625,0.21457992,-0.7072735,0.65715265,999.6586, , , , 
2026-03-20 17:40:53.008,12.942778,-15.194424,-0.36131623,0.7885501,-0.7516691,-4.856222,-37.125,25.743752,15.281251,0.26269805,-0.68776196,0.6531091,999.6586, , , , 
2026-03-20 17:40:53.026,12.792029,-15.414563,-0.41874397,0.63705564,-0.89094627,-5.191587,-39.825,20.362501,15.4125,0.2923408,-0.67528135,0.64824516,999.64594, , , , 
2026-03-20 17:40:53.046,11.332408,-15.510277,-0.19860429,0.5350412,-1.1872157,-5.4615893,-41.98125,16.3875,16.95,0.344192,-0.652832,0.6357376,999.64594, , , , 
2026-03-20 17:40:53.066,9.128618,-14.701502,0.19860429,0.5442042,-1.1267401,-5.44815,-41.287502,12.6,17.7,0.3861626,-0.6331335,0.6227986,999.6601, , , , 
2026-03-20 17:40:53.086,7.8963146,-13.801801,-1.3375878,0.3249037,-0.14752385,-5.1170616,-42.24375,7.2562504,19.650002,0.4216643,-0.6118355,0.6105406,999.6601, , , , 
2026-03-20 17:40:53.107,7.460821,-12.969099,-1.8424734,0.0353538,0.87017685,-4.73466,-42.375,3.43125,15.8625,0.4467718,-0.5898626,0.60040814,999.67645, , , , 
2026-03-20 17:40:53.126,7.3459654,-12.593426,-1.6677973,-0.07582359,1.0430516,-4.4945903,-42.131252,-0.52500004,14.981251,0.46529567,-0.56752956,0.5913614,999.67645, , , , 
2026-03-20 17:40:53.146,7.1210403,-12.480963,-1.2921243,-0.05261073,0.52687085,-4.401128,-42.09375,-3.15,16.21875,0.48309255,-0.5458189,0.5806494,999.6613, , , , 
2026-03-20 17:40:53.168,7.1162543,-12.856636,-0.9236295,-0.0067958706,0.014355322,-4.357146,-43.125,-6.0,16.63125,0.49791387,-0.5304531,0.5705285,999.6613, , , , 
2026-03-20 17:40:53.186,5.5896335,-12.863814,-0.40438703,0.047571093,-0.59467685,-4.238638,-43.893753,-11.175,18.09375,0.52550536,-0.5067445,0.54972535,999.6574, , , , 
2026-03-20 17:40:53.207,3.5700915,-12.303894,-0.42831525,0.028023422,-0.6582068,-3.9558077,-42.825,-15.3,18.056252,0.54765326,-0.4891435,0.53141546,999.6574, , , , 
2026-03-20 17:40:53.226,1.0073783,-12.239287,-0.6987042,-0.06421716,-0.40958482,-3.4060292,-37.706253,-19.85625,15.937501,0.5709086,-0.4689234,0.51018745,999.6584, , , , 
2026-03-20 17:40:53.246,-1.4787644,-12.686746,-1.0408778,-0.16378812,-0.2037234,-2.5563164,-38.79375,-21.2625,20.60625,0.5841429,-0.4555289,0.49652267,999.6584, , , , 
2026-03-20 17:40:53.267,-3.1728828,-12.58864,-0.9954142,-0.20593779,-0.23426664,-1.6253585,-35.86875,-24.300001,18.46875,0.5926288,-0.4467956,0.48651934,999.66766,37.88743735,127.73739767,176.4764404296875,1.22
2026-03-20 17:40:53.286,-3.089134,-12.227324,-1.2729816,-0.2627482,-0.2122755,-0.7609848,-36.206253,-25.95,19.368752,0.5971212,-0.44351885,0.48003566,999.66766, , , , 
2026-03-20 17:40:53.306,-2.766103,-12.141182,-1.3016955,-0.33788458,-0.03940078,-0.032833982,-35.53125,-26.250002,18.225,0.5973908,-0.44473186,0.47734505,999.67255, , , , 
2026-03-20 17:40:53.326,-3.5940197,-11.519048,-1.8400806,-0.42645997,0.16890411,0.74052083,-34.10625,-25.10625,17.868752,0.5933483,-0.4495719,0.478699,999.67255, , , , 
2026-03-20 17:40:53.346,-2.8498518,-11.341979,-1.9118652,-0.55657417,0.18784092,1.8034256,-38.025,-24.768751,19.5,0.58144706,-0.4624169,0.4859736,999.6755, , , , 
2026-03-20 17:40:53.367,-0.15792629,-11.4903345,-1.0695918,-0.598113,0.07666353,2.6378667,-38.193752,-25.650002,18.7875,0.566855,-0.47901368,0.49535373,999.6755, , , , 
2026-03-20 17:40:53.386,3.3810585,-12.217752,0.03589234,-0.43073604,-0.08032872,3.143663,-37.706253,-22.612501,17.643751,0.54947495,-0.4990744,0.5069938,999.6728, , , , 
2026-03-20 17:40:53.406,5.1469617,-12.935599,0.29192436,-0.14912736,-0.1933387,3.4124434,-41.625,-19.425001,19.25625,0.5313176,-0.51970506,0.5202215,999.6728, , , , 
2026-03-20 17:40:53.427,6.0658054,-13.289737,-0.4761717,0.16241367,-0.35705048,3.721541,-41.30625,-18.0,17.2875,0.51296663,-0.5400115,0.5346921,999.66815, , , , 
2026-03-20 17:40:53.446,6.4797635,-13.47877,-1.4883357,0.2680933,-0.43829548,4.01048,-42.46875,-14.26875,17.6625,0.4939126,-0.5602909,0.54977363,999.66815, , , , 
2026-03-20 17:40:53.466,6.800402,-13.696517,-1.8448663,0.24732387,-0.43218684,4.33546,-42.5625,-10.3125,18.825,0.47305912,-0.58108413,0.5646575,999.66156, , , , 
2026-03-20 17:40:53.486,7.8436728,-13.490734,-2.012364,0.16302454,-0.18417573,4.6818204,-42.09375,-5.15625,18.018751,0.442095,-0.60720944,0.5833751,999.66156, , , , 
2026-03-20 17:40:53.507,8.504091,-13.299308,-1.9094725,0.10560325,-0.025961753,4.887071,-44.71875,-2.8125,19.25625,0.42061007,-0.6224259,0.59452283,999.64813, , , , 
2026-03-20 17:40:53.526,9.769895,-13.351951,-1.8592232,0.03901899,-0.18661919,5.050172,-44.8125,2.41875,17.71875,0.38228583,-0.6469615,0.61136633,999.64813, , , , 
2026-03-20 17:40:53.546,11.492727,-13.146168,-1.1509477,0.03413207,-0.30146176,5.0483394,-43.48125,7.0125003,19.63125,0.35132843,-0.6655122,0.622287,999.6296, , , , 
2026-03-20 17:40:53.566,12.260823,-12.959527,-0.6436693,0.09155336,-0.22204934,4.940827,-43.2,10.51875,19.25625,0.32047552,-0.68163013,0.63174087,999.6296, , , , 
2026-03-20 17:40:53.586,13.028919,-12.401999,-1.4691931,5.345067E-4,0.074830934,4.818043,-41.90625,15.50625,19.9125,0.28887823,-0.6953517,0.6400594,999.6108, , , , 
2026-03-20 17:40:53.606,13.978869,-11.763116,-2.469393,-0.41179922,0.6551525,4.697703,-39.16875,20.15625,17.5125,0.24601813,-0.7113664,0.6471622,999.6108, , , , 
2026-03-20 17:40:53.626,14.64886,-10.925629,-1.3806586,-0.8839977,1.3631448,4.402655,-37.162502,24.45,19.06875,0.2176368,-0.72114503,0.64888704,999.58563, , , , 
2026-03-20 17:40:53.646,14.388042,-9.509077,-0.16510476,-1.09047,1.5555671,3.9732172,-35.550003,26.493752,17.550001,0.16943792,-0.73634654,0.64847904,999.58563, , , , 
2026-03-20 17:40:53.666,14.639289,-8.293523,0.7680961,-1.0556507,1.1921027,3.644572,-35.7,29.362501,16.63125,0.14292489,-0.74437326,0.64672786,999.5627, , , , 
2026-03-20 17:40:53.687,15.553348,-7.003792,1.2179468,-0.7434988,0.6307179,3.16993,-33.375,31.44375,17.643751,0.10619206,-0.7549269,0.64324325,999.5627, , , , 
2026-03-20 17:40:53.708,16.465014,-6.1710896,0.59581286,-0.5290853,0.51648617,2.826013,-29.56875,34.21875,16.1625,0.08247176,-0.76047176,0.641326,999.5546, , , , 
2026-03-20 17:40:53.726,17.491533,-5.1828537,0.20817557,-0.39225155,0.44440413,2.3000586,-27.937502,34.3875,15.993751,0.0625729,-0.76431733,0.63975936,999.5546, , , , 
2026-03-20 17:40:53.746,18.647266,-5.345566,0.19381863,-0.22792892,0.12675445,1.6800308,-27.431252,36.80625,15.7875,0.04769022,-0.7668606,0.6384987,999.56366, , , , 
2026-03-20 17:40:53.766,19.630716,-5.235496,0.13878371,-0.11797326,-0.06383537,1.0636683,-25.800001,36.112503,14.887501,0.03778674,-0.76841533,0.6376744,999.56366, , , , 
2026-03-20 17:40:53.786,20.085354,-5.326423,-0.033499517,-0.12224931,-0.035124727,0.38255405,-26.437502,38.268753,16.987501,0.03597794,-0.7690295,0.6370783,999.5629, , , , 
2026-03-20 17:40:53.806,19.685751,-5.800202,1.5960127,0.04696023,9.162972E-4,-0.23380849,-28.331251,37.575,16.931252,0.038780417,-0.76894164,0.63678855,999.5629, , , , 
2026-03-20 17:40:53.826,19.558931,-5.326423,1.68694,0.4812851,-0.1065959,-0.93324864,-28.0125,36.99375,16.931252,0.04627129,-0.76625544,0.63903546,999.5651, , , , 
2026-03-20 17:40:53.846,19.08276,-5.7690954,0.83748794,0.83253235,-0.31062475,-1.740812,-28.425001,38.662502,18.581251,0.060033195,-0.76084113,0.64351505,999.5651, , , , 
2026-03-20 17:40:53.866,17.65903,-7.240681,-0.4139583,0.8752929,-0.5561924,-2.4426956,-30.018751,36.412502,17.025002,0.081368804,-0.75368726,0.6482827,999.57806, , , , 
2026-03-20 17:40:53.886,16.534405,-9.726824,0.73459655,0.8759037,-0.84024453,-3.2013896,-32.30625,34.55625,17.5125,0.1094427,-0.7457196,0.6515763,999.57806, , , , 
2026-03-20 17:40:53.907,16.228123,-12.045469,-0.4354937,0.870406,-0.7816015,-3.7481136,-32.2125,32.193752,17.493752,0.14203961,-0.7359084,0.6539361,999.57245, , , , 
2026-03-20 17:40:53.926,15.213567,-14.299508,-0.81595254,0.6614902,-0.59528774,-4.24719,-34.237503,31.275002,14.19375,0.18560323,-0.7220596,0.65372336,999.57245, , , , 
2026-03-20 17:40:53.947,14.323437,-15.481563,-0.65084773,0.46967867,-0.54092073,-4.5397944,-37.29375,27.31875,17.831251,0.22133847,-0.710124,0.6504311,999.5617, , , , 
2026-03-20 17:40:53.966,13.85205,-16.350157,0.8255238,0.35850126,-0.675311,-4.7694793,-39.15,23.15625,16.875,0.25783014,-0.69738215,0.6444005,999.5617, , , , 
2026-03-20 17:40:53.986,12.794423,-16.656439,3.1657043,0.612621,-0.833525,-5.026654,-43.18125,19.875,16.706251,0.29561457,-0.68231416,0.63700795,999.5644, , , , 
2026-03-20 17:40:54.006,11.30848,-15.969698,2.900101,1.0713805,-1.1578941,-5.2435107,-44.8125,15.69375,20.681252,0.33611172,-0.6630327,0.62978715,999.5644, , , , 
2026-03-20 17:40:54.026,8.956335,-14.859428,0.85902333,1.1532364,-0.90499616,-5.2117457,-42.75,11.94375,18.206251,0.37732214,-0.64017934,0.6224054,999.6049, , , , 
2026-03-20 17:40:54.047,7.6546397,-13.442878,-1.8448663,0.8050434,0.068722285,-4.767647,-43.65,8.25,18.65625,0.4206346,-0.6103897,0.6131282,999.6049, , , , 
2026-03-20 17:40:54.066,8.413164,-12.641282,-2.321038,0.28397575,1.0375538,-4.4561057,-46.537502,3.4687502,19.85625,0.43852037,-0.5931266,0.60825586,999.6291, , , , 
2026-03-20 17:40:54.086,8.628518,-12.423535,-0.18903299,0.075670876,1.3087778,-4.40968,-43.66875,-0.69375,16.85625,0.45927787,-0.56447726,0.6002066,999.6291, , , , 
2026-03-20 17:40:54.106,7.879565,-12.117254,0.6149554,0.25526512,0.6081159,-4.5025315,-45.80625,-4.6687503,18.075,0.47706825,-0.54105,0.5913524,999.6215, , , , 
2026-03-20 17:40:54.126,6.343373,-12.2584305,0.5407779,0.46051568,-0.100487255,-4.482373,-46.3875,-9.075001,17.625,0.49896106,-0.5178509,0.5791808,999.6215, , , , 
2026-03-20 17:40:54.146,5.0679984,-12.093326,0.2847459,0.5307651,-0.35460702,-4.3229375,-45.206253,-11.08125,18.84375,0.5225248,-0.49542746,0.56482834,999.63275, , , , 
2026-03-20 17:40:54.166,3.2039895,-11.988042,-0.9523434,0.4825068,-0.18906265,-4.057211,-42.9,-14.83125,19.275002,0.5445738,-0.47347286,0.5503585,999.63275, , , , 
2026-03-20 17:40:54.186,0.4331009,-11.976077,-2.6632116,0.20211989,0.12614357,-3.3730426,-43.537502,-19.48125,18.84375,0.56181103,-0.45315585,0.5376448,999.6462, , , , 
2026-03-20 17:40:54.207,0.016749758,-11.8588295,-3.0819557,-0.20288347,0.08460477,-2.4976733,-41.30625,-21.487501,18.4125,0.5756972,-0.4346919,0.52406067,999.6462, , , , 
2026-03-20 17:40:54.227,0.7322037,-11.75833,-2.4454648,-0.46005753,0.021685699,-1.9454516,-38.081253,-22.9125,18.768751,0.5821868,-0.42610604,0.51426053,999.64325, , , , 
2026-03-20 17:40:54.246,-1.3878372,-11.389835,-1.7970098,-0.6396518,0.24770567,-1.4274383,-35.4,-24.35625,16.10625,0.58524215,-0.42058778,0.50606716,999.64325, , , , 
2026-03-20 17:40:54.267,-3.5318062,-11.650654,-1.4596218,-0.66897327,0.44073895,-0.84161896,-37.95,-27.487501,16.85625,0.5842614,-0.41730154,0.50132036,999.6418,37.8874265,127.73740522,176.6795654296875,1.34
2026-03-20 17:40:54.286,-4.6779685,-12.033505,-1.3663018,-0.55290896,0.2611447,0.21578798,-36.45,-26.7,15.262501,0.57985014,-0.41823056,0.5007745,999.6418, , , , 
2026-03-20 17:40:54.306,-3.2231321,-11.315659,-1.3639089,-0.48571387,-0.16462806,1.2194388,-36.73125,-27.45,14.1,0.5734585,-0.4258413,0.5034482,999.6552, , , , 
2026-03-20 17:40:54.326,-0.7585248,-11.341979,-0.87338024,-0.43501207,-0.25747952,1.9891285,-37.275,-26.400002,15.4875,0.56488574,-0.43950105,0.5088451,999.6552, , , , 
2026-03-20 17:40:54.346,1.6079768,-11.947364,-0.29910284,-0.33666286,-0.17745622,2.6806273,-38.643753,-24.562502,15.225,0.54970115,-0.46104178,0.5203633,999.6679, , , , 
2026-03-20 17:40:54.366,3.0867412,-12.875778,0.021535404,-0.12835796,-0.21288638,3.1235044,-40.575,-22.40625,16.3875,0.5387191,-0.47527498,0.5295547,999.6679, , , , 
2026-03-20 17:40:54.388,4.759324,-13.447663,-0.485743,0.25465426,-0.4242456,3.734369,-40.5,-20.00625,14.231251,0.5188941,-0.5003057,0.54796416,999.67377, , , , 
2026-03-20 17:40:54.407,6.1184473,-13.825729,-2.050649,0.35056004,-0.54092073,4.13754,-42.018753,-19.425001,15.58125,0.5019756,-0.52146065,0.5640979,999.67377, , , , 
2026-03-20 17:40:54.426,7.3028946,-13.993227,-3.0077782,0.15080725,-0.42791077,4.477792,-43.29375,-13.462501,15.543751,0.48245502,-0.5438441,0.57996964,999.6855, , , , 
2026-03-20 17:40:54.446,8.618947,-14.158332,-1.6797615,-0.09048434,-0.2538143,4.8174324,-45.6375,-9.618751,17.71875,0.458504,-0.5674812,0.59499985,999.6855, , , , 
2026-03-20 17:40:54.467,9.765109,-14.0291195,0.047856454,-0.0080176005,-0.12797616,5.0165744,-44.643753,-4.03125,16.837502,0.43059763,-0.59063673,0.6098915,999.66986, , , , 
2026-03-20 17:40:54.486,11.394622,-13.119846,-1.6438692,0.12698352,0.044287696,5.0349,-45.91875,-0.1875,17.53125,0.39309123,-0.6157005,0.62885505,999.66986, , , , 
2026-03-20 17:40:54.506,11.550155,-12.720245,-2.6081767,-0.13507748,0.07971785,4.9530444,-46.2,3.525,17.34375,0.36212394,-0.63416815,0.6412516,999.67426, , , , 
2026-03-20 17:40:54.526,11.916257,-12.461821,-1.6845472,-0.38492116,0.029626941,4.8931794,-44.98125,10.125,16.21875,0.3305119,-0.6526031,0.64998984,999.67426, , , , 
2026-03-20 17:40:54.546,12.801601,-11.631511,-1.2418749,-0.5370265,0.14263692,4.7453504,-44.475002,12.0375,17.306252,0.29868546,-0.6700808,0.65599495,999.65204, , , , 
2026-03-20 17:40:54.566,14.306686,-10.600204,-2.0985055,-0.8143591,0.4468476,4.5193305,-43.2,19.650002,15.337501,0.26596552,-0.68618935,0.6597944,999.65204, , , , 
2026-03-20 17:40:54.587,15.247066,-10.336994,-1.4859428,-1.1930953,0.51526445,4.030028,-38.30625,22.7625,14.493751,0.23353872,-0.70190907,0.65988684,999.6298, , , , 
2026-03-20 17:40:54.608,15.213567,-10.147961,-0.27038896,-1.3061053,0.076052666,3.5749333,-38.90625,24.300001,16.48125,0.20507658,-0.71709764,0.6562937,999.6298, , , , 
2026-03-20 17:40:54.626,14.423935,-9.54497,0.8135597,-1.356807,-0.036346454,3.1980298,-36.206253,28.181252,16.125,0.17602438,-0.7345382,0.6487739,999.6091, , , , 
2026-03-20 17:40:54.646,13.287344,-8.58784,2.1296122,-1.3592505,0.54519683,3.0550876,-33.675003,29.306252,18.581251,0.1525349,-0.74692243,0.64230037,999.6091, , , , 
2026-03-20 17:40:54.669,13.560126,-7.233503,2.9647074,-1.1912627,1.0992512,3.0282094,-35.287502,30.000002,18.393751,0.13247092,-0.75487113,0.6382329,999.6203, , , , 
2026-03-20 17:40:54.686,16.07259,-5.477171,2.3569303,-0.5852848,1.1456769,2.7985244,-31.050001,32.8125,17.325,0.09739999,-0.76389325,0.6345622,999.6203, , , , 
2026-03-20 17:40:54.707,18.805193,-4.76411,0.3062813,-0.15706861,0.48594293,2.3880231,-30.750002,34.331253,17.212502,0.07502723,-0.76692426,0.6345696,999.6496, , , , 
2026-03-20 17:40:54.726,21.15016,-4.0103707,-2.4095724,-0.10636683,-0.33933538,1.5682425,-30.6375,35.5875,17.587502,0.06281281,-0.7682724,0.634985,999.6496, , , , 
2026-03-20 17:40:54.746,21.255444,-4.2161536,-2.254039,-0.5138136,-0.4083631,0.7166971,-29.493752,35.568752,19.0125,0.05964133,-0.77073175,0.632777,999.6486, , , , 
2026-03-20 17:40:54.767,20.130817,-4.981857,1.4883357,-0.6934079,0.037568185,0.091782436,-30.4125,36.956253,20.41875,0.060753234,-0.7747598,0.62771964,999.6486, , , , 
2026-03-20 17:40:54.786,20.20978,-4.6803613,3.6897326,-0.2615265,0.4468476,-0.53313226,-31.25625,37.125,20.19375,0.0638883,-0.77715725,0.6236779,999.62787, , , , 
2026-03-20 17:40:54.806,20.384457,-4.85743,4.4913282,0.269315,0.21105379,-1.3480258,-30.337502,36.600002,20.118752,0.071731694,-0.77501017,0.6242733,999.62787, , , , 
2026-03-20 17:40:54.826,18.64966,-6.5539412,4.287938,0.89667314,-0.4987711,-2.282649,-31.875002,34.59375,17.775002,0.09003916,-0.76858723,0.62823945,999.6379, , , , 
2026-03-20 17:40:54.846,16.35255,-9.817751,2.5196424,1.4110212,-0.9837977,-3.0260713,-32.475002,36.131252,19.7625,0.117870964,-0.7579519,0.6347555,999.6379, , , , 
2026-03-20 17:40:54.867,14.96232,-11.222338,1.3519448,1.475162,-1.0344995,-3.3235626,-35.25,33.3375,21.13125,0.15046705,-0.7447744,0.6414261,999.6469, , , , 
2026-03-20 17:40:54.886,15.225531,-12.550355,1.2873386,1.4452298,-0.79320794,-3.6638143,-35.15625,31.500002,19.5375,0.18394366,-0.7301292,0.64693326,999.6469, , , , 
2026-03-20 17:40:54.906,15.311672,-13.849657,0.7585248,1.3829215,-0.675311,-4.065152,-38.175003,28.837502,18.768751,0.21804179,-0.7137699,0.6509945,999.6447, , , , 
2026-03-20 17:40:54.926,14.799608,-15.065211,-0.13399807,1.1404082,-0.75777775,-4.4903145,-39.3375,25.987501,18.900002,0.2631699,-0.6917605,0.6521915,999.6447, , , , 
2026-03-20 17:40:54.946,13.787444,-15.381064,0.0741775,0.9211077,-0.6667589,-4.78414,-41.2125,22.2,15.450001,0.300308,-0.6734784,0.64928985,999.62933, , , , 
2026-03-20 17:40:54.966,11.748759,-15.316458,0.9499506,0.8606321,-0.49388418,-4.969232,-42.0,18.393751,16.21875,0.3367024,-0.6537993,0.64411426,999.62933, , , , 
2026-03-20 17:40:54.986,10.480563,-14.68236,-0.5383851,0.6975312,-0.1621846,-4.8684397,-44.081253,14.062501,17.90625,0.370469,-0.6326656,0.6379774,999.62665, , , , 
2026-03-20 17:40:55.006,11.13859,-13.952549,-1.39023,0.45257443,0.2782489,-4.821403,-44.8875,9.993751,17.925001,0.40003303,-0.61134166,0.6305114,999.62665, , , , 
2026-03-20 17:40:55.027,10.805987,-14.151154,-1.5529419,0.19723296,0.5549707,-4.942354,-44.831253,5.15625,16.650002,0.4259447,-0.58936495,0.62148505,999.6506, , , , 
2026-03-20 17:40:55.046,9.332008,-14.634503,-0.7609176,-0.036728244,0.53603387,-4.942965,-45.28125,0.75,16.63125,0.45507205,-0.5614074,0.60723156,999.6506, , , , 
2026-03-20 17:40:55.066,8.817552,-14.596218,0.6795616,-0.0037415468,0.35338527,-4.8519464,-45.84375,-2.15625,15.7875,0.4717126,-0.5448602,0.5971819,999.6586, , , , 
2026-03-20 17:40:55.086,7.2765737,-13.976477,1.7036897,0.26564983,0.30757043,-4.67785,-46.96875,-8.3625,16.087502,0.49867135,-0.51602185,0.58017194,999.6586, , , , 
2026-03-20 17:40:55.106,5.800202,-13.143775,1.1796615,0.5484802,0.38148504,-4.420065,-46.74375,-13.81875,15.918751,0.5188273,-0.49122244,0.5681352,999.68524, , , , 
2026-03-20 17:40:55.127,3.9888353,-12.1866455,-0.6795616,0.63766646,0.3130682,-4.14823,-43.818752,-16.0125,15.731251,0.53773636,-0.46589345,0.55702317,999.68524, , , , 
2026-03-20 17:40:55.146,1.7036897,-11.523834,-1.2801601,0.5588649,0.08643737,-3.8757844,-42.6375,-18.768751,17.325,0.5556013,-0.44199258,0.5450704,999.71185, , , , 
2026-03-20 17:40:55.166,-0.92602235,-11.172089,-1.5146568,0.5130501,-0.2452622,-3.416414,-39.862503,-21.712502,17.19375,0.5726764,-0.42126068,0.53197795,999.71185, , , , 
2026-03-20 17:40:55.186,-2.4382863,-10.899307,-2.6991038,0.33284494,-0.4205804,-2.4298673,-38.8875,-25.48125,18.84375,0.5911158,-0.40249228,0.5163918,999.7265, , , , 
2026-03-20 17:40:55.206,-2.2755744,-11.274981,-2.6608188,0.012751802,-0.08460477,-1.6357431,-34.7625,-27.768751,16.06875,0.6000715,-0.39323747,0.5074401,999.7265, , , , 
2026-03-20 17:40:55.226,-2.1750758,-11.119447,-2.0315065,-0.1955531,0.12858704,-0.91797704,-32.0625,-28.237501,15.20625,0.6032218,-0.38814864,0.5027521,999.7299, , , , 
2026-03-20 17:40:55.246,-2.210968,-11.533405,-1.7371893,-0.21998768,-0.06627883,-0.2716821,-35.475002,-29.718752,17.19375,0.60331154,-0.38745838,0.5007674,999.7299, , , , 
2026-03-20 17:40:55.266,-2.7876384,-11.578869,-1.9980069,-0.17417282,-0.4951059,0.5028944,-34.4625,-29.625002,19.237501,0.60263973,-0.39246434,0.5001208,999.7338,37.88741651,127.73741427,175.88409423828125,1.27
2026-03-20 17:40:55.286,-1.7252251,-11.392229,-1.835295,-0.23281583,-0.5665771,1.5224278,-34.331253,-28.368752,17.456251,0.5999956,-0.403769,0.5017607,999.7338, , , , 
2026-03-20 17:40:55.306,0.4833502,-10.983056,-1.3806586,-0.31100652,-0.228158,2.3464844,-33.91875,-27.075,17.493752,0.59250325,-0.41975448,0.50802225,999.7453, , , , 
2026-03-20 17:40:55.326,2.7421749,-10.882557,-0.8063812,-0.34216064,0.03695732,2.9329145,-34.3125,-25.48125,15.900001,0.57968104,-0.4383618,0.5189233,999.7453, , , , 
2026-03-20 17:40:55.347,4.4985065,-11.327622,-0.08135597,-0.20838125,0.083383046,3.314705,-37.612503,-23.71875,16.612501,0.5633941,-0.4583166,0.53268015,999.74725, , , , 
2026-03-20 17:40:55.366,5.24746,-12.189038,-0.3182454,0.012751802,-0.08155045,3.6189156,-38.41875,-21.91875,15.356251,0.5459522,-0.4787551,0.547839,999.74725, , , , 
2026-03-20 17:40:55.386,5.4221363,-13.174882,-0.64606214,0.15997021,-0.18906265,4.058738,-41.86875,-18.5625,17.681252,0.5228801,-0.50545967,0.56764513,999.7575, , , , 
2026-03-20 17:40:55.406,5.757131,-13.842479,-1.0360922,0.21861324,-0.23976442,4.6207337,-43.4625,-12.637501,18.13125,0.5017149,-0.52808493,0.58435225,999.7575, , , , 
2026-03-20 17:40:55.426,7.972885,-13.983656,-0.9379865,0.21433719,-0.2489274,5.0257373,-44.2125,-10.462501,18.54375,0.47728848,-0.5518374,0.60126567,999.7692, , , , 
2026-03-20 17:40:55.446,10.179068,-13.696517,-0.52163535,0.2540434,-0.2403753,5.144245,-44.662502,-5.4187503,19.3875,0.4503061,-0.575112,0.6174858,999.7692, , , , 
2026-03-20 17:40:55.466,10.585847,-13.521841,-1.0001999,0.33895358,-0.29352054,5.14791,-46.18125,-0.6,19.125,0.4226231,-0.5963126,0.6322899,999.76605, , , , 
2026-03-20 17:40:55.486,10.96152,-13.8448715,-1.3663018,0.33467755,-0.59162253,5.270083,-45.7125,5.4187503,19.81875,0.39460352,-0.61607033,0.64507633,999.76605, , , , 
2026-03-20 17:40:55.507,11.748759,-14.215759,-2.2085752,0.2589303,-0.5183188,5.414247,-44.456253,7.9125004,18.768751,0.35938844,-0.6395599,0.6575017,999.767, , , , 
2026-03-20 17:40:55.526,14.251652,-14.000405,-2.6129622,-0.4258491,0.56291187,5.3867583,-42.018753,14.250001,19.5375,0.32558674,-0.65814966,0.66486967,999.767, , , , 
2026-03-20 17:40:55.546,15.998412,-13.304094,-1.4715859,-0.941419,1.4065162,5.125919,-38.193752,18.50625,18.28125,0.2849473,-0.67685485,0.66937315,999.7519, , , , 
2026-03-20 17:40:55.566,16.857435,-12.624533,-1.0241281,-1.460654,2.0522003,4.75207,-39.037502,22.29375,17.681252,0.24046846,-0.6951885,0.670466,999.7519, , , , 
2026-03-20 17:40:55.586,17.108683,-11.054841,-0.15553348,-1.8137339,2.0241005,4.0715666,-40.2,24.4125,16.612501,0.19677766,-0.7127802,0.66742736,999.7221, , , , 
2026-03-20 17:40:55.606,16.8359,-9.107083,0.32063824,-1.9456807,1.5054762,3.3977826,-36.018753,29.081251,15.281251,0.15936895,-0.7291119,0.6605177,999.7221, , , , 
2026-03-20 17:40:55.626,15.105889,-8.080562,0.83030945,-2.1484878,1.4578288,2.8571672,-36.73125,28.500002,16.3125,0.12102937,-0.7481977,0.6477999,999.7211, , , , 
2026-03-20 17:40:55.646,14.282759,-7.4344997,3.2279177,-2.1460443,1.6172645,2.6879578,-33.28125,31.743752,14.681251,0.09151146,-0.7626274,0.6358017,999.7211, , , , 
2026-03-20 17:40:55.667,15.594026,-6.0011992,5.1182475,-1.560225,1.1505638,2.501033,-35.175003,33.9,14.45625,0.06403188,-0.7737332,0.62580436,999.7287, , , , 
2026-03-20 17:40:55.686,17.639889,-4.8263235,4.141976,-0.611552,-0.009468404,2.045328,-30.656252,33.862503,15.225,0.044744387,-0.779741,0.6206536,999.7287, , , , 
2026-03-20 17:40:55.707,19.475183,-4.2831526,2.2779672,-0.14912736,-0.7669407,1.5975641,-30.281252,34.912502,13.89375,0.035690665,-0.7818482,0.61965597,999.7607, , , , 
2026-03-20 17:40:55.726,21.889542,-4.321438,1.6127625,0.06284271,-1.2953387,0.8162681,-30.618752,37.2,17.962502,0.035864424,-0.7822644,0.6201054,999.7607, , , , 
2026-03-20 17:40:55.746,23.071596,-4.699504,1.8448663,0.09521855,-1.005178,0.05818487,-30.937502,36.412502,18.65625,0.042846687,-0.7817945,0.6208021,999.78485, , , , 
2026-03-20 17:40:55.767,23.272593,-4.5391846,2.3688943,0.08300125,-0.09193515,-0.9173662,-30.337502,36.581253,20.90625,0.05522671,-0.7801315,0.62167394,999.78485, , , , 
2026-03-20 17:40:55.786,22.38964,-5.4293146,3.952943,0.32368198,0.30757043,-1.9509494,-28.66875,36.768753,18.862501,0.0685148,-0.77705956,0.62297285,999.7836, , , , 
2026-03-20 17:40:55.807,19.628325,-7.6307116,4.2999024,0.8575778,0.008857539,-2.9045093,-31.29375,33.9,18.225,0.08958572,-0.76998806,0.62686735,999.7836, , , , 
2026-03-20 17:40:55.829,17.804993,-9.413364,3.802195,1.2057707,-0.29901832,-3.4243553,-31.031252,35.175003,18.581251,0.110659815,-0.7618587,0.6312796,999.7873, , , , 
2026-03-20 17:40:55.846,16.814365,-12.251252,2.0578275,1.5331942,-0.4535671,-4.1500626,-34.612503,29.7,17.56875,0.15254676,-0.7438974,0.639423,999.7873, , , , 
2026-03-20 17:40:55.866,16.232908,-14.038691,0.90448695,1.5466332,-0.32406378,-4.5611744,-37.125,27.468752,17.643751,0.18925688,-0.7265426,0.64462197,999.7873, , , , 
2026-03-20 17:40:55.886,14.651253,-15.357136,-0.1268196,1.4226277,-0.21044292,-4.884933,-38.79375,23.4375,16.518751,0.22685073,-0.70729333,0.64749515,999.7873, , , , 
2026-03-20 17:40:55.906,14.46222,-15.804593,-0.72263247,1.222264,-0.22510368,-5.041925,-40.987503,18.993752,15.450001,0.26419708,-0.6871005,0.6474225,999.769, , , , 
2026-03-20 17:40:55.926,13.706088,-16.438692,0.68195444,1.1569015,-0.57879436,-5.4524264,-42.487503,15.8625,14.55,0.30269656,-0.6660752,0.6436198,999.769, , , , 
2026-03-20 17:40:55.946,9.882358,-16.168303,0.3397808,1.2204314,-0.77427113,-5.4377656,-43.65,11.7375,17.081251,0.35431787,-0.6370532,0.634972,999.7548, , , , 
2026-03-20 17:40:55.972,9.877572,-14.397614,-1.9166509,0.8398627,-0.09926552,-4.920363,-44.15625,6.3375,17.2875,0.39878628,-0.60760516,0.62491506,999.7548, , , , 
2026-03-20 17:40:55.987,11.052447,-13.883157,-1.4883357,0.44157887,0.675311,-4.7768097,-43.725002,2.53125,15.750001,0.41898367,-0.5904535,0.6185429,999.7695, , , , 
2026-03-20 17:40:56.007,11.224731,-13.526627,-0.567099,0.3475057,0.9935716,-4.778032,-43.85625,0.52500004,16.650002,0.44069383,-0.5665816,0.610086,999.7695, , , , 
2026-03-20 17:40:56.026,9.454042,-13.160524,-0.76331043,0.47700903,0.8591813,-4.9783955,-44.90625,-4.05,15.4875,0.461372,-0.5407556,0.6007077,999.77704, , , , 
2026-03-20 17:40:56.046,4.924429,-13.524234,-1.9357935,0.46295914,0.481056,-4.8818784,-45.225002,-8.55,14.681251,0.48891833,-0.50732344,0.58566487,999.77704, , , , 
2026-03-20 17:40:56.067,2.024328,-13.737195,-2.5220351,0.20578507,0.3045161,-4.4035716,-45.5625,-13.06875,15.450001,0.5042909,-0.48919702,0.575197,999.7863, , , , 
2026-03-20 17:40:56.086,1.1892328,-12.538391,-0.63170516,-0.055054188,0.060781047,-3.5593565,-43.4625,-15.712501,15.375001,0.5245857,-0.4655294,0.55738205,999.7863, , , , 
2026-03-20 17:40:56.106,1.7635103,-11.2343025,1.4548361,0.12331833,-0.17379104,-3.037067,-41.49375,-18.375,15.31875,0.53807205,-0.45067883,0.5442995,999.7807, , , , 
2026-03-20 17:40:56.126,1.7300107,-11.272588,0.7704889,0.46906778,-0.39675668,-2.7194173,-40.912502,-21.300001,15.281251,0.5519532,-0.43663138,0.53283036,999.7807, , , , 
2026-03-20 17:40:56.146,0.7920243,-11.763116,-1.2346965,0.49716756,-0.3808742,-2.3180792,-38.1375,-23.5125,15.262501,0.56577754,-0.42382994,0.5225288,999.79755, , , , 
2026-03-20 17:40:56.166,-0.6987042,-11.765509,-2.3306093,0.3927097,-0.16890411,-1.8886412,-35.8875,-25.500002,14.062501,0.57685,-0.41296962,0.5143067,999.79755, , , , 
2026-03-20 17:40:56.186,-2.9479575,-11.686545,-3.591627,0.18196134,-0.046731155,-1.1678207,-35.4,-25.837502,15.262501,0.58398163,-0.40501687,0.5089697,999.79486, , , , 
2026-03-20 17:40:56.206,-3.5820556,-13.172488,-4.6803613,-0.16378812,-0.1517999,-0.2319759,-35.2125,-27.187502,14.85,0.5875543,-0.40288672,0.50538296,999.79486, , , , 
2026-03-20 17:40:56.226,-2.8019953,-12.957134,-3.9744785,-0.58833915,-0.11759147,0.6959277,-35.775,-27.618752,16.181252,0.58468044,-0.4095139,0.5053442,999.7858, , , , 
2026-03-20 17:40:56.246,-1.1581261,-12.839887,-2.481357,-0.805807,0.08277218,1.5016583,-36.91875,-26.75625,16.40625,0.5759237,-0.42180747,0.50893205,999.7858, , , , 
2026-03-20 17:40:56.266,0.11246266,-12.626925,-1.8568304,-0.95974493,0.25870124,2.2114832,-36.75,-25.237501,16.44375,0.5618609,-0.43785375,0.5164565,999.7895,37.8874046,127.73742535,175.78253173828125,1.64
2026-03-20 17:40:56.286,2.2660031,-13.378271,-0.57427746,-0.9737948,0.10476331,2.854724,-39.037502,-25.087502,14.981251,0.544017,-0.45738524,0.5263865,999.7895, , , , 
2026-03-20 17:40:56.311,3.6610186,-14.309079,1.174876,-0.6451496,-0.51526445,3.545001,-38.8875,-22.3125,12.337501,0.52022713,-0.48630667,0.54017216,999.7951, , , , 
2026-03-20 17:40:56.326,5.8217373,-14.660825,1.847259,-0.32261297,-0.74617136,3.9255698,-37.275,-21.018751,10.387501,0.5063358,-0.5053583,0.54920423,999.7951, , , , 
2026-03-20 17:40:56.346,7.9944205,-14.723038,1.3519448,0.19234605,-0.7180715,4.3757772,-39.506252,-17.400002,12.750001,0.48239174,-0.53602874,0.56755793,999.8132, , , , 
2026-03-20 17:40:56.366,9.315259,-14.246866,0.23449662,0.4709004,-0.7009673,4.624399,-41.98125,-12.075001,14.700001,0.4671114,-0.55292964,0.5802854,999.8132, , , , 
2026-03-20 17:40:56.386,10.590633,-13.201202,-1.4333007,0.6095667,-0.8298598,4.741685,-45.46875,-8.1,17.15625,0.44114745,-0.57913214,0.6011679,999.8088, , , , 
2026-03-20 17:40:56.408,10.253245,-12.64846,-2.6679974,0.40431613,-0.5519163,4.855306,-45.975002,-4.8,17.493752,0.41909948,-0.59891564,0.61596864,999.8088, , , , 
2026-03-20 17:40:56.426,10.085748,-12.794423,-2.3784657,0.053679742,-0.0033597562,5.1112585,-45.675003,0.3375,17.94375,0.39193556,-0.61844486,0.62956315,999.7902, , , , 
2026-03-20 17:40:56.446,11.607583,-12.892529,-1.5864414,-0.20960298,0.48227775,5.2731376,-45.2625,4.4812503,16.725,0.3583587,-0.63769275,0.64228857,999.7902, , , , 
2026-03-20 17:40:56.468,12.526426,-12.6676035,-2.143969,-0.49609855,0.67653275,5.2474813,-44.943752,9.0,17.0625,0.31141493,-0.66026336,0.65543365,999.7775, , , , 
2026-03-20 17:40:56.486,13.610375,-12.265609,-2.2277179,-0.9011019,0.70585424,5.223047,-41.53125,13.35,14.2875,0.27231067,-0.6784145,0.66158164,999.7775, , , , 
2026-03-20 17:40:56.506,15.400207,-11.767901,-0.3900301,-1.2211951,0.6856957,4.9750357,-40.96875,17.53125,13.368751,0.23313114,-0.6966493,0.6632852,999.7587, , , , 
2026-03-20 17:40:56.526,17.202002,-10.533205,1.2370893,-1.2682316,0.57390743,4.440529,-40.912502,22.125,13.575001,0.1969092,-0.7129657,0.66195184,999.7587, , , , 
2026-03-20 17:40:56.546,17.307285,-9.439685,2.199004,-1.1912627,0.5549707,3.8583746,-38.1375,25.143751,15.4125,0.16540402,-0.7264126,0.65899795,999.7646, , , , 
2026-03-20 17:40:56.566,16.563118,-8.310273,2.4335005,-1.0342704,0.77671456,3.3623524,-35.943752,27.975,15.0375,0.13672268,-0.7369311,0.655878,999.7646, , , , 
2026-03-20 17:40:56.586,15.096318,-6.9224358,2.1176481,-0.9200387,0.8090904,2.9958336,-34.237503,31.275002,14.19375,0.110260926,-0.7451498,0.65290064,999.7663, , , , 
2026-03-20 17:40:56.606,16.520048,-5.383851,2.5722845,-0.86933696,0.72295845,2.6635232,-31.81875,31.743752,15.76875,0.08018401,-0.7538003,0.6485915,999.7663, , , , 
2026-03-20 17:40:56.626,17.8696,-4.2041893,3.6394832,-0.5040398,0.5732966,2.022726,-31.406252,34.3125,12.95625,0.061160255,-0.7584093,0.64589447,999.76776, , , , 
2026-03-20 17:40:56.646,17.316858,-4.2041893,2.292324,0.028023422,0.21166465,1.4405719,-29.60625,34.725002,15.525001,0.048949186,-0.7593722,0.6461868,999.76776, , , , 
2026-03-20 17:40:56.667,17.39582,-4.24726,0.34456646,0.23938264,-0.13652828,1.0850486,-29.906252,36.28125,17.15625,0.043901417,-0.7585294,0.6478199,999.7673, , , , 
2026-03-20 17:40:56.686,19.15933,-3.7758741,0.30149564,0.21189372,-0.34300056,0.41370818,-30.88125,36.45,16.48125,0.042026613,-0.7568878,0.6502255,999.7673, , , , 
2026-03-20 17:40:56.706,19.800608,-4.359723,0.5479564,0.27420193,-0.318566,-0.12935062,-29.550001,37.3125,17.23125,0.046171803,-0.7552377,0.65183824,999.74945, , , , 
2026-03-20 17:40:56.726,20.535204,-4.57747,0.50488555,0.43913543,-0.3478875,-0.9124793,-28.425001,36.956253,14.812501,0.055034716,-0.7524096,0.6540522,999.74945, , , , 
2026-03-20 17:40:56.746,19.551754,-5.6614184,0.61016977,0.5576432,-0.49082986,-1.81717,-29.98125,35.68125,14.587501,0.07038853,-0.74821275,0.65657514,999.715, , , , 
2026-03-20 17:40:56.767,16.871792,-7.999206,0.3589234,0.7097485,-0.71135205,-2.5966334,-31.312502,35.775,16.25625,0.09298825,-0.74228525,0.65912044,999.715, , , , 
2026-03-20 17:40:56.787,14.364115,-10.631311,0.16510476,0.757396,-0.9911281,-3.0529494,-32.568752,33.80625,14.493751,0.121125,-0.73470575,0.6612473,999.7048, , , , 
2026-03-20 17:40:56.806,13.316058,-12.452249,1.3351951,0.81359553,-1.4333942,-3.2465935,-32.943752,32.756252,15.825001,0.16136844,-0.72383183,0.6623062,999.7048, , , , 
2026-03-20 17:40:56.826,14.538791,-13.359129,2.050649,0.9632574,-1.7767003,-3.4988806,-34.7625,29.587502,15.731251,0.19717821,-0.7131762,0.6624532,999.7116, , , , 
2026-03-20 17:40:56.846,15.426528,-14.782858,2.1870399,1.0689371,-2.0601416,-3.981464,-36.16875,27.056252,17.56875,0.23707917,-0.70010537,0.6614867,999.7116, , , , 
2026-03-20 17:40:56.866,15.019748,-15.345172,1.4955142,1.0432807,-2.0418155,-4.3174396,-38.11875,23.98125,18.73125,0.28005463,-0.68465817,0.65864265,999.717, , , , 
2026-03-20 17:40:56.886,14.227723,-15.720845,0.86859465,0.7897718,-1.4608831,-4.717556,-39.018753,20.2875,18.112501,0.3223589,-0.6673835,0.65376014,999.717, , , , 
2026-03-20 17:40:56.906,10.514063,-15.639489,0.9619147,0.48067424,-0.7779363,-4.938078,-41.568752,16.518751,21.056252,0.37091625,-0.6438171,0.6449156,999.727, , , , 
2026-03-20 17:40:56.926,9.090333,-14.746966,0.14356937,0.30841035,-0.15607595,-4.7707014,-42.05625,14.00625,19.556252,0.40348405,-0.6239909,0.6373861,999.727, , , , 
2026-03-20 17:40:56.947,8.786445,-13.617554,-0.85902333,0.033521205,0.56535536,-4.5281878,-41.0625,8.868751,20.04375,0.4287685,-0.60417527,0.6302978,999.7375, , , , 
2026-03-20 17:40:56.966,9.071191,-13.229917,-0.5766702,-0.21387903,1.0589341,-4.4359474,-41.568752,6.95625,19.29375,0.44807413,-0.5844504,0.62317777,999.7375, , , , 
2026-03-20 17:40:56.986,8.839087,-13.406985,0.34456646,-0.20654866,0.9318742,-4.482373,-43.18125,2.5687501,18.618752,0.4648502,-0.5640063,0.6152532,999.72797, , , , 
2026-03-20 17:40:57.006,7.5349984,-13.500305,1.2777673,0.119653136,0.016798781,-4.5740027,-43.95,-1.9875001,18.0375,0.4847183,-0.54286855,0.6046364,999.72797, , , , 
2026-03-20 17:40:57.026,5.4891353,-12.861422,0.33738798,0.23083054,-0.40591964,-4.51536,-44.53125,-6.1687503,20.04375,0.5087514,-0.5215485,0.5909692,999.73114, , , , 
2026-03-20 17:40:57.046,3.2422748,-12.490534,-0.47377887,0.04940369,-0.10476331,-4.241081,-43.143753,-10.14375,21.056252,0.5317718,-0.500628,0.5761316,999.73114, , , , 
2026-03-20 17:40:57.066,0.42831525,-12.141182,-0.36131623,-0.07399099,0.160352,-3.8195848,-42.05625,-12.8625,19.237501,0.5499097,-0.4805725,0.56243324,999.7287, , , , 
2026-03-20 17:40:57.086,-1.1150553,-11.619547,0.16749759,0.008475749,-0.044898562,-3.036456,-40.237503,-15.3,20.56875,0.5670826,-0.45916012,0.5477983,999.7287, , , , 
2026-03-20 17:40:57.106,-0.66999036,-11.387443,-0.2656033,0.06895136,-0.124310985,-2.3339617,-40.050003,-18.13125,19.331251,0.57829314,-0.44626924,0.53814113,999.73944, , , , 
2026-03-20 17:40:57.126,-0.30149564,-11.004591,-0.62931234,0.021303909,0.14569125,-1.7304271,-36.300003,-20.737501,17.85,0.5861323,-0.43630007,0.53127956,999.73944, , , , 
2026-03-20 17:40:57.146,-1.8017955,-10.526027,-0.79441714,-0.031841327,0.38820457,-1.3009893,-37.55625,-21.75,19.425001,0.59008634,-0.4279893,0.5276934,999.74164, , , , 
2026-03-20 17:40:57.166,-2.9623144,-10.734202,-1.1629118,-0.08804089,0.46273008,-0.62659454,-36.2625,-23.34375,18.6,0.59054875,-0.42259887,0.5270934,999.74164, , , , 
2026-03-20 17:40:57.186,-2.914458,-11.722438,-1.7204394,-0.14729477,0.2452622,0.29397866,-37.068752,-23.04375,18.056252,0.58794886,-0.4221784,0.52917,999.7514, , , , 
2026-03-20 17:40:57.206,-1.5960127,-11.140983,-1.5290136,-0.20715952,-0.047952887,1.2267692,-35.362503,-22.612501,17.38125,0.58140457,-0.43050212,0.53436506,999.7514, , , , 
2026-03-20 17:40:57.226,0.6867401,-10.755738,-1.0911272,-0.28168502,0.022296565,1.8565708,-34.4625,-22.63125,15.750001,0.57291806,-0.44257444,0.5408664,999.7546, , , , 
2026-03-20 17:40:57.246,2.5722845,-10.353744,-0.63888365,-0.33849543,0.3601048,2.2780676,-37.85625,-20.400002,18.45,0.5603173,-0.4564992,0.55039227,999.7546, , , , 
2026-03-20 17:40:57.266,3.0125637,-10.911271,-0.5814559,-0.3171152,0.6093376,2.5938845,-39.768753,-18.337502,17.456251,0.5441478,-0.47071242,0.56254077,999.76605,37.88739253,127.73743716,175.36212158203125,1.57
2026-03-20 17:40:57.286,3.8333018,-11.952149,-0.77766734,-0.23953535,0.43035424,3.0874634,-40.0875,-17.00625,17.868752,0.5255907,-0.48620635,0.5762598,999.76605, , , , 
2026-03-20 17:40:57.306,5.7379885,-12.9547415,-1.1246266,-0.15340342,-0.011300999,3.449706,-42.131252,-12.731251,16.462502,0.5066537,-0.5041757,0.5897093,999.77264, , , , 
2026-03-20 17:40:57.326,7.4512496,-13.8353,-0.8781659,-0.16317725,-0.39003715,3.6989388,-42.73125,-9.806251,16.96875,0.4881668,-0.5244016,0.6015574,999.77264, , , , 
2026-03-20 17:40:57.346,7.7647095,-13.887942,0.15792629,-0.09659299,-0.5006037,3.9671085,-44.41875,-7.2375,17.15625,0.4693922,-0.54569507,0.6121309,999.7778, , , , 
2026-03-20 17:40:57.366,8.281559,-13.318451,0.7537391,0.039629854,-0.3271181,4.286591,-44.34375,-4.0125003,17.118752,0.44842932,-0.5664292,0.6233648,999.7778, , , , 
2026-03-20 17:40:57.386,9.253045,-12.772887,1.4883357,0.24610215,-0.17318016,4.477792,-44.381252,0.84375006,17.306252,0.41849986,-0.58989966,0.63898605,999.78705, , , , 
2026-03-20 17:40:57.406,10.281959,-12.284752,0.8207382,0.50571966,-0.04978548,4.4912305,-46.2,3.5062501,17.6625,0.39325094,-0.60558575,0.65216726,999.78705, , , , 
2026-03-20 17:40:57.427,10.399207,-12.007184,-0.5886344,0.53565204,0.1188132,4.4741263,-43.725002,6.2625003,17.081251,0.3671709,-0.6186464,0.6651255,999.7902, , , , 
2026-03-20 17:40:57.446,11.710474,-11.645867,-0.9667004,0.3438405,-0.15302163,4.431977,-41.71875,12.675,17.587502,0.34052068,-0.6310063,0.6759923,999.7902, , , , 
2026-03-20 17:40:57.466,13.351951,-10.753345,0.40917268,0.38782278,-0.6832523,4.3110256,-41.79375,15.150001,17.925001,0.31708407,-0.64311993,0.6832531,999.7685, , , , 
2026-03-20 17:40:57.486,14.768501,-9.255438,-0.059820566,0.33223408,-0.25809038,3.987267,-39.225002,19.1625,16.800001,0.29071847,-0.6553154,0.69011486,999.7685, , , , 
2026-03-20 17:40:57.506,15.069997,-8.382058,-1.0671989,-0.055665053,0.7492257,3.6543458,-39.24375,23.5125,18.4125,0.26594278,-0.66383445,0.69479126,999.76385, , , , 
2026-03-20 17:40:57.526,14.986248,-8.255239,-0.9499506,-0.50831586,1.5311326,3.1955864,-36.9,27.000002,16.893751,0.23707524,-0.67297167,0.6976852,999.76385, , , , 
2026-03-20 17:40:57.547,14.127225,-8.200203,-1.2490535,-0.7764855,1.7186681,2.8681629,-36.768753,25.518751,16.95,0.2149524,-0.68018454,0.6982541,999.7514, , , , 
2026-03-20 17:40:57.567,11.801401,-7.6426754,0.16031912,-1.0299944,1.3521492,2.6781838,-35.68125,29.362501,16.3125,0.18060958,-0.6933079,0.6955171,999.7514, , , , 
2026-03-20 17:40:57.586,12.973885,-6.448657,0.5383851,-0.8027527,1.1371248,2.7160575,-34.725002,31.087502,14.56875,0.15529187,-0.70281535,0.69257414,999.74335, , , , 
2026-03-20 17:40:57.607,15.507884,-5.572884,-0.7537391,-0.6958513,1.0308343,2.5853324,-32.98125,34.631252,14.19375,0.13118017,-0.71049756,0.6901734,999.74335, , , , 
2026-03-20 17:40:57.626,18.350557,-5.328816,-1.2610176,-0.6653081,0.59528774,2.1656682,-33.45,35.325,15.731251,0.1108778,-0.7172454,0.68710405,999.7402, , , , 
2026-03-20 17:40:57.646,20.350956,-5.3718867,-1.5002998,-0.6756928,-0.029626941,1.4191916,-30.900002,36.206253,14.64375,0.09632934,-0.72452635,0.6819681,999.7402, , , , 
2026-03-20 17:40:57.666,20.298315,-5.709275,-0.7680961,-0.7227294,-0.26847506,0.8455896,-32.025,35.081253,15.750001,0.093612954,-0.728565,0.67815036,999.72626, , , , 
2026-03-20 17:40:57.686,21.001804,-5.608776,1.3495519,-0.6628646,-0.19700389,0.1876882,-29.75625,37.050003,17.71875,0.09455128,-0.73454124,0.6715838,999.72626, , , , 
2026-03-20 17:40:57.706,22.767708,-4.634897,3.3499517,-0.28596106,-0.11209369,-0.59727305,-29.718752,36.45,16.21875,0.099527694,-0.73694336,0.6680783,999.7316, , , , 
2026-03-20 17:40:57.726,22.552353,-4.074977,3.3834512,0.081779525,0.032070402,-1.4592032,-31.44375,35.268753,17.38125,0.1073558,-0.7359658,0.6676063,999.7316, , , , 
2026-03-20 17:40:57.747,17.338392,-6.111269,1.2227324,0.3927097,0.28069237,-2.7004805,-32.381252,35.662502,17.456251,0.12848692,-0.7294258,0.66951674,999.75653, , , , 
2026-03-20 17:40:57.766,13.598412,-8.5112705,0.32303107,0.51854783,0.123089254,-3.1250315,-31.687502,31.650002,15.3,0.14980622,-0.72161865,0.67122847,999.75653, , , , 
2026-03-20 17:40:57.786,12.732209,-10.600204,0.08135597,0.68103784,-0.34849834,-3.2746933,-33.3375,31.48125,15.4875,0.18076801,-0.70976835,0.6726366,999.75555, , , , 
2026-03-20 17:40:57.806,13.820944,-12.165111,-0.567099,0.6926443,-0.74128443,-3.507433,-36.3375,28.29375,15.975,0.20953761,-0.6989774,0.6725154,999.75555, , , , 
2026-03-20 17:40:57.826,13.96212,-13.318451,-0.997807,0.48556113,-0.9618066,-3.8715084,-37.875,26.5125,17.00625,0.24165362,-0.6878122,0.66967905,999.74554, , , , 
2026-03-20 17:40:57.846,13.828122,-14.517255,0.7178468,0.2503782,-1.2134829,-4.2313075,-38.34375,24.225,17.19375,0.27640957,-0.67674893,0.663241,999.74554, , , , 
2026-03-20 17:40:57.866,13.064812,-14.986248,1.8544376,0.3041343,-1.4559962,-4.610655,-39.16875,20.15625,17.212502,0.31405693,-0.6641362,0.6542696,999.75507, , , , 
2026-03-20 17:40:57.886,9.650253,-14.904892,1.7611175,0.3340667,-1.1835505,-4.6815147,-39.581253,16.650002,16.66875,0.3530712,-0.64901084,0.6438984,999.75507, , , , 
2026-03-20 17:40:57.906,8.212168,-13.670196,1.6462619,0.24671301,-0.29290965,-4.2820096,-41.625,13.293751,20.00625,0.38560876,-0.6325085,0.6346879,999.7856, , , , 
2026-03-20 17:40:57.926,9.4229355,-12.117254,1.1820544,0.21311545,0.43707374,-3.9826856,-41.0625,7.2562504,19.06875,0.41505298,-0.61068666,0.6264087,999.7856, , , , 
2026-03-20 17:40:57.946,10.305887,-11.808579,1.3519448,0.1636354,0.72845626,-4.0877542,-44.41875,5.175,18.768751,0.43415663,-0.59169495,0.6205419,999.80096, , , , 
2026-03-20 17:40:57.967,10.124033,-11.854043,1.7611175,0.35300347,0.5232057,-4.297892,-44.475002,1.3125,19.143751,0.45388708,-0.5704281,0.61383635,999.80096, , , , 
2026-03-20 17:40:57.986,8.17149,-11.983255,0.7537391,0.56863874,-0.3100139,-4.4933686,-45.112503,-2.60625,18.975,0.47817722,-0.54788417,0.60415524,999.81805, , , , 
2026-03-20 17:40:58.006,6.135197,-11.8899355,0.39720857,0.45074186,-0.6178897,-4.4047933,-45.112503,-6.0937505,20.25,0.5049584,-0.52608967,0.59092426,999.81805, , , , 
2026-03-20 17:40:58.028,4.3669014,-11.7463665,1.0241281,0.27542365,-0.51404274,-4.1066914,-42.112503,-8.775001,19.462502,0.535508,-0.5005386,0.5726235,999.81537, , , , 
2026-03-20 17:40:58.046,2.8546374,-11.499906,1.0313065,0.15935935,-0.160352,-3.7297876,-40.21875,-12.431251,19.800001,0.5506294,-0.4859731,0.562365,999.81537, , , , 
2026-03-20 17:40:58.067,1.7204394,-11.131411,0.77766734,0.013973532,0.399811,-3.1604617,-39.65625,-16.125,20.56875,0.5652507,-0.46757126,0.5515611,999.8322, , , , 
2026-03-20 17:40:58.086,1.3471591,-11.406586,0.3278167,-0.008628465,0.55008376,-2.5392122,-37.66875,-17.90625,19.837502,0.5758762,-0.44705728,0.5429425,999.8322, , , , 
2026-03-20 17:40:58.106,0.552742,-10.581061,-0.33499518,0.11904228,0.37659815,-2.0321944,-39.09375,-19.800001,21.16875,0.58230466,-0.4338216,0.5377735,999.84393, , , , 
2026-03-20 17:40:58.126,-1.1270195,-10.145568,-2.050649,0.15935935,0.41813695,-1.5453352,-37.256252,-21.712502,19.706251,0.5873367,-0.42289332,0.53435785,999.84393, , , , 
2026-03-20 17:40:58.146,-2.6225336,-10.84188,-3.8620157,-0.047112945,0.40103272,-0.9088141,-38.625,-22.59375,19.743752,0.5899118,-0.4152717,0.53267777,999.8449, , , , 
2026-03-20 17:40:58.168,-3.8572302,-11.042876,-3.926622,-0.33360854,0.23060146,-0.030390523,-37.068752,-21.5625,18.431252,0.5887274,-0.4136695,0.5322415,999.8449, , , , 
2026-03-20 17:40:58.186,-3.3403804,-10.908878,-3.8333018,-0.53885907,0.18417573,0.7857248,-37.0875,-24.54375,18.150002,0.58508545,-0.4177344,0.5335186,999.8442, , , , 
2026-03-20 17:40:58.206,-1.0073783,-11.1936245,-3.2590244,-0.7551052,0.2770272,1.5957315,-39.506252,-22.050001,18.4125,0.5759356,-0.428522,0.5378452,999.8442, , , , 
2026-03-20 17:40:58.226,2.5148566,-11.473584,-1.6342978,-0.88460857,0.22143848,2.3440409,-38.5875,-22.06875,15.225,0.55435276,-0.45260215,0.5489891,999.8464, , , , 
2026-03-20 17:40:58.246,3.8333018,-12.019148,-0.22731815,-0.8027527,0.011300999,2.5749478,-37.050003,-20.2875,15.1125,0.5421562,-0.4668068,0.5551609,999.8464, , , , 
2026-03-20 17:40:58.266,5.058427,-12.899707,1.3830515,-0.39225155,-0.46456265,2.8919866,-41.175003,-17.362501,17.23125,0.5268869,-0.48668453,0.5637492,999.8615,37.8873814,127.73744839,175.3731689453125,1.48
2026-03-20 17:40:58.286,6.4869423,-13.730017,1.6295122,0.23693918,-0.95447624,3.2939355,-42.487503,-15.88125,16.66875,0.5141887,-0.5068404,0.57314146,999.8615, , , , 
2026-03-20 17:40:58.306,7.152147,-13.871193,0.02632105,0.5558106,-0.7993166,3.6989388,-43.256252,-12.468751,16.875,0.50184745,-0.5261363,0.5847266,999.8923, , , , 
2026-03-20 17:40:58.326,7.946564,-13.473985,-1.2011969,0.46845692,-0.4150826,4.0801187,-42.693752,-9.5625,18.0375,0.48571485,-0.54489213,0.5985819,999.8923, , , , 
2026-03-20 17:40:58.346,8.920443,-12.796816,-0.5288138,0.31207556,-0.21410811,4.3024735,-43.66875,-4.9500003,18.337502,0.465065,-0.56393254,0.6127779,999.89886, , , , 
2026-03-20 17:40:58.366,9.123833,-12.12204,0.3062813,0.33162323,-0.08888082,4.42037,-43.068752,-2.025,18.112501,0.44177255,-0.582294,0.6264659,999.89886, , , , 
2026-03-20 17:40:58.387,9.08794,-11.557333,0.069391854,0.3664425,0.17806709,4.5364347,-43.66875,2.4,18.84375,0.40949342,-0.6029245,0.6435295,999.89935, , , , 
2026-03-20 17:40:58.407,8.709874,-11.351551,-0.18185452,0.11415535,0.5506946,4.642725,-40.3875,6.0,15.20625,0.3725743,-0.6217877,0.6596611,999.89935, , , , 
2026-03-20 17:40:58.426,8.896515,-11.624332,0.99302137,0.027412556,0.49327332,4.669603,-42.206253,10.14375,17.00625,0.34855092,-0.63294286,0.66791964,999.88324, , , , 
2026-03-20 17:40:58.446,9.853643,-12.150753,2.5268207,0.27236933,0.16768238,4.781391,-42.46875,16.10625,16.3875,0.31708226,-0.6465051,0.67763966,999.88324, , , , 
2026-03-20 17:40:58.466,11.976077,-11.365908,1.1126626,0.37316203,0.309403,4.8577495,-39.581253,19.612501,17.4375,0.2859037,-0.6575122,0.6870368,999.8774, , , , 
2026-03-20 17:40:58.486,14.2851515,-10.186246,0.11485548,0.051236283,0.80176,4.671436,-38.550003,22.368752,15.000001,0.24428114,-0.66962886,0.6964486,999.8774, , , , 
2026-03-20 17:40:58.506,16.311872,-8.999406,1.2083755,-0.1796706,1.0430516,4.2206173,-35.98125,26.456251,16.81875,0.21022595,-0.6788232,0.7008815,999.85077, , , , 
2026-03-20 17:40:58.526,16.86222,-8.372486,2.0291135,0.020693045,0.71074116,3.5663812,-35.23125,30.0375,15.150001,0.18066488,-0.68543786,0.7040012,999.85077, , , , 
2026-03-20 17:40:58.546,15.85245,-7.8173513,1.1174482,0.4397463,0.13408482,3.0697482,-34.331253,31.63125,15.1125,0.15875821,-0.6879977,0.70764863,999.83905, , , , 
2026-03-20 17:40:58.566,16.637297,-7.7120676,-1.7443677,0.6963095,-0.052839804,2.8559456,-30.581251,32.025,14.08125,0.1418568,-0.6874743,0.71217877,999.83905, , , , 
2026-03-20 17:40:58.586,19.204794,-6.4558353,-4.3812585,0.4550179,0.30573782,2.573726,-29.906252,36.693752,12.975,-0.12562346,0.6867541,-0.7159009,999.8061, , , , 
2026-03-20 17:40:58.606,21.530619,-4.682754,-4.4578285,0.093996815,0.47189304,1.9335397,-29.475,36.84375,15.543751,-0.11078222,0.6877381,-0.7172075,999.8061, , , , 
2026-03-20 17:40:58.627,22.609781,-4.3070807,-3.5700915,-0.21937682,0.44073895,0.96776253,-26.38125,38.8125,12.168751,-0.09945798,0.69067526,-0.7159349,999.7597, , , , 
2026-03-20 17:40:58.646,22.31307,-5.3096733,-2.2851455,-0.29634577,0.14508039,0.11499529,-26.306252,40.800003,13.44375,-0.098115,0.69321626,-0.7137531,999.7597, , , , 
2026-03-20 17:40:58.667,21.774687,-5.771488,-0.96909314,-0.16012293,-0.40042186,-0.5080868,-26.1,39.581253,12.88125,-0.10256379,0.694198,-0.7122621,999.74896, , , , 
2026-03-20 17:40:58.686,20.575882,-5.979664,-0.023928227,0.057955798,-1.0418298,-1.3889538,-28.125002,39.112503,14.043751,-0.12128523,0.69261926,-0.71097356,999.74896, , , , 
2026-03-20 17:40:58.707,18.42952,-7.372287,0.16031912,0.084833845,-1.276402,-2.3272421,-26.868752,37.36875,15.243751,-0.14512646,0.6888746,-0.71020347,999.7675, , , , 
2026-03-20 17:40:58.726,15.828522,-9.860822,0.634098,-0.054443322,-1.235474,-2.9045093,-28.2,35.11875,14.26875,0.1737509,-0.6840711,0.70832855,999.7675, , , , 
2026-03-20 17:40:58.747,14.507684,-11.361122,1.4620147,-0.11675153,-1.1004729,-3.2209373,-27.937502,34.912502,13.63125,0.20385127,-0.6786237,0.70512354,999.7912, , , , 
2026-03-20 17:40:58.766,14.342579,-12.150753,1.3543376,-0.19982915,-1.0076214,-3.5135415,-31.0125,33.581253,15.281251,0.24188283,-0.6703816,0.69973356,999.7912, , , , 
2026-03-20 17:40:58.786,14.457435,-13.3639145,1.026521,-0.3653735,-0.93676114,-3.9509206,-32.30625,30.825,16.181252,0.27351075,-0.662779,0.6934567,999.8195, , , , 
2026-03-20 17:40:58.806,14.431113,-14.249259,1.5840486,-0.48082694,-1.0436624,-4.3626437,-33.80625,27.300001,18.712502,0.30696073,-0.6541014,0.6847848,999.8195, , , , 
2026-03-20 17:40:58.826,13.866407,-14.701502,2.213361,-0.49793115,-1.2189807,-4.6986194,-36.9375,24.225,20.4375,0.3428329,-0.64354914,0.67376995,999.84344, , , , 
2026-03-20 17:40:58.846,13.607983,-14.971891,2.5555346,-0.46189013,-1.2953387,-5.061473,-38.456253,20.325,20.831251,0.38024038,-0.63066024,0.6607271,999.84344, , , , 
2026-03-20 17:40:58.867,12.356536,-15.029319,0.4139583,-0.50465065,-0.58307046,-5.222741,-39.35625,15.243751,22.143751,0.41641977,-0.6147591,0.64699614,999.873, , , , 
2026-03-20 17:40:58.886,10.2723875,-14.627325,-1.2873386,-0.9530254,0.946535,-5.0975137,-39.09375,9.9375,20.400002,0.4435512,-0.5974291,0.6346392,999.873, , , , 
2026-03-20 17:40:58.906,9.480363,-14.383257,-0.5910272,-1.1967604,1.7241658,-4.9472413,-43.612503,7.1250005,20.268751,0.460528,-0.5796586,0.6238139,999.8786, , , , 
2026-03-20 17:40:58.926,9.375079,-14.065011,0.81595254,-1.0202205,1.4651592,-4.9759517,-44.362503,3.3187501,19.0125,0.47660273,-0.5555372,0.6100041,999.8786, , , , 
2026-03-20 17:40:58.946,7.8891363,-14.005191,1.9142581,-0.58589566,0.65942854,-5.0620837,-45.24375,-4.74375,18.956251,0.48882762,-0.53964674,0.5998577,999.87836, , , , 
2026-03-20 17:40:58.966,4.625326,-13.567305,2.2731814,0.002367101,-0.37476555,-4.8433943,-44.756252,-7.2937503,19.35,0.5164675,-0.5121741,0.5795065,999.87836, , , , 
2026-03-20 17:40:58.986,2.3377876,-12.452249,1.5744773,0.31329727,-0.64415693,-4.346761,-43.3125,-11.00625,20.025002,0.54096115,-0.4909646,0.5624465,999.8908, , , , 
2026-03-20 17:40:59.006,-0.99302137,-11.222338,-0.44027936,0.33162323,-0.17318016,-3.6772532,-38.850002,-14.625001,15.918751,0.5621103,-0.47060177,0.5478161,999.8908, , , , 
2026-03-20 17:40:59.028,-4.867001,-11.093125,-0.49052864,0.21006113,-0.15485422,-2.6070182,-36.975002,-18.075,20.081251,0.58032435,-0.44928092,0.534269,999.89594, , , , 
2026-03-20 17:40:59.046,-4.213761,-11.035698,-0.0741775,0.32246023,-0.67470014,-1.5642719,-37.350002,-20.831251,17.962502,0.59130365,-0.43990114,0.5259197,999.89594, , , , 
2026-03-20 17:40:59.067,-1.5170496,-10.155139,-0.60059845,0.36338818,-0.8946115,-0.9430225,-37.612503,-21.243752,19.237501,0.5987007,-0.436887,0.52068365,999.89984, , , , 
2026-03-20 17:40:59.086,1.0719845,-9.171689,-1.1318051,0.2070068,-0.4896081,-0.6357575,-36.768753,-22.050001,21.056252,0.60787904,-0.4350569,0.51427263,999.89984, , , , 
2026-03-20 17:40:59.106,0.0023928226,-9.353543,-1.4452649,0.03413207,0.044898562,-0.4488329,-36.45,-22.518751,22.29375,0.6107502,-0.43330172,0.512475,999.893, , , , 
2026-03-20 17:40:59.126,-1.1150553,-10.406385,-1.7467605,-0.03611738,0.21288638,-0.08659008,-36.487503,-22.03125,21.956251,0.61008435,-0.43274584,0.5134856,999.893, , , , 
2026-03-20 17:40:59.146,-1.6007984,-11.519048,-2.321038,-0.084375694,-0.15363249,0.8156572,-36.525,-21.4125,23.306252,0.6073006,-0.43675625,0.5160746,999.89374, , , , 
2026-03-20 17:40:59.166,0.15314065,-11.241481,-1.9166509,-0.14973822,-0.24404047,1.5780164,-35.60625,-22.050001,21.393751,0.60237473,-0.44687364,0.5198064,999.89374, , , , 
2026-03-20 17:40:59.187,1.5936198,-11.468799,-2.0985055,-0.2694677,0.13775001,2.0239477,-36.9375,-20.7,21.618752,0.5957554,-0.45686185,0.52474004,999.89594, , , , 
2026-03-20 17:40:59.206,3.1393833,-11.69851,-1.8927227,-0.52114403,0.74006265,2.7013967,-37.10625,-20.831251,20.400002,0.5721401,-0.47980928,0.54129344,999.89594, , , , 
2026-03-20 17:40:59.226,4.409972,-12.641282,-0.55752766,-0.5626828,0.58001614,3.066694,-40.050003,-17.38125,19.125,0.55143887,-0.49762335,0.5543095,999.88495, , , , 
2026-03-20 17:40:59.246,6.1878395,-13.16531,1.3232309,-0.19433136,-0.06933315,3.400226,-39.506252,-14.718751,19.237501,0.5313039,-0.517292,0.5666723,999.88495, , , , 
2026-03-20 17:40:59.267,8.0614195,-13.222738,1.3710874,0.39209884,-0.51282096,3.576766,-42.1875,-12.76875,19.706251,0.51421005,-0.53645545,0.57894444,999.8864,37.88737063,127.73745992,175.37237548828125,1.52
2026-03-20 17:40:59.286,8.618947,-13.232309,-0.6987042,0.72807443,-0.48349947,3.7392561,-41.68125,-9.4875,20.081251,0.4984294,-0.5534112,0.5922013,999.8864, , , , 
2026-03-20 17:40:59.306,8.484949,-13.119846,-1.4452649,0.6743184,-0.25809038,3.9591672,-44.4375,-4.0687504,22.5375,0.4807381,-0.5693796,0.60596627,999.8996, , , , 
2026-03-20 17:40:59.326,8.685946,-12.7393875,-1.0193424,0.61995137,-0.051007207,4.1937394,-42.91875,-0.91875005,21.73125,0.45963576,-0.58526933,0.61977106,999.8996, , , , 
2026-03-20 17:40:59.348,9.530613,-12.224931,-1.3734802,0.5759691,0.16157374,4.362949,-42.43125,3.61875,21.88125,0.42916894,-0.60425127,0.63683647,999.8957, , , , 
2026-03-20 17:40:59.367,10.2317095,-11.9019,-1.4668003,0.49289152,0.2855793,4.430755,-41.025,6.76875,19.556252,0.4089826,-0.6150154,0.6465406,999.8957, , , , 
2026-03-20 17:40:59.386,12.227324,-11.521441,-1.2299109,0.50266534,0.13164136,4.4325876,-41.23125,11.700001,20.98125,0.37461907,-0.63182986,0.6606532,999.88495, , , , 
2026-03-20 17:40:59.406,13.940585,-10.932807,-1.4285151,0.359723,0.228158,4.2603235,-41.68125,15.262501,20.98125,0.3477894,-0.643789,0.6697172,999.88495, , , , 
2026-03-20 17:40:59.426,14.261223,-10.073783,-1.3232309,-0.04894554,0.88422674,3.9671085,-38.081253,17.6625,18.0,0.31949624,-0.6549841,0.6768937,999.8669, , , , 
2026-03-20 17:40:59.446,14.124832,-9.619147,0.083748795,-0.37942338,1.3362668,3.6745043,-39.487503,21.6,18.862501,0.28848225,-0.66623837,0.68210316,999.8669, , , , 
2026-03-20 17:40:59.467,13.186846,-9.2075815,1.3112668,-0.36293003,1.1377356,3.351357,-38.0625,24.243752,18.243752,0.25782132,-0.6764708,0.6857708,999.8444, , , , 
2026-03-20 17:40:59.486,12.150753,-8.355737,1.0217353,-0.19982915,0.75411254,3.1228936,-35.100002,27.187502,16.368752,0.22505505,-0.6864603,0.68898475,999.8444, , , , 
2026-03-20 17:40:59.507,12.27518,-7.4033933,0.08853444,-0.20593779,0.90743965,3.0233226,-36.99375,28.837502,18.487501,0.20035516,-0.692992,0.69105554,999.8361, , , , 
2026-03-20 17:40:59.526,12.179467,-6.5252275,-0.5192425,-0.3672061,1.1615593,2.8919866,-33.54375,30.581251,16.181252,0.17483763,-0.69940555,0.6921173,999.8361, , , , 
2026-03-20 17:40:59.546,12.631711,-5.7116675,-0.05742774,-0.47899434,1.1853831,2.7466009,-31.556252,35.15625,14.306251,0.14928484,-0.7060677,0.69169736,999.8205, , , , 
2026-03-20 17:40:59.567,14.1726885,-5.271388,-0.062213387,-0.35071275,0.8512401,2.5321872,-31.875002,35.850002,16.1625,0.12626328,-0.711704,0.69077003,999.8205, , , , 
2026-03-20 17:40:59.586,16.697117,-5.45085,-1.6438692,-0.2786307,0.33811367,2.0777037,-30.225,35.268753,15.243751,0.10860544,-0.7158401,0.6896827,999.8051, , , , 
2026-03-20 17:40:59.606,18.553947,-5.3718867,-2.6799614,-0.4710531,0.09560034,1.5596905,-28.9125,38.15625,15.262501,0.097024284,-0.7197966,0.68736374,999.8051, , , , 
