Time,Accel_X,Accel_Y,Accel_Z,Gyro_X,Gyro_Y,Gyro_Z,Mag_X,Mag_Y,Mag_Z,Orient_X,Orient_Y,Orient_Z,Pressure,Lat,Lng,Alt,Speed
2025-08-22 19:45:36.525,0.552742,4.493721,8.772088,-0.100869045,0.11759147,-0.0064904382,7.7625003,-45.487503,-23.90625,0.19780019,0.1492318,0.71154493,994.1977,37.88836096,127.739836,146.11529541015625,0.0
2025-08-22 19:45:36.544,0.5383851,4.493721,8.63809,-0.09414954,0.14874557,0.0014508038,7.7625003,-45.487503,-23.90625,0.19740173,0.14926584,0.71163505,994.1716, , , , 
2025-08-22 19:45:36.564,0.83748794,4.584648,8.906086,-0.045891218,0.23121232,-0.015653409,8.025001,-45.7125,-24.243752,0.19555764,0.14995213,0.7120833,994.1716, , , , 
2025-08-22 19:45:36.584,0.53359944,4.6325045,9.056833,0.012751802,0.18417573,0.008170316,6.6375003,-43.74375,-22.96875,0.19386691,0.15124707,0.71247065,994.15204, , , , 
2025-08-22 19:45:36.604,0.715454,4.694718,8.836694,0.031077746,0.07910699,0.008170316,8.45625,-43.66875,-25.95,0.19289039,0.1523184,0.7128353,994.15204, , , , 
2025-08-22 19:45:36.624,0.930808,4.6468616,8.659625,0.021914775,0.026572619,-0.05413789,7.33125,-42.675003,-24.806252,0.19266441,0.15293369,0.7128457,994.12616, , , , 
2025-08-22 19:45:36.646,1.4356936,4.8358946,8.571091,0.007864884,0.011911863,-0.09750929,7.0312505,-43.21875,-22.725,0.19309112,0.15300542,0.71234167,994.12616, , , , 
2025-08-22 19:45:36.664,0.6221339,4.4147577,9.068798,-0.0410043,0.20127994,-0.11155918,6.9750004,-44.4375,-24.975,0.19187412,0.15375514,0.7117686,994.11053, , , , 
2025-08-22 19:45:36.684,0.58624154,4.6205406,8.554341,-0.037949976,0.3649917,-0.04741838,9.993751,-41.025,-24.712502,0.18969515,0.15534937,0.7118656,994.11053, , , , 
2025-08-22 19:45:36.704,0.6029913,4.7114677,9.078369,-0.03978257,0.33689192,-0.015653409,6.7125,-42.73125,-23.643751,0.18670852,0.15748234,0.712417,994.1059, , , , 
2025-08-22 19:45:36.726,1.2299109,4.7880383,8.79123,-0.04894554,0.3149008,-0.11155918,9.075001,-43.256252,-22.95,0.18380147,0.15970397,0.71275264,994.1059, , , , 
2025-08-22 19:45:36.744,0.7800602,4.8861437,8.99462,-0.118584126,0.32284203,-0.1909716,8.625,-42.5625,-22.0125,0.18169045,0.1607768,0.71254075,994.0744, , , , 
2025-08-22 19:45:36.764,0.4354937,5.0799623,9.272188,-0.045280352,0.2886336,-0.20257804,9.4875,-43.350002,-21.75,0.17858195,0.16238384,0.7119944,994.0744, , , , 
2025-08-22 19:45:36.784,0.12921242,4.991428,8.9826565,0.029245151,0.2764163,-0.12316561,9.056251,-43.256252,-21.54375,0.17628577,0.16446184,0.711341,994.07416, , , , 
2025-08-22 19:45:36.804,-0.50488555,4.618148,7.783852,-0.06788235,0.04367683,0.074143715,11.55,-41.25,-23.94375,0.1744383,0.1663507,0.71138287,994.07416, , , , 
2025-08-22 19:45:36.824,0.46660042,4.5655055,8.666803,-0.17417282,-0.062613636,0.14805835,10.293751,-41.5125,-22.237501,0.17407274,0.1652171,0.7122759,994.10077, , , , 
2025-08-22 19:45:36.844,0.57427746,4.6875396,9.044869,-0.100869045,-0.0015271619,0.06314815,9.01875,-42.768753,-21.73125,0.1735961,0.16376293,0.7131326,994.10077, , , , 
2025-08-22 19:45:36.864,0.41156548,4.5296135,8.513663,-0.100869045,0.041233372,-0.0297033,9.20625,-42.61875,-22.21875,0.1729813,0.16316722,0.71343386,994.1308, , , , 
2025-08-22 19:45:36.884,0.26799613,4.6899323,9.468399,-0.03733911,-0.07055488,-0.03642281,9.20625,-42.61875,-22.5375,0.17228211,0.16257915,0.71334517,994.1308, , , , 
2025-08-22 19:45:36.904,0.18185452,4.3669014,8.863015,0.0994946,-0.14874557,-0.03581195,8.55,-44.41875,-22.81875,0.17306885,0.16220646,0.7129161,994.16254, , , , 
2025-08-22 19:45:36.925,0.019142581,4.386044,8.312666,0.054901473,-0.03695732,-0.0058795735,7.8375,-44.25,-22.29375,0.1743984,0.16230226,0.7122206,994.16254, , , , 
2025-08-22 19:45:36.944,0.20578274,4.508078,8.212168,-0.055665053,0.07299834,0.03810269,9.450001,-43.59375,-22.800001,0.17429504,0.1627316,0.7121864,994.1711, , , , 
2025-08-22 19:45:36.965,0.7537391,4.6061835,8.250452,-0.1344666,0.14385866,-0.033979353,9.13125,-44.362503,-22.10625,0.17318669,0.16285774,0.71270823,994.1711, , , , 
2025-08-22 19:45:36.984,0.30867413,4.453043,7.7120676,-0.26702428,0.24220788,-0.106672265,9.900001,-44.0625,-20.04375,0.17143938,0.16293457,0.7128156,994.1706, , , , 
2025-08-22 19:45:37.005,0.09332009,4.3357944,8.472985,-0.42645997,0.34055713,-0.090178914,9.150001,-43.612503,-22.78125,0.16752201,0.16299461,0.71305835,994.1706, , , , 
2025-08-22 19:45:37.025,0.701097,4.1443686,9.468399,-0.3323868,0.41141742,-0.14210242,9.918751,-43.3125,-20.71875,0.16211183,0.16249132,0.71371514,994.1569, , , , 
2025-08-22 19:45:37.044,0.6053841,4.56072,9.793823,-0.10575596,0.15546508,-0.2844339,11.175,-43.03125,-22.706251,0.15774795,0.16195318,0.7138108,994.1569, , , , 
2025-08-22 19:45:37.064,-0.29192436,4.5822554,9.162118,0.09705114,-0.23854269,-0.35468337,11.25,-43.40625,-22.5375,0.1572955,0.16173469,0.711936,994.14545, , , , 
2025-08-22 19:45:37.085,-0.526421,4.3238306,7.9776707,0.012751802,-0.32467464,-0.2862665,12.0375,-43.29375,-25.575,0.15958276,0.16143405,0.70841414,994.14545, , , , 
2025-08-22 19:45:37.104,-1.4524434,4.28076,8.398808,-0.1674533,0.03573559,-0.0816268,11.587501,-43.125,-22.59375,0.15920022,0.16163988,0.70649946,994.13007, , , , 
2025-08-22 19:45:37.124,-0.4426722,4.398008,9.516255,-0.19494222,0.29962918,0.105908684,10.668751,-43.10625,-19.875,0.15591651,0.16232526,0.70696557,994.13007, , , , 
2025-08-22 19:45:37.144,0.8327023,4.338187,10.047462,-0.030619597,0.22021675,0.04054615,11.53125,-42.0,-22.650002,0.15306044,0.16320828,0.70828146,994.12445, , , , 
2025-08-22 19:45:37.166,0.086141616,4.213761,10.174282,0.18868086,-0.19028437,-0.09262237,11.606251,-42.35625,-23.268751,0.15296847,0.16387859,0.7081354,994.12445, , , , 
2025-08-22 19:45:37.186,-0.28235307,4.220939,9.992428,0.37988153,-0.43340856,-0.056581352,11.325001,-42.9,-21.956251,0.1563709,0.1636709,0.70676297,994.1369, , , , 
2025-08-22 19:45:37.204,-0.10767702,4.4195433,9.004191,0.43669197,-0.27030766,0.07536544,9.731251,-44.193752,-20.94375,0.16146621,0.16403553,0.70546126,994.1369, , , , 
2025-08-22 19:45:37.225,0.33260235,4.7377887,7.984849,0.2503782,-0.021685699,0.035048366,9.075001,-43.987503,-23.0625,0.1660465,0.16579588,0.7049293,994.15643, , , , 
2025-08-22 19:45:37.244,0.06460621,4.8215375,8.630911,0.09644028,0.10231985,0.010002911,10.087501,-43.912502,-21.0,0.16701125,0.16719376,0.7048036,994.15643, , , , 
2025-08-22 19:45:37.265,0.4235296,4.6755753,8.851051,0.093996815,0.016798781,-0.017486004,11.775001,-42.225002,-22.35,0.16711001,0.1683504,0.70482415,994.1696, , , , 
2025-08-22 19:45:37.286,0.37567315,4.658826,9.0951185,0.1465312,-0.18661919,-0.11217005,10.462501,-42.862503,-22.03125,0.16833428,0.1686519,0.7041394,994.1696, , , , 
2025-08-22 19:45:37.306,-0.4331009,3.9696927,9.147761,0.2503782,-0.14385866,0.020998476,10.481251,-44.23125,-21.956251,0.17076871,0.1686683,0.7027954,994.1762, , , , 
2025-08-22 19:45:37.324,0.66759753,5.070391,8.963513,0.5106066,-0.4187478,0.047265664,10.81875,-44.0625,-22.931252,0.17403093,0.1697283,0.70223397,994.1762, , , , 
2025-08-22 19:45:37.344,2.536392,4.208975,6.6735826,0.35483608,-0.92148954,-0.21662793,11.231251,-43.40625,-21.91875,0.18200561,0.16871238,0.6998904,994.17426, , , , 
2025-08-22 19:45:37.364,0.57427746,6.209375,8.133204,0.07017309,-0.6478221,-0.62163126,8.925,-44.53125,-19.7625,0.18989214,0.16433181,0.69550633,994.17426, , , , 
2025-08-22 19:45:37.384,0.12921242,4.759324,8.4012,0.025579963,-0.4535671,-0.4890736,9.431251,-43.59375,-22.03125,0.19288401,0.1629884,0.6905582,994.2055, , , , 
2025-08-22 19:45:37.404,-0.6149554,4.6085763,8.568698,0.084833845,-0.6148354,-0.30153814,9.09375,-42.506252,-23.1375,0.19570328,0.16077545,0.6865872,994.2055, , , , 
2025-08-22 19:45:37.425,0.4833502,4.5942197,7.989635,0.057344932,-0.6704241,-0.021151192,9.975,-43.800003,-21.618752,0.20171511,0.15635443,0.6832541,994.22015, , , , 
2025-08-22 19:45:37.444,1.1796615,4.496114,9.564112,-0.062995434,0.09560034,0.10224349,8.868751,-42.46875,-22.40625,0.20419627,0.15338938,0.6828023,994.22015, , , , 
2025-08-22 19:45:37.466,0.6436693,4.6731825,8.877372,0.13675736,0.06750056,0.0778089,7.9125004,-44.625,-22.125,0.20372877,0.15436484,0.6835281,994.2375, , , , 
2025-08-22 19:45:37.484,0.23688944,4.9770713,7.7407813,0.20395248,-0.44929105,0.14683662,8.64375,-44.550003,-21.13125,0.20511237,0.15460499,0.68369395,994.2375, , , , 
2025-08-22 19:45:37.506,1.2370893,4.8263235,6.680761,0.15386157,-0.8475749,0.17127122,8.90625,-44.1375,-23.493752,0.21287642,0.15031534,0.6829771,994.2109, , , , 
2025-08-22 19:45:37.526,1.9310079,4.6468616,5.922236,0.04940369,-0.85857046,0.08025236,8.775001,-44.025,-22.25625,0.21954179,0.14525846,0.68193305,994.2109,37.88836096,127.739836,146.11529541015625,0.0
2025-08-22 19:45:37.544,1.7802601,4.5894337,6.128019,-0.0019089525,-1.0112866,-0.077961616,7.3875003,-45.787502,-22.462502,0.22570534,0.13933328,0.6799624,994.16693, , , , 
2025-08-22 19:45:37.565,1.2729816,4.2831526,5.5130634,0.11598795,-1.96729,-0.12560907,6.3562503,-44.5125,-23.8125,0.23494376,0.1309579,0.6761496,994.16693, , , , 
2025-08-22 19:45:37.585,1.8711873,3.7136607,4.9722853,0.29252788,-3.4388633,-0.022983788,5.71875,-43.331253,-24.750002,0.25343937,0.11507068,0.6667948,994.1274, , , , 
2025-08-22 19:45:37.604,3.050849,3.1609187,3.5988052,0.25098908,-3.534769,0.011835505,3.54375,-43.29375,-24.993752,0.27955472,0.09234051,0.65914345,994.1274, , , , 
2025-08-22 19:45:37.626,2.9862428,2.8091738,2.6512475,-0.23648103,-2.463923,0.2201404,0.35625002,-44.737503,-26.8875,0.3012581,0.07109962,0.6504263,994.09906, , , , 
2025-08-22 19:45:37.646,4.0701914,2.6871397,4.2041893,-0.6378192,-1.8640538,0.4266127,-1.7437501,-44.943752,-27.112501,0.31500104,0.048415143,0.6454519,994.09906, , , , 
2025-08-22 19:45:37.664,4.465007,1.7515461,4.831109,-0.6616429,-2.3838997,0.20547964,-2.6625001,-44.643753,-29.19375,0.32408774,0.029038327,0.6417164,994.06854, , , , 
2025-08-22 19:45:37.684,2.885744,1.98365,4.5487556,-0.70134914,-2.5066836,0.3814087,-5.8500004,-43.8375,-30.6,0.33474404,0.007359466,0.6360769,994.06854, , , , 
2025-08-22 19:45:37.704,2.8881369,1.7874385,4.5798626,-0.8473458,-2.1994185,0.71677345,-8.137501,-43.4625,-30.075,0.3443497,-0.01560462,0.63162476,994.0539, , , , 
2025-08-22 19:45:37.724,2.4765713,1.7922242,3.8141594,-0.89804757,-2.387565,0.96111935,-9.58125,-41.98125,-31.10625,0.35184723,-0.038662575,0.62934023,994.0539, , , , 
2025-08-22 19:45:37.744,2.861816,1.1365907,2.9216363,-1.0293835,-2.785238,1.2671627,-13.106251,-41.456253,-32.925003,0.36063877,-0.06552545,0.6272578,994.03436, , , , 
2025-08-22 19:45:37.765,4.2041893,0.3182454,1.9597218,-1.3244312,-2.649626,1.6116904,-14.19375,-40.443752,-34.256252,0.36901942,-0.09605645,0.6258133,994.03436, , , , 
2025-08-22 19:45:37.784,5.8743796,-0.27517462,1.7515461,-1.7783037,-2.3209808,1.7790673,-17.081251,-37.893753,-31.931252,0.37323865,-0.136686,0.6263409,994.0195, , , , 
2025-08-22 19:45:37.804,6.661618,-1.2370893,3.5365918,-2.274937,-2.491412,1.7925063,-21.6,-37.96875,-34.3875,0.37146,-0.17184919,0.6263227,994.0195, , , , 
2025-08-22 19:45:37.825,5.680561,-2.457429,5.2283173,-2.0990078,-2.8163922,1.9525529,-23.94375,-34.350002,-34.2,0.36941713,-0.20962049,0.6247824,994.03485, , , , 
2025-08-22 19:45:37.844,5.503492,-3.3834512,4.4985065,-1.8332815,-3.0857835,2.4216971,-27.900002,-33.6375,-34.125,0.36933511,-0.24829458,0.62383777,994.03485, , , , 
2025-08-22 19:45:37.864,9.123833,-3.8261235,4.5678983,-1.9884412,-2.8524332,2.6623778,-32.475002,-30.243752,-34.7625,0.36870748,-0.28812322,0.6241617,994.0402, , , , 
2025-08-22 19:45:37.885,9.083155,-4.7018967,6.142376,-2.0220387,-2.1951425,2.6690972,-31.893751,-29.437502,-33.956253,0.3632593,-0.32588342,0.62528616,994.0402, , , , 
2025-08-22 19:45:37.904,9.131011,-5.156533,5.517849,-1.8833724,-2.4944663,2.8438046,-35.79375,-25.612501,-34.537502,0.35556096,-0.3610053,0.62716097,994.06146, , , , 
2025-08-22 19:45:37.924,11.430513,-5.680561,6.0418773,-1.7679191,-2.3814564,2.7576728,-37.0125,-21.393751,-33.09375,0.34763518,-0.40510798,0.6283503,994.06146, , , , 
2025-08-22 19:45:37.944,10.083355,-6.283552,6.096912,-1.6500221,-2.0002768,2.8407502,-40.275,-19.25625,-31.181252,0.3417826,-0.4290541,0.62917644,994.08734, , , , 
2025-08-22 19:45:37.965,10.514063,-6.719046,5.7667027,-1.4582106,-1.9135339,3.0673811,-40.85625,-16.96875,-29.7,0.32915935,-0.46605936,0.63250023,994.08734, , , , 
2025-08-22 19:45:37.985,12.14836,-6.762117,4.5008993,-1.2499057,-2.2281294,3.0508878,-44.8875,-14.38125,-29.268751,0.31965628,-0.49413294,0.63557065,994.1015, , , , 
2025-08-22 19:45:38.004,11.782259,-7.204789,2.7326035,-1.2071452,-2.2617269,2.9445972,-44.34375,-11.493751,-26.718752,0.31325537,-0.5218249,0.63669956,994.1015, , , , 
2025-08-22 19:45:38.024,11.29173,-7.7742805,1.7802601,-1.4130065,-2.0063853,2.8969498,-43.818752,-6.6000004,-25.2,0.30579334,-0.5484921,0.63652724,994.09564, , , , 
2025-08-22 19:45:38.044,10.918449,-8.590233,3.0460632,-1.4692061,-1.7516547,2.9537604,-47.287502,-4.8562503,-24.468752,0.29548827,-0.5742483,0.6353243,994.09564, , , , 
2025-08-22 19:45:38.065,10.9352,-9.071191,3.0556345,-1.3598614,-1.6673554,3.0930374,-43.4625,0.26250002,-24.54375,0.2829423,-0.5982183,0.6346078,994.07513, , , , 
2025-08-22 19:45:38.086,12.004791,-9.379865,2.6751757,-1.3036618,-1.5555671,3.1767259,-44.362503,3.05625,-25.218752,0.26916882,-0.62075365,0.63437486,994.07513, , , , 
2025-08-22 19:45:38.106,12.866207,-9.736395,2.9982069,-1.3146573,-1.4034618,3.131522,-48.881252,3.9375002,-24.337502,0.25076792,-0.6468809,0.63362026,994.0678, , , , 
2025-08-22 19:45:38.125,13.813766,-9.178867,4.802395,-1.1087959,-0.8512401,2.832809,-49.10625,6.1312504,-19.96875,0.23494986,-0.6647134,0.63292867,994.0678, , , , 
2025-08-22 19:45:38.144,12.691531,-8.760123,4.8598228,-0.7715986,-0.45906487,2.5102725,-46.65,8.981251,-18.075,0.2190273,-0.6774647,0.63382965,994.05853, , , , 
2025-08-22 19:45:38.164,10.794023,-8.432307,4.302295,-0.43012518,-0.33628106,2.4003167,-45.975002,12.50625,-15.4125,0.20378779,-0.6862824,0.63652724,994.05853, , , , 
2025-08-22 19:45:38.184,10.705488,-7.7814593,2.9312077,-0.16500984,-0.50976664,2.3642757,-46.65,12.69375,-16.425001,0.18966341,-0.6928973,0.640726,994.0461, , , , 
2025-08-22 19:45:38.204,11.502298,-7.4392858,1.6366907,-0.17478369,-0.5836813,2.15536,-42.73125,15.450001,-16.368752,0.17765398,-0.69865966,0.64482087,994.0461, , , , 
2025-08-22 19:45:38.224,11.617154,-7.173682,1.4931214,-0.2370919,-0.4242456,1.7485241,-43.5,15.993751,-16.48125,0.16778536,-0.7040036,0.64738756,994.02216, , , , 
2025-08-22 19:45:38.244,10.459028,-7.0899334,1.713261,-0.21143557,-0.17745622,1.4430916,-39.7125,16.63125,-15.675,0.15700115,-0.70918906,0.64931786,994.02216, , , , 
2025-08-22 19:45:38.266,9.815358,-6.9009004,1.1772687,-0.17539455,-0.0858265,1.2659409,-40.331253,17.831251,-17.23125,0.14881493,-0.7121259,0.650823,994.01337, , , , 
2025-08-22 19:45:38.284,9.293723,-6.814759,0.59581286,-0.21143557,0.0876591,1.1101704,-39.318752,19.29375,-16.331251,0.14306404,-0.71395886,0.65173584,994.01337, , , , 
2025-08-22 19:45:38.304,8.937193,-6.506085,0.5407779,-0.35926485,0.2837467,0.9507347,-38.79375,18.337502,-15.4125,0.13293284,-0.7169575,0.6522444,994.0102, , , , 
2025-08-22 19:45:38.325,9.241081,-6.053841,1.8568304,-0.2596939,0.25320345,0.7039453,-39.09375,19.800001,-14.38125,0.125158,-0.7192236,0.6518951,994.0102, , , , 
2025-08-22 19:45:38.345,8.867801,-5.7762737,1.8903298,0.0011453715,0.047952887,0.48281226,-39.15,20.175001,-15.7875,0.120078504,-0.7201377,0.6522565,994.02045, , , , 
2025-08-22 19:45:38.364,8.642876,-5.6327047,0.8470592,0.1550833,-0.11636974,0.38934994,-37.331253,20.493752,-16.143751,0.11795673,-0.71970975,0.6537034,994.02045, , , , 
2025-08-22 19:45:38.384,8.810373,-5.316852,0.66759753,0.14530946,-0.19272783,0.29527676,-36.487503,20.4375,-14.231251,0.11749344,-0.7190418,0.6552722,994.0192, , , , 
2025-08-22 19:45:38.404,9.245867,-5.4388857,1.1413764,0.1532507,-0.40286532,0.19509494,-35.41875,21.806252,-17.34375,0.11888585,-0.7184044,0.6566781,994.0192, , , , 
2025-08-22 19:45:38.425,10.095319,-5.5106707,2.0386848,0.27053675,-0.652709,0.10835214,-35.287502,22.575,-16.95,0.12248304,-0.7178468,0.65771407,994.0273, , , , 
2025-08-22 19:45:38.445,11.181661,-5.089534,2.8522446,0.5613084,-0.72723454,-0.053527027,-37.612503,21.956251,-16.2,0.12836102,-0.7159966,0.6598111,994.0273, , , , 
2025-08-22 19:45:38.464,12.138789,-4.682754,2.1343977,0.85208,-0.743117,-0.3229184,-37.8375,20.0625,-17.00625,0.13678682,-0.7117853,0.66361296,994.0402, , , , 
2025-08-22 19:45:38.484,13.3687,-4.847859,0.9284152,0.86674076,-0.6362157,-0.70409805,-38.568752,21.487501,-17.306252,0.14757541,-0.706044,0.6678313,994.0402, , , , 
2025-08-22 19:45:38.505,13.505091,-6.285945,0.6963114,0.7274636,-0.57390743,-1.1219295,-38.5875,19.987501,-16.9125,0.16023543,-0.69995683,0.6708133,994.0507, , , , 
2025-08-22 19:45:38.524,13.091133,-7.891529,1.4763715,0.63644475,-0.86712253,-1.4078143,-38.8125,19.59375,-17.025002,0.17949754,-0.69267744,0.6721042,994.0507,37.88836096,127.739836,146.11529541015625,0.0
2025-08-22 19:45:38.544,13.964513,-8.738588,2.0793629,0.70119643,-0.9966259,-1.6032909,-39.84375,20.475,-14.962501,0.19796973,-0.68677056,0.6719852,994.05585, , , , 
2025-08-22 19:45:38.565,15.002998,-9.466006,1.753939,0.73723745,-0.8457423,-1.8958952,-43.725002,18.056252,-12.562501,0.21785629,-0.67964053,0.6716692,994.05585, , , , 
2025-08-22 19:45:38.585,14.790037,-9.492328,0.849452,0.60712326,-0.43768463,-2.2862377,-46.518753,12.806251,-14.137501,0.23809695,-0.6712151,0.67073077,994.0627, , , , 
2025-08-22 19:45:38.604,14.388042,-8.772088,1.0863415,0.382325,-0.07788526,-2.6063309,-48.393753,13.500001,-16.143751,0.25754967,-0.6621867,0.66834176,994.0627, , , , 
2025-08-22 19:45:38.624,14.404793,-8.212168,1.6079768,0.3511709,0.2196059,-2.9630759,-49.29375,11.8125,-18.112501,0.27617374,-0.65225834,0.6646211,994.082, , , , 
2025-08-22 19:45:38.644,13.4022,-8.49452,1.1772687,0.39454228,0.36071566,-3.3638031,-48.7125,8.3625,-15.806251,0.29533732,-0.64017665,0.6601683,994.082, , , , 
2025-08-22 19:45:38.665,11.25823,-9.071191,0.9451649,0.37988153,0.67592186,-3.5824928,-49.93125,4.3875003,-16.6875,0.31928927,-0.62214583,0.6535926,994.0883, , , , 
2025-08-22 19:45:38.684,10.047462,-9.255438,1.2729816,0.41408995,0.60689414,-3.6069274,-51.093754,3.0375001,-17.1,0.33285975,-0.6103608,0.64922845,994.0883, , , , 
2025-08-22 19:45:38.704,9.683753,-8.760123,2.120041,0.6749292,0.1499673,-3.5714972,-52.031254,0.45000002,-17.625,0.35686272,-0.5898903,0.6409876,994.0888, , , , 
2025-08-22 19:45:38.725,9.990034,-8.489735,0.87338024,0.9547053,-0.26542073,-3.5916557,-52.162502,-4.5375004,-17.493752,0.3794141,-0.5723756,0.63384646,994.0888, , , , 
2025-08-22 19:45:38.744,9.5760765,-8.592627,-0.35653058,0.8728494,-0.49632764,-3.5959318,-54.412502,-6.8812504,-16.96875,0.40428406,-0.55482244,0.62505305,994.09125, , , , 
2025-08-22 19:45:38.764,8.039884,-8.130812,-0.35413775,0.62606007,-0.3423897,-3.4676502,-55.4625,-9.225,-17.493752,0.42801473,-0.538094,0.61463106,994.09125, , , , 
2025-08-22 19:45:38.785,7.2622166,-7.635497,0.09332009,0.5020545,-0.33689192,-3.2996624,-55.593754,-13.481251,-17.23125,0.4490076,-0.5221697,0.6035787,994.0898, , , , 
2025-08-22 19:45:38.804,6.728617,-7.0779696,0.17467605,0.4721221,-0.37293294,-3.0779185,-57.300003,-16.7625,-16.25625,0.46839806,-0.50717074,0.5921165,994.0898, , , , 
2025-08-22 19:45:38.824,5.8337016,-6.2668023,-0.18664017,0.48067424,-0.21288638,-2.822577,-54.187504,-18.91875,-18.0,0.48605472,-0.49271882,0.58113575,994.0766, , , , 
2025-08-22 19:45:38.845,4.453043,-5.804988,-1.1246266,0.3927097,0.10415245,-2.4450626,-55.406254,-22.66875,-16.125,0.5040984,-0.4749008,0.56972355,994.0766, , , , 
2025-08-22 19:45:38.864,2.8833513,-5.326423,-1.026521,0.28092143,0.38698283,-1.9679773,-55.500004,-23.90625,-17.268751,0.5138982,-0.4618281,0.5631315,994.0673, , , , 
2025-08-22 19:45:38.886,1.9501505,-4.941179,-1.0695918,0.23693918,0.26175556,-1.4157555,-55.55625,-24.91875,-17.0625,0.52026534,-0.45099118,0.5588163,994.0673, , , , 
2025-08-22 19:45:38.905,2.0434706,-5.048856,-2.0051854,0.07689261,-0.14752385,-0.8073342,-54.506252,-26.925001,-16.743752,0.5252255,-0.44431788,0.55533975,994.05804, , , , 
2025-08-22 19:45:38.926,2.0315065,-5.613562,-1.7970098,-0.1955531,-0.399811,-0.27282748,-53.475002,-27.056252,-18.393751,0.5289083,-0.44318563,0.55141664,994.05804, , , , 
2025-08-22 19:45:38.945,1.7587247,-5.831309,-1.18684,-0.4087449,-0.39614582,0.3184896,-53.100002,-27.393751,-18.712502,0.52985,-0.44703397,0.54814976,994.0544, , , , 
2025-08-22 19:45:38.964,1.5409778,-6.125626,-0.15074782,-0.49487683,-0.15851942,0.94035,-55.068752,-27.487501,-16.5,0.5268571,-0.4544873,0.5472686,994.0544, , , , 
2025-08-22 19:45:38.985,2.1415763,-6.5778694,0.11724831,-0.47349656,0.16462806,1.5609885,-54.43125,-26.6625,-17.85,0.5191241,-0.4639317,0.5506304,994.07025, , , , 
2025-08-22 19:45:39.005,3.2327034,-6.4677997,-0.3182454,-0.4661662,0.36987862,2.046626,-55.275,-25.125002,-18.768751,0.50378716,-0.4776256,0.56021446,994.07025, , , , 
2025-08-22 19:45:39.024,3.9960139,-6.0897336,-0.5455636,-0.5785653,0.45417798,2.3373978,-55.65,-22.44375,-16.25625,0.48840088,-0.4899976,0.56982374,994.0715, , , , 
2025-08-22 19:45:39.046,4.867001,-5.8911295,-0.07178468,-0.68668836,0.39492407,2.48034,-55.631252,-21.056252,-19.125,0.47115293,-0.503593,0.57949924,994.0715, , , , 
2025-08-22 19:45:39.065,4.7138605,-6.3314085,0.7465607,-0.58650655,0.3564396,2.6019022,-53.925003,-17.75625,-19.48125,0.44401225,-0.5245128,0.5934322,994.0754, , , , 
2025-08-22 19:45:39.084,4.7114677,-6.9702926,0.78723866,-0.48265955,0.29779658,2.6990297,-56.156254,-17.1375,-18.206251,0.43480846,-0.53126955,0.5983052,994.0754, , , , 
2025-08-22 19:45:39.105,5.5202417,-8.331808,0.26081768,-0.31528258,3.054324E-4,2.8859544,-52.66875,-12.281251,-19.462502,0.41237283,-0.5482929,0.6108543,994.07684, , , , 
2025-08-22 19:45:39.124,6.503692,-9.178867,-1.0648061,-0.27740896,-0.3515527,2.981249,-54.73125,-11.512501,-18.375,0.3999752,-0.5591499,0.6178516,994.07684, , , , 
2025-08-22 19:45:39.146,6.410372,-10.140782,-2.2899313,-0.5938369,-0.43585202,3.116861,-53.5125,-9.13125,-19.40625,0.37979838,-0.5792365,0.62703824,994.08075, , , , 
2025-08-22 19:45:39.167,6.3385873,-10.789237,-1.7611175,-1.1106285,-0.008857539,3.4339,-51.525,-5.83125,-19.03125,0.35983938,-0.59760934,0.63239723,994.08075, , , , 
2025-08-22 19:45:39.185,6.8051877,-11.203196,-0.72263247,-1.4466041,0.33322674,3.6990154,-51.24375,-2.1937501,-18.0375,0.33374402,-0.61746615,0.6368523,994.0961, , , , 
2025-08-22 19:45:39.204,7.893922,-11.114661,0.3493521,-1.6970587,0.74617136,3.9293113,-50.2125,2.6625001,-21.65625,0.30203426,-0.6377818,0.6406365,994.0961, , , , 
2025-08-22 19:45:39.225,9.12144,-10.923235,1.6606189,-1.7984623,1.1395682,3.9372525,-54.91875,5.53125,-20.1,0.26609173,-0.6570261,0.6437578,994.1071, , , , 
2025-08-22 19:45:39.244,9.415757,-10.557134,2.5986054,-1.6793436,1.244637,3.8071384,-46.350002,10.70625,-14.175,0.22844514,-0.67388815,0.64620715,994.1071, , , , 
2025-08-22 19:45:39.265,9.949356,-10.250853,2.3688943,-1.4307216,1.0088432,3.6086073,-43.3125,14.6625,-17.5125,0.19211385,-0.68790585,0.6482871,994.1254, , , , 
2025-08-22 19:45:39.284,10.34178,-10.212567,1.4811572,-1.3079379,0.5751292,3.4742172,-42.54375,14.00625,-18.7875,0.1596269,-0.69987786,0.64966935,994.1254, , , , 
2025-08-22 19:45:39.304,11.590833,-9.296116,2.2061825,-1.2462405,0.15546508,3.2879033,-39.61875,17.6625,-18.375,0.124309815,-0.71405494,0.6494187,994.1281, , , , 
2025-08-22 19:45:39.325,12.952349,-8.532805,2.4598217,-1.0642028,0.10354158,2.823646,-36.7125,19.06875,-17.0625,0.10047695,-0.72388804,0.6482632,994.1281, , , , 
2025-08-22 19:45:39.344,13.234702,-8.190632,2.4382863,-0.94936025,0.19639303,2.376493,-35.737503,21.0375,-17.4375,0.080218226,-0.73161376,0.64660245,994.13495, , , , 
2025-08-22 19:45:39.365,13.344772,-7.503892,1.5266209,-0.6164389,0.11148282,1.802891,-32.287502,22.125,-16.931252,0.06355468,-0.73709875,0.64510906,994.13495, , , , 
2025-08-22 19:45:39.385,11.533405,-6.597012,-0.37328035,-0.6066651,-0.16768238,1.5512147,-31.931252,23.38125,-13.950001,0.051923662,-0.74112344,0.64396,994.1425, , , , 
2025-08-22 19:45:39.404,11.456835,-6.1854467,-0.15792629,-0.9365321,-0.16096286,1.5225041,-29.38125,25.893751,-14.043751,0.04228116,-0.7463522,0.64112014,994.1425, , , , 
2025-08-22 19:45:39.426,12.057433,-5.7355957,1.875973,-1.0379356,0.24648394,1.3997203,-29.081251,24.54375,-13.2375,0.028827742,-0.75435287,0.6348221,994.1418, , , , 
2025-08-22 19:45:39.445,12.155539,-5.1876397,3.1633115,-0.8045853,0.53297955,1.2195152,-29.156252,27.0375,-14.137501,0.016947951,-0.75924647,0.63017124,994.1418, , , , 
2025-08-22 19:45:39.464,12.949956,-5.300102,3.5533416,-0.3983602,0.40042186,0.9574542,-27.54375,27.187502,-12.468751,0.00629941,-0.7616452,0.62764573,994.1535, , , , 
2025-08-22 19:45:39.485,14.196617,-6.530013,3.3212378,0.057955798,-0.27947062,0.54023355,-25.031252,27.31875,-12.262501,0.0013195283,-0.761852,0.6277767,994.1535, , , , 
2025-08-22 19:45:39.504,15.103497,-8.664411,2.2372892,0.472733,-1.0699297,0.021609342,-24.956251,27.69375,-11.53125,0.0051157423,-0.7605768,0.630353,994.16205, , , , 
2025-08-22 19:45:39.524,15.297316,-9.772287,1.1988041,0.5643627,-1.1743876,-0.34674212,-24.675001,29.081251,-11.94375,0.015744453,-0.75840795,0.6340423,994.16205,37.88836096,127.739836,146.11529541015625,0.0
2025-08-22 19:45:39.544,14.991034,-9.939785,0.36131623,0.43730283,-0.58001614,-0.6992111,-26.643751,26.531252,-12.525001,0.028261688,-0.75590485,0.6370658,994.1652, , , , 
2025-08-22 19:45:39.564,15.069997,-9.616755,0.7848458,0.2534325,0.18784092,-1.0449606,-28.312502,27.825,-10.40625,0.038602617,-0.7533619,0.6384234,994.1652, , , , 
2025-08-22 19:45:39.585,14.529219,-8.76491,2.1559331,0.3652208,0.54702944,-1.553811,-29.175001,25.63125,-11.4375,0.04969553,-0.7491043,0.63872164,994.16156, , , , 
2025-08-22 19:45:39.605,13.883157,-8.831908,2.440679,0.68287045,0.22876886,-2.081598,-29.475,24.862501,-11.6625,0.062394876,-0.7435435,0.6396838,994.16156, , , , 
2025-08-22 19:45:39.624,12.598211,-9.887143,1.8783658,0.96386826,-0.30329436,-2.578231,-29.831251,27.337502,-13.6125,0.081905566,-0.7361399,0.641367,994.1674, , , , 
2025-08-22 19:45:39.644,10.817951,-11.25823,1.6079768,1.1575124,-0.84024453,-2.8616724,-32.737503,23.681252,-15.1125,0.10752663,-0.7275729,0.6430072,994.1674, , , , 
2025-08-22 19:45:39.664,10.269995,-11.846865,1.3782659,1.276631,-1.1670572,-2.9142067,-36.206253,22.35,-16.368752,0.13673308,-0.7181609,0.64440066,994.1745, , , , 
2025-08-22 19:45:39.684,10.966306,-12.756138,0.782453,1.277242,-1.2788454,-2.980791,-39.2625,19.650002,-14.981251,0.16766772,-0.7080568,0.6452438,994.1745, , , , 
2025-08-22 19:45:39.705,11.85165,-13.691731,0.22013968,1.1074215,-1.344208,-3.1628287,-43.162502,18.50625,-14.962501,0.20742919,-0.6949954,0.64407015,994.17474, , , , 
2025-08-22 19:45:39.725,12.492927,-13.679767,0.19142582,0.8624647,-1.240361,-3.4108398,-42.075,18.243752,-13.51875,0.23978636,-0.68464416,0.6402669,994.17474, , , , 
2025-08-22 19:45:39.745,12.100504,-13.277773,0.72502524,0.60406893,-0.9025527,-3.8396668,-51.468754,11.043751,-11.493751,0.27202946,-0.6737834,0.6336986,994.1691, , , , 
2025-08-22 19:45:39.764,11.014163,-12.7082815,1.3016955,0.50571966,-0.46028662,-4.1628146,-52.425003,11.19375,-12.95625,0.30327848,-0.6611924,0.62519604,994.1691, , , , 
2025-08-22 19:45:39.784,9.276974,-12.268002,1.4069797,0.50510883,-0.016187917,-4.387613,-52.350002,8.606251,-13.743751,0.3327012,-0.6459313,0.6160139,994.1713, , , , 
2025-08-22 19:45:39.804,7.972885,-11.973684,1.1796615,0.5747474,0.22876886,-4.5250573,-52.350002,2.7562501,-14.962501,0.36021832,-0.6278151,0.6067114,994.1713, , , , 
2025-08-22 19:45:39.824,6.5946193,-11.82533,0.6963114,0.6278926,0.22876886,-4.5275006,-56.04375,-1.0875001,-15.58125,0.38676143,-0.6075392,0.5970237,994.1713, , , , 
2025-08-22 19:45:39.844,5.048856,-11.557333,0.53359944,0.6462186,-0.017409647,-4.2666616,-55.7625,-5.53125,-16.29375,0.418799,-0.58168894,0.5837226,994.1733, , , , 
2025-08-22 19:45:39.866,4.752146,-11.054841,0.55752766,0.7073051,-0.41752607,-3.9563422,-55.4625,-8.26875,-14.156251,0.44391316,-0.5622949,0.5720447,994.1547, , , , 
2025-08-22 19:45:39.886,4.6731825,-10.518848,-0.16749759,0.6932552,-0.4657844,-3.6380816,-58.537502,-14.793751,-14.231251,0.47455865,-0.5399566,0.5565825,994.1547, , , , 
2025-08-22 19:45:39.904,4.2855453,-9.62154,-0.53359944,0.6089558,-0.25992295,-3.4358852,-57.693752,-16.331251,-13.312501,0.49110135,-0.5268159,0.5476372,994.1442, , , , 
2025-08-22 19:45:39.924,3.6658044,-9.274581,-0.863809,0.49716756,-0.010079269,-3.2410195,-58.10625,-19.63125,-11.0625,0.5102219,-0.50933695,0.536537,994.1442, , , , 
2025-08-22 19:45:39.944,1.9549361,-8.815159,-1.0217353,0.36033386,0.32284203,-2.8708353,-57.9,-20.962502,-12.712501,0.52568316,-0.49214154,0.526753,994.13104, , , , 
2025-08-22 19:45:39.964,0.4139583,-7.82453,-1.1557333,0.25831944,0.51526445,-2.3986368,-55.237503,-25.275002,-14.2875,0.53701115,-0.4758632,0.5191439,994.13104, , , , 
2025-08-22 19:45:39.984,-0.40677986,-7.460821,-1.4261223,0.12881611,0.4187478,-1.7676136,-56.006252,-26.962502,-15.0375,0.5464354,-0.45909843,0.51222724,994.11615, , , , 
2025-08-22 19:45:40.004,-0.50488555,-7.092326,-1.1796615,0.033521205,0.29107708,-1.1860703,-54.037502,-27.393751,-15.225,0.55111486,-0.4501612,0.5081185,994.11615, , , , 
2025-08-22 19:45:40.026,-0.11485548,-7.01097,-0.83988076,0.007864884,0.21655156,-0.63262683,-54.54375,-29.925001,-15.01875,0.55333406,-0.44487756,0.50589013,994.1147, , , , 
2025-08-22 19:45:40.045,0.41874397,-7.4273214,-0.9762716,0.028023422,0.11636974,-0.11522437,-54.7125,-28.575,-15.075001,0.55360687,-0.4429215,0.50575507,994.1147, , , , 
2025-08-22 19:45:40.064,0.30867413,-7.475178,-1.1772687,0.020693045,0.08093958,0.08452842,-52.781254,-27.750002,-15.637501,0.5534192,-0.44293204,0.5060351,994.1147, , , , 
2025-08-22 19:45:40.085,-0.16031912,-8.63809,-1.7180467,-0.14607304,-0.2122755,1.1993567,-54.2625,-28.5375,-15.13125,0.5485083,-0.45025763,0.5108496,994.1142, , , , 
2025-08-22 19:45:40.104,-0.35413775,-8.834301,-1.7802601,-0.2627482,-0.37293294,2.083278,-52.968754,-28.650002,-14.94375,0.54164875,-0.46140346,0.516427,994.113, , , , 
2025-08-22 19:45:40.140,4.0414777,-9.3200445,-0.9882358,-0.43623382,-0.52564913,3.6452591,-56.025,-24.225,-15.806251,0.51965624,-0.49559847,0.53203607,994.113, , , , 
2025-08-22 19:45:40.144,4.0414777,-9.3200445,-0.9882358,-0.43623382,-0.52564913,3.6452591,-56.025,-24.225,-15.806251,0.51965624,-0.49559847,0.53203607,994.113, , , , 
2025-08-22 19:45:40.164,8.238488,-9.796216,-1.4093726,-0.4661662,0.01802051,4.0191083,-55.143753,-22.143751,-16.95,0.48895815,-0.53107494,0.5520814,994.1149, , , , 
2025-08-22 19:45:40.184,9.602397,-10.112068,-1.8376877,-0.65431255,0.43890634,3.9115963,-57.393753,-19.29375,-13.781251,0.4701798,-0.5473399,0.5630756,994.1149, , , , 
2025-08-22 19:45:40.204,8.738588,-10.669596,-1.605584,-0.84490234,0.5836813,3.8150797,-55.725002,-14.7375,-15.918751,0.43589902,-0.5722661,0.57996964,994.11053, , , , 
2025-08-22 19:45:40.224,7.8077803,-11.447264,-1.1557333,-0.9872338,0.32895067,3.9830675,-54.375004,-10.2375,-16.1625,0.40729228,-0.592242,0.5913301,994.1093, , , , 
2025-08-22 19:45:40.244,8.135597,-11.545369,-0.74177504,-1.0935243,0.29474226,4.1950374,-55.162502,-7.70625,-16.5375,0.3773043,-0.6132505,0.60109806,994.1093, , , , 
2025-08-22 19:45:40.264,10.262816,-11.119447,0.019142581,-1.2242494,0.37904158,4.14739,-52.687504,-2.7375002,-16.612501,0.34543276,-0.63419783,0.60946584,994.1142, , , , 
2025-08-22 19:45:40.284,10.487741,-10.437492,0.96909314,-1.2340232,0.45112363,3.8352382,-49.893753,3.0375001,-18.46875,0.3134528,-0.6532654,0.6159294,994.1142, , , , 
2025-08-22 19:45:40.304,9.5353985,-10.2723875,1.2873386,-1.1362848,0.51648617,3.604942,-51.693752,6.3562503,-19.3875,0.28285554,-0.66972023,0.62088877,994.1296, , , , 
2025-08-22 19:45:40.324,8.403593,-10.537991,0.8207382,-1.045266,0.66126114,3.64587,-50.287502,10.06875,-15.281251,0.244887,-0.6871786,0.6265745,994.1296, , , , 
2025-08-22 19:45:40.344,8.817552,-10.497313,0.5694918,-0.99212074,0.7278454,3.741165,-45.9,12.76875,-16.96875,0.22113001,-0.69655937,0.6300058,994.1296, , , , 
2025-08-22 19:45:40.364,9.91825,-9.796216,0.1698904,-0.99700767,0.7192933,3.6922958,-44.23125,13.931251,-15.20625,0.18097158,-0.7105997,0.6350181,994.13226, , , , 
2025-08-22 19:45:40.384,11.1936245,-9.047262,-0.3804588,-1.1503347,0.82314026,3.4809365,-40.10625,17.587502,-16.612501,0.14945602,-0.72078717,0.6371669,994.13226, , , , 
2025-08-22 19:45:40.404,12.155539,-8.295917,0.61016977,-1.3671918,0.9428698,3.0337837,-40.03125,17.868752,-17.71875,0.118872404,-0.73055315,0.63650405,994.1423, , , , 
2025-08-22 19:45:40.424,11.813365,-7.960921,1.8257236,-1.2780055,0.77671456,2.5835762,-34.95,21.243752,-17.362501,0.09118629,-0.73942393,0.63366425,994.1501, , , , 
2025-08-22 19:45:40.444,11.050055,-7.5469627,2.4909284,-1.0141119,0.37232208,2.2842524,-33.65625,22.725,-15.731251,0.06812834,-0.7466522,0.6306238,994.1501, , , , 
2025-08-22 19:45:40.464,11.263016,-8.10449,2.1631117,-0.68607754,0.045509428,2.0838888,-29.5125,24.393751,-15.95625,0.046062164,-0.75341,0.62836397,994.1613, , , , 
2025-08-22 19:45:40.486,11.413764,-7.355537,1.8664017,-0.4673879,0.09926552,1.929951,-27.956251,24.16875,-14.56875,0.031148292,-0.7569718,0.6278789,994.1613, , , , 
2025-08-22 19:45:40.504,11.9306135,-6.719046,1.8735801,-0.37270388,-0.03451386,1.8407646,-29.062502,23.8125,-14.118751,0.020828802,-0.75879097,0.6280132,994.1613, , , , 
2025-08-22 19:45:40.524,13.1078825,-5.7762737,2.2995026,-0.12896882,-0.38698283,1.613523,-25.312502,25.575,-15.993751,0.0074573862,-0.7608836,0.629032,994.16425,37.88836023,127.73981068,146.68487548828125,1.97
2025-08-22 19:45:40.545,14.459827,-6.422336,1.8233309,0.18562654,-0.5910117,1.2378411,-25.9125,25.85625,-11.625,0.0014956791,-0.7610819,0.6313432,994.1579, , , , 
2025-08-22 19:45:40.564,14.404793,-7.1018977,1.0073783,0.36399904,-0.46944958,0.89758945,-24.375002,25.3875,-12.843751,-8.863844E-4,-0.7598026,0.634823,994.1579, , , , 
2025-08-22 19:45:40.584,15.187245,-7.8317084,0.124426775,0.3756055,-0.30695954,0.58360493,-23.268751,24.2625,-13.51875,-0.0015985264,-0.75764334,0.6385977,994.15985, , , , 
2025-08-22 19:45:40.604,15.955341,-7.812566,-0.19142582,0.21372631,-0.07055488,0.0881936,-23.00625,27.0375,-13.856251,-3.437099E-4,-0.7551535,0.6419037,994.15985, , , , 
2025-08-22 19:45:40.624,16.453049,-9.195618,0.32303107,0.08055779,-0.029626941,-0.4597521,-23.325,27.000002,-12.731251,0.0035259572,-0.7540408,0.64249504,994.1523, , , , 
2025-08-22 19:45:40.644,15.960127,-9.999606,0.9810573,0.11537708,-0.07055488,-0.9686025,-23.962502,27.431252,-13.462501,0.011317396,-0.7531398,0.6420328,994.1523, , , , 
2025-08-22 19:45:40.664,15.213567,-9.492328,1.3854443,0.16119194,-0.07238748,-1.4206424,-23.15625,26.906252,-15.375001,0.022524744,-0.75163287,0.64139557,994.16644, , , , 
2025-08-22 19:45:40.684,15.103497,-10.222138,2.1559331,0.21128285,-0.040622506,-1.9740859,-24.88125,26.343752,-14.55,0.03714698,-0.74954534,0.64018327,994.16644, , , , 
2025-08-22 19:45:40.704,14.038691,-11.394622,2.8929226,0.4568505,-0.054061532,-2.6484807,-28.143751,24.768751,-14.26875,0.055741318,-0.74596816,0.6387992,994.1799, , , , 
2025-08-22 19:45:40.724,12.629318,-12.272787,2.7038896,0.7378483,-0.19639303,-3.1109052,-29.5125,22.9125,-15.8625,0.07879625,-0.7400468,0.6379356,994.1799, , , , 
2025-08-22 19:45:40.744,11.514262,-13.347165,2.2755744,0.9687552,-0.4401281,-3.4261115,-32.4375,23.71875,-15.150001,0.105850175,-0.7318806,0.63743,994.19794, , , , 
2025-08-22 19:45:40.764,9.908679,-14.543576,1.7419748,1.1978295,-0.8817833,-3.5189629,-36.675003,20.79375,-15.618751,0.14449422,-0.7192791,0.6367861,994.19794, , , , 
2025-08-22 19:45:40.784,9.810573,-14.31865,1.2346965,1.2760202,-1.1566725,-3.4529896,-37.537502,20.1,-16.575,0.16931693,-0.71099335,0.6362828,994.19794, , , , 
2025-08-22 19:45:40.804,10.822737,-13.552947,0.7537391,1.2051599,-1.1212423,-3.5983753,-41.456253,18.075,-16.66875,0.21163553,-0.6964988,0.6340666,994.2043, , , , 
2025-08-22 19:45:40.824,10.942378,-13.265809,0.47377887,1.0909282,-0.7333432,-3.934351,-43.66875,15.675,-9.95625,0.24524379,-0.68347335,0.63035566,994.20624, , , , 
2025-08-22 19:45:40.844,9.798609,-13.392629,0.08853444,1.0023527,-0.4156935,-4.182973,-50.04375,11.962501,-15.262501,0.27793095,-0.66847754,0.6250611,994.20624, , , , 
2025-08-22 19:45:40.864,8.322237,-12.9021,0.29192436,0.93332505,-0.22143848,-4.250779,-50.100002,7.9875,-16.10625,0.3089501,-0.651773,0.618523,994.20526, , , , 
2025-08-22 19:45:40.884,7.8053875,-12.361321,0.22492532,0.91377735,-0.2623664,-4.269105,-49.800003,3.54375,-17.41875,0.3387131,-0.63395625,0.6109469,994.20526, , , , 
2025-08-22 19:45:40.904,7.853244,-11.976077,0.1052842,0.8606321,-0.3515527,-4.3827257,-52.893753,0.6,-16.78125,0.3757317,-0.6106754,0.59931266,994.1943, , , , 
2025-08-22 19:45:40.924,7.688139,-11.58844,-0.19860429,0.775111,-0.29168794,-4.5366635,-53.175003,-4.40625,-16.612501,0.40536743,-0.5909716,0.58784026,994.1943, , , , 
2025-08-22 19:45:40.944,6.5084777,-11.497513,-0.3589234,0.66820973,-0.11759147,-4.66128,-54.975002,-8.306251,-17.60625,0.4340327,-0.569845,0.57465166,994.1862, , , , 
2025-08-22 19:45:40.964,4.503292,-11.188839,-0.4642076,0.5826886,0.050396346,-4.4792423,-55.162502,-12.187501,-17.98125,0.46042728,-0.54754364,0.56073755,994.1862, , , , 
2025-08-22 19:45:40.984,3.35713,-10.724631,-0.5838487,0.50816315,0.054061532,-4.1524296,-54.187504,-16.800001,-18.28125,0.48383528,-0.5255695,0.5469054,994.1862, , , , 
2025-08-22 19:45:41.004,2.7086751,-10.205389,-0.61016977,0.41470084,-0.003970621,-3.6661813,-54.487503,-20.325,-17.118752,0.5042857,-0.5052595,0.5334111,994.17645, , , , 
2025-08-22 19:45:41.025,2.8929226,-9.224331,-0.39960137,0.3511709,-0.11942407,-3.2764497,-54.468754,-24.562502,-16.40625,0.5220967,-0.4871825,0.52040696,994.1696, , , , 
2025-08-22 19:45:41.044,2.6009982,-9.068798,-0.55513483,0.2937496,-0.09498947,-3.0107234,-53.812504,-26.475,-17.456251,0.5379909,-0.47101465,0.50775355,994.1696, , , , 
2025-08-22 19:45:41.064,1.7347964,-8.932407,-0.7704889,0.20639594,0.13164136,-2.660087,-53.4,-27.300001,-17.456251,0.5480101,-0.45964804,0.4992243,994.1696, , , , 
2025-08-22 19:45:41.084,-0.09810573,-8.56152,-1.0432707,0.13614649,0.21838416,-1.8965061,-51.787502,-30.35625,-18.993752,0.56204724,-0.43994626,0.48630804,994.1684, , , , 
2025-08-22 19:45:41.104,-1.294517,-7.9298143,-1.9621146,0.025579963,0.12370012,-1.1518619,-52.237503,-31.66875,-17.025002,0.5676895,-0.43126324,0.48084256,994.15985, , , , 
2025-08-22 19:45:41.124,-1.9549361,-7.243074,-2.1918256,-0.20349433,0.10476331,-0.2520581,-51.750004,-31.368752,-16.63125,0.56975394,-0.42781293,0.47788984,994.15985, , , , 
2025-08-22 19:45:41.144,-1.9310079,-7.874779,-2.3401806,-0.39225155,0.17195843,0.63369584,-52.7625,-32.943752,-18.581251,0.56741923,-0.42977685,0.4781586,994.14667, , , , 
2025-08-22 19:45:41.164,-2.07697,-7.5828547,-2.6608188,-0.6940187,0.43524116,1.6966006,-50.8875,-30.150002,-18.31875,0.5595042,-0.43732896,0.48290485,994.14667, , , , 
2025-08-22 19:45:41.184,0.40917268,-6.9702926,-1.5002998,-1.0776418,0.8805616,2.6165628,-52.312504,-31.5375,-19.331251,0.54360974,-0.45045805,0.49299076,994.1479, , , , 
2025-08-22 19:45:41.204,3.0388846,-6.946364,0.019142581,-1.1912627,1.1908809,3.1547348,-53.23125,-28.893751,-19.85625,0.5135133,-0.4707839,0.51161,994.1479, , , , 
2025-08-22 19:45:41.224,5.3359947,-7.6666036,0.7609176,-0.9719622,0.95753056,3.243921,-53.812504,-25.95,-20.56875,0.48655665,-0.48734573,0.52841735,994.1525, , , , 
2025-08-22 19:45:41.244,6.2811594,-8.774481,0.85184485,-0.6146063,0.28985533,3.194441,-54.468754,-22.03125,-21.806252,0.46818787,-0.4998585,0.54023397,994.1525, , , , 
2025-08-22 19:45:41.264,5.4556355,-11.026127,-0.65084773,-0.06666062,-0.91965693,3.3508224,-52.800003,-19.5,-20.8875,0.44567254,-0.52229625,0.5567202,994.1567, , , , 
2025-08-22 19:45:41.284,5.206782,-12.653246,-2.1822543,0.022525638,-1.3045018,3.8382926,-54.000004,-16.650002,-19.237501,0.43208688,-0.54345006,0.5684513,994.1567, , , , 
2025-08-22 19:45:41.304,6.8219376,-13.5170555,-2.6129622,-0.20715952,-1.1780528,4.478479,-54.375004,-12.712501,-18.956251,0.4159011,-0.5676526,0.5803992,994.14886, , , , 
2025-08-22 19:45:41.324,8.472985,-13.323236,-2.3162522,-0.5681806,-0.4187478,4.77597,-52.875004,-8.08125,-18.300001,0.3931375,-0.59248906,0.59299284,994.14886, , , , 
2025-08-22 19:45:41.344,9.360723,-12.452249,-1.5888343,-0.9340886,0.30146176,4.8010154,-51.43125,-3.7125,-16.6875,0.36252028,-0.61569965,0.6056262,994.14886, , , , 
2025-08-22 19:45:41.364,9.147761,-12.196217,-0.040677983,-1.3329833,0.90743965,4.7106075,-52.48125,3.9,-19.331251,0.31616694,-0.64181566,0.6192524,994.14935, , , , 
2025-08-22 19:45:41.385,8.879765,-12.067004,1.5457634,-1.3598614,0.84085536,4.7460375,-54.787502,6.39375,-17.681252,0.27613658,-0.66093624,0.6280105,994.165, , , , 
2025-08-22 19:45:41.404,10.3848505,-11.55494,2.5674987,-1.1118503,0.5042689,4.72649,-47.775,10.3125,-13.387501,0.23674639,-0.6782681,0.63556534,994.165, , , , 
2025-08-22 19:45:41.424,11.8588295,-10.968699,2.3521447,-0.8381828,0.27214026,4.4161706,-44.11875,12.6,-20.081251,0.20060301,-0.6926919,0.6423658,994.18475, , , , 
2025-08-22 19:45:41.444,12.112468,-10.375279,2.1511476,-0.65247995,0.07849612,4.003226,-40.21875,15.993751,-20.53125,0.16911958,-0.7039531,0.6480569,994.18475, , , , 
2025-08-22 19:45:41.464,11.806187,-10.0881405,1.820938,-0.4570032,-0.25809038,3.6452591,-39.5625,16.425001,-19.087502,0.13676499,-0.7147178,0.65362406,994.1879, , , , 
2025-08-22 19:45:41.484,12.311072,-9.707682,1.7395821,-0.27374378,-0.332005,3.4577236,-37.818752,18.69375,-16.462502,0.11990117,-0.71977854,0.6566436,994.1879, , , , 
2025-08-22 19:45:41.504,13.246666,-9.322437,1.0695918,-0.13019055,0.06811142,3.1370196,-36.61875,21.056252,-16.725,0.09352564,-0.7253888,0.6618252,994.1962, , , , 
2025-08-22 19:45:41.524,13.301702,-8.633304,0.4211368,-0.22548546,0.5439751,2.8389177,-33.300003,22.275002,-16.518751,0.07198089,-0.72790575,0.6653851,994.1962,37.8883573,127.7397989,146.11016845703125,1.11
2025-08-22 19:45:41.544,13.801801,-8.224132,0.8470592,-0.34888014,0.76327556,2.5945718,-30.862501,22.0125,-15.825001,0.05534266,-0.7295619,0.66696674,994.1962, , , , 
2025-08-22 19:45:41.564,15.096318,-8.338987,1.5768701,-0.17478369,0.74189526,2.2127812,-27.750002,22.837502,-17.1375,0.029217051,-0.731527,0.66851926,994.207, , , , 
2025-08-22 19:45:41.584,15.902699,-8.068598,1.2131611,0.081779525,0.47922343,1.8810817,-26.85,23.681252,-16.96875,0.012073846,-0.7312363,0.6705773,994.2143, , , , 
2025-08-22 19:45:41.604,17.20918,-7.9393854,0.3493521,0.20517421,0.182954,1.5640429,-23.60625,24.73125,-14.118751,0.0024755872,-0.73013043,0.6727309,994.2143, , , , 
2025-08-22 19:45:41.624,18.046669,-7.771888,-0.62931234,0.092164226,-0.19211698,0.78274685,-22.10625,25.312502,-19.10625,-0.006325875,-0.7280736,0.676284,994.207, , , , 
2025-08-22 19:45:41.644,18.151953,-7.8987074,-0.37088752,-0.08498656,-0.2782489,0.29161158,-21.69375,25.95,-17.475,-0.0060429955,-0.72814983,0.6765001,994.207, , , , 
2025-08-22 19:45:41.664,17.405392,-8.152347,1.2705889,-0.23892449,-0.032681264,-0.44875655,-22.10625,25.312502,-18.6375,-4.988724E-4,-0.72975194,0.67442036,994.2038, , , , 
2025-08-22 19:45:41.684,16.407585,-8.051848,2.1631117,-0.16806418,0.21471897,-0.9838741,-22.5,24.88125,-17.175001,0.0061049433,-0.7306092,0.6720712,994.2038, , , , 
2025-08-22 19:45:41.704,15.675381,-8.980264,3.2470603,0.07200569,-0.00641408,-1.5812998,-22.575,26.737501,-17.118752,0.015877713,-0.7302888,0.6700396,994.2211, , , , 
2025-08-22 19:45:41.724,15.235102,-10.392029,3.2614172,0.38110328,-0.39064804,-2.136576,-24.69375,24.900002,-17.8875,0.031549655,-0.7281817,0.6691114,994.2211, , , , 
2025-08-22 19:45:41.744,14.388042,-11.531013,2.9503503,0.5643627,-0.62399834,-2.5684574,-25.95,24.300001,-19.725,0.05343276,-0.7242095,0.66898286,994.2211, , , , 
2025-08-22 19:45:41.764,13.6199465,-12.689138,3.0412776,0.693866,-0.7510582,-3.013167,-30.0375,23.737501,-18.6375,0.07955951,-0.71873045,0.66872585,994.24603, , , , 
2025-08-22 19:45:41.785,13.610375,-14.175081,2.902494,0.75128734,-0.8475749,-3.3992333,-31.687502,22.2,-17.775002,0.11645216,-0.7098826,0.6673536,994.24603, , , , 
2025-08-22 19:45:41.804,13.036098,-15.24228,2.7086751,0.8282563,-0.80786866,-3.7651415,-35.025,18.618752,-18.300001,0.14871018,-0.70107627,0.6650024,994.2587, , , , 
2025-08-22 19:45:41.824,12.720245,-15.007784,2.0315065,0.78366315,-0.67592186,-4.0168176,-37.275,19.5375,-21.65625,0.18165722,-0.69061273,0.6614459,994.2575, , , , 
2025-08-22 19:45:41.844,12.629318,-14.483755,1.8185452,0.70058554,-0.47372565,-4.313698,-37.987503,18.45,-19.2,0.20651034,-0.6819349,0.65747523,994.2575, , , , 
2025-08-22 19:45:41.865,11.842079,-13.990834,1.4404793,0.53748465,-0.043065965,-4.7089276,-46.40625,13.668751,-10.950001,0.2393329,-0.6687452,0.65027374,994.2575, , , , 
2025-08-22 19:45:41.884,10.829915,-14.732609,1.7659031,0.22044583,0.61361367,-5.0705595,-51.093754,13.743751,-18.6375,0.27725843,-0.6494309,0.63788396,994.2526, , , , 
2025-08-22 19:45:41.904,9.856036,-15.302101,3.4600215,0.35727954,0.8750638,-5.2116694,-44.86875,9.0375,-19.181252,0.30436715,-0.6314162,0.6259745,994.24945, , , , 
2025-08-22 19:45:41.924,8.281559,-15.359529,3.3355947,0.8123738,0.86895514,-5.236715,-48.6375,3.3187501,-19.85625,0.33071804,-0.60949886,0.6145958,994.24945, , , , 
2025-08-22 19:45:41.944,6.6185474,-14.847465,2.5914268,1.2173772,0.8640682,-5.0821657,-48.99375,-2.8125,-20.081251,0.35748968,-0.5838231,0.6044829,994.24945, , , , 
2025-08-22 19:45:41.964,4.4171505,-13.284951,0.7609176,1.5008184,0.77488196,-4.673497,-51.6375,-6.5625005,-21.91875,0.3898913,-0.5486743,0.59373236,994.2482, , , , 
2025-08-22 19:45:41.984,3.8572302,-11.892328,-1.0169497,1.4886011,0.41141742,-4.3167524,-51.375004,-9.637501,-22.21875,0.4146287,-0.5209808,0.5854474,994.226, , , , 
2025-08-22 19:45:42.004,3.4289148,-10.2723875,-2.0386848,1.1422408,0.031459536,-4.0162067,-50.7,-15.900001,-23.643751,0.43903744,-0.49646404,0.574853,994.226, , , , 
2025-08-22 19:45:42.024,3.0723844,-9.506684,-1.3328022,0.8276454,0.07116575,-3.844554,-49.781254,-17.8125,-22.5375,0.46126845,-0.47501314,0.56187963,994.18915, , , , 
2025-08-22 19:45:42.044,2.644069,-9.131011,-0.49052864,0.6559924,0.10231985,-3.6069274,-51.825,-22.875,-23.118752,0.48008978,-0.4548666,0.5482956,994.18915, , , , 
2025-08-22 19:45:42.064,1.7922242,-8.4705925,0.86141616,0.76411545,-0.26419902,-3.2349107,-49.65,-25.0125,-21.675001,0.5017632,-0.43191594,0.5311488,994.16693, , , , 
2025-08-22 19:45:42.084,0.41156548,-8.152347,-0.29671,0.93149245,-0.46456265,-2.894659,-49.443752,-29.212502,-23.00625,0.51507604,-0.41935995,0.52123916,994.16693, , , , 
2025-08-22 19:45:42.104,-0.6412765,-7.7240314,-1.7419748,0.8050434,-0.67103493,-2.2544727,-47.756252,-30.281252,-22.96875,0.53663826,-0.40208212,0.5059142,994.1652, , , , 
2025-08-22 19:45:42.124,-1.0695918,-7.5493555,-2.3425734,0.5032762,-0.48716468,-1.5770237,-49.593754,-32.625,-20.025002,0.55018795,-0.3929916,0.49570873,994.1652, , , , 
2025-08-22 19:45:42.144,-1.6007984,-7.4273214,-2.3138595,0.24060437,-0.21044292,-0.96738076,-48.956253,-34.537502,-20.75625,0.5567095,-0.3885793,0.49040437,994.1652, , , , 
2025-08-22 19:45:42.164,-2.3928227,-7.243074,-2.2827528,-0.12530364,-0.0033597562,0.046043932,-46.85625,-35.925003,-23.0625,0.5605247,-0.38599312,0.48686016,994.14813, , , , 
2025-08-22 19:45:42.184,-2.2420747,-7.5254273,-1.8448663,-0.33360854,0.004581486,0.9073633,-49.800003,-35.643753,-18.28125,0.5578938,-0.38978344,0.48841703,994.13446, , , , 
2025-08-22 19:45:42.204,-2.024328,-7.649854,-1.7371893,-0.45639235,-0.098654665,1.8053344,-49.725002,-33.35625,-21.825,0.5509884,-0.39921623,0.49383387,994.13446, , , , 
2025-08-22 19:45:42.224,0.4235296,-7.568498,-1.3232309,-0.7123447,-0.22876886,2.7448444,-49.162502,-31.95,-20.868752,0.53684,-0.4197033,0.50511307,994.13544, , , , 
2025-08-22 19:45:42.244,2.4191437,-7.8867435,-0.24885355,-0.8387937,-0.014355322,3.2292602,-50.9625,-30.018751,-20.643751,0.5248878,-0.4354389,0.51385885,994.13544, , , , 
2025-08-22 19:45:42.264,4.362116,-8.913264,0.6197411,-0.83207417,0.42852163,3.615327,-49.875004,-28.3875,-22.556252,0.49889037,-0.46229196,0.532523,994.14276, , , , 
2025-08-22 19:45:42.284,4.974678,-10.116854,0.59342,-0.7092904,0.51709706,3.821799,-54.15,-24.750002,-20.456251,0.47424644,-0.4825824,0.5502813,994.14276, , , , 
2025-08-22 19:45:42.304,5.13739,-11.727223,0.2440679,-0.5987238,0.16829325,4.2286353,-52.912502,-21.393751,-19.3875,0.44866118,-0.50330764,0.56849927,994.14594, , , , 
2025-08-22 19:45:42.324,5.814559,-12.940385,-0.031106694,-0.5174788,-0.17562363,4.5975976,-51.375004,-16.85625,-21.65625,0.4227597,-0.52599114,0.58628535,994.14594, , , , 
2025-08-22 19:45:42.344,5.7427745,-14.129618,-0.26799613,-0.5174788,-0.20005822,4.9457903,-49.443752,-13.406251,-25.143751,0.3956279,-0.54984885,0.6036634,994.14594, , , , 
2025-08-22 19:45:42.364,8.006385,-15.50549,-0.863809,-0.74899656,-0.083993904,5.4466996,-51.075,-10.2375,-20.98125,0.35641053,-0.5803406,0.625147,994.14935, , , , 
2025-08-22 19:45:42.384,10.167104,-15.582061,-0.059820566,-1.0806961,-0.23304491,5.5132837,-50.718754,-2.625,-20.23125,0.32119393,-0.6054377,0.63947177,994.1501, , , , 
2025-08-22 19:45:42.404,11.365908,-15.101104,0.7369894,-1.2126429,-0.33444846,5.4192104,-51.318752,3.5625002,-23.60625,0.2945343,-0.624197,0.64738744,994.1501, , , , 
2025-08-22 19:45:42.424,12.485748,-14.5818615,1.8903298,-1.298164,-0.41080657,5.055746,-51.61875,8.00625,-22.125,0.25136632,-0.65325433,0.6560333,994.17206, , , , 
2025-08-22 19:45:42.444,12.959527,-14.017155,2.5914268,-1.1857649,-0.32406378,4.71244,-47.53125,10.725,-14.3625,0.2187104,-0.6732333,0.66011846,994.17206, , , , 
2025-08-22 19:45:42.464,12.842279,-13.237095,2.9862428,-1.0061706,-0.123089254,4.3764644,-41.775,12.712501,-19.556252,0.18776463,-0.6895051,0.66305107,994.1857, , , , 
2025-08-22 19:45:42.484,12.765709,-13.004992,2.3569303,-0.93164515,0.24953826,4.126621,-42.61875,15.750001,-19.650002,0.157578,-0.7021238,0.6656139,994.1857, , , , 
2025-08-22 19:45:42.504,13.715659,-11.315659,2.7589245,-0.97501653,0.70890856,3.8376815,-37.350002,17.268751,-19.050001,0.118742526,-0.71462697,0.66748095,994.19867, , , , 
2025-08-22 19:45:42.524,14.333008,-9.734002,4.1347976,-0.8088613,0.85795957,3.4589455,-34.331253,22.1625,-17.025002,0.087849475,-0.72209686,0.66799295,994.19867,37.88836116,127.73978423,146.7535400390625,1.17
2025-08-22 19:45:42.544,15.077175,-8.415557,4.510471,-0.33849543,0.4743365,2.99591,-33.525,21.13125,-16.743752,0.061305873,-0.7263329,0.66938543,994.21405, , , , 
2025-08-22 19:45:42.564,15.677774,-7.21436,2.7014968,0.20456335,0.015577052,2.524933,-30.656252,22.931252,-17.60625,0.042139422,-0.7269968,0.67296916,994.21405, , , , 
2025-08-22 19:45:42.584,15.53899,-6.13759,-0.27517462,0.3841576,0.5048797,2.028911,-27.243752,23.775002,-18.31875,0.027807267,-0.72486115,0.6781439,994.21405, , , , 
2025-08-22 19:45:42.604,14.361721,-5.3072805,-2.5124638,-0.16989677,1.5665628,1.5689298,-24.018751,24.6,-17.625,0.011427627,-0.7228448,0.6812885,994.2243, , , , 
2025-08-22 19:45:42.624,14.189438,-5.6997037,-1.4691931,-0.71478814,1.9410229,1.2335651,-24.750002,23.90625,-17.6625,-0.008324128,-0.7236482,0.67964643,994.2082, , , , 
2025-08-22 19:45:42.645,14.811572,-6.910472,0.5383851,-0.8381828,1.2886193,0.84933114,-20.925001,25.931252,-19.875,-0.026654478,-0.72659254,0.6746319,994.2082, , , , 
2025-08-22 19:45:42.664,15.491134,-8.2049885,2.0554347,-0.55657417,-0.06017018,0.44616038,-20.550001,26.456251,-18.712502,-0.0368672,-0.7310047,0.66861075,994.21625, , , , 
2025-08-22 19:45:42.684,16.41237,-8.303095,1.9238294,-0.40202537,-0.675311,0.10224349,-19.125,27.825,-16.931252,-0.035662293,-0.7332808,0.6664557,994.21625, , , , 
2025-08-22 19:45:42.704,16.532011,-8.999406,2.9120653,-0.3672061,-0.8145882,-0.3992765,-19.518751,28.050001,-17.681252,-0.025909534,-0.73717254,0.6631046,994.2287, , , , 
2025-08-22 19:45:42.724,17.07279,-8.678768,4.3501515,-0.042836893,-0.5238165,-0.83543396,-19.81875,26.643751,-16.800001,-0.015097014,-0.73918414,0.6609562,994.2287, , , , 
2025-08-22 19:45:42.745,17.70928,-9.064013,4.345366,0.27603453,-0.5232057,-1.3974296,-21.75,25.931252,-15.000001,-0.0018474365,-0.7385602,0.6606312,994.2287, , , , 
2025-08-22 19:45:42.764,17.012968,-10.908878,3.9816568,0.7286853,-1.0265583,-2.2117124,-22.650002,25.087502,-14.55,0.017944248,-0.7354732,0.66192144,994.24945, , , , 
2025-08-22 19:45:42.784,15.976877,-13.189239,2.952743,0.9962441,-1.6533055,-2.8665593,-25.95,25.275002,-16.6875,0.04639626,-0.7302022,0.66431344,994.2563, , , , 
2025-08-22 19:45:42.804,14.802001,-14.476577,2.3904297,1.046335,-1.9605705,-3.3039386,-29.5125,22.9125,-16.5,0.08250893,-0.72362065,0.6660334,994.2563, , , , 
2025-08-22 19:45:42.824,13.751552,-15.701702,1.6630118,0.9021709,-1.7486005,-3.6973355,-34.6875,23.362501,-16.125,0.13181423,-0.7139469,0.6655388,994.24677, , , , 
2025-08-22 19:45:42.844,13.639089,-15.92902,1.3710874,0.6785944,-1.2696824,-3.9312966,-38.381252,21.112501,-15.450001,0.16054302,-0.7075142,0.6634384,994.24677, , , , 
2025-08-22 19:45:42.864,13.086347,-15.474384,2.115255,0.45929396,-0.6948587,-4.346685,-41.193752,19.368752,-17.85,0.20534156,-0.6955838,0.6568608,994.24286, , , , 
2025-08-22 19:45:42.884,12.134004,-14.809179,2.684747,0.5014436,-0.49266243,-4.638678,-39.375,19.03125,-16.0125,0.23992297,-0.68376297,0.64976674,994.24286, , , , 
2025-08-22 19:45:42.904,11.4903345,-14.821143,2.416751,0.5826886,-0.25076,-4.9288387,-51.693752,13.6125,-10.2375,0.26590097,-0.6728751,0.6438973,994.24286, , , , 
2025-08-22 19:45:42.924,10.420743,-15.4313135,1.820938,0.5594758,0.36804602,-5.274588,-49.275,12.7875,-16.1625,0.30781177,-0.6506945,0.6329312,994.24335, , , , 
2025-08-22 19:45:42.945,9.360723,-15.4624195,1.7970098,0.60651237,0.8512401,-5.379046,-50.062504,3.7687502,-17.1,0.33784395,-0.62916386,0.62354827,994.24335, , , , 
2025-08-22 19:45:42.964,8.133204,-15.043676,1.8089739,0.79771304,0.7192933,-5.435857,-52.593754,0.01875,-15.843751,0.37266782,-0.59803957,0.61123353,994.23724, , , , 
2025-08-22 19:45:42.985,7.499106,-14.526826,1.3878372,1.010294,0.24342962,-5.452961,-52.8375,-6.3562503,-16.5375,0.3944698,-0.57807153,0.6027307,994.22626, , , , 
2025-08-22 19:45:43.004,6.178268,-14.383257,0.09571291,1.0047961,-0.049174614,-5.3851547,-53.643753,-9.0375,-18.7875,0.4254468,-0.5510119,0.58923334,994.22626, , , , 
2025-08-22 19:45:43.024,3.603591,-13.328022,-0.46899325,0.806876,-0.10109812,-4.9807625,-52.85625,-13.9125,-19.5,0.4628125,-0.51826614,0.56941193,994.2048, , , , 
2025-08-22 19:45:43.044,2.5722845,-12.203396,-0.3469593,0.65293807,-0.23609924,-4.51284,-52.74375,-18.50625,-20.025002,0.48895174,-0.49425212,0.5527082,994.2048, , , , 
2025-08-22 19:45:43.064,2.6775684,-11.02852,0.1363909,0.54114985,-0.38820457,-3.938627,-55.0125,-22.987501,-17.681252,0.5172555,-0.46824908,0.531798,994.1894, , , , 
2025-08-22 19:45:43.084,2.4478576,-10.13839,0.4546363,0.55092365,-0.4816669,-3.6698465,-52.612503,-25.725,-19.0125,0.53267556,-0.45412168,0.51944387,994.1894, , , , 
2025-08-22 19:45:43.104,1.5194423,-9.915857,0.086141616,0.5154935,-0.37476555,-3.3864052,-51.393753,-28.331251,-18.075,0.55179006,-0.43625468,0.50350904,994.1894, , , , 
2025-08-22 19:45:43.124,-0.4331009,-9.489935,-0.3924229,0.40431613,-0.0015271619,-2.7437756,-50.381252,-30.468752,-17.737501,0.57064027,-0.4151923,0.48694772,994.175, , , , 
2025-08-22 19:45:43.144,-2.1942184,-8.755338,-0.64845496,0.32795802,0.027183482,-2.1164174,-50.643753,-34.612503,-16.706251,0.58113635,-0.4010276,0.4774073,994.175, , , , 
2025-08-22 19:45:43.164,-2.8378878,-7.7144604,-1.0719845,0.19540037,-0.037568185,-1.0327432,-49.968754,-35.550003,-15.95625,0.58827764,-0.39183205,0.4709646,994.1689, , , , 
2025-08-22 19:45:43.184,-2.4646072,-7.472785,-1.0935199,0.07383828,0.0650571,-0.34063348,-48.187504,-36.3375,-17.94375,0.5915174,-0.38781923,0.4682861,994.1689, , , , 
2025-08-22 19:45:43.204,-2.2875385,-7.6953177,-1.1964114,-0.044669487,0.09376775,0.5029708,-49.593754,-36.75,-17.15625,0.5908052,-0.38823372,0.46959415,994.1613, , , , 
2025-08-22 19:45:43.224,-2.713461,-8.030313,-1.6007984,-0.155236,0.08032872,1.4296527,-50.737503,-35.86875,-16.931252,0.58516526,-0.39568552,0.47617197,994.1518, , , , 
2025-08-22 19:45:43.244,-2.321038,-8.049456,-1.8640088,-0.3757582,0.0980438,2.278144,-48.937504,-35.68125,-17.75625,0.5786368,-0.40437698,0.48299673,994.1518, , , , 
2025-08-22 19:45:43.264,-0.076570325,-8.743374,-0.7322037,-0.5975021,0.1951713,3.1926084,-50.906254,-34.631252,-18.84375,0.5607838,-0.42630866,0.4989281,994.13617, , , , 
2025-08-22 19:45:43.284,2.507678,-9.8321085,-0.25124636,-0.5840631,0.22937973,3.7717083,-52.66875,-30.843752,-16.237501,0.54116267,-0.44808286,0.51534593,994.13617, , , , 
2025-08-22 19:45:43.304,4.469793,-11.3371935,-0.77766734,-0.52297664,0.17012584,4.188318,-53.643753,-27.712502,-16.78125,0.51872075,-0.47158754,0.5336346,994.12787, , , , 
2025-08-22 19:45:43.324,5.5776696,-12.672389,-1.012164,-0.52175486,-0.042455103,4.496194,-55.237503,-23.38125,-17.475,0.49442112,-0.49644598,0.5521234,994.12787, , , , 
2025-08-22 19:45:43.344,6.3864436,-13.8688,-0.6412765,-0.4710531,-0.2538143,4.8089566,-54.975002,-20.625,-17.6625,0.46874076,-0.5227652,0.5697988,994.12445, , , , 
2025-08-22 19:45:43.364,6.623333,-15.177674,-0.65324056,-0.3830886,-0.33322674,5.1382127,-55.85625,-18.46875,-17.550001,0.4415603,-0.54952407,0.58700144,994.12445, , , , 
2025-08-22 19:45:43.385,7.0899334,-15.931413,-1.119841,-0.4954877,-0.0858265,5.6000266,-56.79375,-10.743751,-16.650002,0.403051,-0.5825844,0.60851264,994.1281, , , , 
2025-08-22 19:45:43.404,8.544769,-16.316658,-1.1724831,-0.7190642,0.13164136,5.82849,-52.987503,-4.2375,-17.8875,0.37590924,-0.6022218,0.6208841,994.1281, , , , 
2025-08-22 19:45:43.424,11.330015,-16.063019,-0.27996024,-1.1167371,0.309403,5.847427,-50.737503,2.3625002,-20.5125,0.3253668,-0.6342387,0.6378761,994.1381, , , , 
2025-08-22 19:45:43.444,12.756138,-15.493526,0.66041905,-1.3769655,0.5421425,5.530388,-55.875004,5.5125003,-15.50625,0.28309348,-0.65794265,0.64699817,994.1381, , , , 
2025-08-22 19:45:43.464,12.655639,-15.223138,1.98365,-1.4991385,0.62583095,5.1650906,-48.05625,10.931251,-15.562501,0.25141174,-0.6739244,0.65130377,994.1381, , , , 
2025-08-22 19:45:43.484,12.768102,-14.5818615,4.5008993,-1.2199733,0.1084285,4.9140253,-45.16875,13.2375,-19.85625,0.20162597,-0.6970817,0.65516114,994.1501, , , , 
2025-08-22 19:45:43.505,14.02194,-13.10549,5.1661043,-0.7190642,-0.18845178,4.7002225,-41.550003,16.837502,-17.8125,0.16717562,-0.7112012,0.6580782,994.1501, , , , 
2025-08-22 19:45:43.524,15.701702,-11.030912,4.476971,-0.17050762,0.052839804,4.066145,-40.425003,18.1875,-16.3125,0.13013849,-0.7213225,0.66380465,994.174,37.88835356,127.73976507,146.715576171875,2.06
2025-08-22 19:45:43.544,15.371492,-9.5760765,4.130012,0.14836378,0.26542073,3.609829,-34.65,21.375,-16.0125,0.110291734,-0.7239103,0.6680263,994.174, , , , 
2025-08-22 19:45:43.564,16.498512,-8.386844,2.7756743,0.6468294,0.5531381,3.2420886,-34.03125,21.69375,-15.01875,0.079998955,-0.72326887,0.67705107,994.20306, , , , 
2025-08-22 19:45:43.584,17.350357,-7.274181,-0.086141616,0.8575778,1.0479386,2.8089852,-30.656252,24.4125,-17.38125,0.05686169,-0.7187717,0.6860568,994.20746, , , , 
2025-08-22 19:45:43.604,17.479568,-6.1495543,-3.0412776,0.45807222,1.6178753,2.2427137,-28.050001,22.706251,-18.337502,0.033685762,-0.71365666,0.69368273,994.20746, , , , 
2025-08-22 19:45:43.624,17.261822,-5.639883,-3.1657043,-0.19310963,1.7400483,1.6868267,-24.337502,22.95,-18.112501,0.011256412,-0.71136856,0.6966962,994.18524, , , , 
2025-08-22 19:45:43.644,16.64926,-5.761917,-1.8161523,-0.6769145,1.5549563,1.1865284,-22.44375,24.281252,-19.1625,-0.007958736,-0.7129046,0.6945795,994.18524, , , , 
2025-08-22 19:45:43.664,15.921842,-6.8075805,0.86859465,-0.94874936,0.89155716,0.5634464,-22.612501,25.743752,-17.53125,-0.023925027,-0.7185017,0.68743354,994.17303, , , , 
2025-08-22 19:45:43.684,15.711273,-7.685746,1.8161523,-0.89499325,0.49205157,0.20059273,-19.462502,26.081251,-18.956251,-0.028579157,-0.7223852,0.68261915,994.17303, , , , 
2025-08-22 19:45:43.704,15.503098,-9.65504,2.6344976,-0.769766,0.07238748,-0.22456917,-19.143751,27.825,-16.63125,-0.029535564,-0.7284766,0.67512685,994.2033, , , , 
2025-08-22 19:45:43.724,15.261423,-10.459028,4.098905,-0.47166398,-0.40408704,-0.50556695,-19.987501,25.0125,-17.306252,-0.024569964,-0.73254836,0.6702424,994.2033, , , , 
2025-08-22 19:45:43.744,16.185053,-9.24826,4.9196434,-0.045280352,-0.80664694,-0.8574251,-18.993752,26.98125,-17.6625,-0.014938094,-0.7346162,0.6677802,994.237, , , , 
2025-08-22 19:45:43.764,17.534605,-9.985249,4.8191447,0.36216646,-1.0393864,-1.5696934,-21.825,25.66875,-13.593751,0.0010044693,-0.73419255,0.6678058,994.237, , , , 
2025-08-22 19:45:43.784,17.125431,-12.038291,3.8500516,0.6767618,-1.0607667,-2.4016912,-23.831251,25.725,-15.543751,0.023920292,-0.73117054,0.6693097,994.26385, , , , 
2025-08-22 19:45:43.804,15.6466675,-14.108083,2.940779,0.83069974,-1.0393864,-3.179933,-26.737501,24.206251,-18.09375,0.060413152,-0.7243248,0.6712637,994.26385, , , , 
2025-08-22 19:45:43.824,14.699109,-15.326029,2.455036,0.861243,-0.9129374,-3.6393032,-28.500002,23.925001,-21.45,0.093338154,-0.7169465,0.6716884,994.2609, , , , 
2025-08-22 19:45:43.844,14.29233,-16.098911,2.160719,0.8563561,-0.6960804,-3.9948266,-33.28125,21.54375,-18.018751,0.118847616,-0.7103178,0.6710751,994.2609, , , , 
2025-08-22 19:45:43.864,13.567305,-16.465014,2.1966112,0.83436495,-0.41996953,-4.362567,-35.850002,20.400002,-17.681252,0.16178247,-0.6969831,0.66805094,994.2624, , , , 
2025-08-22 19:45:43.884,13.332808,-16.309479,2.376073,0.8539126,-0.24281874,-4.627072,-39.5625,19.931252,-20.6625,0.19584076,-0.68396425,0.6640152,994.2624, , , , 
2025-08-22 19:45:43.904,13.741981,-16.051054,3.0077782,1.0206786,-0.09560034,-5.0760574,-39.318752,18.31875,-19.06875,0.23042186,-0.6684678,0.65854275,994.26825, , , , 
2025-08-22 19:45:43.924,12.335001,-15.85245,2.9120653,1.2790744,-0.36132652,-5.5207667,-51.581253,11.90625,-11.53125,0.26784393,-0.6491666,0.65167886,994.26825, , , , 
2025-08-22 19:45:43.944,10.951949,-15.768702,2.2636101,1.4721078,-0.63010705,-5.8695707,-46.96875,12.843751,-23.04375,0.30819634,-0.62609065,0.6432029,994.26825, , , , 
2025-08-22 19:45:43.964,8.420342,-15.570097,1.3375878,1.538692,-0.9111048,-6.013735,-50.718754,1.725,-19.5375,0.36234775,-0.5938758,0.62848127,994.2653, , , , 
2025-08-22 19:45:43.984,6.0107703,-15.026926,0.5407779,1.3908627,-0.82375115,-5.779773,-52.162502,-4.7625003,-20.25,0.40461993,-0.56693536,0.61386275,994.2653, , , , 
2025-08-22 19:45:44.004,5.087141,-14.002798,0.33020952,1.2589159,-0.78954273,-5.398594,-52.706253,-8.175,-20.625,0.43339774,-0.5469615,0.6021233,994.2514, , , , 
2025-08-22 19:45:44.024,5.096712,-12.602997,-0.02632105,1.1080323,-1.0925317,-4.937391,-54.3375,-15.31875,-18.0375,0.47713837,-0.5155508,0.58123887,994.2282, , , , 
2025-08-22 19:45:44.044,4.6372905,-11.332408,-0.7322037,0.89300793,-1.1487312,-4.7174797,-55.256252,-19.78125,-16.612501,0.509957,-0.49244985,0.5624771,994.2282, , , , 
2025-08-22 19:45:44.064,3.6131623,-10.662417,-1.3112668,0.5130501,-0.79198617,-4.521392,-56.325,-23.5125,-15.20625,0.53950953,-0.4705451,0.54225373,994.2011, , , , 
2025-08-22 19:45:44.084,1.7252251,-10.296316,-1.2203395,0.14347686,-0.09315688,-4.147543,-56.23125,-28.10625,-15.262501,0.56281793,-0.44895542,0.5228783,994.2011, , , , 
2025-08-22 19:45:44.104,0.047856454,-9.760324,-0.6436693,-0.07887791,0.3839285,-3.5348454,-53.193752,-29.775002,-15.937501,0.5818521,-0.42264938,0.5031424,994.18085, , , , 
2025-08-22 19:45:44.124,-0.66041905,-9.549755,0.021535404,-0.055054188,0.33322674,-2.9038222,-52.800003,-33.600002,-15.618751,0.59168816,-0.40397224,0.49089187,994.18085, , , , 
2025-08-22 19:45:44.144,-0.61734825,-9.755538,0.21296121,0.01763872,0.017409647,-2.3173919,-51.16875,-34.3125,-16.050001,0.5979125,-0.39262015,0.4828632,994.18085, , , , 
2025-08-22 19:45:44.164,-0.37328035,-9.750752,0.09571291,0.090942495,-0.26908594,-1.50372,-51.318752,-37.818752,-14.75625,0.60716,-0.37991637,0.47139323,994.17206, , , , 
2025-08-22 19:45:44.184,-0.7896315,-9.162118,-0.18185452,0.08116866,-0.34727663,-0.94600046,-47.850002,-38.943752,-16.59375,0.61292535,-0.37467185,0.4646618,994.17206, , , , 
2025-08-22 19:45:44.204,-1.442872,-8.676374,-0.485743,-0.011071924,-0.2819141,-0.3681224,-49.912502,-41.025,-14.418751,0.6162729,-0.37347874,0.46063974,994.16595, , , , 
2025-08-22 19:45:44.224,-2.5435705,-8.695518,-0.83988076,-0.155236,-0.03695732,0.5823832,-50.568752,-39.112503,-13.9875,0.6159912,-0.37620637,0.46041986,994.1552, , , , 
2025-08-22 19:45:44.244,-2.9886355,-7.879565,-1.5050855,-0.35437793,0.19639303,1.6623921,-50.943752,-39.75,-16.3875,0.60911226,-0.38592994,0.46708548,994.1552, , , , 
2025-08-22 19:45:44.264,-1.18684,-8.147561,-0.95712906,-0.624991,0.39553493,2.526155,-51.281254,-38.193752,-12.731251,0.5971782,-0.4000157,0.47777689,994.14764, , , , 
2025-08-22 19:45:44.284,0.38763726,-9.317652,-0.29671,-0.70623606,0.61605716,3.2243733,-53.2125,-34.275,-15.843751,0.5796324,-0.41819942,0.49268088,994.14764, , , , 
2025-08-22 19:45:44.304,1.9932213,-10.650454,-0.18185452,-0.71478814,0.6985239,3.8468447,-54.037502,-32.71875,-18.150002,0.5574372,-0.439246,0.5112527,994.1525, , , , 
2025-08-22 19:45:44.324,3.2614172,-11.861222,-0.011964113,-0.6634755,0.5745183,4.3434777,-53.193752,-28.63125,-19.25625,0.5318398,-0.46273568,0.5318588,994.1525, , , , 
2025-08-22 19:45:44.344,3.9170506,-13.225131,0.043070808,-0.55413073,0.30390522,4.8456087,-54.037502,-25.3875,-17.19375,0.5041817,-0.4884287,0.5530138,994.1525, , , , 
2025-08-22 19:45:44.364,5.1182475,-14.526826,-0.46660042,-0.42890343,-0.06017018,5.4680796,-54.468754,-21.806252,-18.112501,0.47472715,-0.5161384,0.5742904,994.1506, , , , 
2025-08-22 19:45:44.384,7.702496,-15.321243,-0.9810573,-0.4802161,-0.40530878,5.9335585,-53.756252,-15.375001,-19.03125,0.44341668,-0.54595655,0.594606,994.1418, , , , 
2025-08-22 19:45:44.404,10.439885,-15.598811,-0.6436693,-0.61949325,-0.40958482,6.148583,-57.037502,-11.887501,-16.556252,0.40984815,-0.57685226,0.6124822,994.1418, , , , 
2025-08-22 19:45:44.424,12.265609,-15.058033,0.32542387,-0.67019504,-0.07299834,6.0624514,-54.281254,-2.6437502,-17.53125,0.36381552,-0.61265177,0.6315988,994.1418, , , , 
2025-08-22 19:45:44.444,13.471592,-15.2063875,0.4426722,-0.6726385,0.13836087,5.9182873,-54.91875,3.3000002,-20.8875,0.3247353,-0.6369165,0.64483553,994.1418, , , , 
2025-08-22 19:45:44.464,14.620147,-14.943177,0.9284152,-0.6940187,0.15485422,5.691656,-52.237503,6.0750003,-6.80625,0.28537494,-0.6579274,0.65556633,994.1469, , , , 
2025-08-22 19:45:44.484,15.850058,-14.000405,1.2107682,-0.7141773,0.2593121,5.235951,-45.206253,11.85,-17.15625,0.2473913,-0.67576754,0.6634614,994.1469, , , , 
2025-08-22 19:45:44.504,15.63231,-13.3687,0.9882358,-0.8369611,0.6050616,4.7087746,-46.331253,12.750001,-18.31875,0.2202703,-0.68692994,0.6675675,994.1469, , , , 
2025-08-22 19:45:44.524,14.773287,-11.913864,2.053042,-1.175991,1.3924663,4.0227737,-42.75,16.087502,-16.875,0.17507449,-0.70280737,0.67080224,994.15594,37.88834843,127.73974898,146.67626953125,1.5
2025-08-22 19:45:44.544,13.832908,-11.066805,4.0151563,-1.1692716,1.7259984,3.5640142,-40.443752,18.16875,-14.925,0.12901106,-0.7156234,0.6707364,994.165, , , , 
2025-08-22 19:45:44.564,13.847264,-10.054641,5.3312087,-0.86261743,1.5415173,3.2598035,-35.25,21.206251,-17.962502,0.10272507,-0.7211671,0.67056274,994.165, , , , 
2025-08-22 19:45:44.584,13.9573345,-8.717052,5.582455,-0.20777038,1.167668,2.791881,-33.112503,22.425001,-17.00625,0.06554249,-0.72540665,0.6725678,994.2006, , , , 
2025-08-22 19:45:44.604,13.328022,-7.4129643,4.1443686,0.38965538,0.8365793,2.4375796,-28.837502,22.48125,-17.625,0.04242625,-0.72392225,0.6774609,994.2006, , , , 
2025-08-22 19:45:44.624,13.342379,-6.580262,1.9166509,0.7549525,0.3497201,2.2298856,-28.66875,23.25,-18.150002,0.024378158,-0.7194536,0.6846354,994.21893, , , , 
2025-08-22 19:45:44.644,14.694324,-6.178268,0.17706887,0.8123738,0.08949169,2.0545673,-24.50625,25.050001,-18.375,0.010533898,-0.71392363,0.69243234,994.21893, , , , 
2025-08-22 19:45:44.664,16.840685,-6.364908,-0.7848458,0.68592477,-0.01802051,1.6953788,-22.875,24.35625,-19.275002,-5.4456155E-5,-0.70869863,0.6993148,994.1977, , , , 
2025-08-22 19:45:44.684,18.422342,-6.9009004,-1.282553,0.47639817,0.032070402,1.1101704,-22.66875,24.525002,-21.31875,-0.006871599,-0.70458436,0.70438206,994.1977, , , , 
2025-08-22 19:45:44.704,19.44647,-8.001599,-2.0051854,0.16852233,0.2073886,0.4730384,-21.5625,24.243752,-20.175001,-0.010041011,-0.7021771,0.7070139,994.1977, , , , 
2025-08-22 19:45:44.724,18.876978,-10.186246,-1.5625132,-0.48204866,0.503658,-0.41149378,-21.900002,21.975,-19.087502,-0.00945436,-0.70349026,0.70491195,994.1806, , , , 
2025-08-22 19:45:44.744,18.754944,-10.861022,0.27038896,-0.78076154,0.58307046,-0.9838741,-20.456251,23.868752,-21.206251,-0.006181011,-0.70757854,0.69930667,994.175, , , , 
2025-08-22 19:45:44.764,19.02294,-11.131411,2.5316064,-0.8180243,0.43646288,-1.7676136,-22.81875,24.618752,-19.29375,0.0010363624,-0.7124251,0.6919912,994.175, , , , 
2025-08-22 19:45:44.785,19.003798,-11.770294,4.0414777,-0.5486329,0.21288638,-2.5360816,-22.181252,24.91875,-18.618752,0.014718569,-0.71614915,0.6844612,994.175, , , , 
2025-08-22 19:45:44.804,16.948362,-12.870993,4.412365,0.04696023,-0.11575887,-3.4658177,-24.993752,24.88125,-17.85,0.036600932,-0.7165696,0.67830616,994.2006, , , , 
2025-08-22 19:45:44.824,13.883157,-13.485949,3.0269206,0.5576432,-0.09498947,-4.0223155,-29.268751,22.44375,-18.337502,0.07260095,-0.711095,0.67305636,994.2399, , , , 
2025-08-22 19:45:44.844,12.413964,-13.643875,1.9453648,0.77022415,0.11331542,-4.2477245,-29.2875,23.081251,-19.3125,0.095589265,-0.70497066,0.67052186,994.2399, , , , 
2025-08-22 19:45:44.864,10.827522,-13.830515,0.68195444,0.84719306,0.16523892,-4.439536,-35.7,19.556252,-19.518751,0.13399564,-0.6914952,0.6656834,994.2526, , , , 
2025-08-22 19:45:44.885,10.463814,-14.88575,0.88295156,0.93149245,0.113926284,-4.6001935,-37.912502,20.71875,-21.65625,0.16504404,-0.679115,0.66023153,994.2526, , , , 
2025-08-22 19:45:44.904,9.485149,-14.366508,0.31345975,0.76472634,-1.0564907,-4.5568223,-34.575,20.0625,-19.96875,0.20126586,-0.666997,0.65217984,994.26385, , , , 
2025-08-22 19:45:44.924,6.242874,-13.66541,4.402794,0.94798577,-2.11573,-4.592863,-55.068752,8.418751,-10.96875,0.23954439,-0.6557779,0.6414525,994.26385, , , , 
2025-08-22 19:45:44.944,6.166304,-12.583855,3.5318062,2.1330636,-5.482206,-3.2862234,-49.968754,11.025001,-22.1625,0.2940058,-0.6451293,0.62788856,994.288, , , , 
2025-08-22 19:45:44.964,8.927621,-12.94517,1.0241281,1.4977641,-4.055226,-4.69671,-50.86875,4.9125004,-16.0125,0.35414356,-0.6353846,0.61367434,994.288, , , , 
2025-08-22 19:45:44.984,11.9306135,-13.813766,0.29671,0.8197042,-1.9611814,-4.661891,-55.10625,-1.2750001,-12.431251,0.4050452,-0.62084717,0.5962105,994.2778, , , , 
2025-08-22 19:45:45.004,8.970692,-12.746566,0.04546363,0.23449571,0.13713914,-4.56965,-57.35625,-5.86875,-11.925,0.44801217,-0.5971514,0.57823974,994.2778, , , , 
2025-08-22 19:45:45.024,7.5230346,-12.157932,0.32303107,-0.10147991,1.4437789,-4.2929287,-58.631252,-9.975,-11.56875,0.46798083,-0.5751503,0.56833106,994.2475, , , , 
2025-08-22 19:45:45.044,7.173682,-11.629118,0.5814559,-0.14179699,1.727831,-4.0711846,-57.825,-13.368751,-12.993751,0.47991303,-0.55152375,0.561282,994.2475, , , , 
2025-08-22 19:45:45.064,6.6352973,-10.985449,1.0576276,-0.04405862,1.2153155,-4.0052114,-57.675003,-17.8125,-15.225,0.49063322,-0.52792907,0.55357534,994.2233, , , , 
2025-08-22 19:45:45.084,5.367101,-10.406385,2.036292,0.21494804,0.61117023,-3.9667268,-56.006252,-19.125,-16.725,0.503965,-0.5053779,0.5432273,994.2233, , , , 
2025-08-22 19:45:45.104,3.0436704,-10.19821,1.713261,0.50388706,0.37476555,-3.7828565,-54.881252,-22.35,-17.41875,0.51995414,-0.4830642,0.5315064,994.22064, , , , 
2025-08-22 19:45:45.124,0.3182454,-9.769895,0.4211368,0.6700423,0.09498947,-3.297219,-52.10625,-25.931252,-16.893751,0.5362874,-0.461275,0.520435,994.22064, , , , 
2025-08-22 19:45:45.144,-0.35174492,-9.698111,-0.15074782,0.57230395,-0.2196059,-2.6136613,-53.250004,-28.66875,-16.612501,0.5517945,-0.44324312,0.5098854,994.20135, , , , 
2025-08-22 19:45:45.164,-0.47856453,-9.0544405,0.10289137,0.608345,-0.54764026,-1.9655337,-53.49375,-31.312502,-16.125,0.56519204,-0.43013933,0.5003791,994.20135, , , , 
2025-08-22 19:45:45.184,-0.11485548,-8.487342,-0.38524446,0.6407208,-0.47067133,-1.4963896,-53.850002,-33.7125,-15.4875,0.5804216,-0.41941932,0.4902618,994.175, , , , 
2025-08-22 19:45:45.204,-2.2636101,-8.429914,-2.103291,0.43730283,0.033902995,-1.0370194,-52.968754,-35.23125,-16.275002,0.58887213,-0.4115978,0.48588002,994.175, , , , 
2025-08-22 19:45:45.224,-4.211368,-8.707481,-3.0293136,0.08239039,0.01802051,-0.12560907,-53.343754,-35.53125,-14.83125,0.5924419,-0.4070131,0.4847822,994.132, , , , 
2025-08-22 19:45:45.244,-5.704489,-10.202995,-1.7587247,-0.117362395,-0.6148354,0.7754165,-51.375004,-35.2125,-14.906251,0.5920872,-0.41016692,0.4853453,994.132, , , , 
2025-08-22 19:45:45.264,-3.4025939,-8.145168,0.6628119,-0.2700786,-0.86040306,2.132147,-51.99375,-33.28125,-15.243751,0.5885309,-0.42915052,0.48697782,994.10394, , , , 
2025-08-22 19:45:45.284,0.8470592,-8.463413,1.1796615,0.007864884,-0.26908594,2.8541894,-54.937504,-31.725,-13.481251,0.57957864,-0.44795898,0.49521458,994.10394, , , , 
2025-08-22 19:45:45.305,2.821138,-10.150353,0.05503492,0.08849903,0.6197223,3.2665231,-53.643753,-32.5875,-13.725,0.56446594,-0.46492487,0.5112221,994.11395, , , , 
2025-08-22 19:45:45.324,2.845066,-11.315659,-1.1940185,-0.18639012,1.1120794,3.7784278,-54.99375,-28.368752,-13.9875,0.54321945,-0.48157114,0.5317707,994.11395, , , , 
2025-08-22 19:45:45.344,4.962714,-13.026526,-0.9619147,-0.45822495,1.1585051,4.299495,-55.125004,-24.018751,-14.212501,0.5152281,-0.5004724,0.5543508,994.11395, , , , 
2025-08-22 19:45:45.364,6.3792653,-13.648661,0.37806597,-0.6066651,1.0308343,4.764974,-57.787502,-21.300001,-15.01875,0.48314005,-0.52218777,0.5762813,994.1066, , , , 
2025-08-22 19:45:45.384,8.520842,-13.765908,0.6843473,-0.55413073,0.6490438,4.975723,-54.937504,-17.5125,-17.23125,0.44891632,-0.5452288,0.5970445,994.0976, , , , 
2025-08-22 19:45:45.404,9.032906,-13.100704,-0.23449662,-0.65553427,0.5732966,4.9195232,-52.050003,-12.093751,-19.706251,0.41516697,-0.56816494,0.61516386,994.0976, , , , 
2025-08-22 19:45:45.424,9.894321,-12.9954195,-0.0023928226,-1.1020764,0.78954273,4.8559933,-52.18125,-8.26875,-17.8875,0.371315,-0.5961111,0.63323784,994.0998, , , , 
2025-08-22 19:45:45.444,9.77468,-12.540784,1.9764715,-1.298164,0.85673785,4.7228246,-49.912502,0.45000002,-21.712502,0.33376077,-0.6178298,0.6439685,994.0998, , , , 
2025-08-22 19:45:45.464,10.521241,-12.485748,3.562913,-1.2199733,0.9318742,4.596987,-52.593754,3.05625,-23.2875,0.29531124,-0.63734555,0.6528922,994.11664, , , , 
2025-08-22 19:45:45.484,10.293923,-12.643675,3.9888353,-1.0269401,1.0039563,4.4833655,-49.687504,7.36875,-13.181251,0.25728086,-0.6536521,0.66104794,994.11664, , , , 
2025-08-22 19:45:45.505,11.286944,-12.591033,4.359723,-0.7263946,0.83902276,4.4112835,-44.550003,11.71875,-22.931252,0.22007276,-0.6669207,0.6689669,994.13617, , , , 
2025-08-22 19:45:45.524,12.650853,-11.789437,3.5509489,-0.40630144,0.64660037,4.11196,-43.4625,13.781251,-18.825,0.18565078,-0.6768242,0.676814,994.13617,37.88834277,127.73973792,147.37310791015625,1.13
2025-08-22 19:45:45.544,12.567104,-11.389835,2.306681,-0.27313292,0.44562587,3.7521605,-40.875,15.675,-20.1375,0.15571138,-0.6837977,0.6838632,994.13617, , , , 
2025-08-22 19:45:45.564,11.370693,-10.861022,2.3018954,-0.2474766,0.50976664,3.6232681,-37.631252,14.906251,-21.206251,0.12185223,-0.6905094,0.6908269,994.1379, , , , 
2025-08-22 19:45:45.584,12.222538,-10.114461,2.2779672,-0.09353867,0.41813695,3.5444665,-36.61875,18.6,-20.4375,0.09548727,-0.6941581,0.6960163,994.1408, , , , 
2025-08-22 19:45:45.604,14.057833,-9.052048,2.1104696,0.098272875,0.38881543,3.2836273,-33.28125,18.45,-20.325,0.0711932,-0.6959939,0.701087,994.1408, , , , 
2025-08-22 19:45:45.624,15.05564,-8.32463,0.10767702,0.32551455,0.42607817,2.8584654,-30.35625,20.5125,-21.825,0.050016828,-0.6954278,0.70649683,994.1557, , , , 
2025-08-22 19:45:45.644,15.14896,-7.5110703,-1.9238294,0.17279838,0.6423243,2.5371506,-28.44375,21.31875,-20.831251,0.03099607,-0.6940008,0.7110787,994.1557, , , , 
2025-08-22 19:45:45.664,17.017756,-6.458228,-2.1224337,-0.2212094,0.93798286,2.164523,-27.0375,22.44375,-20.8875,0.012310057,-0.69393027,0.7130533,994.1486, , , , 
2025-08-22 19:45:45.684,18.97987,-5.8767724,-1.3447664,-0.5993347,0.97280216,1.608636,-22.181252,23.212502,-22.368752,-0.0053843507,-0.695883,0.7118294,994.1486, , , , 
2025-08-22 19:45:45.704,19.613968,-6.0753765,0.148355,-0.7752638,0.4138609,0.7271582,-20.94375,22.95,-20.325,-0.01934671,-0.7010174,0.70660067,994.1613, , , , 
2025-08-22 19:45:45.724,18.740587,-7.058827,1.5864414,-0.78076154,0.09682207,-0.099341884,-19.66875,24.187502,-19.7625,-0.020667108,-0.7061164,0.7011475,994.1613, , , , 
2025-08-22 19:45:45.744,17.05604,-8.568698,2.5220351,-0.7233403,0.16707152,-0.59047717,-20.79375,25.312502,-18.0,-0.017923385,-0.70976925,0.69690883,994.1613, , , , 
2025-08-22 19:45:45.764,16.122839,-8.874979,3.3882368,-0.4502837,0.31428993,-0.9857067,-21.225,25.275002,-19.03125,-0.010817548,-0.7142604,0.69063735,994.1801, , , , 
2025-08-22 19:45:45.784,16.3358,-8.760123,3.2231321,-0.21754421,0.18051054,-1.4621812,-21.337502,25.3875,-19.800001,-0.0023906787,-0.7156789,0.68708366,994.21136, , , , 
2025-08-22 19:45:45.804,16.369299,-10.547563,2.885744,0.047571093,-0.3839285,-2.1799474,-22.48125,25.63125,-18.46875,0.01205648,-0.71577275,0.6841455,994.21136, , , , 
2025-08-22 19:45:45.825,15.400207,-12.098111,2.3569303,0.24243696,-1.0210605,-2.6887977,-22.875,24.35625,-19.275002,0.034633223,-0.71467125,0.6815599,994.2275, , , , 
2025-08-22 19:45:45.844,14.720645,-13.526627,1.9860427,0.23632832,-1.2996148,-3.134729,-28.275002,23.681252,-19.9125,0.06397879,-0.71282846,0.67839766,994.2275, , , , 
2025-08-22 19:45:45.864,13.639089,-14.433506,2.4622145,0.18562654,-1.1774418,-3.5122435,-30.000002,22.5,-18.112501,0.104876645,-0.70965713,0.67206925,994.2353, , , , 
2025-08-22 19:45:45.884,13.167703,-15.081961,2.6464617,0.23388486,-1.1328487,-3.7956846,-34.4625,21.300001,-19.59375,0.13830513,-0.7054527,0.6656426,994.2353, , , , 
2025-08-22 19:45:45.904,12.847065,-15.457634,3.4073794,0.37194028,-1.4303399,-4.041252,-36.15,20.268751,-19.650002,0.17381024,-0.69954306,0.65820396,994.23944, , , , 
2025-08-22 19:45:45.924,12.6987095,-15.146567,4.0965123,0.6278926,-1.8921536,-4.2965937,-39.9375,18.88125,-19.650002,0.21319637,-0.6914971,0.65000534,994.23944, , , , 
2025-08-22 19:45:45.944,11.708081,-14.756537,3.1441689,0.79404783,-2.0693045,-4.616076,-40.74375,16.0125,-14.606251,0.2565458,-0.68073845,0.64091045,994.2465, , , , 
2025-08-22 19:45:45.964,10.547563,-14.7661085,2.7302105,0.7079159,-1.5329652,-4.8048334,-52.893753,9.88125,-10.05,0.30026066,-0.6675813,0.63019073,994.2465, , , , 
2025-08-22 19:45:45.985,9.461221,-14.735002,2.062613,0.57352567,-0.6960804,-4.879359,-52.95,7.6875005,-15.31875,0.33957383,-0.6515739,0.6190087,994.2485, , , , 
2025-08-22 19:45:46.004,9.018549,-14.514862,2.254039,0.5032762,-0.035124727,-4.878748,-48.768753,3.6375,-16.462502,0.3728294,-0.6328555,0.6082571,994.2485, , , , 
2025-08-22 19:45:46.024,8.518449,-14.794823,1.7754744,0.6004037,0.15790854,-4.8995175,-55.612503,-1.8000001,-14.6625,0.4092018,-0.60589415,0.59542745,994.2426, , , , 
2025-08-22 19:45:46.044,7.8460655,-14.617754,1.2179468,0.64010996,0.044898562,-4.87325,-54.000004,-5.3625,-14.325001,0.43018052,-0.5884592,0.5873351,994.2426, , , , 
2025-08-22 19:45:46.064,6.4414787,-13.639089,1.0959128,0.6236166,-0.15546508,-4.7535205,-56.925003,-10.63125,-16.48125,0.4647223,-0.55908185,0.57183903,994.2336, , , , 
2025-08-22 19:45:46.084,5.022535,-12.837494,1.2131611,0.6303361,-0.13225223,-4.5623198,-55.443752,-14.718751,-14.868751,0.49112433,-0.5355831,0.55819404,994.2336, , , , 
2025-08-22 19:45:46.104,4.06062,-11.779866,1.3543376,0.680427,-0.12370012,-4.2208467,-56.925003,-17.625,-13.312501,0.51524323,-0.51223814,0.5447421,994.2265, , , , 
2025-08-22 19:45:46.124,3.07717,-11.100305,1.3974084,0.7464004,-0.10598504,-3.9319074,-58.331253,-22.48125,-14.887501,0.53726447,-0.48922512,0.53196234,994.2265, , , , 
2025-08-22 19:45:46.144,1.2849457,-9.891929,1.4763715,0.90033835,-0.399811,-3.65824,-54.54375,-26.212502,-14.156251,0.55801624,-0.466841,0.51971453,994.2265, , , , 
2025-08-22 19:45:46.164,-0.55034924,-9.3200445,-0.06460621,0.99502236,-0.79259706,-3.0736425,-54.2625,-28.5375,-15.13125,0.58438414,-0.44197562,0.50383633,994.2138, , , , 
2025-08-22 19:45:46.184,-1.3734802,-9.274581,-1.5672989,0.75617427,-0.78771013,-2.4963753,-54.075,-30.281252,-12.1125,0.6034155,-0.4262693,0.49149698,994.1977, , , , 
2025-08-22 19:45:46.204,-2.821138,-8.453842,-2.2612174,0.3511709,-0.56169015,-1.7871612,-54.018753,-34.36875,-12.806251,0.6177992,-0.41499177,0.48071766,994.1977, , , , 
2025-08-22 19:45:46.224,-2.940779,-8.090134,-1.9669002,-0.1344666,-0.13897173,-0.8885792,-52.687504,-35.850002,-13.481251,0.62581134,-0.40878338,0.47304532,994.174, , , , 
2025-08-22 19:45:46.244,-2.455036,-7.9274216,-0.9834501,-0.3672061,0.22876886,-0.25389066,-52.425003,-38.175003,-14.306251,0.627034,-0.40709785,0.46982154,994.174, , , , 
2025-08-22 19:45:46.264,-2.672783,-7.5517483,-0.10049855,-0.4001928,0.43585202,0.49808386,-52.725002,-36.84375,-14.6625,0.6229535,-0.40863702,0.47135234,994.1552, , , , 
2025-08-22 19:45:46.284,-3.5150564,-7.1688967,-0.5288138,-0.36415178,0.42119128,1.3032037,-55.74375,-35.550003,-11.325001,0.61571866,-0.4137752,0.47667998,994.1552, , , , 
2025-08-22 19:45:46.304,-2.6344976,-7.446464,-0.40677986,-0.4050797,0.4138609,2.3422847,-53.568752,-35.7,-12.4875,0.60187703,-0.4275513,0.48833677,994.1513, , , , 
2025-08-22 19:45:46.324,-0.4426722,-8.094919,0.04546363,-0.2945132,0.4242456,3.1700065,-53.86875,-32.756252,-11.38125,0.5860457,-0.44411257,0.502224,994.1513, , , , 
2025-08-22 19:45:46.344,2.440679,-8.989835,-0.54317075,-0.17050762,0.39003715,3.632431,-54.91875,-29.475,-14.231251,0.5720371,-0.45864442,0.51490945,994.1513, , , , 
2025-08-22 19:45:46.364,4.551149,-10.877771,-1.9310079,-0.17905974,0.26603162,3.993452,-55.7625,-27.187502,-14.7375,0.5463564,-0.4848891,0.5373985,994.1479, , , , 
2025-08-22 19:45:46.384,5.17089,-12.052648,-2.1822543,-0.2994001,0.15668681,4.301939,-58.725002,-25.031252,-12.69375,0.5235448,-0.5079325,0.5547714,994.1479, , , , 
2025-08-22 19:45:46.404,6.070591,-13.696517,-1.8161523,-0.48265955,0.2922988,4.7521462,-58.425003,-20.1375,-14.868751,0.49752328,-0.53303814,0.5714702,994.14325, , , , 
2025-08-22 19:45:46.424,7.2382884,-14.534005,-1.3399807,-0.71295553,0.7308997,5.1095023,-56.68125,-15.731251,-14.38125,0.4660629,-0.55885845,0.58867365,994.1396, , , , 
2025-08-22 19:45:46.444,8.188239,-14.986248,-0.1268196,-0.873613,1.036943,5.3263593,-56.193752,-10.556251,-15.4875,0.42847887,-0.5842383,0.6060333,994.1396, , , , 
2025-08-22 19:45:46.464,8.834301,-15.235102,1.2059826,-0.83329594,0.8799507,5.5004554,-55.10625,-6.7125,-16.44375,0.37678525,-0.6141127,0.62619674,994.134, , , , 
2025-08-22 19:45:46.488,11.186446,-15.285351,1.7850457,-0.57184577,0.47555822,5.544438,-54.937504,2.6625001,-18.84375,0.33547398,-0.63595647,0.6403818,994.134, , , , 
2025-08-22 19:45:46.504,12.686746,-14.888143,1.8711873,-0.33849543,-0.010079269,5.3599567,-54.862503,5.1000004,-11.418751,0.30653167,-0.65041625,0.6496587,994.134, , , , 
2025-08-22 19:45:46.524,13.27538,-14.392828,1.026521,0.07628174,-0.8316924,4.9091387,-47.11875,9.65625,-16.518751,0.26675218,-0.67017126,0.66193485,994.1506,37.88833672,127.73972578,146.617431640625,1.41
2025-08-22 19:45:46.544,13.043276,-13.794622,0.04546363,0.19540037,-1.1267401,4.635471,-46.162502,11.38125,-17.475,0.2420419,-0.68239653,0.66926396,994.1506, , , , 
2025-08-22 19:45:46.564,13.390236,-12.49532,-0.44985065,0.059177525,-0.96913695,4.2726173,-45.46875,14.19375,-17.25,0.22030842,-0.6926234,0.674287,994.1501, , , , 
2025-08-22 19:45:46.584,13.854444,-11.466406,0.38763726,-0.066049755,-0.5048797,3.8828857,-41.550003,17.79375,-14.475,0.19888344,-0.70149773,0.6771314,994.144, , , , 
2025-08-22 19:45:46.605,13.256237,-10.4351,0.63888365,0.09277509,0.15057817,3.515756,-41.193752,18.825,-14.418751,0.17078257,-0.7093867,0.68036205,994.144, , , , 
2025-08-22 19:45:46.624,13.186846,-9.473185,0.11485548,0.19723296,0.6368265,3.284849,-40.18125,18.91875,-12.975,0.14647892,-0.7128764,0.6839744,994.1435, , , , 
2025-08-22 19:45:46.644,14.065011,-8.094919,-0.32063824,0.23632832,0.7980948,2.9610906,-35.9625,22.875,-16.275002,0.12177428,-0.714758,0.687738,994.1435, , , , 
2025-08-22 19:45:46.664,14.505291,-6.946364,-0.85902333,0.17768529,0.8781181,2.4895031,-31.9125,22.425001,-18.375,0.09936371,-0.7156527,0.6908779,994.1435, , , , 
2025-08-22 19:45:46.684,14.287544,-6.91765,-1.0959128,-0.029397868,0.97463477,2.0038655,-31.2,23.34375,-14.94375,0.07972906,-0.71661466,0.6926304,994.1391, , , , 
2025-08-22 19:45:46.704,13.5481615,-7.2382884,0.6125626,-0.084375694,0.5085449,1.5866449,-27.88125,23.587502,-17.625,0.06348526,-0.71818584,0.692776,994.13226, , , , 
2025-08-22 19:45:46.724,14.201403,-8.145168,1.1509477,0.25954118,-0.60017467,1.2134066,-29.025002,23.831251,-16.275002,0.053091794,-0.7183294,0.6936393,994.13226, , , , 
2025-08-22 19:45:46.744,15.6466675,-8.769695,0.0071784677,0.49533498,-1.0644319,0.79985106,-26.19375,25.500002,-16.987501,-0.054174516,0.7159495,-0.6960369,994.14716, , , , 
2025-08-22 19:45:46.764,16.575083,-9.379865,-2.0937197,0.33773187,-0.7809906,0.22197299,-23.925001,25.63125,-20.00625,-0.059617426,0.71286607,-0.69866395,994.14716, , , , 
2025-08-22 19:45:46.784,16.500904,-9.68136,-2.6823542,-0.20838125,-0.29718572,-0.36018115,-25.743752,25.425001,-18.2625,-0.06639748,0.712117,-0.698805,994.1418, , , , 
2025-08-22 19:45:46.804,16.505692,-9.107083,-0.80159557,-0.6109411,-0.16768238,-0.88369226,-26.250002,23.85,-15.4875,-0.07243345,0.71380466,-0.6965383,994.1418, , , , 
2025-08-22 19:45:46.824,16.151552,-9.016156,1.9405792,-0.6964622,-0.30390522,-1.7999895,-28.181252,25.1625,-15.825001,0.08784903,-0.71783155,0.6906408,994.1557, , , , 
2025-08-22 19:45:46.844,15.187245,-10.140782,2.9623144,-0.5779544,-0.39186975,-2.4511714,-26.962502,26.156252,-16.0125,0.10655027,-0.71952987,0.68598944,994.1557, , , , 
2025-08-22 19:45:46.864,12.794423,-12.193824,3.5700915,-0.31467173,-0.49327332,-3.030882,-30.581251,24.281252,-14.75625,0.1363351,-0.71816224,0.6811671,994.1862, , , , 
2025-08-22 19:45:46.884,12.368501,-12.672389,4.369294,-0.07093667,-0.6740893,-3.252626,-32.0625,23.493752,-14.1,0.16279818,-0.7141986,0.6781423,994.1862, , , , 
2025-08-22 19:45:46.904,12.492927,-12.985848,4.807181,0.24365869,-1.1004729,-3.5152977,-37.78125,21.28125,-13.51875,0.19238555,-0.7073228,0.67582834,994.217, , , , 
2025-08-22 19:45:46.924,12.153146,-13.866407,5.022535,0.6181188,-1.6685772,-3.817065,-38.775,20.8125,-12.618751,0.226759,-0.69725317,0.673741,994.217, , , , 
2025-08-22 19:45:46.944,11.535798,-14.246866,5.1062837,0.87956893,-2.0912955,-3.9722245,-45.65625,17.98125,-12.20625,0.26542693,-0.6838818,0.6715333,994.217, , , , 
2025-08-22 19:45:46.964,11.566905,-14.263616,5.9342003,1.1288017,-2.4773622,-4.079126,-46.59375,15.4125,-13.650001,0.30733833,-0.6675861,0.66859776,994.25287, , , , 
2025-08-22 19:45:46.984,11.645867,-13.7730875,6.1639113,1.4366776,-2.5836525,-4.283766,-49.443752,15.1125,-12.562501,0.35109115,-0.6479827,0.66513294,994.2851, , , , 
2025-08-22 19:45:47.004,11.4018,-14.275579,5.1086764,1.4947097,-2.2769985,-4.4792423,-50.98125,10.51875,-1.95,0.39508674,-0.6247834,0.6613016,994.2851, , , , 
2025-08-22 19:45:47.024,11.464013,-14.524433,4.4458647,1.2625811,-1.696066,-4.664945,-61.518753,5.11875,-6.8625,0.44593778,-0.59283674,0.6555944,994.3046, , , , 
2025-08-22 19:45:47.044,10.837093,-14.754145,5.0273204,1.1440734,-1.2519673,-4.851259,-56.475002,-0.45000002,-7.5375004,0.48247632,-0.5656687,0.65014076,994.3046, , , , 
2025-08-22 19:45:47.064,9.982856,-14.794823,5.252246,1.1678971,-1.0601559,-4.913567,-57.468754,-6.9,-8.45625,0.5078375,-0.5439863,0.6459343,994.3046, , , , 
2025-08-22 19:45:47.084,8.784052,-14.672789,4.388437,1.24059,-0.8713986,-4.9062366,-60.843754,-10.89375,-3.3937502,0.547129,-0.50553983,0.63864756,994.2978, , , , 
2025-08-22 19:45:47.105,7.271788,-13.954942,3.493521,1.1733949,-0.8042035,-4.806666,-59.30625,-14.962501,-4.40625,0.5761522,-0.4736998,0.6318832,994.2946, , , , 
2025-08-22 19:45:47.124,6.3864436,-12.818351,3.0173492,1.0500002,-0.7797689,-4.643565,-61.518753,-21.4125,-2.5687501,0.6028353,-0.44224268,0.62376946,994.2946, , , , 
2025-08-22 19:45:47.144,4.807181,-11.511869,2.565106,0.9009492,-0.7180715,-4.421821,-60.281254,-24.018751,-2.86875,0.6271035,-0.41172895,0.6143549,994.2751, , , , 
2025-08-22 19:45:47.164,3.4983068,-10.5284195,2.0219352,0.7396809,-0.64171344,-4.0852346,-57.45,-29.475,-1.4625001,0.65363264,-0.37581167,0.60141206,994.2751, , , , 
2025-08-22 19:45:47.184,2.7110682,-9.736395,1.6079768,0.57047135,-0.51343185,-3.8079019,-58.050003,-32.925003,1.8937501,0.6673074,-0.355804,0.5934735,994.2751, , , , 
2025-08-22 19:45:47.204,1.7563318,-8.975478,1.6582261,0.3927097,-0.51404274,-3.4413831,-57.093754,-35.662502,-0.99375004,0.68648916,-0.32545295,0.58020014,994.2465, , , , 
2025-08-22 19:45:47.224,0.98584294,-8.659625,1.5864414,0.3334558,-0.6374374,-3.0681448,-56.475002,-39.7125,0.09375,0.6998078,-0.30419824,0.5691218,994.22406, , , , 
2025-08-22 19:45:47.244,-0.30867413,-8.34138,1.3016955,0.32795802,-0.6685915,-2.5495205,-34.36875,-29.85,-3.6937501,0.7118652,-0.2860235,0.5579647,994.22406, , , , 
2025-08-22 19:45:47.264,-1.4811572,-7.7383885,0.8470592,0.28947353,-0.37843072,-1.7859396,-32.925003,-32.081253,-2.775,0.7214783,-0.27154118,0.5487242,994.20355, , , , 
2025-08-22 19:45:47.284,-2.091327,-7.271788,0.3804588,0.19723296,-0.004581486,-1.0559561,-33.112503,-32.9625,-1.9312501,0.7273203,-0.26110587,0.5433932,994.20355, , , , 
2025-08-22 19:45:47.304,-2.507678,-7.099505,-0.06460621,0.05184715,0.41752607,-0.30703592,-32.41875,-33.9,-2.11875,0.72893804,-0.25509945,0.54263794,994.1762, , , , 
2025-08-22 19:45:47.324,-3.266203,-6.896115,-0.4211368,-0.16012293,0.8958332,0.6477457,-34.0125,-35.30625,-2.49375,0.72440124,-0.25455612,0.54877293,994.1762, , , , 
2025-08-22 19:45:47.344,-3.6227336,-6.3625154,0.0071784677,-0.3201695,1.118188,1.509676,-33.0,-34.800003,-4.6312504,0.71803546,-0.25877717,0.5561031,994.1762, , , , 
2025-08-22 19:45:47.364,-1.9573289,-6.501299,1.4045869,-0.28473935,1.2263111,2.5365396,-31.7625,-30.937502,-6.05625,0.7020976,-0.27407244,0.5734099,994.1518, , , , 
2025-08-22 19:45:47.384,0.050249275,-7.4847493,1.5768701,-0.058108512,1.2104286,3.2769077,-36.300003,-29.41875,-5.2125,0.6861633,-0.29169416,0.59067917,994.144, , , , 
2025-08-22 19:45:47.404,2.213361,-8.863015,0.9164511,0.14103341,1.23975,3.776595,-37.40625,-27.88125,-7.9500003,0.6680862,-0.31207278,0.60995924,994.144, , , , 
2025-08-22 19:45:47.424,3.711268,-10.805987,-0.22253251,0.22838707,1.14079,4.1394486,-39.787502,-25.143751,-7.70625,0.6481458,-0.3340094,0.6298233,994.1357, , , , 
2025-08-22 19:45:47.444,3.7615173,-12.162718,-0.8446664,0.19234605,0.9275982,4.463818,-39.075,-20.212502,-9.150001,0.6269491,-0.35784632,0.64840466,994.1357, , , , 
2025-08-22 19:45:47.464,4.8765726,-14.098511,-1.0839486,0.0994946,0.53297955,5.0178723,-40.40625,-15.993751,-9.39375,0.59900594,-0.39217573,0.66780436,994.1357, , , , 
2025-08-22 19:45:47.484,6.302695,-15.51267,-1.3519448,-0.07032581,0.6191115,5.593918,-43.818752,-11.118751,-9.637501,0.57355994,-0.42303428,0.6809053,994.1147, , , , 
2025-08-22 19:45:47.504,8.60459,-16.223337,-0.66999036,-0.27618724,0.5763509,5.914011,-40.18125,-6.8812504,-9.7875,0.5434598,-0.45598203,0.6923132,994.09906, , , , 
2025-08-22 19:45:47.524,10.370493,-16.443478,0.02871387,-0.2541961,0.2452622,5.9335585,-39.506252,1.9312501,-13.293751,0.51190186,-0.48884365,0.7000952,994.09906,37.88833006,127.73971096,147.13262939453125,1.47
2025-08-22 19:45:47.544,11.2343025,-16.57269,0.06699903,-0.02451095,-0.4847212,5.8199377,-43.912502,3.45,-12.3,0.48246592,-0.51903117,0.7035223,994.0988, , , , 
2025-08-22 19:45:47.564,12.150753,-16.189838,-0.0023928226,0.18868086,-1.1242967,5.629959,-35.850002,10.743751,-11.55,0.45697892,-0.5454637,0.70252067,994.0988, , , , 
2025-08-22 19:45:47.584,13.24188,-15.601204,-0.40438703,0.38660106,-1.4370594,5.286042,-35.5875,15.750001,-10.78125,-0.43571517,0.5673322,-0.69789255,994.10004, , , , 
2025-08-22 19:45:47.604,13.739588,-14.407186,-1.0480564,0.42813987,-1.1939352,4.8504953,-36.99375,18.956251,-10.51875,-0.41656074,0.5846654,-0.69171745,994.10004, , , , 
2025-08-22 19:45:47.624,14.007584,-13.095919,-1.5481563,0.18135048,-0.5751292,4.2133636,-33.0,23.7,-7.9687505,-0.3924632,0.602434,-0.6838557,994.10223, , , , 
2025-08-22 19:45:47.644,13.5170555,-11.892328,-0.634098,-0.026954409,-0.13225223,3.7057347,-32.456253,25.837502,-5.3625,-0.37764335,0.6123149,-0.6793346,994.10223, , , , 
2025-08-22 19:45:47.664,12.567104,-11.140983,0.8063812,0.07628174,0.11942407,3.2879033,-30.337502,29.681252,-7.0312505,-0.3530111,0.6269355,-0.67300713,994.09686, , , , 
2025-08-22 19:45:47.684,13.237095,-10.1599245,0.5910272,0.4812851,0.19211698,2.9708645,-27.806252,31.425001,-6.1687503,-0.33363506,0.63522696,-0.6700674,994.09686, , , , 
2025-08-22 19:45:47.704,13.299308,-8.889337,-0.6053841,0.6798161,0.21166465,2.5420375,-26.081251,31.987501,-6.8437505,-0.31544167,0.6399047,-0.6694044,994.10834, , , , 
2025-08-22 19:45:47.724,12.985848,-8.398808,-1.2418749,0.6877574,0.24098615,2.1345906,-23.400002,34.143753,-9.09375,-0.29962033,0.64225876,-0.6698932,994.10834, , , , 
2025-08-22 19:45:47.744,13.153346,-8.298309,-1.4380864,0.68164873,0.08888082,1.7876195,-22.462502,35.11875,-10.33125,-0.28621855,0.6433406,-0.67077434,994.10834, , , , 
2025-08-22 19:45:47.764,12.959527,-8.003992,-1.3304094,0.6798161,-0.25442517,1.4632503,-20.118752,35.737503,-10.931251,-0.2765678,0.64277524,-0.6716053,994.1032, , , , 
2025-08-22 19:45:47.784,12.875778,-8.281559,-1.698904,0.6285035,-0.8475749,1.0460296,-20.587502,36.43125,-9.525001,-0.2716357,0.6391556,-0.67190576,994.10736, , , , 
2025-08-22 19:45:47.804,13.019348,-8.279166,-1.7682959,0.4672352,-1.3448188,0.7625883,-20.025002,36.35625,-9.431251,-0.27278504,0.6358722,-0.67114174,994.10736, , , , 
2025-08-22 19:45:47.824,13.847264,-9.066405,-1.3878372,0.13003784,-2.0063853,0.24274239,-18.393751,37.893753,-9.075001,-0.28290495,0.62890595,-0.66724443,994.1171, , , , 
2025-08-22 19:45:47.844,13.998013,-10.145568,-0.4881358,-0.1955531,-2.2073598,-0.17997603,-19.9125,38.362503,-9.243751,-0.29797876,0.6224652,-0.6619661,994.1171, , , , 
2025-08-22 19:45:47.864,13.840086,-9.573684,1.0767702,-0.40263626,-1.9752313,-0.5287798,-20.1375,37.443752,-7.3125005,-0.3164575,0.6161619,-0.65568286,994.1303, , , , 
2025-08-22 19:45:47.884,14.404793,-8.755338,2.2229323,-0.4954877,-1.5409064,-1.1170427,-20.56875,38.381252,-4.2375,-0.3353648,0.61011034,-0.6504227,994.1303, , , , 
2025-08-22 19:45:47.904,13.978869,-9.174082,3.0269206,-0.48632473,-1.3698642,-1.6234496,-22.1625,37.0875,-3.99375,-0.3554012,0.6031578,-0.64753896,994.1303, , , , 
2025-08-22 19:45:47.924,12.579068,-10.683953,3.8165522,-0.2994001,-1.4779873,-2.348546,-21.84375,34.3875,-3.0937502,-0.38373592,0.59063786,-0.64730173,994.1552, , , , 
2025-08-22 19:45:47.945,11.980863,-11.688938,3.8069808,-0.13568833,-1.7406592,-2.6802456,-24.843752,35.550003,-1.9312501,-0.40296778,0.5802145,-0.64802015,994.1552, , , , 
2025-08-22 19:45:47.964,12.095718,-12.394821,4.046263,-0.083764836,-2.0974042,-2.936198,-27.975,33.862503,-1.5,-0.43095368,0.56329745,-0.6487501,994.1894, , , , 
2025-08-22 19:45:47.984,14.833108,-13.710874,5.4388857,0.0029779659,-2.7155993,-3.4041204,-31.7625,32.7,1.2750001,-0.4708318,0.5372961,-0.647383,994.1894, , , , 
2025-08-22 19:45:48.006,15.749558,-15.036497,6.3792653,0.24488042,-3.1621416,-4.3106437,-32.5125,28.275002,1.4625001,-0.51778084,0.5021044,-0.6444894,994.2226, , , , 
2025-08-22 19:45:48.024,13.782659,-15.263816,6.1710896,0.3426188,-3.268432,-4.80972,-35.41875,23.7,6.1875005,-0.54819643,0.4761411,-0.6425211,994.2609, , , , 
2025-08-22 19:45:48.044,11.557333,-15.38585,5.7858453,0.36399904,-2.9917102,-5.0100837,-36.131252,22.3875,6.4875,-0.5884541,0.43827343,-0.6390781,994.2609, , , , 
2025-08-22 19:45:48.064,10.370493,-14.8785715,5.761917,0.36338818,-2.0943499,-4.916011,-36.75,16.81875,11.19375,-0.6316161,0.39079183,-0.63610446,994.2912, , , , 
2025-08-22 19:45:48.084,10.236495,-14.438292,5.517849,0.46601346,-1.407127,-4.875694,-43.256252,11.75625,15.4125,-0.6581118,0.35399908,-0.6371027,994.2912, , , , 
2025-08-22 19:45:48.104,10.789237,-14.333008,5.1828537,0.6113993,-0.982576,-4.9532733,-44.4,8.043751,12.656251,-0.67917174,0.316922,-0.64058185,994.29877, , , , 
2025-08-22 19:45:48.124,10.396814,-14.313865,4.0677986,0.725631,-0.7626647,-5.162189,-40.3125,2.98125,13.593751,-0.69679624,0.27810323,-0.64524776,994.29877, , , , 
2025-08-22 19:45:48.144,8.836694,-14.122439,3.2733815,0.6749292,-0.6863066,-5.199452,-40.3125,-3.6000001,12.900001,-0.712165,0.23798688,-0.64944917,994.29877, , , , 
2025-08-22 19:45:48.164,6.879365,-13.421342,2.926422,0.52160215,-0.54764026,-4.9752645,-43.96875,-10.368751,18.91875,-0.7281398,0.18920644,-0.652759,994.2961, , , , 
2025-08-22 19:45:48.184,6.3050876,-12.524034,3.0532417,0.41042477,-0.37904158,-4.6692214,-42.581253,-13.70625,17.868752,-0.7377963,0.15294908,-0.65428656,994.2795, , , , 
2025-08-22 19:45:48.204,6.3361945,-11.387443,3.2805598,0.39576402,-0.21044292,-4.4566402,-40.0125,-16.29375,17.4375,-0.7445328,0.11898779,-0.65562403,994.2795, , , , 
2025-08-22 19:45:48.224,5.864808,-10.628919,3.1752756,0.46601346,-0.1640172,-4.321028,-40.36875,-20.94375,18.056252,-0.74905187,0.08591145,-0.6566678,994.2685, , , , 
2025-08-22 19:45:48.246,4.6468616,-10.236495,2.4382863,0.51976955,-0.03573559,-4.0980625,-37.987503,-22.931252,17.60625,0.75184685,-0.05344577,0.65715986,994.2685, , , , 
2025-08-22 19:45:48.264,3.3140593,-10.200603,1.5314065,0.46234828,0.05894845,-3.798739,-36.487503,-27.656252,15.8625,0.7528576,-0.022587124,0.6573874,994.24603, , , , 
2025-08-22 19:45:48.284,1.4811572,-9.944571,0.8566305,0.31329727,0.09376775,-3.2727845,-35.175003,-29.8875,15.993751,0.75229377,0.0114653045,0.65713835,994.24603, , , , 
2025-08-22 19:45:48.304,0.26081768,-9.162118,0.5288138,0.142866,0.07422007,-2.7223952,-33.5625,-32.081253,15.337501,0.7514681,0.028347703,0.65663075,994.2148, , , , 
2025-08-22 19:45:48.324,-0.4642076,-8.559127,0.485743,-0.07887791,0.26419902,-1.9117777,-33.037502,-34.29375,18.65625,0.74935126,0.048928693,0.65619105,994.2148, , , , 
2025-08-22 19:45:48.344,-0.4833502,-8.085348,0.89730847,-0.19860741,0.4205804,-1.3033564,-29.325,-35.006252,15.375001,0.74713963,0.056625634,0.6572022,994.1872, , , , 
2025-08-22 19:45:48.364,-0.5072784,-7.7240314,0.8111669,-0.25053093,0.76144296,-0.6277399,-28.3875,-35.5125,14.212501,0.7418461,0.06312756,0.661552,994.1872, , , , 
2025-08-22 19:45:48.384,-1.6151553,-6.7836523,0.08853444,-0.33666286,1.1169662,0.0075594517,-30.243752,-38.081253,15.7875,0.7355796,0.06376002,0.6681013,994.16986, , , , 
2025-08-22 19:45:48.404,-2.4717858,-6.3074803,-0.22492532,-0.5156462,1.3148865,0.62147856,-29.550001,-34.875,12.750001,0.7276871,0.059637494,0.6771315,994.16986, , , , 
2025-08-22 19:45:48.424,-2.2420747,-6.4127645,0.6221339,-0.6274345,1.3362668,1.4901283,-31.743752,-36.225002,13.368751,0.71895707,0.049255826,0.68773717,994.14056, , , , 
2025-08-22 19:45:48.444,-0.9619147,-7.652247,0.5910272,-0.5113702,1.1890483,2.308687,-31.781252,-35.2125,11.00625,0.70839226,0.028527867,0.70119405,994.14056, , , , 
2025-08-22 19:45:48.464,-0.17706887,-8.946764,-0.031106694,-0.46127927,0.9837977,2.9354343,-35.025,-34.443752,12.69375,0.7027465,0.012576882,0.7084613,994.13055, , , , 
2025-08-22 19:45:48.484,1.1557333,-10.535598,-0.4761717,-0.49609855,0.7009673,3.754604,-35.9625,-32.025,10.33125,0.69474894,-0.020614702,0.71797484,994.13055, , , , 
2025-08-22 19:45:48.505,3.2183464,-12.117254,-0.971486,-0.6243802,0.5073232,4.454655,-37.95,-28.237501,8.475,0.6889704,-0.053506497,0.7227273,994.1191, , , , 
2025-08-22 19:45:48.524,5.9270215,-13.629518,-1.1413764,-0.9114866,0.43035424,5.0392528,-39.600002,-24.675001,9.20625,-0.6824759,0.09209191,-0.7248369,994.1191,37.88832245,127.73969928,147.148681640625,1.11
2025-08-22 19:45:48.544,7.1712894,-14.701502,-0.8063812,-1.175991,0.5335904,5.3562913,-39.525,-20.0625,8.025001,-0.6738147,0.13545728,-0.72464496,994.1191, , , , 
2025-08-22 19:45:48.564,8.894122,-14.907285,0.78723866,-1.3647482,0.54519683,5.6189632,-41.4,-15.76875,6.43125,-0.66194224,0.1823747,-0.7224599,994.1086, , , , 
2025-08-22 19:45:48.584,10.124033,-14.773287,2.2588246,-1.0923026,0.30512697,5.6214066,-43.95,-9.431251,6.95625,-0.64429075,0.24061842,-0.71577924,994.11053, , , , 
2025-08-22 19:45:48.604,10.392029,-14.883357,1.9357935,-0.73005974,0.08888082,5.5914745,-44.625,-2.8875,4.18125,-0.633042,0.27257675,-0.7096596,994.11053, , , , 
2025-08-22 19:45:48.624,11.002198,-15.065211,1.4668003,-0.47349656,-0.14569125,5.5511575,-45.037502,1.8937501,7.9687505,-0.62154764,0.3020459,-0.701965,994.11053, , , , 
2025-08-22 19:45:48.644,12.239287,-14.9096775,0.040677983,-0.18089233,-0.422413,5.322083,-43.237503,7.18125,7.4625,-0.59884053,0.3535516,-0.681984,994.1198, , , , 
2025-08-22 19:45:48.664,12.818351,-14.203795,-0.55513483,-0.24808747,-0.49327332,5.005044,-42.506252,9.993751,6.61875,-0.5840231,0.38335335,-0.66635555,994.11176, , , , 
2025-08-22 19:45:48.684,13.301702,-13.359129,-0.27996024,-0.38125598,-0.4816669,4.5065784,-41.550003,14.08125,7.2000003,-0.56994647,0.4103656,-0.6497311,994.11176, , , , 
2025-08-22 19:45:48.704,12.9547415,-12.983456,-0.10767702,-0.48510298,-0.27030766,4.1229553,-38.53125,20.362501,7.3125005,-0.55665284,0.43469167,-0.63327736,994.11176, , , , 
2025-08-22 19:45:48.724,12.428321,-11.846865,1.2753744,-0.54130256,0.20983206,3.7491062,-36.7125,23.643751,8.775001,-0.54248095,0.45775983,-0.61858165,994.1064, , , , 
2025-08-22 19:45:48.744,12.691531,-11.157732,2.053042,-0.349491,0.56046844,3.3874743,-35.268753,24.806252,7.0125003,-0.5264716,0.4792886,-0.6068131,994.1137, , , , 
2025-08-22 19:45:48.764,12.375679,-10.2317095,1.4261223,-0.097814724,0.77488196,3.0301185,-32.49375,28.44375,7.2937503,-0.5090386,0.49805224,-0.5985142,994.1137, , , , 
2025-08-22 19:45:48.784,12.904492,-9.3511505,0.89730847,0.028634287,0.6655372,2.7088034,-29.1,31.518751,7.5375004,-0.48725453,0.5177256,-0.5909424,994.1237, , , , 
2025-08-22 19:45:48.804,13.203595,-8.422736,0.7082755,0.13370302,0.5189296,2.4088688,-29.94375,32.325,6.4875,-0.47565833,0.52711785,-0.58697414,994.1237, , , , 
2025-08-22 19:45:48.824,13.311273,-7.735996,0.29192436,0.27053675,0.46883872,1.9714897,-27.112501,34.725002,6.675,-0.45877916,0.5389176,-0.5818841,994.1313, , , , 
2025-08-22 19:45:48.844,13.4763775,-7.8867435,-0.1698904,0.33284494,0.2837467,1.7057636,-26.1375,35.831253,5.5875,-0.44701904,0.5457343,-0.5792814,994.1313, , , , 
2025-08-22 19:45:48.864,14.457435,-8.051848,-0.21774685,0.3126864,-0.06994402,1.3997203,-24.093752,36.54375,5.175,-0.43802142,0.5500742,-0.5766499,994.13763, , , , 
2025-08-22 19:45:48.884,15.8692,-7.836494,0.37088752,0.26442808,-0.3668243,0.83161604,-23.56875,36.956253,5.5687504,-0.43252748,0.5512852,-0.573409,994.13763, , , , 
2025-08-22 19:45:48.904,16.546368,-8.865408,1.1318051,0.16424626,-0.56169015,0.18959716,-23.081251,38.006252,6.0750003,-0.43342745,0.5486558,-0.5721519,994.1457, , , , 
2025-08-22 19:45:48.925,15.890736,-9.018549,2.2755744,0.17157665,-0.6227766,-0.22334744,-22.650002,37.18125,5.30625,-0.43698093,0.54469424,-0.57232165,994.1457, , , , 
2025-08-22 19:45:48.944,15.761522,-8.26481,2.440679,0.28580835,-0.6551525,-0.7547998,-24.225,37.3875,5.925,-0.44541335,0.53474474,-0.5753354,994.1777, , , , 
2025-08-22 19:45:48.964,16.156338,-8.69791,2.6512475,0.25098908,-0.57940525,-1.3778819,-22.63125,38.68125,4.89375,-0.45488667,0.5240725,-0.58008236,994.1777, , , , 
2025-08-22 19:45:48.984,15.270994,-10.107283,2.7972097,0.20945026,-0.4517345,-2.1610105,-24.487501,36.862503,6.1312504,-0.4670297,0.5110093,-0.5877234,994.2055, , , , 
2025-08-22 19:45:49.004,14.074583,-11.375479,3.3523445,0.19906557,-0.54519683,-2.7834818,-26.475,35.04375,6.6000004,-0.4818631,0.4907004,-0.60032576,994.2055, , , , 
2025-08-22 19:45:49.024,12.366107,-12.74178,4.0701914,0.3340667,-0.79015356,-3.2532368,-26.643751,34.893753,6.76875,-0.4994113,0.4756777,-0.60869277,994.2309, , , , 
2025-08-22 19:45:49.044,10.7844515,-13.88555,4.0271206,0.5191587,-1.0925317,-3.459098,-30.375002,32.4,7.1625004,-0.51870227,0.45214352,-0.61971587,994.2309, , , , 
2025-08-22 19:45:49.064,11.002198,-14.557933,4.0271206,0.6059015,-1.46577,-3.5800495,-30.6,31.25625,6.4687505,-0.54417044,0.4186273,-0.6314344,994.25555, , , , 
2025-08-22 19:45:49.084,11.755938,-14.5818615,4.6229334,0.7073051,-1.8115195,-3.7956846,-33.91875,27.806252,5.625,-0.56619346,0.3884856,-0.6385878,994.25555, , , , 
2025-08-22 19:45:49.104,13.093526,-14.629718,4.5391846,0.8087086,-2.116952,-4.1377687,-35.15625,23.41875,9.712501,-0.58973914,0.3544631,-0.64412177,994.2719, , , , 
2025-08-22 19:45:49.124,13.998013,-14.926428,3.1561332,0.7085268,-1.9452989,-4.635013,-37.050003,21.13125,7.425,-0.61426365,0.3167902,-0.648833,994.2719, , , , 
2025-08-22 19:45:49.144,13.808979,-16.130018,1.9070797,0.25954118,-0.9630283,-5.081555,-36.9,19.875,9.7875,-0.63632065,0.27911222,-0.6556007,994.2719, , , , 
2025-08-22 19:45:49.164,12.703495,-16.500904,3.1441689,-0.10331251,0.19272783,-5.5323734,-46.162502,9.9375,14.418751,-0.6551359,0.23633716,-0.67057985,994.2741, , , , 
2025-08-22 19:45:49.184,11.420942,-16.560726,3.7088752,0.029245151,0.5519163,-5.8219233,-40.800003,7.275,11.681251,-0.6639085,0.20233732,-0.6860671,994.26654, , , , 
2025-08-22 19:45:49.204,9.437292,-16.673187,3.1130621,0.30474517,0.4205804,-5.912331,-43.21875,0.41250002,12.95625,-0.6698458,0.16570038,-0.70094854,994.26654, , , , 
2025-08-22 19:45:49.224,7.259824,-15.964912,2.5124638,0.55153453,0.31917685,-5.763891,-44.775,-5.9437504,11.306251,-0.67407745,0.1272194,-0.71314985,994.2546, , , , 
2025-08-22 19:45:49.244,5.625526,-14.842679,2.0219352,0.7066942,0.04856375,-5.438911,-43.068752,-11.981251,11.025001,-0.67716837,0.08850465,-0.72195333,994.2546, , , , 
2025-08-22 19:45:49.264,4.409972,-13.299308,1.0719845,0.7964913,-0.3338376,-5.018025,-40.275,-14.812501,11.19375,-0.6801902,0.050735205,-0.726722,994.2221, , , , 
2025-08-22 19:45:49.284,3.7304106,-11.968899,0.050249275,0.6950878,-0.7571669,-4.6539497,-40.8375,-19.837502,10.6125,-0.684305,0.006298434,-0.72636396,994.2221, , , , 
2025-08-22 19:45:49.305,3.0723844,-11.162518,0.050249275,0.49105892,-0.92210037,-4.3033133,-36.61875,-24.281252,11.962501,-0.6913083,-0.025665851,-0.72175944,994.17914, , , , 
2025-08-22 19:45:49.325,2.0219352,-10.27478,0.31106696,0.39209884,-0.8384119,-3.9367945,-38.325,-29.062502,12.731251,-0.6947867,-0.04742713,-0.717639,994.17914, , , , 
2025-08-22 19:45:49.344,1.2777673,-10.406385,0.33738798,0.35483608,-0.8121447,-3.5085783,-34.3875,-31.275002,13.218751,0.6984321,0.07378933,0.7116224,994.17914, , , , 
2025-08-22 19:45:49.364,1.0145568,-10.4351,0.37806597,0.4428006,-0.75899947,-3.002782,-29.362501,-31.85625,11.64375,0.7020705,0.102433465,0.70344156,994.1501, , , , 
2025-08-22 19:45:49.384,-0.18185452,-9.999606,-0.849452,0.45562875,-0.72601277,-2.452393,-30.525002,-35.756252,16.612501,0.70472443,0.12238609,0.6965364,994.12274, , , , 
2025-08-22 19:45:49.404,-1.7228323,-9.18126,-1.7611175,0.17951788,-0.34483317,-1.7584506,-25.25625,-37.3125,15.225,0.70661175,0.13761687,0.6907543,994.12274, , , , 
2025-08-22 19:45:49.424,-3.2087753,-8.846265,-1.3543376,-0.114308074,0.22693627,-0.758465,-25.35,-39.318752,14.56875,0.7063143,0.14601322,0.68853706,994.10175, , , , 
2025-08-22 19:45:49.444,-4.125226,-7.776674,-1.0432707,-0.26213735,0.7620538,0.24518585,-25.5375,-37.125,17.400002,0.70330983,0.1471147,0.6911264,994.10175, , , , 
2025-08-22 19:45:49.464,-3.8931224,-6.8099732,-0.95473623,-0.36476263,0.95325446,1.1272746,-24.937502,-37.275,14.887501,0.69861996,0.14091717,0.6975911,994.10175, , , , 
2025-08-22 19:45:49.484,-1.6582261,-6.587441,-0.72023964,-0.53885907,1.0571015,2.1095452,-28.331251,-38.006252,15.750001,0.69282484,0.1232854,0.7078591,994.1005, , , , 
2025-08-22 19:45:49.504,-0.48095736,-7.24786,-0.5766702,-0.5944478,1.1890483,2.6171737,-28.743752,-35.925003,13.031251,0.68900794,0.10847436,0.7148218,994.1005, , , , 
2025-08-22 19:45:49.524,0.5096712,-8.980264,-0.3924229,-0.57062405,0.950811,3.267134,-30.675001,-33.131252,13.2375,0.6824409,0.07831583,0.7262236,994.0981,37.88831204,127.73969434,147.462890625,1.28
2025-08-22 19:45:49.544,1.6917256,-10.911271,-0.701097,-0.44906196,0.33994624,3.845012,-34.443752,-32.49375,10.200001,0.6798618,0.049823925,0.7316367,994.0981, , , , 
2025-08-22 19:45:49.564,2.8689942,-13.110275,-1.5290136,-0.48449212,0.003970621,4.582937,-36.0,-28.44375,11.512501,-0.6805713,-0.01742833,-0.73205596,994.09467, , , , 
2025-08-22 19:45:49.584,4.9292145,-14.864214,-1.6175481,-0.73433584,0.16279547,5.3062005,-40.3875,-25.650002,10.743751,-0.6807385,0.020766526,-0.7299685,994.0915, , , , 
2025-08-22 19:45:49.604,7.580462,-15.720845,-0.7968099,-0.941419,0.29901832,5.714869,-37.74375,-20.5125,10.181251,-0.6777471,0.065317795,-0.72645676,994.0915, , , , 
2025-08-22 19:45:49.624,9.561719,-15.8022,0.16749759,-0.9652427,0.13347395,5.879192,-41.8875,-14.1,11.325001,-0.6699946,0.12452542,-0.71867156,994.0876, , , , 
2025-08-22 19:45:49.644,9.812965,-16.146767,0.4354937,-0.9346995,-0.27336198,6.0111384,-43.40625,-9.525001,9.20625,-0.66477716,0.15957607,-0.7107441,994.0876, , , , 
2025-08-22 19:45:49.664,11.631511,-16.316658,1.4883357,-0.78748107,-0.41080657,6.1693525,-44.456253,-3.7875001,9.3,-0.6555836,0.21682061,-0.6912772,994.0971, , , , 
2025-08-22 19:45:49.684,12.720245,-15.66581,1.5146568,-0.61888236,-0.14813471,5.9757085,-45.2625,2.1750002,16.3125,-0.64465,0.25996232,-0.67393094,994.0971, , , , 
2025-08-22 19:45:49.705,13.471592,-14.629718,1.0169497,-0.643317,0.24709481,5.5413833,-41.381252,9.450001,11.625,-0.6302115,0.29996005,-0.65730524,994.1103, , , , 
2025-08-22 19:45:49.724,13.306487,-13.421342,1.1892328,-0.8021418,0.44745845,5.1119456,-41.756252,13.275001,10.837501,-0.61359566,0.33736604,-0.6417544,994.1103, , , , 
2025-08-22 19:45:49.744,13.093526,-12.9954195,1.9477576,-0.9377538,0.49449503,4.741151,-42.73125,15.7875,11.400001,-0.5965132,0.3724928,-0.6264098,994.1103, , , , 
2025-08-22 19:45:49.764,13.615161,-12.746566,3.7040894,-0.82718724,0.41813695,4.3666906,-37.350002,19.2,10.650001,-0.57953244,0.4048761,-0.6111054,994.113, , , , 
2025-08-22 19:45:49.784,13.5074835,-12.382857,4.1850467,-0.3256673,0.22632541,4.0276604,-35.831253,23.1,10.575001,-0.5586036,0.43823665,-0.59322244,994.1445, , , , 
2025-08-22 19:45:49.804,13.567305,-11.519048,3.2087753,0.035964664,-0.00641408,3.8053057,-33.9,27.525002,10.125,-0.5460659,0.45390987,-0.5833177,994.1445, , , , 
2025-08-22 19:45:49.824,14.892928,-10.490134,1.7084754,0.28580835,-0.1499673,3.4668868,-29.60625,31.331251,9.3,-0.52633363,0.47408235,-0.56746453,994.1779, , , , 
2025-08-22 19:45:49.847,16.34298,-9.12144,0.37088752,0.3004691,0.05222894,2.9678102,-31.275002,32.006252,12.20625,-0.5118606,0.48643345,-0.55634844,994.1779, , , , 
2025-08-22 19:45:49.864,17.14936,-8.190632,0.04546363,0.12515092,0.6343831,2.3844342,-27.075,33.825,11.043751,-0.49820194,0.49773678,-0.5484032,994.1779, , , , 
2025-08-22 19:45:49.884,17.496319,-8.331808,0.57906306,0.0457385,0.9080505,1.7265329,-22.875,36.99375,8.7375,-0.48533046,0.5089053,-0.544738,994.1779, , , , 
2025-08-22 19:45:49.904,16.955542,-8.7577305,0.8207382,0.13981168,0.6514873,1.0967313,-24.281252,35.86875,8.793751,-0.47516093,0.5172145,-0.5443264,994.18134, , , , 
2025-08-22 19:45:49.924,16.38605,-8.099705,0.16510476,0.18868086,0.27336198,0.5665007,-22.125,37.8375,8.137501,-0.46811873,0.5212083,-0.5457083,994.18134, , , , 
2025-08-22 19:45:49.944,16.438692,-7.9704924,0.5096712,0.11293363,0.20250167,0.09491312,-22.5375,38.775,9.375,-0.46658114,0.52114147,-0.54774976,994.1833, , , , 
2025-08-22 19:45:49.964,16.146767,-8.568698,1.2179468,0.20578507,0.008246674,-0.29726207,-23.4375,37.818752,8.4375,-0.4672956,0.51948637,-0.55037755,994.1833, , , , 
2025-08-22 19:45:49.984,16.570297,-7.867601,1.012164,0.46662432,-0.49327332,-0.80061466,-21.84375,37.612503,7.05,-0.47238517,0.51101667,-0.5562121,994.1965, , , , 
2025-08-22 19:45:50.004,17.125431,-7.960921,-0.32063824,0.44035715,-0.6203332,-1.5764129,-22.425001,37.912502,10.181251,-0.4807703,0.49874488,-0.56249,994.1965, , , , 
2025-08-22 19:45:50.024,17.154146,-9.298509,-0.77766734,0.15752676,-0.48411033,-2.4139085,-24.54375,36.825,9.69375,-0.49332592,0.48366192,-0.57102025,994.19354, , , , 
2025-08-22 19:45:50.044,15.017355,-11.107483,-0.33738798,-0.088651754,-0.2922988,-3.030271,-25.500002,35.625,8.475,-0.50956315,0.4668806,-0.5819136,994.19354, , , , 
2025-08-22 19:45:50.064,13.330415,-12.409178,0.8446664,-0.29756752,-0.24709481,-3.501248,-27.225,32.71875,6.5062504,-0.52750057,0.44928032,-0.59404856,994.19354, , , , 
2025-08-22 19:45:50.084,13.172488,-14.572289,2.0554347,-0.2474766,-0.56169015,-3.8671558,-29.7,31.462502,8.0625,-0.5516759,0.42449322,-0.60882217,994.207, , , , 
2025-08-22 19:45:50.104,13.481163,-16.137196,2.510071,-0.102090776,-1.1792744,-4.185416,-32.15625,30.206251,8.85,-0.57367355,0.39971906,-0.6186823,994.23065, , , , 
2025-08-22 19:45:50.124,13.677374,-16.426727,3.0675986,-0.006185006,-1.7424918,-4.543383,-33.693752,25.556252,9.431251,-0.5985765,0.36995435,-0.6256365,994.23065, , , , 
2025-08-22 19:45:50.144,13.272987,-16.19941,3.792624,0.07811433,-1.8823798,-4.792616,-36.693752,21.018751,10.78125,-0.6251613,0.3359744,-0.63017803,994.23065, , , , 
2025-08-22 19:45:50.164,12.251252,-15.785451,2.2851455,0.05184715,-0.91965693,-5.0424595,-38.475002,19.575,12.6,-0.64931625,0.2998945,-0.6354285,994.2607, , , , 
2025-08-22 19:45:50.185,11.3778715,-15.51267,1.5601203,-0.23220497,0.59589857,-5.140198,-38.737503,16.40625,16.35,-0.6654791,0.26677826,-0.6463399,994.2795, , , , 
2025-08-22 19:45:50.204,10.7844515,-15.823736,2.2995026,-0.31589344,1.4914263,-5.258095,-45.075,8.681251,13.293751,-0.6722351,0.23778632,-0.6639713,994.2795, , , , 
2025-08-22 19:45:50.224,10.097712,-15.80938,4.0103707,0.18257222,1.2916735,-5.366218,-44.30625,5.15625,12.7875,-0.6734051,0.20086455,-0.6887656,994.2851, , , , 
2025-08-22 19:45:50.244,8.872586,-15.823736,3.3284163,0.7586177,0.558025,-5.4346347,-45.206253,-2.1375,12.525001,-0.6747711,0.16552334,-0.7044944,994.2851, , , , 
2025-08-22 19:45:50.264,7.0636125,-15.244673,2.4095724,1.091539,-0.027183482,-5.3540006,-42.768753,-8.981251,12.356251,-0.67853117,0.12598799,-0.7144434,994.2775, , , , 
2025-08-22 19:45:50.284,4.5942197,-14.203795,1.0959128,1.1532364,-0.17318016,-5.0394053,-42.300003,-14.775001,10.78125,-0.6831306,0.08542895,-0.7198511,994.2775, , , , 
2025-08-22 19:45:50.307,2.8761728,-12.861422,0.9403793,1.0848194,-0.18723005,-4.4651923,-41.662502,-18.075,11.53125,-0.68677455,0.0383271,-0.72349167,994.2404, , , , 
2025-08-22 19:45:50.324,2.37368,-11.612369,1.0624132,1.0805434,-0.25625777,-3.9856637,-39.24375,-22.050001,11.6625,-0.6881019,0.012819336,-0.7242188,994.2404, , , , 
2025-08-22 19:45:50.344,2.8546374,-10.5284195,0.42831525,1.0640501,-0.35766134,-3.6014297,-38.268753,-25.931252,11.45625,-0.68956435,-0.018505713,-0.72354716,994.2082, , , , 
2025-08-22 19:45:50.364,2.605784,-9.937392,-0.4881358,0.92599463,-0.34727663,-3.3302057,-37.21875,-27.712502,15.168751,-0.6910882,-0.05425435,-0.72071165,994.2082, , , , 
2025-08-22 19:45:50.384,1.4524434,-9.688539,-0.88295156,0.73418313,-0.29290965,-3.0009496,-34.59375,-30.675001,14.2875,0.69162524,0.079713434,0.7177771,994.1691, , , , 
2025-08-22 19:45:50.404,0.35653058,-9.399008,-1.5864414,0.5753583,-0.19944735,-2.5855615,-31.050001,-31.425001,12.88125,0.69150555,0.096327804,0.71563536,994.1691, , , , 
2025-08-22 19:45:50.424,-1.1485549,-8.755338,-2.2301106,0.16913319,0.00641408,-1.8433608,-32.15625,-36.037502,15.1125,0.69055194,0.11733669,0.71285343,994.1691, , , , 
2025-08-22 19:45:50.445,-1.9788643,-7.7790666,-1.6534405,-0.16928591,0.3167334,-1.0638974,-26.38125,-35.287502,11.0625,0.6884265,0.1261844,0.712918,994.13666, , , , 
2025-08-22 19:45:50.464,-1.9094725,-7.2119675,-0.61016977,-0.38553202,0.69913477,-0.22579089,-30.13125,-33.956253,15.075001,0.6845296,0.12812893,0.715992,994.1174, , , , 
2025-08-22 19:45:50.484,-1.9166509,-7.353144,-0.52163535,-0.36415178,0.82375115,0.4822014,-28.931252,-36.05625,13.5375,0.6794478,0.12471929,0.72137946,994.1174, , , , 
2025-08-22 19:45:50.504,-1.9310079,-6.800402,-1.0289137,-0.44784024,0.84085536,1.251891,-30.206251,-35.943752,13.05,0.6745088,0.11655576,0.7276558,994.1174, , , , 
2025-08-22 19:45:50.524,-0.7920243,-7.042077,-0.70348984,-0.6262128,0.6545416,2.0869431,-31.0125,-34.893753,12.3,0.6698777,0.09798778,0.7352733,994.10297,37.88829893,127.73969774,147.583740234375,1.4
2025-08-22 19:45:50.545,0.2440679,-7.9298143,-0.15792629,-0.68546665,0.48411033,2.7533967,-33.112503,-33.61875,12.750001,0.6682503,0.08245509,0.7390332,994.10297, , , , 
2025-08-22 19:45:50.564,2.4119651,-9.963714,-0.25124636,-0.65064734,0.25747952,3.3734243,-35.006252,-30.825,10.931251,-0.6669434,-0.050802894,-0.74337333,994.0971, , , , 
2025-08-22 19:45:50.585,3.7806597,-11.179267,-0.32542387,-0.6414844,-0.046731155,3.826075,-36.975002,-28.500002,8.08125,-0.66721386,-0.021432891,-0.74416137,994.09393, , , , 
2025-08-22 19:45:50.604,4.7449675,-12.205789,-0.1698904,-0.60910857,-0.3112356,4.2518477,-39.393753,-25.893751,8.493751,-0.66879797,0.010826536,-0.7416467,994.09393, , , , 
2025-08-22 19:45:50.624,5.697311,-13.026526,-0.38763726,-0.579787,-0.39492407,4.634249,-39.206253,-21.28125,10.06875,-0.6705352,0.04542794,-0.73613554,994.0922, , , , 
2025-08-22 19:45:50.644,6.3218374,-13.574483,-1.0193424,-0.738001,-0.11759147,4.9732795,-43.93125,-18.431252,11.625,-0.6705926,0.08244366,-0.72867745,994.0922, , , , 
2025-08-22 19:45:50.664,7.7671022,-13.6199465,-0.15792629,-1.0232749,0.20616686,5.2219014,-42.075,-13.63125,11.325001,-0.6650714,0.13368878,-0.71889347,994.0898, , , , 
2025-08-22 19:45:50.684,9.217153,-13.440485,0.62931234,-1.0660354,0.12492185,5.2426705,-44.625,-7.5375004,9.84375,-0.6573343,0.17642656,-0.70962745,994.0898, , , , 
2025-08-22 19:45:50.704,10.717453,-13.205988,1.1724831,-0.9884556,-0.26358816,5.132104,-44.5125,-1.40625,6.39375,-0.6492592,0.21743305,-0.69726247,994.11127, , , , 
2025-08-22 19:45:50.724,11.925828,-13.2203455,1.4979069,-0.80519617,-0.7180715,4.9622836,-45.768753,3.0187502,13.06875,-0.6425737,0.25473222,-0.68097013,994.11127, , , , 
2025-08-22 19:45:50.745,12.911671,-13.158132,1.5433706,-0.6310997,-0.56230104,4.7680287,-41.2125,9.58125,12.375001,-0.6358641,0.28829673,-0.66260755,994.1337, , , , 
2025-08-22 19:45:50.764,12.760923,-12.844672,1.1653047,-0.53580475,-0.11942407,4.52185,-40.0875,12.95625,11.137501,-0.6263262,0.31916013,-0.6456866,994.1337, , , , 
2025-08-22 19:45:50.784,13.03849,-12.251252,0.33499518,-0.643317,0.45601055,4.2952194,-40.818752,15.1125,11.55,-0.60986865,0.35621065,-0.6277853,994.1523, , , , 
2025-08-22 19:45:50.804,13.406985,-11.38505,0.6125626,-0.8552871,0.8958332,4.061869,-41.2125,18.300001,12.187501,-0.5979043,0.37881765,-0.6187546,994.1523, , , , 
2025-08-22 19:45:50.824,13.667803,-10.372886,1.9501505,-0.9273691,1.1414008,3.6751916,-38.025,21.618752,11.043751,-0.5760546,0.41614532,-0.6062146,994.15814, , , , 
