Time,Accel_X,Accel_Y,Accel_Z,Gyro_X,Gyro_Y,Gyro_Z,Mag_X,Mag_Y,Mag_Z,Orient_X,Orient_Y,Orient_Z,Pressure,Lat,Lng,Alt,Speed
2026-03-20 17:34:33.924,-1.3663018,5.465207,6.8985076,-0.22403465,-0.036880963,-0.22128576,-23.7,-13.9875,-34.3125,0.18286072,0.26324224,0.66419125,999.6401,37.88749408,127.73735747,179.26171875,0.0
2026-03-20 17:34:33.937,-0.54317075,6.125626,7.0061846,-0.51358455,-0.5170207,-0.19562945,-21.112501,-14.45625,-37.2,0.17843384,0.2585835,0.663685,999.6213, , , , 
2026-03-20 17:34:33.957,-0.99302137,5.721239,7.1880393,-0.7225003,-0.63552845,-0.38255405,-19.1625,-12.88125,-37.800003,0.17801747,0.25158748,0.66232026,999.6213, , , , 
2026-03-20 17:34:33.977,-3.505485,5.1254263,7.9657063,-0.91797704,-0.13523018,-0.20112723,-20.400002,-13.14375,-36.881252,0.17417286,0.24183336,0.660686,999.59735, , , , 
2026-03-20 17:34:33.997,-1.4979069,5.0751767,8.496913,-1.126282,0.16348268,0.20326525,-21.46875,-11.75625,-35.756252,0.16634028,0.23649795,0.66317827,999.59735, , , , 
2026-03-20 17:34:34.017,-0.9738788,5.491528,8.769695,-1.0450369,-0.15172353,0.05299252,-21.2625,-10.856251,-36.91875,0.15903054,0.22936267,0.66688097,999.59564, , , , 
2026-03-20 17:34:34.037,-0.95473623,5.4843497,7.7910304,-1.2417353,-0.25618142,-0.19685118,-22.0125,-8.83125,-37.10625,0.15343739,0.22086892,0.6684444,999.59564, , , , 
2026-03-20 17:34:34.057,-0.72023964,5.572884,8.035098,-1.6632321,-0.15050182,-0.31352636,-21.150002,-8.868751,-36.581253,0.14517602,0.21114665,0.6694092,999.6049, , , , 
2026-03-20 17:34:34.077,0.526421,5.1828537,8.616554,-1.9863795,-0.42111492,-0.6727148,-21.375,-8.2875,-34.275,0.13408856,0.19872011,0.66995716,999.6049, , , , 
2026-03-20 17:34:34.098,1.7635103,3.9314077,9.377472,-2.3400702,-0.92691094,-1.4106395,-21.075,-8.3625,-35.23125,0.12251755,0.18127908,0.66680634,999.6174, , , , 
2026-03-20 17:34:34.117,-0.033499517,3.2614172,9.779466,-2.6552765,-0.60620695,-2.045328,-20.25,-4.93125,-34.893753,0.10409048,0.15595052,0.65527517,999.6174, , , , 
2026-03-20 17:34:34.137,-1.1102697,2.9431717,10.195817,-2.62229,0.09506583,-1.8565708,-20.34375,-4.8,-35.8125,0.0842154,0.13848114,0.6445574,999.705, , , , 
2026-03-20 17:34:34.157,-2.172683,3.952943,11.66501,-2.3272421,0.54221886,-1.3568834,-20.7,-4.3500004,-35.49375,0.062063895,0.12677373,0.6360765,999.705, , , , 
2026-03-20 17:34:34.177,-5.4293146,5.312066,11.349157,-1.9216279,1.9453752,-0.19562945,-21.28125,-2.04375,-34.48125,0.03902839,0.122402914,0.63285244,999.8461, , , , 
2026-03-20 17:34:34.199,-4.941179,1.3878372,10.246066,-1.4995203,3.4163377,1.6540691,-18.84375,-0.41250002,-37.29375,0.0024485665,0.13647574,0.64221734,999.8461, , , , 
2026-03-20 17:34:34.217,-0.12203395,-1.8041883,13.332808,-1.2368485,1.3937644,2.0126467,-16.3875,2.325,-37.256252,-0.017747883,0.14619756,0.6536972,999.89764, , , , 
2026-03-20 17:34:34.238,-0.7393822,-0.85902333,11.289337,-0.5367974,-1.6220751,1.7108796,-15.093751,2.8500001,-38.662502,-0.023006475,0.13712735,0.6721725,999.89764, , , , 
2026-03-20 17:34:34.257,-1.9094725,1.6295122,12.124433,0.3611738,-1.8487059,1.8110614,-16.425001,5.0625,-37.256252,-0.010480087,0.123262234,0.68491405,999.8825, , , , 
2026-03-20 17:34:34.277,-1.1557333,0.8279166,11.787045,1.3837614,-1.7240895,1.7725769,-16.650002,6.0375004,-38.0625,0.0040556127,0.117398225,0.6938199,999.8825, , , , 
2026-03-20 17:34:34.297,2.2636101,-2.5316064,9.614362,1.8657337,-1.1785872,0.46227193,-18.50625,6.2250004,-38.79375,0.027309043,0.11657641,0.70195204,999.863, , , , 
2026-03-20 17:34:34.317,-0.05503492,1.2394822,9.65504,2.0324998,0.6717222,-0.9634865,-20.400002,3.4125001,-38.4375,0.046744633,0.12749396,0.6973631,999.863, , , , 
2026-03-20 17:34:34.338,-2.3234308,2.7278178,10.497313,2.3544257,0.041920595,-0.9952514,-20.0625,1.4625001,-38.362503,0.055329405,0.1476103,0.6875596,999.821, , , , 
2026-03-20 17:34:34.357,-3.2470603,3.3355947,7.7790666,1.9029965,-1.4253767,-0.7460186,-20.962502,0.50625,-39.75,0.07235582,0.15966794,0.6776187,999.821, , , , 
2026-03-20 17:34:34.377,-3.3499517,4.048656,7.60439,1.4643956,-1.9714897,-0.4668534,-24.993752,-3.3937502,-39.2625,0.093802206,0.1604775,0.66887563,999.7819, , , , 
2026-03-20 17:34:34.397,-2.3186452,3.8811584,7.5254273,1.056338,-2.1394775,-0.28603745,-26.1375,-3.8812501,-38.04375,0.11508904,0.15588889,0.66191155,999.7819, , , , 
2026-03-20 17:34:34.417,-0.46899325,4.5296135,9.075976,0.979369,-2.132147,-0.32574365,-28.312502,-4.59375,-39.16875,0.13535145,0.14827897,0.6557021,999.75946, , , , 
2026-03-20 17:34:34.437,-0.40917268,3.5724843,8.190632,0.98975366,-2.2622614,-0.5713113,-29.681252,-6.8812504,-36.5625,0.16076678,0.13734332,0.64626,999.75946, , , , 
2026-03-20 17:34:34.457,-3.7471602,3.8380876,5.9724855,0.6476694,-1.7766238,-0.2328922,-30.300001,-6.3187504,-36.693752,0.17908539,0.1294733,0.63813156,999.7702, , , , 
2026-03-20 17:34:34.477,-1.2418749,4.6779685,7.704889,0.09911281,-1.4070506,0.42012227,-32.25,-7.7812505,-34.0875,0.19090791,0.12137613,0.63533086,999.7702, , , , 
2026-03-20 17:34:34.497,2.07697,4.599005,6.0921264,-0.08659008,-1.6458988,0.37491825,-32.34375,-7.425,-33.487503,0.20203072,0.10932939,0.6355197,999.7858, , , , 
2026-03-20 17:34:34.519,1.1102697,3.7710886,7.585248,-0.31505352,1.3400083,0.534354,-31.237501,-6.9375005,-32.550003,0.2032275,0.10345325,0.63794804,999.7858, , , , 
2026-03-20 17:34:34.538,0.2632105,3.5270207,9.312865,-0.40118545,1.9514838,0.7976367,-31.81875,-8.493751,-33.9375,0.18967572,0.113286845,0.6468163,999.7741, , , , 
2026-03-20 17:34:34.558,0.038285162,3.089134,10.872986,-0.27595815,0.5599339,0.77198035,-30.750002,-5.4,-33.600002,0.17917685,0.11889097,0.6550841,999.7741, , , , 
2026-03-20 17:34:34.577,1.4117653,3.7136607,10.547563,0.23900084,0.2948186,0.84345156,-30.712502,-6.0,-34.818752,0.17726552,0.11903322,0.6615579,999.75946, , , , 
2026-03-20 17:34:34.597,2.4622145,4.910072,8.051848,0.25305074,0.04741838,0.36819875,-29.400002,-5.25,-34.21875,0.17838575,0.121294394,0.66674227,999.75946, , , , 
2026-03-20 17:34:34.617,0.5479564,4.402794,7.1952176,-0.11041381,-0.15844305,0.18188499,-29.325,-4.2375,-35.53125,0.18063751,0.12120836,0.66836035,999.74164, , , , 
2026-03-20 17:34:34.637,1.3830515,4.0845485,9.02812,-0.3046688,0.030314164,0.18738277,-28.312502,-4.14375,-33.46875,0.18029337,0.11898091,0.6697219,999.74164, , , , 
2026-03-20 17:34:34.657,1.4404793,3.9673,9.406186,-0.22647811,0.06635518,0.056046844,-28.331251,-2.90625,-34.162502,0.17835256,0.11715593,0.67106026,999.7255, , , , 
2026-03-20 17:34:34.678,-0.033499517,3.9960139,9.796216,-0.15500695,-0.09735657,0.13729186,-28.593752,-4.18125,-33.75,0.17629842,0.11556884,0.6721773,999.7255, , , , 
2026-03-20 17:34:34.698,0.53359944,4.063013,8.506484,0.008704823,-0.28794637,0.1678351,-29.737501,-4.03125,-34.256252,0.1774004,0.1134935,0.6729641,999.7087, , , , 
2026-03-20 17:34:34.717,1.8305093,4.022335,8.973084,-0.019394957,-0.41500625,0.07315106,-29.400002,-4.5,-33.6375,0.18058142,0.10988128,0.6731658,999.7087, , , , 
2026-03-20 17:34:34.737,1.6319051,4.168297,9.262616,-0.029168794,-0.07353285,-0.0820086,-29.343752,-4.2375,-34.443752,0.18201493,0.10772415,0.6729565,999.7187, , , , 
2026-03-20 17:34:34.758,1.1820544,4.3932223,8.585447,0.07773254,-0.5946005,-0.21884231,-29.8875,-4.6875,-33.112503,0.18353736,0.10639106,0.6716212,999.7187, , , , 
2026-03-20 17:34:34.777,1.4596218,4.1180477,8.894122,0.09728022,-0.73326683,-0.27015495,-29.400002,-4.5,-33.35625,0.18836509,0.102808684,0.6686702,999.7026, , , , 
2026-03-20 17:34:34.798,1.6701902,3.8644085,9.286545,0.1375973,-0.5762746,-0.26526803,-30.806252,-4.1625004,-33.05625,0.19446391,0.09838576,0.66464543,999.7026, , , , 
2026-03-20 17:34:34.817,1.8735801,4.0941195,8.709874,0.10949751,-0.565279,-0.2310596,-29.38125,-3.525,-31.687502,0.19774187,0.09633437,0.6625032,999.69696, , , , 
2026-03-20 17:34:34.837,0.8207382,3.8524444,8.178668,-0.14645483,0.26549712,-0.20540328,-29.831251,-3.6750002,-33.3375,0.20066258,0.09428061,0.65933657,999.69696, , , , 
2026-03-20 17:34:34.857,1.3998013,4.0773697,9.2793665,-0.1660025,0.44325876,-0.11804962,-29.60625,-3.91875,-31.800001,0.19744375,0.09602639,0.6593178,999.6772, , , , 
2026-03-20 17:34:34.877,1.5146568,4.197011,8.956335,-0.06398808,-0.07108939,-0.18585561,-30.6,-4.51875,-32.5875,0.19460209,0.09735586,0.6587395,999.6772, , , , 
2026-03-20 17:34:34.897,1.119841,3.9314077,9.174082,0.10766492,-0.61842424,-0.25977024,-30.862501,-3.7875001,-33.84375,0.19663897,0.09526516,0.6563772,999.65106, , , , 
2026-03-20 17:34:34.917,0.5910272,3.7615173,8.822337,0.15103632,-0.77969253,-0.11866048,-29.737501,-2.4375,-32.175003,0.20297542,0.090692885,0.652641,999.65106,37.88749408,127.73735747,179.26171875,0.0
2026-03-20 17:34:34.937,1.3926228,4.1443686,8.094919,0.12660173,-0.8597158,-0.0074830935,-30.900002,-3.80625,-32.1375,0.20735931,0.08741823,0.6510202,999.6403, , , , 
2026-03-20 17:34:34.957,2.3401806,4.261617,6.778867,-0.012064579,-0.97516924,-0.10644319,-32.1375,-4.0687504,-31.06875,0.2139444,0.08160535,0.6488315,999.6403, , , , 
2026-03-20 17:34:34.978,1.7850457,3.749553,6.2811594,-0.5997165,-0.14744748,-0.053908817,-32.25,-3.9562502,-31.518751,0.21675958,0.07442011,0.6466161,999.61053, , , , 
2026-03-20 17:34:34.997,0.54317075,2.8570302,7.082755,-0.7976367,-0.046654798,0.10613775,-31.556252,-4.2375,-33.28125,0.21228305,0.06944193,0.64693993,999.61053, , , , 
2026-03-20 17:34:35.019,0.40438703,2.6201408,7.2526455,-0.6137664,-0.23541202,0.5673407,-32.2125,-2.325,-32.25,0.20752189,0.06357164,0.649292,999.58295, , , , 
2026-03-20 17:34:35.038,2.0602202,2.7948167,6.096912,-0.18799363,-1.0875684,0.7047852,-31.7625,-2.2687502,-31.987501,0.20769164,0.055986732,0.65330404,999.58295, , , , 
2026-03-20 17:34:35.057,1.5936198,2.306681,4.2664027,0.091782436,-2.2396593,0.69745487,-34.3875,-3.15,-34.125,0.21718532,0.04354208,0.655076,999.54706, , , , 
2026-03-20 17:34:35.077,1.0001999,0.8063812,2.4358935,0.11804962,-3.4962082,0.9466877,-37.706253,-1.8937501,-31.06875,0.23580433,0.023426894,0.6544966,999.54706, , , , 
2026-03-20 17:34:35.097,1.7659031,-0.2321038,0.6891329,0.066736974,-4.2817802,1.3956733,-38.9625,0.1875,-27.187502,0.26720095,-0.012532816,0.6524738,999.46893, , , , 
2026-03-20 17:34:35.118,4.773681,0.23688944,0.3924229,-0.3572032,-3.953135,1.59115,-42.825,0.01875,-25.706251,0.29318163,-0.04695075,0.6511422,999.46893, , , , 
2026-03-20 17:34:35.137,5.3718867,-0.32542387,0.7704889,-1.0071633,-2.724686,1.406058,-44.925003,1.5187501,-21.54375,0.30986902,-0.079125285,0.6510612,999.4067, , , , 
2026-03-20 17:34:35.158,4.132405,-2.7278178,0.9379865,-1.4103341,-4.0404887,1.4176644,-46.85625,2.9250002,-20.962502,0.32024086,-0.11114641,0.65013504,999.4067, , , , 
2026-03-20 17:34:35.177,3.2350962,-3.0197423,3.2327034,-1.3938407,-5.1565385,1.7860159,-47.98125,5.11875,-14.325001,0.33606824,-0.15404059,0.6446165,999.373, , , , 
2026-03-20 17:34:35.197,5.4125648,-3.6921253,2.9431717,-1.3064871,-4.8456087,2.3376267,-48.600002,6.6375003,-10.5,0.36030138,-0.2152194,0.6368774,999.373, , , , 
2026-03-20 17:34:35.218,8.1020975,-3.991228,2.4526432,-1.5758784,-3.664196,2.6833763,-47.925003,9.65625,-5.4750004,0.36912903,-0.24907243,0.63501644,999.361, , , , 
2026-03-20 17:34:35.237,8.906086,-4.2951164,4.6229334,-1.9643884,-2.3441172,2.8281512,-48.581253,12.543751,-1.10625,0.37102842,-0.3005321,0.63538015,999.361, , , , 
2026-03-20 17:34:35.257,10.813166,-4.7880383,6.855437,-2.2081234,-1.4430916,2.8764095,-47.081253,13.556251,0.075,0.35983023,-0.33529562,0.6396391,999.3764, , , , 
2026-03-20 17:34:35.278,8.894122,-5.103891,7.6331043,-1.8153374,-2.096717,2.77073,-44.7,16.893751,2.5687501,0.34763217,-0.3672351,0.6434333,999.3764, , , , 
2026-03-20 17:34:35.298,8.719446,-6.0418773,6.9990063,-1.2747221,-3.1009786,2.9912522,-43.893753,19.575,4.5,0.3434631,-0.40076888,0.64526665,999.4311, , , , 
2026-03-20 17:34:35.318,11.097912,-5.407779,4.1276193,-1.0645846,-2.4882812,3.0761623,-42.73125,20.53125,8.175,0.34270352,-0.433496,0.64742184,999.4311, , , , 
2026-03-20 17:34:35.338,13.813766,-5.1924253,2.268396,-1.5123485,-2.1168756,2.6430593,-41.362503,23.75625,9.69375,0.33842096,-0.46258426,0.6494079,999.44794, , , , 
2026-03-20 17:34:35.359,11.8899355,-6.003592,5.407779,-1.8721478,-2.068617,2.3419027,-38.68125,24.2625,12.637501,0.33046806,-0.4988309,0.64549243,999.44794, , , , 
2026-03-20 17:34:35.377,10.734202,-6.910472,7.9369926,-1.5294527,-2.0307436,2.5068364,-37.125,26.268751,14.681251,0.32470894,-0.51959825,0.6424447,999.4672, , , , 
2026-03-20 17:34:35.398,11.464013,-6.8171515,6.1399827,-0.7506001,-2.0563998,2.661385,-35.5875,27.656252,17.681252,0.31616247,-0.5491108,0.6417564,999.4672, , , , 
2026-03-20 17:34:35.418,12.124433,-6.695118,3.7447674,-0.5697841,-2.3160174,2.635118,-33.16875,29.5125,17.94375,0.31224692,-0.5695192,0.64292204,999.5334, , , , 
2026-03-20 17:34:35.440,12.323036,-6.975078,3.3954153,-0.48670653,-1.8963534,2.7255259,-29.812502,31.06875,20.41875,0.30979508,-0.58924705,0.6432811,999.5334, , , , 
2026-03-20 17:34:35.458,13.509876,-6.8889365,1.820938,-0.51724976,-1.8523711,2.4640758,-27.300001,31.837502,19.81875,0.30421987,-0.6060727,0.6448351,999.5485, , , , 
2026-03-20 17:34:35.477,9.860822,-7.5517483,1.134198,-1.0419827,-2.6831472,3.0059128,-24.562502,32.5875,22.575,0.29922238,-0.6227556,0.64403003,999.5485, , , , 
2026-03-20 17:34:35.498,14.514862,-7.0468626,2.2707887,-0.6571378,-1.31481,3.1158686,-21.69375,32.49375,25.050001,0.2917823,-0.64554685,0.64073086,999.5688, , , , 
2026-03-20 17:34:35.519,14.062618,-6.695118,2.3928227,-0.41523534,-0.89697856,1.966221,-20.56875,32.98125,24.900002,0.27788648,-0.66046035,0.64217,999.5688, , , , 
2026-03-20 17:34:35.538,11.899507,-6.3050876,-0.4642076,-0.53068876,-1.1633157,1.8965824,-18.45,32.68125,27.018751,0.27193424,-0.6704508,0.6413733,999.5898, , , , 
2026-03-20 17:34:35.558,11.801401,-5.9342003,-0.14596218,-0.45677415,0.29726207,1.6943861,-15.918751,34.537502,28.968752,0.26316103,-0.67981625,0.64042,999.5898, , , , 
2026-03-20 17:34:35.578,11.545369,-6.317052,0.8446664,-0.6052143,0.58803374,1.37918,-14.64375,34.2,27.000002,0.24947158,-0.68544924,0.641736,999.6042, , , , 
2026-03-20 17:34:35.598,9.796216,-6.678368,1.4787644,-0.6015491,0.9032399,1.2032509,-13.743751,34.29375,27.206251,0.23563714,-0.6901329,0.6422757,999.6042, , , , 
2026-03-20 17:34:35.617,9.848858,-6.087341,0.6364908,-0.4555524,0.5306124,1.1488839,-15.468751,33.09375,28.687502,0.22199866,-0.6939136,0.6431683,999.63226, , , , 
2026-03-20 17:34:35.637,8.642876,-6.084948,-0.02871387,-0.50014555,0.49579313,0.9845613,-12.712501,32.8875,28.10625,0.21093944,-0.6975055,0.64355886,999.63226, , , , 
2026-03-20 17:34:35.657,8.391629,-6.4845495,0.8805587,-0.47082403,0.4408153,0.92714,-13.087501,33.862503,27.16875,0.20085399,-0.7011846,0.6431887,999.6518, , , , 
2026-03-20 17:34:35.677,8.721839,-6.5371914,1.5529419,-0.21853687,0.4481457,0.8654427,-13.106251,33.09375,27.675001,0.19152038,-0.7038122,0.6436938,999.6518, , , , 
2026-03-20 17:34:35.698,9.064013,-6.250053,0.5455636,0.18524474,0.22518003,0.79336065,-12.20625,34.050003,29.38125,0.18181722,-0.7045607,0.6466098,999.6818, , , , 
2026-03-20 17:34:35.718,8.109276,-6.570691,-2.292324,-0.075594515,0.30153814,0.5062542,-12.093751,35.30625,29.1375,0.1767597,-0.7040921,0.64922124,999.6818, , , , 
2026-03-20 17:34:35.737,7.1473613,-7.1425757,-1.7324036,-0.47632182,0.55749047,0.6003274,-11.53125,33.131252,29.5125,0.1708996,-0.7056134,0.64911556,999.695, , , , 
2026-03-20 17:34:35.757,8.513663,-7.271788,0.21774685,-0.615599,0.6912699,0.58139056,-12.525001,32.53125,29.493752,0.16205096,-0.7087963,0.64743143,999.695, , , , 
2026-03-20 17:34:35.778,8.240881,-7.5493555,1.0001999,-0.41523534,0.9038508,0.20204352,-11.3625,33.2625,30.4125,0.153434,-0.7110178,0.6457053,999.7292, , , , 
2026-03-20 17:34:35.797,7.6307116,-7.0540414,-0.9834501,-0.31383178,0.8745293,0.08720095,-11.793751,33.225002,29.062502,0.14409396,-0.71113026,0.64488876,999.7292, , , , 
2026-03-20 17:34:35.817,6.664011,-7.405786,-1.2155539,-0.4366156,0.65217453,-0.12965605,-12.468751,33.300003,26.812502,0.14012142,-0.7113684,0.6436424,999.7734, , , , 
2026-03-20 17:34:35.839,5.3742795,-8.01117,-0.30867413,-0.4225657,0.2862665,-0.1357647,-13.200001,33.45,29.04375,0.13635914,-0.71317405,0.63999784,999.7734, , , , 
2026-03-20 17:34:35.857,5.558527,-8.568698,0.26081768,-0.2771799,0.2514472,-0.10155627,-12.20625,33.300003,29.268751,0.13491797,-0.7146063,0.637523,999.77875, , , , 
2026-03-20 17:34:35.877,5.3407803,-8.563912,-0.25842485,-0.06459895,0.55810136,-0.066736974,-14.400001,32.0625,31.10625,0.13275705,-0.71460825,0.6366333,999.77875, , , , 
2026-03-20 17:34:35.898,5.0249276,-8.5423765,-1.0576276,-0.049327333,0.44386962,-0.024587307,-12.900001,33.487503,28.237501,0.12954855,-0.71345407,0.63687545,999.73846, , , , 
2026-03-20 17:34:35.917,5.608776,-8.554341,-0.5694918,-0.039553493,0.19158247,-0.04046979,-13.312501,32.193752,28.81875,0.12712862,-0.7128951,0.6367837,999.73846,37.88749408,127.73735747,179.26171875,0.0
2026-03-20 17:34:35.937,5.515456,-8.422736,-0.12203395,0.07284562,0.20563236,-0.043524116,-12.50625,32.53125,28.725,0.12648085,-0.7124092,0.63698167,999.6545, , , , 
2026-03-20 17:34:35.958,4.395615,-7.826923,-0.38763726,0.43692103,-0.025885396,-0.15347977,-13.837501,31.7625,29.212502,0.1274212,-0.71010625,0.6386692,999.6545, , , , 
2026-03-20 17:34:35.977,5.0177493,-7.676175,-1.3256238,0.5041162,-0.28794637,-0.11499529,-15.075001,33.525,27.243752,0.12943096,-0.708076,0.64069754,999.60077, , , , 
2026-03-20 17:34:35.997,5.6877394,-7.30768,-1.9621146,0.35445428,-0.37224573,-0.091782436,-14.118751,33.24375,28.5375,0.13438806,-0.70563835,0.643588,999.60077, , , , 
2026-03-20 17:34:36.018,5.601598,-6.927222,-2.2947168,0.084452055,-0.32643086,-0.19746204,-13.275001,33.7125,27.337502,0.13852519,-0.7051383,0.6440546,999.56146, , , , 
2026-03-20 17:34:36.038,3.8763726,-7.092326,-2.1774685,-0.38713557,-0.045433067,0.04382955,-15.150001,34.631252,28.25625,0.14085639,-0.70652324,0.64230764,999.56146, , , , 
2026-03-20 17:34:36.058,5.56092,-6.704689,0.148355,-0.5887209,0.026038112,0.29733843,-13.481251,32.0625,28.706251,0.13867013,-0.7099217,0.63920397,999.5312, , , , 
2026-03-20 17:34:36.077,7.274181,-5.864808,2.766103,-0.36514443,-0.030161448,0.2490801,-13.05,34.10625,27.91875,0.13489752,-0.713794,0.6360465,999.5312, , , , 
2026-03-20 17:34:36.098,9.032906,-5.151747,1.4691931,0.14187334,-0.407065,0.007788526,-14.26875,33.3375,29.79375,0.135835,-0.7141919,0.6360618,999.5297, , , , 
2026-03-20 17:34:36.117,10.600204,-4.867001,0.35174492,0.12965605,-0.50907946,-0.37583455,-13.012501,31.612501,29.60625,0.14107342,-0.71379244,0.6359953,999.5297, , , , 
2026-03-20 17:34:36.137,10.564312,-4.4674,1.0887343,0.087506376,-0.28550294,-0.8333723,-13.200001,33.45,29.04375,0.14911163,-0.71301615,0.6342837,999.54, , , , 
2026-03-20 17:34:36.158,9.966106,-5.4412785,1.3519448,0.025198173,-0.53290313,-0.6562215,-13.33125,32.925003,30.16875,0.15772668,-0.7117789,0.6321694,999.54, , , , 
2026-03-20 17:34:36.179,12.725031,-5.13739,3.7734814,0.07651082,-0.43577567,-0.36178467,-13.837501,31.781252,28.44375,0.16525784,-0.71146256,0.6301996,999.5583, , , , 
2026-03-20 17:34:36.199,18.156738,-5.302495,5.881558,0.74724036,-0.52312934,-0.7826705,-15.093751,31.3875,29.531252,0.17513335,-0.7082063,0.63071555,999.5583, , , , 
2026-03-20 17:34:36.218,17.721245,-5.0512486,4.1108694,1.2450951,-0.7491493,-1.5083779,-14.64375,32.8125,28.1625,0.18617901,-0.7023942,0.6330293,999.62836, , , , 
2026-03-20 17:34:36.238,15.771094,-5.3742795,1.4620147,1.1797326,-0.98005617,-2.0263913,-13.762501,34.275,28.29375,0.21348831,-0.68994063,0.6357767,999.62836, , , , 
2026-03-20 17:34:36.257,15.771094,-5.352744,1.6295122,0.77350754,-0.4803688,-2.2237005,-16.612501,33.112503,27.2625,0.23626171,-0.6804835,0.63481426,999.65546, , , , 
2026-03-20 17:34:36.279,16.694723,-5.2737813,2.5292134,0.92255855,-0.47059494,-2.6067128,-14.625001,33.581253,27.187502,0.2577821,-0.67041695,0.6322931,999.65546, , , , 
2026-03-20 17:34:36.297,16.13959,-5.8839507,1.3471591,0.9121738,-0.2323577,-2.9237516,-19.425001,32.850002,25.406252,0.275368,-0.6611587,0.6301392,999.6972, , , , 
2026-03-20 17:34:36.318,15.725631,-6.769295,1.4261223,0.81993324,-0.33864817,-3.4399323,-20.081251,32.53125,25.500002,0.3053361,-0.6437638,0.6244495,999.6972, , , , 
2026-03-20 17:34:36.337,14.9096775,-7.3172517,1.7180467,0.78877914,-0.7106648,-3.843714,-23.60625,30.91875,25.031252,0.33295202,-0.6289039,0.6165382,999.7265, , , , 
2026-03-20 17:34:36.358,12.935599,-8.116454,1.1174482,0.87735456,-0.7412081,-3.9689412,-24.6,31.087502,24.056252,0.36380786,-0.6130337,0.6060681,999.7265, , , , 
2026-03-20 17:34:36.377,12.567104,-8.075776,0.2416751,0.7973313,-0.2323577,-3.8773115,-26.550001,30.243752,25.687502,0.39271337,-0.5956433,0.59559935,999.75995, , , , 
2026-03-20 17:34:36.398,12.399607,-7.877172,-1.5218352,0.44730574,0.65217453,-3.811949,-29.962502,26.925001,23.60625,0.41601247,-0.5765972,0.58614784,999.75995, , , , 
2026-03-20 17:34:36.418,10.2723875,-8.252846,-0.99302137,-0.007177661,1.5550326,-3.7245953,-32.49375,24.431252,22.48125,0.4361249,-0.5510259,0.5746466,999.77094, , , , 
2026-03-20 17:34:36.437,8.781659,-8.1020975,0.66041905,0.14370593,1.5061635,-3.5187337,-35.8125,21.84375,23.4375,0.44585463,-0.529461,0.5667764,999.77094, , , , 
2026-03-20 17:34:36.458,7.2358956,-7.752745,0.6891329,0.45707956,0.966159,-3.328144,-38.98125,19.1625,22.837502,0.45671013,-0.5080571,0.55905974,999.7758, , , , 
2026-03-20 17:34:36.478,4.792824,-6.9966135,-0.73459655,0.6183479,0.6961568,-3.0312638,-39.80625,17.85,20.681252,0.4696422,-0.48746073,0.5512089,999.7758, , , , 
2026-03-20 17:34:36.497,3.2590244,-6.3864436,-1.0313065,0.55298537,0.5648208,-2.537074,-42.487503,15.468751,21.2625,0.48168474,-0.4688533,0.5438133,999.76385, , , , 
2026-03-20 17:34:36.517,3.4863427,-6.1208405,-1.1533405,0.46074477,0.23128867,-2.1290164,-41.550003,14.212501,19.5375,0.4919426,-0.4534869,0.53714526,999.76385, , , , 
2026-03-20 17:34:36.537,3.4408789,-5.575277,-0.74895346,0.45158178,-0.063759014,-1.7924299,-43.912502,13.575001,21.50625,0.5017722,-0.44187093,0.53014934,999.71063, , , , 
2026-03-20 17:34:36.557,2.1248264,-5.3240304,-1.5529419,0.36056295,0.03092503,-1.4650065,-41.15625,13.25625,19.3875,0.5109051,-0.43254715,0.5236882,999.71063, , , , 
2026-03-20 17:34:36.577,-0.3062813,-5.2570314,-2.1343977,0.2102902,0.109726585,-0.87491107,-43.3875,11.53125,18.806252,0.51834995,-0.42352507,0.51831776,999.6469, , , , 
2026-03-20 17:34:36.597,-2.589034,-5.532206,-1.457229,0.06368265,-0.08086322,0.102472566,-45.225002,9.731251,18.9375,0.5209949,-0.42085752,0.51655346,999.6469, , , , 
2026-03-20 17:34:36.617,-0.52163535,-6.3720865,-2.507678,0.10949751,-0.45471248,0.7884737,-43.350002,10.293751,18.5625,0.5205774,-0.42332083,0.51800406,999.59515, , , , 
2026-03-20 17:34:36.637,0.8925229,-6.4175506,-3.101098,-0.1244637,-0.63736105,1.4775292,-42.300003,11.15625,18.54375,0.5188717,-0.4320559,0.52119845,999.59515, , , , 
2026-03-20 17:34:36.659,2.4837499,-6.8243303,-2.8809586,-0.46532625,-0.6294198,2.0187554,-42.9375,12.431251,20.25,0.51199937,-0.45000383,0.5268375,999.5656, , , , 
2026-03-20 17:34:36.677,3.8285162,-7.092326,-1.5696917,-0.6528617,-0.4901426,2.291812,-42.43125,13.481251,20.2875,0.5020187,-0.4675524,0.53259933,999.5656, , , , 
2026-03-20 17:34:36.698,3.562913,-7.405786,-0.4977071,-0.6485857,-0.4076759,2.5996878,-41.081253,15.225,21.75,0.4891238,-0.48582795,0.5396512,999.55365, , , , 
2026-03-20 17:34:36.717,3.7998023,-8.334201,-0.10767702,-0.6052143,-0.42783442,2.946659,-39.54375,17.00625,21.018751,0.4744316,-0.50491285,0.548121,999.55365, , , , 
2026-03-20 17:34:36.737,4.0558343,-9.109476,2.199004,-0.34070984,-0.34903285,3.2954628,-38.30625,18.243752,23.75625,0.45758387,-0.52422756,0.55874646,999.5429, , , , 
2026-03-20 17:34:36.758,5.8887367,-10.463814,0.81834537,0.06429352,-0.32337654,3.6186101,-36.487503,22.1625,23.34375,0.4394848,-0.5420179,0.57276,999.5429, , , , 
2026-03-20 17:34:36.777,6.7405815,-11.152946,-1.5002998,0.052687086,-0.4736493,3.7468917,-33.693752,23.7,23.1,0.42119643,-0.5591506,0.587466,999.58466, , , , 
2026-03-20 17:34:36.797,6.7334027,-12.409178,-2.0147567,-0.344375,-0.6269763,3.9906268,-31.331251,25.800001,22.125,0.39705217,-0.58269626,0.6028695,999.58466, , , , 
2026-03-20 17:34:36.817,7.1282187,-13.497912,0.038285162,-0.52824533,-0.56955504,4.324159,-28.518751,28.087502,21.69375,0.38028023,-0.59859335,0.6104704,999.6132, , , , 
2026-03-20 17:34:36.837,8.496913,-13.971691,1.442872,-0.4317287,-0.23113596,4.812851,-27.075,29.60625,22.6875,0.34645748,-0.62477386,0.6240914,999.6132, , , , 
2026-03-20 17:34:36.857,10.425529,-13.323236,0.014356935,-0.34620762,-0.02649626,4.949074,-23.71875,31.800001,23.925001,0.31517118,-0.64330226,0.63633126,999.6601, , , , 
2026-03-20 17:34:36.877,11.497513,-12.8518505,-1.0360922,-0.54534954,0.21113014,4.876381,-22.518751,32.04375,25.0125,0.29046434,-0.6559972,0.6445622,999.6601, , , , 
2026-03-20 17:34:36.898,11.688938,-12.988241,-0.3589234,-0.85566884,0.496404,4.7426014,-16.95,34.85625,24.2625,0.24726297,-0.6760744,0.6545194,999.67914, , , , 
2026-03-20 17:34:36.918,11.925828,-12.753745,0.16749759,-1.0322088,0.8091667,4.667465,-14.175,34.143753,24.937502,0.21073586,-0.6909106,0.6597381,999.67914,37.88749408,127.73735747,179.26171875,0.0
2026-03-20 17:34:36.937,12.629318,-12.167503,0.6939186,-1.1824815,1.1549162,4.5251336,-9.375,36.112503,24.956251,0.17204396,-0.7042728,0.6629924,999.6906, , , , 
2026-03-20 17:34:36.959,13.557734,-11.162518,1.0432707,-1.3217586,1.2795327,4.0633197,-7.3875003,35.943752,26.2875,0.12330802,-0.71878237,0.66377866,999.6906, , , , 
2026-03-20 17:34:36.979,13.354343,-10.365707,1.3519448,-1.3553562,1.110934,3.5410304,-6.20625,33.825,26.60625,0.087951705,-0.72882414,0.6615559,999.70966, , , , 
2026-03-20 17:34:36.999,13.067204,-9.379865,1.5577276,-1.3315325,0.81771886,3.0132432,-1.9312501,34.85625,29.025002,0.057632912,-0.7377478,0.65751565,999.70966, , , , 
2026-03-20 17:34:37.018,12.540784,-8.647661,1.9501505,-1.2832742,0.7688497,2.633896,-2.1375,34.59375,29.212502,0.03190683,-0.74573284,0.6523286,999.72284, , , , 
2026-03-20 17:34:37.038,12.937992,-7.7312098,2.3976083,-1.1684316,0.84581864,2.2795947,-1.4625001,33.018753,31.406252,0.008734647,-0.7525234,0.64675736,999.72284, , , , 
2026-03-20 17:34:37.059,12.650853,-6.771688,2.7110682,-0.90575975,0.8366557,1.916741,0.75,31.63125,31.087502,-0.011804365,-0.7576974,0.64156413,999.74066, , , , 
2026-03-20 17:34:37.078,12.473784,-6.2117677,2.2588246,-0.51541716,0.6417898,1.6846124,2.11875,31.1625,30.50625,-0.033310827,-0.7611912,0.63741046,999.74066, , , , 
2026-03-20 17:34:37.097,13.53859,-5.584848,1.835295,-0.22464553,0.35834855,1.4311035,2.2125,31.0125,32.98125,-0.043646295,-0.7618249,0.636507,999.7585, , , , 
2026-03-20 17:34:37.117,14.261223,-5.0129633,0.8662018,0.024587307,-0.075976305,0.92347485,2.0062501,30.112501,34.443752,-0.054061573,-0.7613342,0.6370844,999.7585, , , , 
2026-03-20 17:34:37.137,14.727823,-5.771488,-0.011964113,0.050854493,-0.36980227,0.47082403,3.24375,31.125002,33.487503,-0.05554629,-0.7607783,0.6381424,999.75287, , , , 
2026-03-20 17:34:37.158,15.189638,-6.9559355,-0.21296121,-0.098196514,-0.5127446,-0.16386448,4.51875,30.993752,34.125,-0.05165456,-0.7611405,0.638339,999.75287, , , , 
2026-03-20 17:34:37.177,15.428921,-7.7096744,0.55513483,-0.21181737,-0.40645415,-0.52855074,3.1875002,30.13125,33.075,-0.04635307,-0.76216024,0.63743156,999.7558, , , , 
2026-03-20 17:34:37.199,15.917056,-8.755338,2.3832514,-0.12751803,-0.1107956,-1.1314743,2.5125,29.681252,33.3375,-0.034522343,-0.76416504,0.634713,999.7558, , , , 
2026-03-20 17:34:37.218,15.684953,-8.839087,2.7732813,0.19013166,0.22823435,-1.7411174,2.1750002,30.768751,31.9125,-0.022649545,-0.76413685,0.6333154,999.76996, , , , 
2026-03-20 17:34:37.238,14.222938,-8.642876,2.524428,0.4149299,0.33696827,-2.3214388,0.01875,29.550001,32.362503,-0.0039567933,-0.7611317,0.633048,999.76996, , , , 
2026-03-20 17:34:37.257,12.416357,-9.533006,2.4263222,0.617737,0.25816673,-2.759429,-1.95,31.35,31.3875,0.0153682735,-0.7566724,0.6334052,999.7902, , , , 
2026-03-20 17:34:37.277,10.782059,-11.109876,2.2731814,0.8962914,-0.14683662,-3.1137304,-3.8625002,32.025,30.768751,0.038889408,-0.75042325,0.63433194,999.7902, , , , 
2026-03-20 17:34:37.299,10.19821,-12.134004,1.9932213,1.0850486,-0.646524,-3.2194102,-2.775,31.650002,31.312502,0.059487276,-0.7447387,0.6354385,999.81683, , , , 
2026-03-20 17:34:37.317,11.880364,-13.016955,2.0051854,1.2609776,-1.2915972,-3.4515388,-7.89375,32.1375,28.25625,0.099254824,-0.7340914,0.6372658,999.81683, , , , 
2026-03-20 17:34:37.337,13.856836,-13.667803,1.6486548,1.2957969,-1.640401,-3.9304566,-7.9125004,32.643753,26.681252,0.13655645,-0.7244142,0.6374395,999.83075, , , , 
2026-03-20 17:34:37.358,14.376079,-14.117654,0.9236295,1.2053889,-1.7185917,-4.453968,-10.3125,32.4,26.962502,0.1788906,-0.713379,0.6348237,999.83075, , , , 
2026-03-20 17:34:37.377,13.861622,-14.806787,0.27756742,0.90545434,-1.5463278,-5.0104656,-9.39375,29.531252,25.0125,0.22408588,-0.7009764,0.6281178,999.83514, , , , 
2026-03-20 17:34:37.397,11.863615,-15.730416,1.3734802,0.7289144,-1.2946515,-5.2364855,-15.0375,31.425001,25.800001,0.26898974,-0.68723184,0.61748403,999.83514, , , , 
2026-03-20 17:34:37.417,11.514262,-15.754344,1.7419748,0.8333723,-1.0423644,-5.2407618,-15.225,29.906252,27.618752,0.31198284,-0.67120653,0.60547876,999.83075, , , , 
2026-03-20 17:34:37.437,11.253445,-14.74218,-0.62452674,0.8590286,-0.28489205,-5.1430235,-17.587502,28.706251,23.1375,0.36109242,-0.6466188,0.5913079,999.83075, , , , 
2026-03-20 17:34:37.464,10.253245,-14.529219,-2.5555346,0.46990773,0.63629204,-5.026348,-19.725,26.98125,24.54375,0.38550708,-0.6298815,0.5832875,999.83636, , , , 
2026-03-20 17:34:37.477,8.896515,-14.275579,-1.4620147,0.07284562,1.2135593,-4.8320932,-23.75625,24.225,22.03125,0.4157271,-0.60096294,0.56953925,999.83636, , , , 
2026-03-20 17:34:37.497,7.1617184,-13.579268,-0.6771688,0.07040217,1.0535127,-4.5950775,-27.393751,23.71875,23.38125,0.43532267,-0.57761824,0.55777067,999.81464, , , , 
2026-03-20 17:34:37.517,6.2691956,-12.610175,-0.16510476,0.18646647,0.8268818,-4.362338,-28.237501,22.275002,22.1625,0.45386788,-0.5549074,0.54539084,999.81464, , , , 
2026-03-20 17:34:37.537,4.8909297,-11.607583,-0.15074782,0.3349066,0.46586075,-4.1167703,-31.3875,18.975,20.8125,0.47230977,-0.53272474,0.5327183,999.8132, , , , 
2026-03-20 17:34:37.558,2.9431717,-10.695917,-0.5240282,0.45463613,0.08590286,-3.8058403,-32.5125,16.125,19.087502,0.4913017,-0.5117189,0.5193467,999.8132, , , , 
2026-03-20 17:34:37.577,1.5337993,-9.815358,-0.53359944,0.47784898,-0.14561489,-3.3483026,-34.331253,13.70625,19.725,0.51470417,-0.48857105,0.50217336,999.81024, , , , 
2026-03-20 17:34:37.597,0.5024927,-9.29133,-0.7537391,0.491288,-0.11262819,-2.9048147,-32.850002,12.13125,16.725,0.531308,-0.47236025,0.48975646,999.81024, , , , 
2026-03-20 17:34:37.617,-0.42831525,-9.097511,-1.4596218,0.42470375,0.24961463,-2.2591307,-33.16875,11.34375,18.50625,0.5441316,-0.45771977,0.48049432,999.8066, , , , 
2026-03-20 17:34:37.637,-1.4285151,-8.877372,-2.105684,0.34590217,0.41027206,-1.5993967,-35.193752,8.64375,18.88125,0.5523352,-0.4450172,0.47520968,999.8066, , , , 
2026-03-20 17:34:37.658,-1.550549,-8.482556,-3.0580273,0.15164718,0.24961463,-0.9353867,-37.36875,6.5625005,18.6,0.55724216,-0.43616885,0.4724605,999.8066, , , , 
2026-03-20 17:34:37.677,-2.0865414,-8.690732,-3.1058838,-0.09758565,0.13660464,-0.35873035,-37.893753,6.8812504,18.956251,0.55944335,-0.43208846,0.47076523,999.8066, , , , 
2026-03-20 17:34:37.697,-2.605784,-9.274581,-2.0554347,-0.19776747,-0.058872093,0.4714349,-38.025,6.3562503,20.081251,0.5583974,-0.43294466,0.47076392,999.79486, , , , 
2026-03-20 17:34:37.717,-1.4955142,-9.432507,-2.103291,-0.22525638,-0.2531271,1.2808307,-36.5625,7.74375,19.5375,0.55316484,-0.44156954,0.47470525,999.79486, , , , 
2026-03-20 17:34:37.737,-0.20578274,-9.434899,-2.4047868,-0.37980518,-0.20914483,1.9894339,-36.75,8.981251,19.800001,0.545296,-0.4541236,0.48115113,999.7934, , , , 
2026-03-20 17:34:37.757,0.9451649,-9.542577,-1.9525433,-0.570395,-0.060093824,2.5697553,-36.768753,8.7375,18.2625,0.5362909,-0.4661036,0.4879086,999.7934, , , , 
2026-03-20 17:34:37.777,2.8666015,-10.042677,-0.7585248,-0.66263556,0.056581352,3.263087,-33.75,12.150001,18.825,0.5150431,-0.4896553,0.5027509,999.8029, , , , 
2026-03-20 17:34:37.797,4.1467614,-11.124232,-0.5455636,-0.61620986,0.09445497,3.6668684,-33.112503,13.950001,19.743752,0.49405402,-0.5104092,0.5171309,999.8029, , , , 
2026-03-20 17:34:37.817,4.962714,-12.327823,-0.16271193,-0.5404626,-0.04848739,4.053546,-32.737503,16.48125,19.706251,0.47056377,-0.5321415,0.5329034,999.81366, , , , 
2026-03-20 17:34:37.837,5.9916277,-13.641482,0.44985065,-0.35292712,-0.3105484,4.535518,-31.406252,18.73125,19.7625,0.4391588,-0.56106776,0.553407,999.81366, , , , 
2026-03-20 17:34:37.857,7.989635,-14.545969,0.14596218,-0.20021093,-0.26656613,4.8837113,-30.375002,19.575,20.831251,0.41888806,-0.5785509,0.56661576,999.8188, , , , 
2026-03-20 17:34:37.877,10.262816,-14.708681,-0.3684947,-0.15195261,-0.3502546,5.049866,-24.656252,24.656252,19.48125,0.38252336,-0.60635626,0.5890148,999.8188, , , , 
2026-03-20 17:34:37.901,11.351551,-14.184652,0.4019942,-0.09575305,-0.6398045,4.9936666,-21.581251,25.218752,18.65625,0.3534639,-0.627313,0.60471475,999.8193, , , , 
2026-03-20 17:34:37.919,11.564512,-13.6606245,0.0047856453,-0.010231985,-0.5805506,4.9319696,-16.5375,29.212502,18.375,0.32569364,-0.64624286,0.6184177,999.8193,37.88749847,127.73737093,179.6619873046875,0.52
2026-03-20 17:34:37.938,11.210374,-13.502698,-0.44027936,-0.19776747,0.005268709,4.942354,-15.4125,29.94375,21.150002,0.29644006,-0.66271675,0.630915,999.81757, , , , 
2026-03-20 17:34:37.957,10.741381,-13.753944,-0.18185452,-0.45860672,0.70104367,5.0541425,-11.325001,30.375002,18.525002,0.26162192,-0.67733395,0.6423711,999.81757, , , , 
2026-03-20 17:34:37.977,11.124232,-13.763515,0.15553348,-0.74326974,1.1946224,5.2080803,-7.93125,31.10625,17.212502,0.22046019,-0.69063973,0.6524335,999.82196, , , , 
2026-03-20 17:34:37.997,13.237095,-13.043276,0.32063824,-1.0413717,1.241659,5.0284863,-4.4625,32.4375,18.768751,0.17629685,-0.7031056,0.6597387,999.82196, , , , 
2026-03-20 17:34:38.017,14.380864,-12.689138,1.0241281,-1.1250602,0.9704351,4.576446,-2.8875,31.725,20.8125,0.12379819,-0.717413,0.66349506,999.82587, , , , 
2026-03-20 17:34:38.037,13.450056,-11.502298,1.538585,-1.0034981,0.5153408,4.0339985,1.0125,32.98125,22.5,0.08802721,-0.72697383,0.6635936,999.82587, , , , 
2026-03-20 17:34:38.057,12.949956,-9.994821,1.1557333,-0.95401806,0.2636645,3.6186101,2.68125,31.893751,22.837502,0.057939082,-0.7348039,0.6624893,999.8283, , , , 
2026-03-20 17:34:38.077,12.918849,-9.250652,0.997807,-1.0786345,0.3748419,3.221548,6.05625,31.0125,21.300001,0.03173027,-0.741793,0.65983385,999.8283, , , , 
2026-03-20 17:34:38.097,13.931013,-9.040084,1.4069797,-1.161712,0.65156364,2.8043275,5.925,29.962502,25.5375,0.0071469257,-0.748541,0.6552138,999.8173, , , , 
2026-03-20 17:34:38.117,14.036298,-9.262616,1.5984055,-1.0254892,0.9093486,2.4506369,6.0375004,28.48125,26.38125,-0.016043153,-0.7544064,0.64964193,999.8173, , , , 
2026-03-20 17:34:38.137,14.591433,-8.7984085,1.3447664,-0.7353285,0.920955,2.305251,8.38125,29.212502,26.56875,-0.04350329,-0.75904906,0.6439217,999.81024, , , , 
2026-03-20 17:34:38.157,16.977077,-7.3770723,0.89730847,-0.48426306,0.5183951,1.9136866,9.01875,28.781252,27.150002,-0.061947737,-0.7608556,0.64092803,999.81024, , , , 
2026-03-20 17:34:38.177,18.841085,-5.9294147,1.2155539,-0.28023422,0.037644543,1.2906046,9.50625,26.737501,25.500002,-0.073632024,-0.761872,0.6390683,999.8068, , , , 
2026-03-20 17:34:38.197,19.702501,-5.649454,1.9764715,0.045967575,-0.43211046,0.39080074,11.2875,26.156252,26.587502,-0.076774865,-0.7622257,0.6386527,999.8068, , , , 
2026-03-20 17:34:38.217,19.52304,-5.879165,1.8592232,0.4375319,-0.7271582,-0.42409286,10.293751,27.806252,26.2875,-0.071267575,-0.7612602,0.64051074,999.8149, , , , 
2026-03-20 17:34:38.237,18.778872,-6.068198,1.079163,0.6543889,-0.89942205,-1.0972658,10.368751,27.431252,26.456251,-0.058038116,-0.7587573,0.6445162,999.8149, , , , 
2026-03-20 17:34:38.257,17.59921,-6.45105,0.1052842,0.66171926,-0.94706947,-2.0422738,11.587501,28.312502,25.66875,-0.038102306,-0.75568414,0.64885163,999.83, , , , 
2026-03-20 17:34:38.277,15.768702,-8.408379,0.009571291,0.43325585,-0.8401681,-2.8034112,9.1875,29.437502,24.91875,-0.012461777,-0.75314295,0.65132445,999.83, , , , 
2026-03-20 17:34:38.301,14.2133665,-11.253445,2.4598217,0.33735007,-0.94462603,-3.3660176,9.69375,29.00625,24.281252,0.024991324,-0.7506396,0.65081626,999.8315, , , , 
2026-03-20 17:34:38.317,14.46222,-12.859029,4.098905,0.5988002,-1.1651483,-3.7667449,8.71875,30.656252,23.212502,0.05053444,-0.7479464,0.6501744,999.8315, , , , 
2026-03-20 17:34:38.337,14.493327,-14.699109,3.0867412,1.0233512,-1.2378411,-4.4973392,4.8562503,30.487501,25.1625,0.099213116,-0.738743,0.6503903,999.84955, , , , 
2026-03-20 17:34:38.358,13.265809,-15.749558,0.9762716,1.0025818,-1.1517092,-4.8724103,5.08125,30.768751,23.737501,0.14231949,-0.7276865,0.6498,999.84955, , , , 
2026-03-20 17:34:38.377,12.131611,-16.74258,-0.1052842,0.7692315,-1.0179298,-5.0306244,2.2875001,32.850002,23.75625,0.17503895,-0.7186145,0.64729404,999.8798, , , , 
2026-03-20 17:34:38.397,10.482956,-17.185253,1.3160524,0.57925254,-1.1156682,-5.1332493,-3.80625,32.98125,21.45,0.22772087,-0.70302016,0.6388698,999.8798, , , , 
2026-03-20 17:34:38.417,9.623933,-16.716259,1.0671989,0.5676461,-1.0875684,-4.946325,-6.5437503,33.956253,21.375,0.27988046,-0.6858432,0.62723285,999.87665, , , , 
2026-03-20 17:34:38.437,9.963714,-15.558133,-0.09571291,0.3581195,-0.41317368,-4.8577495,-11.418751,32.4375,22.893751,0.3172187,-0.6706932,0.6169924,999.87665, , , , 
2026-03-20 17:34:38.457,9.303294,-14.452649,-1.1006985,0.12232567,0.38461575,-4.807048,-12.637501,31.44375,22.78125,0.34106565,-0.65830773,0.60894644,999.8732, , , , 
2026-03-20 17:34:38.477,7.9369926,-14.08894,-2.0291135,-0.25763223,1.0858885,-4.565756,-18.54375,29.85,23.643751,0.37146938,-0.6361268,0.5954548,999.8732, , , , 
2026-03-20 17:34:38.497,8.597412,-13.883157,-0.014356935,-0.29122978,0.7444151,-4.516276,-19.2,30.7875,22.10625,0.390783,-0.6187309,0.5833824,999.8591, , , , 
2026-03-20 17:34:38.517,7.283752,-13.674981,1.3495519,0.11133011,-0.38751733,-4.715418,-23.400002,27.375002,21.35625,0.41417238,-0.601176,0.5686135,999.8591, , , , 
2026-03-20 17:34:38.537,5.0919266,-13.332808,1.0767702,0.4094321,-1.1914154,-4.630508,-25.29375,23.925001,23.1375,0.44402733,-0.5837905,0.55074525,999.8493, , , , 
2026-03-20 17:34:38.557,3.8117664,-12.96192,0.14596218,0.4723512,-1.0160972,-4.309804,-24.956251,21.112501,21.73125,0.48310822,-0.56265914,0.5271024,999.8493, , , , 
2026-03-20 17:34:38.577,2.359323,-12.260823,-1.308874,0.3006982,-0.052763447,-3.8333292,-28.725,19.44375,25.462502,0.507949,-0.54458547,0.511446,999.85345, , , , 
2026-03-20 17:34:38.597,1.3974084,-12.08854,-2.8713872,0.012370012,0.63445944,-3.3452482,-29.718752,19.368752,23.1,0.52472186,-0.52584505,0.49987423,999.85345, , , , 
2026-03-20 17:34:38.617,0.3684947,-12.2991085,-2.495714,-0.41279188,0.84948385,-2.8034112,-32.5125,16.462502,23.7,0.534294,-0.50899404,0.49063417,999.84247, , , , 
2026-03-20 17:34:38.637,-0.11246266,-12.038291,-0.3493521,-0.32421649,0.3174206,-2.3489277,-33.2625,12.900001,24.768751,0.5407917,-0.49611565,0.48151115,999.84247, , , , 
2026-03-20 17:34:38.657,-3.1896327,-11.911471,0.12921242,-0.032833982,-0.011835505,-1.941481,-34.518753,12.39375,24.768751,0.5481574,-0.48604524,0.47260267,999.8295, , , , 
2026-03-20 17:34:38.677,-5.6757755,-12.6676035,-1.3232309,0.24266604,-0.24579671,-0.8975131,-36.16875,11.475,24.69375,0.5553165,-0.47920573,0.46649796,999.8295, , , , 
2026-03-20 17:34:38.697,-5.4293146,-12.203396,-2.940779,0.18402301,-0.38263044,0.24358234,-37.331253,10.125,24.73125,0.5593475,-0.47835544,0.46482337,999.8371, , , , 
2026-03-20 17:34:38.717,-2.6991038,-11.353944,-3.359523,-0.17272201,-0.17066035,1.243568,-36.862503,9.65625,25.95,0.55632436,-0.48707065,0.46844596,999.8371, , , , 
2026-03-20 17:34:38.737,-0.6053841,-10.999805,-2.309074,-0.5722276,0.39500043,1.9161301,-35.04375,11.118751,22.275002,0.5451999,-0.49878612,0.47594318,999.8244, , , , 
2026-03-20 17:34:38.757,-0.14117654,-11.49512,0.04546363,-0.67485285,0.7755692,2.639394,-36.300003,12.337501,25.425001,0.5269271,-0.5122989,0.48766917,999.8244, , , , 
2026-03-20 17:34:38.777,1.6247265,-12.562319,0.25124636,-0.36453354,0.67050046,3.402364,-34.893753,14.212501,25.1625,0.5044753,-0.5275945,0.5035499,999.8178, , , , 
2026-03-20 17:34:38.797,4.2687955,-13.330415,-1.1006985,-0.19104797,0.3418552,3.9313731,-35.006252,16.575,25.2,0.4801407,-0.54493654,0.52219915,999.8178, , , , 
2026-03-20 17:34:38.817,6.6855464,-13.66541,-1.1796615,-0.19410229,-0.09796744,4.2044296,-34.706253,18.09375,25.087502,0.4551356,-0.5647896,0.54051197,999.83246, , , , 
2026-03-20 17:34:38.837,8.812766,-13.768302,-1.134198,-0.1800524,-0.28183773,4.2820096,-31.06875,21.46875,24.0375,0.4241982,-0.59106463,0.5606848,999.83246, , , , 
2026-03-20 17:34:38.859,8.480164,-13.861622,-0.66041905,-0.20509785,-0.14561489,4.4261737,-29.23125,21.7875,22.59375,0.4049043,-0.6062376,0.5719788,999.82025, , , , 
2026-03-20 17:34:38.877,7.752745,-13.998013,0.3469593,-0.15806127,0.03581195,4.753597,-26.23125,24.337502,23.212502,0.37645704,-0.62544185,0.5873151,999.82025, , , , 
2026-03-20 17:34:38.897,7.757531,-14.246866,0.8350951,-0.027947064,0.17631085,5.286271,-21.35625,28.81875,22.44375,0.33564472,-0.6477879,0.6079112,999.8139, , , , 
2026-03-20 17:34:38.917,10.200603,-13.830515,0.25124636,-0.011453714,0.48846275,5.4835806,-18.825,29.081251,22.48125,0.30806392,-0.65995634,0.6208822,999.8139,37.88750512,127.73738694,179.87432861328125,1.89
2026-03-20 17:34:38.937,10.770095,-13.46202,-0.7393822,-0.12996148,0.96432644,5.4786935,-15.69375,32.1375,21.35625,0.25794742,-0.6768178,0.6412487,999.81, , , , 
2026-03-20 17:34:38.957,11.478371,-13.464413,-0.93320084,-0.34498587,0.9350049,5.495187,-13.44375,33.225002,22.9125,0.21522129,-0.6884291,0.65478384,999.81, , , , 
2026-03-20 17:34:38.977,14.452649,-12.619746,-0.94755775,-0.6058251,0.71814793,5.2221303,-9.0,34.18125,22.5375,0.17278157,-0.69950736,0.6644287,999.8005, , , , 
2026-03-20 17:34:38.997,15.739987,-11.382657,-0.3062813,-0.80741054,0.43837184,4.599048,-5.7562504,35.662502,20.737501,0.13464807,-0.7100009,0.6693494,999.8005, , , , 
2026-03-20 17:34:39.018,15.577275,-10.246066,0.040677983,-1.0352631,0.5501601,3.8177521,-1.8937501,36.037502,22.462502,0.094142646,-0.72179496,0.670086,999.79095, , , , 
2026-03-20 17:34:39.038,13.940585,-9.556933,0.60059845,-1.1476622,0.473802,3.230711,1.29375,35.23125,23.56875,0.072981365,-0.72837144,0.6681499,999.79095, , , , 
2026-03-20 17:34:39.057,12.842279,-9.281759,1.3399807,-1.1702642,0.40905032,2.82021,4.0687504,33.768753,24.750002,0.042676903,-0.7387151,0.66263044,999.78534, , , , 
2026-03-20 17:34:39.077,12.44507,-8.970692,2.4119651,-1.030987,0.39255697,2.6241224,5.26875,32.5125,25.312502,0.020952007,-0.7457909,0.6577459,999.78534, , , , 
2026-03-20 17:34:39.097,12.524034,-8.5016985,3.1058838,-0.7041744,0.509843,2.4665194,5.8875003,32.081253,26.362501,6.5983535E-4,-0.75066614,0.6541204,999.7856, , , , 
2026-03-20 17:34:39.117,13.904693,-7.800602,2.359323,-0.22220206,0.4182133,2.3064728,7.3500004,32.71875,26.175001,-0.018738626,-0.75261956,0.65282303,999.7856, , , , 
2026-03-20 17:34:39.137,16.354942,-6.4797635,0.86859465,0.10766492,-0.04421134,1.9442298,8.962501,31.3875,27.000002,-0.034501635,-0.7520553,0.6539472,999.811, , , , 
2026-03-20 17:34:39.158,18.25006,-5.6374903,-0.5694918,0.19379686,-0.37102398,1.2515092,8.700001,30.862501,27.525002,-0.043391626,-0.75039357,0.6562792,999.811, , , , 
2026-03-20 17:34:39.178,18.541983,-5.905486,-0.6269195,0.12415826,-0.5005273,0.47387835,10.762501,30.825,27.000002,-0.0449612,-0.74928445,0.6579901,999.8061, , , , 
2026-03-20 17:34:39.197,18.431913,-6.489335,0.043070808,0.17302746,-0.4822014,-0.28420484,13.425,29.38125,24.6375,-0.03866545,-0.7486391,0.6592503,999.8061, , , , 
2026-03-20 17:34:39.217,18.154345,-6.862615,-0.086141616,0.21823144,-0.32032222,-1.0093013,13.650001,31.031252,22.518751,-0.028811265,-0.74773616,0.66039956,999.79047, , , , 
2026-03-20 17:34:39.237,17.965313,-7.429714,0.3278167,0.17791437,-0.26473352,-1.769828,9.39375,30.562502,26.531252,-0.015055466,-0.7467981,0.660973,999.79047, , , , 
2026-03-20 17:34:39.257,16.8024,-8.985049,0.85184485,0.113162704,-0.35575238,-2.5969388,9.375,32.456253,24.112501,0.004344643,-0.7458853,0.66045934,999.7939, , , , 
2026-03-20 17:34:39.277,15.058033,-11.574083,2.0817556,0.13332124,-0.38385215,-3.337307,7.4625,32.60625,26.625002,0.036534805,-0.7441562,0.657963,999.7939, , , , 
2026-03-20 17:34:39.297,13.323236,-13.057633,2.9958138,0.36728245,-0.34109163,-3.7514734,3.6562502,33.3375,26.681252,0.06618221,-0.7405954,0.6556439,999.80023, , , , 
2026-03-20 17:34:39.317,12.224931,-13.847264,2.5627131,0.6391173,-0.46143198,-4.019643,2.2875001,32.850002,23.75625,0.0980364,-0.73396844,0.6540464,999.80023, , , , 
2026-03-20 17:34:39.337,13.373486,-14.897714,1.0983056,0.6885973,-0.7577014,-4.3244643,-1.25625,33.600002,25.1625,0.13262808,-0.7251471,0.652087,999.83075, , , , 
2026-03-20 17:34:39.357,14.110476,-15.591632,0.90448695,0.53221595,-1.0332015,-4.6543317,-1.63125,33.693752,22.875,0.17073509,-0.71560305,0.6474153,999.83075, , , , 
2026-03-20 17:34:39.377,13.8448715,-16.65883,2.6775684,0.4411971,-1.1791981,-5.261531,-5.4750004,34.29375,22.78125,0.21219803,-0.70531,0.63904995,999.8449, , , , 
2026-03-20 17:34:39.397,9.781859,-17.350357,3.438486,0.62567824,-1.2769364,-5.46556,-9.13125,32.79375,22.800001,0.25678983,-0.69218534,0.62830496,999.8449, , , , 
2026-03-20 17:34:39.418,8.248059,-16.44587,2.861816,0.8669698,-1.2445606,-5.2651963,-10.8,32.737503,24.675001,0.30085373,-0.6760553,0.61740416,999.85175, , , , 
2026-03-20 17:34:39.437,7.4584284,-14.943177,1.3878372,0.9653191,-0.9623411,-4.96404,-12.918751,31.425001,22.03125,0.3423284,-0.6576321,0.6070118,999.85175, , , , 
2026-03-20 17:34:39.457,7.4033933,-13.718052,-1.5696917,0.66416276,-0.08025236,-4.570032,-16.800001,31.031252,21.075,0.37809741,-0.637805,0.59746814,999.8654, , , , 
2026-03-20 17:34:39.477,8.099705,-12.74178,-1.1318051,0.14370593,0.8574251,-4.303695,-21.431252,28.556252,23.081251,0.40951872,-0.61304814,0.5861627,999.8654, , , , 
2026-03-20 17:34:39.502,7.865208,-12.703495,-0.24885355,0.11682789,0.6436224,-4.3611164,-23.71875,27.206251,21.712502,0.4339826,-0.58768183,0.5738439,999.8359, , , , 
2026-03-20 17:34:39.517,7.0612197,-12.569497,-0.3924229,0.1999055,0.22212571,-4.4191484,-24.4125,25.3875,23.268751,0.4499222,-0.57236254,0.56473756,999.8359, , , , 
2026-03-20 17:34:39.537,5.319245,-12.02872,-1.3112668,0.1754709,-0.21586435,-4.4704614,-28.593752,22.725,22.78125,0.47370178,-0.55247986,0.54977167,999.8161, , , , 
2026-03-20 17:34:39.557,2.8785655,-12.131611,-2.6703901,-0.085979216,0.17386739,-4.3983793,-31.612501,20.79375,22.29375,0.4970429,-0.5328139,0.53273016,999.8161, , , , 
2026-03-20 17:34:39.577,-1.2562319,-12.780066,-2.4454648,-0.41828966,0.48846275,-3.9359546,-31.1625,18.73125,22.96875,0.51515806,-0.51312107,0.51604563,999.7946, , , , 
2026-03-20 17:34:39.597,-3.034099,-13.155739,-1.0552348,-0.41645706,0.029092435,-2.8461716,-34.66875,15.01875,20.775002,0.53054744,-0.49378356,0.49740326,999.7946, , , , 
2026-03-20 17:34:39.617,-2.428715,-12.674782,-0.45942193,-0.27656904,-0.16943862,-2.014174,-34.66875,14.400001,22.050001,0.53760076,-0.48688006,0.48809928,999.77386, , , , 
2026-03-20 17:34:39.637,-3.8165522,-12.009577,-0.7106683,-0.12690715,0.2844339,-1.1155918,-36.393753,11.71875,23.306252,0.5447874,-0.47916386,0.47858655,999.77386, , , , 
2026-03-20 17:34:39.661,-4.7210393,-11.5932255,-1.5146568,-0.07192933,0.4163807,-0.30558512,-35.943752,10.9125,21.45,0.54554117,-0.4749782,0.47720557,999.7697, , , , 
2026-03-20 17:34:39.677,-4.5152564,-11.485549,-2.2660031,-0.05299252,0.3088685,0.46043932,-35.100002,10.856251,22.7625,0.5426264,-0.47483778,0.4800812,999.7697, , , , 
2026-03-20 17:34:39.697,-3.1202407,-10.499705,-2.4071796,-0.13240494,-0.010002911,1.4347687,-36.2625,8.53125,19.7625,0.53654927,-0.4803854,0.4859724,999.77167, , , , 
2026-03-20 17:34:39.717,-0.0023928226,-10.846665,-1.8233309,-0.20021093,-0.13278674,2.2954772,-35.98125,12.150001,21.075,0.52445054,-0.49530753,0.49642634,999.77167, , , , 
2026-03-20 17:34:39.737,2.5674987,-11.351551,-1.3399807,-0.2753473,-0.019776747,2.824486,-35.193752,13.968751,22.59375,0.51028603,-0.5111097,0.5078462,999.76654, , , , 
2026-03-20 17:34:39.757,4.4841495,-11.559726,-0.39481574,-0.26923865,-0.010613776,3.0908232,-33.825,14.85,21.46875,0.4973839,-0.52401245,0.5176148,999.76654, , , , 
2026-03-20 17:34:39.777,5.3647084,-12.784851,0.18424734,-0.00962112,-0.21525347,3.434129,-32.625,18.712502,22.2,0.474257,-0.5459442,0.5350807,999.76263, , , , 
2026-03-20 17:34:39.797,6.350551,-13.933406,-0.5766702,0.14676027,-0.24396412,3.792096,-30.31875,19.3125,22.85625,0.4551834,-0.56383526,0.5502682,999.76263, , , , 
2026-03-20 17:34:39.821,7.015756,-14.763716,-2.1248264,0.028863361,0.03092503,4.302168,-29.475,22.7625,23.025002,0.42718193,-0.58657265,0.5710958,999.77264, , , , 
2026-03-20 17:34:39.837,8.078169,-14.914464,-2.0793629,-0.24969098,0.20257804,4.694343,-24.900002,24.243752,20.456251,0.40635285,-0.60101664,0.5838733,999.77264, , , , 
2026-03-20 17:34:39.857,9.518648,-14.572289,0.124426775,-0.4402808,0.2031889,4.989391,-26.1,24.956251,23.175001,0.37449414,-0.6212968,0.5997097,999.7778, , , , 
2026-03-20 17:34:39.877,10.492527,-13.727624,1.0504491,-0.38224864,0.5825359,5.1127853,-20.643751,28.650002,21.618752,0.33082864,-0.64514756,0.6182365,999.7778, , , , 
2026-03-20 17:34:39.897,10.3441725,-13.24188,1.5601203,-0.35231626,1.2996912,5.2343473,-19.331251,30.88125,22.575,0.2910747,-0.66036624,0.6337111,999.7758, , , , 
2026-03-20 17:34:39.918,10.770095,-12.768102,1.3639089,-0.37491825,1.8103741,5.2801623,-14.906251,32.25,19.10625,0.2462217,-0.67199194,0.64956117,999.7758,37.88751779,127.73740034,179.01611328125,1.66
2026-03-20 17:34:39.937,13.103097,-11.708081,0.57427746,-0.49831295,1.5819107,5.0492554,-12.13125,32.381252,21.581251,0.19979273,-0.681281,0.66342676,999.7868, , , , 
2026-03-20 17:34:39.957,14.548362,-10.475778,0.4881358,-0.7035635,1.0290781,4.5538445,-11.26875,33.7125,21.2625,0.15809125,-0.69002724,0.67251086,999.7868, , , , 
2026-03-20 17:34:39.977,15.043676,-9.370294,0.8350951,-0.91614443,0.6540071,3.886169,-9.1125,33.5625,21.975,0.12395436,-0.69900566,0.67643845,999.789, , , , 
2026-03-20 17:34:39.997,13.361522,-9.107083,2.0817556,-1.0731367,0.56787515,3.1940591,-2.30625,35.381252,21.768751,0.09550815,-0.70772165,0.6765665,999.789, , , , 
2026-03-20 17:34:40.017,11.62194,-8.985049,2.8091738,-1.0603086,0.7456368,2.9814782,-4.2000003,33.9375,21.900002,0.06969788,-0.7155648,0.67488956,999.7956, , , , 
2026-03-20 17:34:40.037,11.770294,-8.305488,2.9742785,-0.97539836,0.7547998,2.8513641,-2.7562501,34.59375,21.712502,0.044085592,-0.72208136,0.6728819,999.7956, , , , 
2026-03-20 17:34:40.057,13.007384,-7.3363943,2.5794628,-0.8465059,0.7731257,2.4695735,-2.41875,32.23125,25.218752,0.01438427,-0.7283988,0.6701581,999.8151, , , , 
2026-03-20 17:34:40.077,13.741981,-6.838687,2.565106,-0.7371611,0.68577206,2.0987787,0.09375,32.98125,25.218752,-0.006327697,-0.7322108,0.66767955,999.8151, , , , 
2026-03-20 17:34:40.097,13.933406,-6.4869423,2.4598217,-0.5166389,0.496404,1.7860159,-0.0375,32.456253,26.025002,-0.02331542,-0.7349217,0.6655106,999.82806, , , , 
2026-03-20 17:34:40.117,15.103497,-6.0801625,1.3686945,-0.39813113,0.44142616,1.4341577,0.16875,31.987501,25.875002,-0.03655679,-0.73645175,0.66414964,999.82806, , , , 
2026-03-20 17:34:40.137,15.1346035,-6.1208405,0.4977071,-0.45433068,0.33819002,0.89232075,3.54375,32.831253,26.400002,-0.0479803,-0.738355,0.66176903,999.8315, , , , 
2026-03-20 17:34:40.157,15.247066,-6.04427,1.0193424,-0.48548478,0.13599378,0.5441278,3.4687502,30.31875,27.487501,-0.05204669,-0.7400405,0.65963024,999.8315, , , , 
2026-03-20 17:34:40.177,14.892928,-6.3385873,2.4071796,-0.35353798,-0.16088651,0.15622866,4.14375,31.406252,25.95,-0.053490963,-0.742504,0.6566783,999.8261, , , , 
2026-03-20 17:34:40.197,16.051054,-6.7525454,3.4648073,0.0923933,-0.75098187,-0.2414443,4.3125,30.7875,26.587502,-0.04805812,-0.7440109,0.6553687,999.8261, , , , 
2026-03-20 17:34:40.217,17.800207,-7.233503,3.2183464,0.536492,-1.509676,-0.8174898,3.2625,29.41875,29.250002,-0.034824457,-0.7429857,0.65764475,999.82465, , , , 
2026-03-20 17:34:40.237,18.357735,-7.946564,2.120041,0.74235344,-1.9898157,-1.7264566,2.9625,31.518751,27.768751,-0.011793066,-0.74046683,0.66159344,999.82465, , , , 
2026-03-20 17:34:40.257,17.58246,-9.097511,1.9166509,0.56520265,-1.7619631,-2.5315764,4.36875,31.050001,26.268751,0.018457184,-0.73760927,0.6642812,999.8393, , , , 
2026-03-20 17:34:40.277,15.720845,-11.346765,3.3906298,0.49006626,-1.120555,-3.1442738,0.84375006,32.4375,26.1,0.050977368,-0.734506,0.66431767,999.8393, , , , 
2026-03-20 17:34:40.298,13.519448,-13.947763,3.07717,0.6727148,-0.42050403,-3.6293004,0.65625,32.925003,24.993752,0.09026155,-0.72740847,0.6634078,999.85004, , , , 
2026-03-20 17:34:40.317,13.067204,-14.663218,2.143969,0.7673989,-0.3606393,-3.8595965,0.31875002,34.237503,26.19375,0.120737314,-0.71877795,0.66263604,999.85004, , , , 
2026-03-20 17:34:40.337,13.533805,-14.713467,1.5864414,0.7673989,-0.70455617,-4.2022915,-4.425,33.018753,24.45,0.15354759,-0.7087309,0.6605028,999.86786, , , , 
2026-03-20 17:34:40.357,13.988441,-15.443277,2.3377876,0.74174255,-0.9953278,-4.7477937,-6.20625,34.21875,22.40625,0.19084978,-0.6977645,0.65567315,999.86786, , , , 
2026-03-20 17:34:40.377,10.679168,-16.323835,2.7302105,0.8590286,-1.3074797,-5.228544,-7.2937503,35.362503,21.84375,0.2325233,-0.6844976,0.64829123,999.8581, , , , 
2026-03-20 17:34:40.397,8.114061,-16.2688,2.6703901,0.9213368,-1.2977059,-5.152797,-12.31875,32.23125,21.768751,0.27609652,-0.66900384,0.6390445,999.8581, , , , 
2026-03-20 17:34:40.417,7.554141,-15.27578,1.3423735,0.9274455,-1.238452,-4.9243336,-13.462501,32.25,20.34375,0.31764734,-0.65200174,0.62908393,999.85565, , , , 
2026-03-20 17:34:40.437,7.1449685,-13.763515,-0.46181476,0.76251197,-0.70516706,-4.590191,-18.9375,29.812502,21.206251,0.3646672,-0.6297931,0.6156129,999.85565, , , , 
2026-03-20 17:34:40.459,7.4010005,-12.899707,-1.4524434,0.45463613,-0.005726857,-4.3262973,-17.625,29.081251,21.112501,0.38767046,-0.61615044,0.6077592,999.8234, , , , 
2026-03-20 17:34:40.478,7.5732837,-12.531212,-1.3806586,0.07651082,0.69860023,-4.1589203,-22.556252,28.35,18.431252,0.41619295,-0.59304655,0.5953227,999.8234, , , , 
2026-03-20 17:34:40.497,7.422536,-12.380465,-0.9451649,-0.07742711,0.5953641,-4.2248936,-26.343752,25.087502,21.1875,0.43467158,-0.5743853,0.58437634,999.7968, , , , 
2026-03-20 17:34:40.517,5.5393844,-12.236895,-0.71306115,-0.066431545,0.14026983,-4.272541,-29.85,24.468752,22.2,0.4541125,-0.5559598,0.5707535,999.7968, , , , 
2026-03-20 17:34:40.537,3.9649072,-11.787045,-0.63888365,-0.024281874,-0.28550294,-4.0856166,-31.218752,20.362501,19.331251,0.47492704,-0.53850853,0.55483776,999.7824, , , , 
2026-03-20 17:34:40.558,2.914458,-11.38505,-1.052842,-0.00962112,-0.35636324,-3.7563603,-32.90625,17.94375,21.0375,0.5009701,-0.5186645,0.5335004,999.7824, , , , 
2026-03-20 17:34:40.577,1.9501505,-11.076376,-1.4883357,-0.102472566,-0.14561489,-3.3983934,-33.787502,17.962502,21.900002,0.5146012,-0.50740033,0.521397,999.7675, , , , 
2026-03-20 17:34:40.597,1.39023,-11.057234,-1.4620147,-0.21670428,0.18119776,-2.8254023,-35.30625,13.44375,22.63125,0.5316529,-0.49018916,0.50409555,999.7675, , , , 
2026-03-20 17:34:40.618,0.80877405,-11.497513,-1.5840486,-0.26068655,0.2154062,-2.3220499,-34.03125,12.468751,22.087502,0.53857976,-0.4811271,0.49590892,999.75336, , , , 
2026-03-20 17:34:40.637,0.15553348,-11.552547,-1.0073783,-0.28084508,-0.09491312,-1.5816816,-33.80625,9.76875,19.893751,0.54678136,-0.47069547,0.4845531,999.75336, , , , 
2026-03-20 17:34:40.657,-1.2179468,-11.760723,-0.8662018,-0.21181737,-0.11934771,-1.0135773,-34.050003,8.625,20.75625,0.55140686,-0.46664238,0.4773378,999.7482, , , , 
2026-03-20 17:34:40.677,-3.7256248,-11.229517,-1.0935199,-0.18799363,0.12133302,-0.16997312,-34.78125,8.6625,21.0,0.5530577,-0.46526468,0.4738381,999.7482, , , , 
2026-03-20 17:34:40.697,-3.6346977,-11.148161,-1.8807586,-0.26435173,0.33819002,0.90514886,-35.53125,9.337501,21.1875,0.54942894,-0.46765625,0.47612163,999.7458, , , , 
2026-03-20 17:34:40.719,-1.105484,-10.559526,-1.2969099,-0.45494154,0.30520332,2.0065382,-35.475002,8.1,20.475,0.5366168,-0.47819442,0.48599428,999.7458, , , , 
2026-03-20 17:34:40.737,0.971486,-10.621739,-0.23928227,-0.42806348,0.234343,2.5098906,-34.0125,10.012501,17.737501,0.52177244,-0.49178442,0.49701262,999.74896, , , , 
2026-03-20 17:34:40.757,2.0195422,-11.026127,0.6771688,-0.22586726,0.3174206,2.9613197,-33.300003,13.05,20.268751,0.5043859,-0.50697565,0.51074696,999.74896, , , , 
2026-03-20 17:34:40.777,2.7206392,-12.1866455,0.45942193,0.07651082,0.17508912,3.4310749,-32.025,12.69375,19.087502,0.4852849,-0.5225656,0.52755165,999.75433, , , , 
2026-03-20 17:34:40.797,3.8524444,-13.914264,-1.174876,0.22006404,-0.14805835,4.0602655,-32.625,16.987501,19.050001,0.4653453,-0.53974235,0.5461143,999.75433, , , , 
2026-03-20 17:34:40.817,6.192625,-14.794823,-1.1820544,0.093615025,-0.36491534,4.6418085,-32.4375,18.862501,20.94375,0.4431566,-0.5599439,0.56491697,999.7348, , , , 
2026-03-20 17:34:40.837,11.047662,-14.098511,1.1437693,0.23533566,-0.71738434,4.9050913,-28.893751,21.73125,19.0125,0.4182141,-0.5822506,0.58311087,999.7348, , , , 
2026-03-20 17:34:40.857,14.52204,-12.713067,1.672583,0.79183346,-0.9867757,4.627759,-25.500002,24.056252,20.0625,0.39510208,-0.6025445,0.6003629,999.7475, , , , 
2026-03-20 17:34:40.878,14.598611,-10.973485,-0.2440679,0.9854776,-0.9067524,4.170832,-27.0375,26.118752,22.275002,0.37612164,-0.6175241,0.6167953,999.7475, , , , 
2026-03-20 17:34:40.897,12.167503,-10.171889,-2.4670002,0.7832814,-0.29344416,3.8941102,-19.66875,28.275002,19.368752,0.35404736,-0.6308171,0.6349199,999.72675, , , , 
2026-03-20 17:34:40.917,10.147961,-9.911072,-3.7758741,0.01725693,0.8916335,4.1189084,-19.462502,30.0375,19.40625,0.32901043,-0.6409255,0.6481064,999.72675,37.88753166,127.73741317,179.00146484375,2.03
2026-03-20 17:34:40.937,11.667403,-9.662218,-2.416751,-0.8037453,1.7932699,4.368141,-16.050001,30.150002,17.962502,0.29396755,-0.65335935,0.6590861,999.7016, , , , 
2026-03-20 17:34:40.957,12.926028,-9.19801,-1.0576276,-1.2753329,2.1707842,4.1280713,-9.825001,33.28125,16.66875,0.25249237,-0.66692346,0.66679436,999.7016, , , , 
2026-03-20 17:34:40.977,12.390036,-8.6141615,0.43788654,-1.4995203,1.9215515,3.7310092,-11.962501,33.037502,19.368752,0.21069744,-0.6800822,0.67055446,999.6967, , , , 
2026-03-20 17:34:40.997,11.392229,-8.250452,1.6342978,-1.3938407,1.1579705,3.5001025,-10.44375,31.95,20.04375,0.16498293,-0.69570845,0.6707259,999.6967, , , , 
2026-03-20 17:34:41.017,11.150554,-8.348558,1.698904,-1.234405,0.73464125,3.4084728,-8.94375,32.737503,18.300001,0.14151238,-0.70424134,0.6698872,999.7048, , , , 
2026-03-20 17:34:41.037,10.930414,-8.489735,1.402194,-1.126282,0.6143009,3.4665048,-7.6312504,32.850002,20.775002,0.11263229,-0.7144017,0.6685556,999.7048, , , , 
2026-03-20 17:34:41.057,12.806387,-7.853244,1.2658032,-1.0370957,0.6442333,3.4500115,-4.1062503,33.46875,19.29375,0.076777555,-0.72526574,0.6667188,999.7153, , , , 
2026-03-20 17:34:41.077,13.756337,-7.5613194,1.0695918,-1.0065525,0.45058912,3.2288785,-3.4687502,31.143751,22.7625,0.049356923,-0.7325512,0.66456574,999.7153, , , , 
2026-03-20 17:34:41.097,15.223138,-7.4392858,1.4356936,-0.79336065,-0.5842158,2.8464773,0.1875,31.031252,21.768751,0.027494254,-0.73913586,0.6617708,999.71796, , , , 
2026-03-20 17:34:41.117,16.893328,-7.097112,1.5529419,-0.56306463,-1.242728,2.4164283,3.2812502,30.35625,21.6375,0.015111766,-0.74461555,0.6594932,999.71796, , , , 
2026-03-20 17:34:41.137,18.69991,-6.302695,1.6677973,-0.37980518,-1.148044,1.6992731,4.8,29.493752,24.91875,0.009170905,-0.74943244,0.6574387,999.7255, , , , 
2026-03-20 17:34:41.159,19.618753,-6.34098,2.251646,-0.13973531,-0.66790426,1.1244494,7.5750003,30.675001,21.7875,0.0073461346,-0.7515281,0.6564038,999.7255, , , , 
2026-03-20 17:34:41.177,21.78665,-6.257231,1.8592232,0.24999641,-0.4785362,0.5752819,8.8125,30.300001,21.975,0.0072752866,-0.7514089,0.65698946,999.7453, , , , 
2026-03-20 17:34:41.197,23.877977,-5.2283173,-0.6269195,0.46318823,-0.49808386,-0.58413947,7.7625003,29.437502,22.7625,0.014266954,-0.74825704,0.66049176,999.7453, , , , 
2026-03-20 17:34:41.217,21.789043,-6.0801625,-1.4045869,0.19501857,-0.39790204,-1.8535165,6.05625,30.50625,23.025002,0.029507255,-0.7458633,0.6618777,999.74335, , , , 
2026-03-20 17:34:41.237,17.663816,-9.461221,0.29671,-0.076816246,-0.2824486,-2.8858778,3.9750001,30.281252,23.268751,0.05139245,-0.74464387,0.6600502,999.74335, , , , 
2026-03-20 17:34:41.259,14.476577,-11.566905,2.3665016,0.14492767,-0.37713265,-3.3299766,3.9750001,30.300001,22.48125,0.084292084,-0.74181217,0.65612966,999.7624, , , , 
2026-03-20 17:34:41.277,13.770695,-12.643675,2.333002,0.40698865,-0.38812822,-3.5254533,3.525,29.156252,18.28125,0.10569695,-0.73794436,0.65463763,999.7624, , , , 
2026-03-20 17:34:41.297,14.134403,-13.387843,1.4261223,0.5193878,-0.33681557,-3.9219046,-0.91875005,30.431252,19.44375,0.13553427,-0.7304664,0.65305626,999.7846, , , , 
2026-03-20 17:34:41.317,13.734802,-14.124832,0.9523434,0.51083565,-0.42111492,-4.313469,-3.7687502,29.625002,22.40625,0.17594324,-0.7185441,0.64934736,999.7846, , , , 
2026-03-20 17:34:41.337,12.705888,-14.708681,1.3160524,0.4637991,-0.57077676,-4.6042404,-6.3,30.000002,20.493752,0.21100594,-0.70744234,0.6439841,999.79193, , , , 
2026-03-20 17:34:41.357,11.947364,-15.3188505,2.0985055,0.48640108,-0.65813047,-5.017796,-9.356251,29.550001,22.85625,0.24771743,-0.69473386,0.6365256,999.79193, , , , 
2026-03-20 17:34:41.377,9.786645,-15.696917,1.4333007,0.4949532,-0.58543754,-5.1686797,-11.775001,28.331251,20.550001,0.28623927,-0.6796413,0.62714094,999.8056, , , , 
2026-03-20 17:34:41.397,7.5900335,-14.897714,1.2083755,0.523053,0.0712421,-4.937162,-13.012501,30.187502,20.8875,0.32183012,-0.6624235,0.61718804,999.8056, , , , 
2026-03-20 17:34:41.419,7.1425757,-12.897314,-1.0241281,0.5328268,1.0333542,-4.4044876,-15.76875,27.187502,18.712502,0.3567071,-0.6377275,0.6074641,999.809, , , , 
2026-03-20 17:34:41.437,7.685746,-12.289537,-2.0458634,0.3611738,1.4096469,-4.204124,-16.425001,28.875002,16.06875,0.3719256,-0.6218978,0.6030214,999.809, , , , 
2026-03-20 17:34:41.457,8.2456665,-12.361321,-1.294517,0.27504188,1.070006,-4.1906853,-22.2,27.150002,17.53125,0.39292338,-0.5956873,0.59437454,999.77313, , , , 
2026-03-20 17:34:41.477,7.5062847,-12.468999,-1.1437693,0.3404044,0.27710354,-4.298808,-23.118752,24.69375,16.6875,0.41296318,-0.5757327,0.5838511,999.77313, , , , 
2026-03-20 17:34:41.497,5.4029937,-12.373286,-1.4596218,0.27565274,0.020540329,-4.209622,-25.781252,24.7875,18.35625,0.4359756,-0.55705416,0.57005703,999.74677, , , , 
2026-03-20 17:34:41.517,3.2877383,-12.138789,-1.3471591,0.04046979,0.36262462,-3.7624688,-27.825,23.34375,18.337502,0.4563956,-0.53940374,0.5557391,999.74677, , , , 
2026-03-20 17:34:41.537,2.7397819,-12.21536,-1.0480564,-0.1018617,0.7291435,-3.3073747,-28.800001,22.0125,16.518751,0.47084635,-0.5226256,0.5434795,999.73065, , , , 
2026-03-20 17:34:41.557,1.3016955,-12.050255,-1.1174482,-0.049327333,0.77801263,-2.7466009,-32.86875,19.35,17.400002,0.4802557,-0.5031023,0.5319683,999.73065, , , , 
2026-03-20 17:34:41.577,-0.05742774,-11.483156,-1.5601203,-0.059712034,0.44142616,-2.126573,-34.537502,18.4125,19.0125,0.48931444,-0.49043348,0.5243324,999.71576, , , , 
2026-03-20 17:34:41.597,-0.782453,-11.358729,-0.9619147,-0.0029016077,0.19036074,-1.7270675,-31.650002,15.8625,16.706251,0.4954049,-0.48111886,0.5174537,999.71576, , , , 
2026-03-20 17:34:41.617,-1.7443677,-11.212767,-0.2416751,0.21517712,-0.0692568,-1.2438734,-33.581253,16.5375,17.475,0.5011852,-0.4745486,0.5120863,999.7077, , , , 
2026-03-20 17:34:41.637,-3.1896327,-11.313266,-1.5194423,0.42836893,-0.15111268,-0.57986337,-34.29375,15.843751,16.518751,0.50671196,-0.47019637,0.50931513,999.7077, , , , 
2026-03-20 17:34:41.657,-4.4841495,-11.009377,-3.37388,0.27870706,-0.0063377223,0.24541493,-33.225002,15.225,15.675,0.5096983,-0.46871892,0.5101712,999.70013, , , , 
2026-03-20 17:34:41.677,-3.749553,-10.971092,-3.9696927,-0.07192933,0.044364054,1.0688607,-35.0625,15.000001,18.337502,0.50707763,-0.47235644,0.5146219,999.70013, , , , 
2026-03-20 17:34:41.697,-1.1078769,-10.779666,-2.9599216,-0.5410735,-0.047265664,1.9448408,-34.331253,14.85,16.425001,0.4982204,-0.48244247,0.5213875,999.68695, , , , 
2026-03-20 17:34:41.718,2.1631117,-11.542976,-0.9284152,-0.77747816,-0.31115925,2.4988952,-34.8375,16.893751,18.056252,0.48089194,-0.50248146,0.53095746,999.68695, , , , 
2026-03-20 17:34:41.737,3.6897326,-12.296716,1.0600204,-0.6467531,-0.5817723,2.8079927,-34.4625,17.306252,18.300001,0.4691017,-0.5169461,0.5368302,999.69354, , , , 
2026-03-20 17:34:41.757,4.8693943,-12.971492,1.6582261,-0.20326525,-0.78091425,3.1555748,-30.225,18.73125,19.331251,0.45364565,-0.5368149,0.54599696,999.69354, , , , 
2026-03-20 17:34:41.777,5.8432727,-13.58884,-0.46660042,0.081397735,-0.7112757,3.579515,-27.768751,23.7,19.40625,0.43418774,-0.5604498,0.5612698,999.705, , , , 
2026-03-20 17:34:41.797,6.587441,-13.890335,-0.8566305,-0.045662142,-0.81634444,3.9887943,-26.325,25.837502,20.5125,0.41626403,-0.5797683,0.57463557,999.705, , , , 
2026-03-20 17:34:41.817,7.2861447,-13.6606245,0.715454,-0.031001387,-0.9715041,4.3125525,-25.406252,26.04375,21.018751,0.39608794,-0.6005533,0.5872306,999.7133, , , , 
2026-03-20 17:34:41.837,8.463413,-13.069597,1.375873,0.24266604,-0.904309,4.6014915,-23.60625,28.48125,20.7,0.37426627,-0.6205274,0.6004533,999.7133, , , , 
2026-03-20 17:34:41.857,10.135997,-12.1459675,0.28713873,0.45097092,-0.38934994,4.672352,-15.093751,30.712502,20.60625,0.34391016,-0.64100635,0.6190639,999.7255, , , , 
2026-03-20 17:34:41.877,10.303494,-11.557333,-0.93559366,0.39293876,-0.029550584,4.5795007,-17.625,32.8125,21.993752,0.32390648,-0.65082264,0.6303575,999.7255, , , , 
2026-03-20 17:34:41.897,9.939785,-11.251052,-2.8833513,-0.05177079,0.600251,4.6247044,-10.44375,34.068752,19.143751,0.28680745,-0.6653315,0.64721346,999.7253, , , , 
2026-03-20 17:34:41.917,10.336994,-11.167303,-2.7014968,-0.60216,1.0327432,4.7480993,-6.9,31.95,18.75,0.25137645,-0.6777332,0.6573111,999.7253,37.88754155,127.73742827,179.082763671875,1.44
2026-03-20 17:34:41.937,11.590833,-11.270195,-1.4093726,-1.2374593,1.7272965,4.8611093,-4.03125,33.84375,19.25625,0.21036159,-0.6916118,0.66343045,999.7172, , , , 
2026-03-20 17:34:41.957,13.77548,-11.052447,-0.19621146,-1.7695225,2.7358344,4.7187777,-2.79375,32.737503,19.2,0.16279416,-0.7056832,0.66591877,999.7172, , , , 
2026-03-20 17:34:41.977,15.457634,-9.614362,2.213361,-2.0309727,2.9923975,3.9832964,-0.24375,33.225002,21.225,0.11129879,-0.7183597,0.66426593,999.72675, , , , 
2026-03-20 17:34:41.997,13.895121,-8.800801,3.0699914,-1.9558363,2.2196536,3.221548,2.025,33.581253,21.88125,0.056001753,-0.73143876,0.6571244,999.72675, , , , 
2026-03-20 17:34:42.017,13.103097,-8.267202,3.278167,-1.7713552,1.2050071,2.7462952,-0.1875,29.98125,23.1,0.030536976,-0.73846126,0.6515905,999.75433, , , , 
2026-03-20 17:34:42.037,13.103097,-8.49452,3.9290147,-1.4824162,0.4982366,2.4707954,1.6875001,28.66875,25.7625,-0.0010764798,-0.7491883,0.64239657,999.75433, , , , 
2026-03-20 17:34:42.057,14.591433,-8.092526,4.4841495,-0.9760092,0.16287182,2.4976733,2.2687502,27.975,26.6625,-0.021380918,-0.75537914,0.63733196,999.78436, , , , 
2026-03-20 17:34:42.077,17.295322,-7.2693954,3.8333018,-0.47693267,-0.08147409,2.3223553,4.33125,27.187502,25.556252,-0.03450904,-0.7577649,0.6359961,999.78436, , , , 
2026-03-20 17:34:42.097,20.183458,-5.881558,2.5052853,0.006261364,-0.53840095,1.42866,7.7625003,26.906252,27.375002,-0.048584495,-0.75851405,0.6370502,999.8066, , , , 
2026-03-20 17:34:42.117,20.516062,-6.262017,1.3878372,0.18402301,-0.8670462,0.59299695,7.4625,27.50625,26.2875,-0.04986895,-0.7578768,0.6392583,999.8066, , , , 
2026-03-20 17:34:42.138,20.444277,-6.704689,1.5744773,0.33001968,-0.86643535,-0.16508621,8.90625,26.6625,25.575,-0.04131657,-0.75680536,0.64212537,999.811, , , , 
2026-03-20 17:34:42.157,20.528025,-6.798009,1.4763715,0.44425142,-0.65080005,-0.90606517,10.89375,27.6375,23.306252,-0.029503508,-0.7550689,0.64456654,999.811, , , , 
2026-03-20 17:34:42.177,19.89632,-7.587641,1.6797615,0.51999867,-0.597044,-1.6733114,7.1250005,27.468752,27.73125,-0.01752317,-0.75331444,0.64611435,999.8151, , , , 
2026-03-20 17:34:42.197,17.946169,-10.269995,1.2729816,0.6244565,-0.79924023,-2.6586363,6.4875,28.425001,24.6375,0.0108183585,-0.7493162,0.6480051,999.8151, , , , 
2026-03-20 17:34:42.217,15.407385,-12.71546,1.3998013,0.59818935,-1.048473,-3.2731662,6.3750005,29.5125,27.225,0.040971827,-0.7454035,0.6480925,999.82733, , , , 
2026-03-20 17:34:42.237,13.411771,-14.012369,2.8522446,0.653778,-1.052749,-3.5596619,5.775,29.1,23.75625,0.07464214,-0.7406164,0.6468544,999.82733, , , , 
2026-03-20 17:34:42.257,13.019348,-14.232509,3.7591243,0.8468113,-0.8792635,-3.7423103,4.36875,32.30625,24.187502,0.10886752,-0.73363405,0.64554167,999.84564, , , , 
2026-03-20 17:34:42.277,12.210574,-14.194224,3.5605202,1.1534654,-0.7082214,-4.0135345,1.4625001,32.4,23.400002,0.14334586,-0.7233101,0.6449787,999.84564, , , , 
2026-03-20 17:34:42.297,13.07199,-14.103296,3.333202,1.4014765,-0.87987435,-4.4191484,-0.31875002,31.462502,22.40625,0.17914347,-0.7098169,0.6446636,999.8676, , , , 
2026-03-20 17:34:42.318,10.420743,-14.464613,2.239682,1.6507094,-1.8016694,-5.135693,-5.86875,33.768753,22.3875,0.23320521,-0.6887155,0.6418893,999.8676, , , , 
2026-03-20 17:34:42.337,7.893922,-14.333008,0.79441714,1.4650065,-1.4125484,-5.1350822,-7.8562503,34.800003,22.85625,0.2811518,-0.66992944,0.63614666,999.8603, , , , 
2026-03-20 17:34:42.357,6.5946193,-13.4763775,-0.21296121,1.01541,0.03459022,-4.639671,-10.668751,33.787502,20.41875,0.32072005,-0.6500711,0.6295563,999.8603, , , , 
2026-03-20 17:34:42.377,6.795616,-12.488141,-0.98584294,0.69226253,1.2459351,-4.155255,-14.19375,35.04375,19.181252,0.34743398,-0.629296,0.62451404,999.842, , , , 
2026-03-20 17:34:42.397,8.456235,-11.949757,-0.076570325,0.46440995,1.6637666,-3.9573348,-16.95,30.900002,19.85625,0.36397555,-0.607887,0.6209432,999.842, , , , 
2026-03-20 17:34:42.417,9.042477,-12.131611,0.85902333,0.6207913,0.99425876,-4.1357074,-19.575,32.268753,18.35625,0.37871224,-0.5860146,0.6163091,999.82196, , , , 
2026-03-20 17:34:42.437,7.757531,-12.533605,0.6029913,0.7967204,-0.28977898,-4.3788314,-24.862501,29.362501,19.087502,0.3998363,-0.5645233,0.60781556,999.82196, , , , 
2026-03-20 17:34:42.457,6.2691956,-12.29193,0.37088752,0.7411317,-0.8749874,-4.3641706,-26.493752,27.825,19.331251,0.42758566,-0.54505366,0.5943035,999.80414, , , , 
2026-03-20 17:34:42.477,4.814359,-11.626725,0.47377887,0.5707004,-0.9757801,-4.0630145,-30.937502,24.750002,19.987501,0.46351662,-0.52356195,0.57339466,999.80414, , , , 
2026-03-20 17:34:42.497,4.345366,-10.837093,-0.46660042,0.3666716,-0.6587413,-3.7105453,-31.875002,22.275002,20.38125,0.48871264,-0.5076325,0.55660075,999.7946, , , , 
2026-03-20 17:34:42.517,3.5724843,-10.408778,-1.6486548,-0.007788526,-0.12912154,-3.4350455,-34.74375,21.225,21.65625,0.50895506,-0.49226937,0.5408034,999.7946, , , , 
2026-03-20 17:34:42.537,2.0673988,-10.765309,-1.6007984,-0.47021317,0.519006,-3.0190465,-35.5125,17.41875,21.337502,0.5225427,-0.4775938,0.52660394,999.7753, , , , 
2026-03-20 17:34:42.557,-0.29192436,-10.633704,-0.55752766,-0.56367546,0.67905253,-2.5230243,-33.80625,15.39375,17.268751,0.52964133,-0.46415985,0.5148502,999.7753, , , , 
2026-03-20 17:34:42.577,-1.672583,-10.107283,-0.18185452,-0.4488329,0.5843685,-1.7667737,-36.412502,14.868751,18.487501,0.5328994,-0.45317325,0.50607044,999.7592, , , , 
2026-03-20 17:34:42.597,-2.3545375,-9.540184,-0.076570325,-0.25213444,0.35101816,-1.1357503,-38.268753,13.1625,21.4125,0.5345379,-0.44390458,0.49914464,999.7592, , , , 
2026-03-20 17:34:42.617,-3.1082766,-9.7196455,-0.9164511,-0.015729768,0.09078978,-0.46318823,-38.34375,11.925,19.48125,0.53529954,-0.44026655,0.49664482,999.75824, , , , 
2026-03-20 17:34:42.637,-3.5533416,-10.298709,-3.17049,0.0019853106,-0.12301289,0.38713557,-38.756252,12.13125,19.96875,0.535052,-0.44104755,0.49728408,999.75824, , , , 
2026-03-20 17:34:42.657,-1.902294,-10.992627,-4.3908296,-0.45494154,-0.23052509,1.4353795,-38.662502,12.618751,20.550001,0.5310992,-0.44857463,0.5006981,999.73627, , , , 
2026-03-20 17:34:42.677,0.27996024,-10.889736,-2.1750758,-0.83673203,-0.19631667,2.21973,-38.34375,14.156251,20.4375,0.52107096,-0.46312058,0.5062387,999.73627, , , , 
2026-03-20 17:34:42.697,2.9623144,-10.884951,0.77766734,-0.73899364,-0.05459604,3.1103706,-38.49375,14.250001,21.84375,0.49620426,-0.4920032,0.5198851,999.7277, , , , 
2026-03-20 17:34:42.717,4.4171505,-11.002198,1.3304094,-0.525191,-0.017944153,3.3229518,-34.93125,16.3875,18.09375,0.481343,-0.5069057,0.5296098,999.7277, , , , 
2026-03-20 17:34:42.737,5.548956,-11.327622,0.18185452,-0.22220206,-0.011835505,3.529424,-36.206253,19.837502,22.050001,0.46111214,-0.5255802,0.5447543,999.7382, , , , 
2026-03-20 17:34:42.757,5.692525,-12.050255,-1.2634103,-0.23014331,-0.07170025,3.7432268,-34.612503,20.493752,22.3125,0.44563094,-0.53922117,0.55665183,999.7382, , , , 
2026-03-20 17:34:42.777,6.2691956,-13.234702,-1.2035898,-0.38408124,-0.2164752,4.194045,-31.66875,22.66875,20.94375,0.41725275,-0.5640218,0.57579195,999.73895, , , , 
2026-03-20 17:34:42.797,7.9226356,-13.430914,-0.021535404,-0.39752024,-0.32948518,4.567283,-30.45,25.031252,20.681252,0.39152753,-0.58567965,0.59059983,999.73895, , , , 
2026-03-20 17:34:42.817,9.942178,-12.705888,0.3924229,-0.32116216,-0.42722356,4.676628,-29.175001,27.88125,23.00625,0.3643643,-0.60687596,0.60497916,999.7409, , , , 
2026-03-20 17:34:42.837,10.645668,-11.854043,0.75613195,-0.26251915,-0.38385215,4.5660615,-24.88125,28.706251,21.900002,0.337422,-0.626172,0.61802113,999.7409, , , , 
2026-03-20 17:34:42.865,9.188439,-11.507084,1.253839,-0.12324197,-0.0900262,4.6021028,-20.081251,32.30625,23.362501,0.302812,-0.6463556,0.6334647,999.74384, , , , 
2026-03-20 17:34:42.877,9.099904,-12.019148,0.44745782,-0.058490302,0.14393501,4.9301367,-15.262501,32.8125,20.962502,0.2721186,-0.65992254,0.64640045,999.74384, , , , 
2026-03-20 17:34:42.897,11.748759,-12.253645,-0.3900301,-0.16722423,0.23556472,5.1671524,-10.950001,33.768753,19.368752,0.23799585,-0.6725802,0.6587481,999.7431, , , , 
2026-03-20 17:34:42.917,14.419149,-11.650654,-0.80159557,-0.35537058,0.31986406,4.9680104,-8.025001,33.91875,22.143751,0.2026288,-0.68432224,0.66858834,999.7431,37.8875487,127.73744399,179.444580078125,1.52
2026-03-20 17:34:42.937,15.129818,-10.250853,-1.3016955,-0.8153518,0.46891508,4.382802,-3.0187502,33.9375,21.31875,0.16901629,-0.6953739,0.6742477,999.7331, , , , 
2026-03-20 17:34:42.957,14.524433,-9.205189,-0.6197411,-1.2405137,0.76396275,3.886169,-1.7625,36.5625,20.56875,0.1367614,-0.70675826,0.6749495,999.7331, , , , 
2026-03-20 17:34:42.977,12.736995,-8.250452,1.430908,-1.6064217,0.9356158,3.330893,-0.75,35.268753,24.093752,0.10544538,-0.71859485,0.67135024,999.7233, , , , 
2026-03-20 17:34:42.997,11.641082,-8.492127,3.845266,-1.487303,0.80244726,3.0584471,1.8750001,34.425003,23.550001,0.06916041,-0.7325356,0.66388065,999.7233, , , , 
2026-03-20 17:34:43.019,11.937792,-8.776874,4.7545385,-0.9760092,0.4322632,2.9924738,3.8437502,34.237503,25.518751,0.0495244,-0.7388046,0.6604034,999.7421, , , , 
2026-03-20 17:34:43.037,14.490934,-8.676374,2.7493532,-0.25824308,-0.07475458,2.8525858,6.3,32.625,25.968752,0.022419918,-0.7438423,0.65945154,999.7421, , , , 
2026-03-20 17:34:43.057,17.307285,-8.226524,0.49052864,-0.030390523,-0.32459828,2.5098906,7.4812503,31.987501,26.962502,0.009897372,-0.74452525,0.6608202,999.76337, , , , 
2026-03-20 17:34:43.077,19.434505,-7.1784678,-0.21296121,-0.101250835,-0.5103012,1.65468,6.05625,32.4375,29.400002,-0.0035013666,-0.74506086,0.6625398,999.76337, , , , 
2026-03-20 17:34:43.097,20.063818,-7.0636125,0.57188463,-0.17027856,-0.40462157,0.9295835,7.2187505,30.712502,27.075,-0.0075094826,-0.74602383,0.6623789,999.75604, , , , 
2026-03-20 17:34:43.120,19.865213,-8.157132,2.1966112,0.10216714,-0.21036656,-0.006872229,7.55625,30.993752,27.468752,-0.0055812425,-0.7465496,0.6619957,999.75604, , , , 
2026-03-20 17:34:43.137,19.8365,-8.444271,1.2801601,0.41737336,-0.18043418,-0.6018545,10.06875,31.7625,26.081251,-0.0011040808,-0.7451494,0.6633076,999.7734, , , , 
2026-03-20 17:34:43.157,19.372292,-8.166703,0.20578274,0.51816607,-0.2494619,-1.422246,8.606251,32.362503,25.275002,0.013337147,-0.7410081,0.6666479,999.7734, , , , 
2026-03-20 17:34:43.178,17.489141,-8.762517,0.05503492,0.43142325,-0.3777435,-2.2652392,8.00625,31.781252,27.393751,0.026881209,-0.7383413,0.66798323,999.77313, , , , 
2026-03-20 17:34:43.197,15.596418,-10.485349,2.0027926,0.3819432,-0.61781335,-2.9469645,7.0687504,33.45,24.91875,0.056658406,-0.733874,0.66809124,999.77313, , , , 
2026-03-20 17:34:43.218,15.223138,-11.736795,3.438486,0.5920807,-0.7644209,-3.5596619,6.6000004,33.393753,25.593752,0.086210616,-0.7286704,0.66749305,999.7834, , , , 
2026-03-20 17:34:43.237,12.705888,-13.313665,2.8594232,0.82482016,-0.8572724,-4.1766353,3.35625,33.9375,25.593752,0.12067617,-0.72037256,0.6669491,999.7834, , , , 
2026-03-20 17:34:43.257,9.956535,-13.966906,1.39023,0.961043,-1.075962,-4.4270897,-0.71250004,35.287502,22.06875,0.15856276,-0.7094423,0.6657312,999.8156, , , , 
2026-03-20 17:34:43.277,10.832308,-13.634303,0.88295156,0.8938479,-1.2726604,-4.6909833,-2.9437501,35.925003,22.893751,0.1979426,-0.69726944,0.6627192,999.8156, , , , 
2026-03-20 17:34:43.297,8.312666,-14.08894,0.38285163,0.75823593,-2.1223733,-4.986642,-4.1062503,35.943752,22.087502,0.25395158,-0.68099093,0.6537101,999.8271, , , , 
2026-03-20 17:34:43.317,6.855437,-14.3258295,1.7419748,0.5584831,-1.7473023,-4.596299,-7.2562504,35.60625,22.44375,0.28783923,-0.67155087,0.64568,999.8271, , , , 
2026-03-20 17:34:43.338,8.17149,-13.050455,2.292324,0.64094985,-1.1297181,-4.1528115,-10.6125,36.28125,21.206251,0.33544186,-0.6546426,0.63323337,999.8317, , , , 
2026-03-20 17:34:43.357,8.977871,-11.849257,1.0839486,0.6391173,-0.6172025,-4.0569057,-12.3,33.61875,20.60625,0.36763135,-0.63883185,0.62507623,999.8317, , , , 
2026-03-20 17:34:43.377,8.772088,-10.853844,-0.4953143,0.51694435,-0.06498074,-3.9603891,-13.425,33.24375,21.525002,0.3955656,-0.621538,0.6174675,999.8332, , , , 
2026-03-20 17:34:43.397,8.88455,-10.167104,-2.359323,-0.020005822,0.76946056,-3.8626506,-20.025002,33.300003,22.66875,0.41743988,-0.6037727,0.61012197,999.8332, , , , 
2026-03-20 17:34:43.417,9.334401,-10.143175,-1.3064811,-0.35048366,1.033965,-3.9634435,-21.1875,32.568752,21.75,0.4335117,-0.5866165,0.6014621,999.80756, , , , 
2026-03-20 17:34:43.437,7.9537425,-10.904093,0.083748795,-0.366977,0.6399572,-4.1980157,-26.1375,28.331251,21.900002,0.44893464,-0.56912994,0.5903273,999.80756, , , , 
2026-03-20 17:34:43.457,6.0107703,-11.399407,0.17228323,-0.23625195,0.39622217,-4.1662507,-27.843752,28.5375,21.300001,0.47079474,-0.5466379,0.5734481,999.7951, , , , 
2026-03-20 17:34:43.477,4.065406,-11.432906,-1.0313065,-0.24969098,0.2844339,-3.9414523,-31.556252,23.2875,22.29375,0.48803037,-0.5287786,0.559245,999.7951, , , , 
2026-03-20 17:34:43.499,1.6821543,-11.215159,-1.9645073,-0.5398517,0.3174206,-3.5975354,-34.2,21.7875,21.581251,0.5030138,-0.5125965,0.54433686,999.7939, , , , 
2026-03-20 17:34:43.517,-0.32542387,-10.992627,-0.55513483,-0.7670934,0.30703592,-2.976286,-32.268753,21.225,22.181252,0.5137932,-0.4997476,0.52937657,999.7939, , , , 
2026-03-20 17:34:43.537,-1.2107682,-11.01177,1.4333007,-0.506865,0.42065677,-2.2023203,-33.24375,17.775002,21.54375,0.52036494,-0.48978126,0.51711726,999.79486, , , , 
2026-03-20 17:34:43.557,-2.8378878,-10.999805,1.0935199,0.022754714,0.49151707,-1.5157082,-37.21875,15.50625,21.9375,0.5244184,-0.48051628,0.5101974,999.79486, , , , 
2026-03-20 17:34:43.577,-3.9768713,-11.69851,-1.1653047,0.32574365,0.23312128,-0.7289144,-37.4625,14.3625,22.03125,0.52751046,-0.4726017,0.50856304,999.81, , , , 
2026-03-20 17:34:43.597,-3.4289148,-12.58864,-3.306881,0.24877468,-0.29405504,0.26923865,-37.125,15.375001,23.175001,0.5298287,-0.47041494,0.5102664,999.81, , , , 
2026-03-20 17:34:43.617,-2.4598217,-12.2584305,-3.6777685,-0.029779658,-0.4736493,1.0047199,-38.25,16.143751,20.775002,0.5292627,-0.47478303,0.5120493,999.79266, , , , 
2026-03-20 17:34:43.637,-1.0624132,-11.775081,-2.7613173,-0.4085158,-0.32826346,1.916741,-35.456253,15.450001,20.362501,0.5218054,-0.48955104,0.51739156,999.79266, , , , 
2026-03-20 17:34:43.658,0.782453,-11.212767,-0.93320084,-0.59299695,-0.1107956,2.6424484,-33.768753,18.73125,21.09375,0.5087391,-0.5060924,0.52503127,999.779, , , , 
2026-03-20 17:34:43.677,3.6083765,-11.4018,0.61734825,-0.42012227,0.018707734,3.15924,-35.268753,18.7875,24.018751,0.49087304,-0.5244227,0.53588635,999.779, , , , 
2026-03-20 17:34:43.697,5.206782,-12.0023985,0.19381863,-0.1470657,0.00160352,3.4133596,-34.125,19.29375,22.78125,0.47118312,-0.5423271,0.54931664,999.77924, , , , 
2026-03-20 17:34:43.718,6.125626,-12.990634,-0.5192425,0.06062833,-0.15111268,3.66076,-31.5375,22.78125,24.31875,0.4459127,-0.56376004,0.56781244,999.77924, , , , 
2026-03-20 17:34:43.737,6.769295,-13.641482,-0.50009996,0.21884231,-0.4644863,3.8965538,-31.368752,24.4125,24.375002,0.4307428,-0.5767365,0.578975,999.7817, , , , 
2026-03-20 17:34:43.757,7.810173,-13.880764,-0.45702913,0.45402524,-0.82917255,4.2172575,-27.243752,27.225,21.768751,0.40620983,-0.598815,0.5970603,999.7817, , , , 
2026-03-20 17:34:43.777,9.200403,-13.5074835,-0.526421,0.6574432,-0.94768035,4.4359474,-26.831251,28.63125,23.04375,0.38665587,-0.6157147,0.6114064,999.78046, , , , 
2026-03-20 17:34:43.797,10.588241,-12.497713,-0.9810573,0.7032581,-0.6758455,4.5373507,-22.5375,31.050001,23.0625,0.36602908,-0.6309006,0.6256411,999.78046, , , , 
2026-03-20 17:34:43.818,11.2343025,-11.799008,-1.2729816,0.57558733,-0.22075126,4.514138,-18.618752,32.9625,22.3875,0.34251282,-0.64391273,0.6395376,999.7795, , , , 
2026-03-20 17:34:43.837,11.16491,-11.062019,-2.0195422,0.22311836,0.44203702,4.411513,-11.981251,35.15625,19.725,0.31521538,-0.6552894,0.6523503,999.7795, , , , 
2026-03-20 17:34:43.857,11.026127,-10.626525,-1.7754744,-0.30405796,1.0724494,4.293005,-7.9500003,36.300003,20.625,0.2752171,-0.6692642,0.6650107,999.7751, , , , 
2026-03-20 17:34:43.877,10.619347,-10.167104,-1.6175481,-0.687681,1.4841723,4.224588,-7.9687505,35.550003,21.431252,0.248246,-0.67789584,0.67046344,999.7751, , , , 
2026-03-20 17:34:43.897,10.49492,-9.595219,-0.27038896,-1.0841323,1.6332233,4.0847,-2.60625,35.98125,21.150002,0.19997908,-0.69309324,0.675333,999.779, , , , 
2026-03-20 17:34:43.919,11.19841,-9.3511505,1.442872,-1.053589,1.196455,3.8018696,-1.5,36.5625,23.475,0.16243166,-0.70471776,0.6761781,999.779,37.88755374,127.73746129,179.740478515625,1.37
2026-03-20 17:34:43.937,11.71526,-9.487542,1.9405792,-0.8184061,0.473802,3.501935,0.82500005,36.54375,24.31875,0.13066958,-0.7144829,0.6757322,999.7856, , , , 
2026-03-20 17:34:43.957,12.057433,-9.420543,1.8041883,-0.34070984,-0.47242755,3.249037,0.26250002,34.3875,22.800001,0.107353486,-0.7216177,0.6755862,999.7856, , , , 
2026-03-20 17:34:43.978,11.66501,-8.322237,0.24646074,0.099723674,-1.2097414,3.0340126,7.4812503,35.268753,21.84375,0.08884196,-0.7264314,0.67728,999.8068, , , , 
2026-03-20 17:34:43.997,12.157932,-7.944171,-0.4354937,0.15347977,-1.1492658,2.9839218,10.5,33.581253,22.3875,0.08020918,-0.7279595,0.6786379,999.8068, , , , 
2026-03-20 17:34:44.017,14.959928,-7.5996046,-0.6628119,0.17608178,-0.82123137,2.7456844,10.200001,35.550003,20.456251,0.065396294,-0.72945064,0.6804304,999.8068, , , , 
2026-03-20 17:34:44.037,16.847864,-6.876972,-0.6436693,0.274431,-0.5768854,2.250884,11.64375,33.5625,23.8125,0.05460894,-0.7294328,0.68184006,999.8068, , , , 
2026-03-20 17:34:44.057,18.388842,-6.1854467,-1.2083755,0.30130905,-0.4644863,1.6736168,12.4875,32.53125,22.087502,-0.046904523,0.7283033,-0.68360996,999.79755, , , , 
2026-03-20 17:34:44.077,19.575682,-5.5896335,-1.6510476,0.17486005,-0.34353507,0.70661783,15.356251,34.331253,21.056252,-0.044200566,0.7270276,-0.68502873,999.79755, , , , 
2026-03-20 17:34:44.097,19.3029,-6.02752,-1.0097711,-0.0481056,-0.07047852,-0.32146758,15.675,33.0,21.4125,-0.046986863,0.726581,-0.68531626,999.79144, , , , 
2026-03-20 17:34:44.118,18.448662,-7.446464,-0.2847459,-0.04016436,0.17508912,-1.0661118,13.51875,31.143751,22.368752,-0.054065187,0.7265714,-0.6849229,999.79144, , , , 
2026-03-20 17:34:44.137,16.73301,-7.9944205,-0.5838487,0.117438756,0.41271552,-1.7594433,13.8,34.03125,23.56875,0.06707824,-0.72497934,0.6854146,999.78973, , , , 
2026-03-20 17:34:44.157,15.689738,-8.5016985,-0.90448695,0.13332124,0.3363574,-2.3813035,13.593751,33.6375,22.050001,0.08116929,-0.72233456,0.6861231,999.78973, , , , 
2026-03-20 17:34:44.177,14.770894,-10.07139,-0.74416786,0.0594066,0.11094832,-3.0178246,10.5375,33.600002,20.212502,0.10037809,-0.7189823,0.6858134,999.7963, , , , 
2026-03-20 17:34:44.197,13.682159,-12.227324,-0.31585258,-0.024281874,-0.12362376,-3.50896,8.0625,35.30625,22.5375,0.12470545,-0.71497124,0.6838169,999.7963, , , , 
2026-03-20 17:34:44.217,13.007384,-13.818551,0.6652047,-0.042607818,-0.43699738,-3.8461573,5.8500004,35.2125,22.63125,0.15276128,-0.71015114,0.6800539,999.8107, , , , 
2026-03-20 17:34:44.237,13.658232,-14.835501,1.4452649,0.017867794,-0.78152514,-4.1845765,3.6750002,36.61875,20.456251,0.18420663,-0.7039156,0.6749018,999.8107, , , , 
2026-03-20 17:34:44.257,13.77548,-15.404992,1.4811572,0.034361143,-1.0429753,-4.553539,2.4750001,36.61875,22.125,0.21983314,-0.69576716,0.6680632,999.82587, , , , 
2026-03-20 17:34:44.277,12.990634,-15.876378,2.6105695,0.0386372,-1.1859176,-4.9652615,-3.99375,34.8375,19.96875,0.2587711,-0.6857442,0.65888995,999.82587, , , , 
2026-03-20 17:34:44.298,10.789237,-16.153946,3.9361932,0.34590217,-1.283045,-5.3232284,-1.4625001,36.35625,18.393751,0.31049955,-0.6690426,0.64523375,999.84, , , , 
2026-03-20 17:34:44.317,9.415757,-15.641882,3.1920254,0.5658135,-1.0356449,-5.321396,-4.2375,36.45,18.206251,0.34171242,-0.6559737,0.63714445,999.84, , , , 
2026-03-20 17:34:44.337,7.1018977,-14.545969,1.2059826,0.6348412,-0.5115229,-5.0287914,-9.28125,34.912502,21.45,0.380156,-0.635692,0.62735707,999.86176, , , , 
2026-03-20 17:34:44.357,6.391229,-13.469198,-0.43788654,0.54443324,0.08223767,-4.5956883,-14.587501,36.225002,22.087502,0.41132465,-0.6144689,0.6191205,999.86176, , , , 
2026-03-20 17:34:44.377,7.1425757,-11.892328,-1.6151553,0.13698642,0.96554816,-4.0660686,-18.0,34.518753,21.46875,0.43818375,-0.58892816,0.610805,999.85565, , , , 
2026-03-20 17:34:44.397,7.405786,-11.203196,-1.0767702,0.015424335,0.9698242,-4.036747,-21.84375,32.1375,21.69375,0.45020264,-0.57391554,0.6058376,999.85565, , , , 
2026-03-20 17:34:44.417,6.9009004,-10.889736,-0.8063812,0.016646065,0.55749047,-4.1069965,-23.625,31.85625,18.50625,0.46658194,-0.55402994,0.5972404,999.8288, , , , 
2026-03-20 17:34:44.437,5.3216376,-10.403993,-0.5838487,0.04291325,-0.118125975,-4.097223,-25.63125,30.000002,20.831251,0.49075893,-0.5301676,0.58188117,999.8288, , , , 
2026-03-20 17:34:44.458,4.290331,-10.152746,-0.24646074,0.07651082,-0.37835437,-3.9664977,-29.156252,24.91875,20.550001,0.50649893,-0.5166894,0.5707036,999.7978, , , , 
2026-03-20 17:34:44.477,2.57707,-9.614362,-0.6436693,0.07834341,-0.35941756,-3.5700464,-29.587502,22.650002,19.35,0.5365802,-0.4910117,0.5477022,999.7978, , , , 
2026-03-20 17:34:44.497,1.7371893,-9.379865,-1.2203395,-0.009010255,-0.29405504,-3.129002,-34.612503,20.493752,22.3125,0.5533789,-0.47547537,0.53342414,999.77875, , , , 
2026-03-20 17:34:44.518,1.2418749,-9.21476,-1.6319051,-0.16905683,-0.17676899,-2.5969388,-33.581253,18.243752,21.393751,0.56665653,-0.46249363,0.5205222,999.77875, , , , 
2026-03-20 17:34:44.537,0.53599226,-9.410972,-1.416551,-0.35475972,0.04619665,-1.9378158,-37.10625,15.39375,22.087502,0.57571757,-0.452539,0.5097272,999.7624, , , , 
2026-03-20 17:34:44.557,0.14356937,-9.5353985,-0.6987042,-0.4072941,0.2135736,-1.3568834,-36.15,15.618751,20.4375,0.58034503,-0.44550866,0.5019803,999.7624, , , , 
2026-03-20 17:34:44.577,-0.8470592,-10.018748,-0.59581286,-0.36453354,0.18852814,-0.78877914,-37.275,15.243751,21.956251,0.5816791,-0.4410619,0.49739733,999.7568, , , , 
2026-03-20 17:34:44.597,-2.0697916,-10.724631,-0.5838487,-0.23991714,-0.15722132,0.021838415,-37.4625,13.6125,22.21875,0.5809752,-0.4409182,0.49489656,999.7568, , , , 
2026-03-20 17:34:44.618,-2.1870399,-10.614561,-0.8446664,-0.17516547,-0.33742642,0.8465059,-36.73125,12.712501,20.19375,0.57942533,-0.44490713,0.4952079,999.7519, , , , 
2026-03-20 17:34:44.637,-0.41874397,-10.066605,-1.1772687,-0.29122978,-0.10957387,1.8959715,-35.98125,15.76875,20.550001,0.5719077,-0.45847085,0.50075364,999.7519, , , , 
2026-03-20 17:34:44.657,1.5361922,-9.683753,-0.8111669,-0.46654797,0.41271552,2.6002986,-36.28125,17.212502,21.13125,0.5588717,-0.47336158,0.51058394,999.7492, , , , 
2026-03-20 17:34:44.677,3.6753755,-10.624132,0.047856454,-0.52824533,0.9576069,3.1262531,-35.625,17.53125,21.0375,0.53910935,-0.48937503,0.5251098,999.7492, , , , 
2026-03-20 17:34:44.697,4.948357,-11.511869,0.74177504,-0.30405796,0.7095958,3.4286313,-34.36875,20.04375,19.368752,0.5154178,-0.5055663,0.54255974,999.7536, , , , 
2026-03-20 17:34:44.717,6.0251274,-12.074183,0.37567315,0.113162704,-0.17615813,3.6412122,-32.550003,21.956251,21.393751,0.49348688,-0.52285576,0.5595529,999.7536, , , , 
2026-03-20 17:34:44.737,6.8410797,-12.614961,-1.0695918,0.3733911,-0.7735839,3.9503098,-32.4375,24.056252,23.41875,0.4718769,-0.54675007,0.57788986,999.7675, , , , 
2026-03-20 17:34:44.757,7.0803623,-12.859029,-1.995614,0.3159698,-0.6123156,4.304611,-30.618752,25.743752,22.66875,0.45884764,-0.5618472,0.58835626,999.7675, , , , 
2026-03-20 17:34:44.778,7.795816,-12.911671,-1.3950156,0.031306818,0.03886627,4.8635526,-24.431252,29.5125,21.0375,0.42982394,-0.58751464,0.606944,999.7629, , , , 
2026-03-20 17:34:44.797,9.509077,-12.794423,-0.31345975,-0.093309596,0.2410625,5.101179,-20.2875,30.431252,21.7875,0.39930496,-0.6079,0.6224986,999.7629, , , , 
2026-03-20 17:34:44.818,11.203196,-12.131611,0.6723832,-0.03527744,0.10178535,4.983282,-19.95,32.831253,21.45,0.36681858,-0.6269778,0.6366768,999.76215, , , , 
2026-03-20 17:34:44.837,10.956735,-11.739188,0.014356935,0.1443168,0.05169443,4.7065606,-11.4375,36.3375,18.50625,0.3364015,-0.6429403,0.64902383,999.76215, , , , 
2026-03-20 17:34:44.857,10.315458,-11.631511,-0.9882358,0.030695954,0.27710354,4.6754065,-11.775001,37.03125,21.28125,0.2986623,-0.6595595,0.66247505,999.76263, , , , 
2026-03-20 17:34:44.877,10.631311,-11.861222,-1.4356936,-0.20693044,0.4231002,4.7151127,-11.231251,37.4625,20.268751,0.27459207,-0.66908544,0.6690095,999.76263, , , , 
2026-03-20 17:34:44.897,12.760923,-11.753545,-0.38285163,-0.53496486,0.53672105,4.677239,-4.14375,36.84375,17.71875,0.23204209,-0.6853803,0.67618364,999.76215, , , , 
2026-03-20 17:34:44.918,14.636896,-10.844273,0.66999036,-0.59544045,0.5342776,4.192212,-1.2,35.737503,21.6375,0.19858468,-0.6974163,0.6789372,999.76215,37.88755786,127.73747902,180.270751953125,1.46
2026-03-20 17:34:44.938,14.586647,-9.853643,1.2849457,-0.59605134,0.5672643,3.5734062,2.7,36.037502,19.66875,0.16879289,-0.7072649,0.67986125,999.76483, , , , 
2026-03-20 17:34:44.957,13.58884,-9.004191,1.5696917,-0.5404626,0.76762795,3.078606,4.96875,36.393753,19.25625,0.14243092,-0.7149338,0.67983127,999.76483, , , , 
2026-03-20 17:34:44.977,12.701102,-7.984849,1.6103697,-0.5056433,0.98081976,2.7627888,3.6750002,36.09375,23.41875,0.117613964,-0.7207977,0.6795835,999.7775, , , , 
2026-03-20 17:34:44.997,12.179467,-6.826723,1.5170496,-0.48243046,1.2294418,2.372446,4.875,35.362503,21.956251,0.09356796,-0.7254135,0.67908216,999.7775, , , , 
2026-03-20 17:34:45.018,11.815758,-6.9702926,1.5840486,-0.37125307,1.1543053,2.1158829,5.4750004,33.43125,23.38125,0.070874,-0.7289881,0.6783452,999.79, , , , 
2026-03-20 17:34:45.037,12.770494,-7.2263246,1.253839,-0.06582068,0.66805696,1.8886412,5.08125,33.862503,25.725,0.051127985,-0.7309615,0.67831933,999.79, , , , 
2026-03-20 17:34:45.057,14.301901,-7.34118,-0.26799613,0.16752967,0.20929754,1.5935935,8.512501,33.225002,23.85,0.036499124,-0.73089546,0.679763,999.79926, , , , 
2026-03-20 17:34:45.077,15.692131,-7.2861447,-1.564906,0.05329795,-0.17737986,1.0322088,8.512501,34.2,26.8875,0.026693985,-0.7300144,0.6816859,999.79926, , , , 
2026-03-20 17:34:45.097,16.8694,-8.080562,-0.7609176,-0.14767656,-0.27633995,0.5056433,12.525001,32.04375,22.575,0.02457131,-0.7305213,0.6814674,999.7963, , , , 
2026-03-20 17:34:45.119,17.96292,-8.439486,0.12921242,-0.15867212,-0.29038984,-0.008704823,11.587501,33.91875,23.643751,0.026786676,-0.7316267,0.68024665,999.7963, , , , 
2026-03-20 17:34:45.137,18.91287,-7.728817,0.4235296,-0.14278965,-0.0796415,-0.8553634,11.887501,33.956253,22.837502,0.033347458,-0.7322467,0.67908,999.79486, , , , 
2026-03-20 17:34:45.157,17.383856,-8.075776,1.1676974,-0.16722423,0.3540725,-1.9463679,11.493751,32.175003,24.525002,0.04753672,-0.73236483,0.67701745,999.79486, , , , 
2026-03-20 17:34:45.178,14.514862,-10.021141,1.8161523,0.003817905,0.62346387,-2.6665776,10.06875,34.518753,24.393751,0.06290838,-0.731019,0.6751434,999.81464, , , , 
2026-03-20 17:34:45.197,12.476177,-11.284552,1.6223338,0.30558512,0.6625592,-2.9976661,8.775001,34.631252,24.525002,0.07597579,-0.72818553,0.6744687,999.81464, , , , 
2026-03-20 17:34:45.217,12.071791,-12.234502,0.41874397,0.6342304,0.39133525,-3.2762206,4.1625004,35.756252,25.087502,0.100659736,-0.7197983,0.6749702,999.8327, , , , 
2026-03-20 17:34:45.237,12.435499,-12.6987095,-0.50009996,0.7832814,-0.0240528,-3.6409068,2.04375,35.30625,23.79375,0.12502925,-0.71081823,0.6753773,999.8327, , , , 
2026-03-20 17:34:45.257,12.007184,-13.328022,-1.0576276,0.6892082,-0.50174904,-4.2022915,-3.05625,35.30625,21.54375,0.17073439,-0.69543624,0.67253166,999.8315, , , , 
2026-03-20 17:34:45.277,12.878172,-13.935799,-0.11485548,0.6525563,-0.70028013,-4.4649634,-3.2625,36.300003,19.81875,0.18773113,-0.690062,0.6701775,999.8315, , , , 
2026-03-20 17:34:45.297,12.045469,-15.067604,0.8350951,0.8492548,-1.5151737,-5.106982,-8.8125,35.943752,23.6625,0.22636452,-0.677753,0.66349095,999.8183, , , , 
2026-03-20 17:34:45.317,10.564312,-15.878771,-0.014356935,0.92561287,-1.6440662,-5.370265,-9.056251,34.55625,21.6,0.2720639,-0.66306514,0.653936,999.8183, , , , 
2026-03-20 17:34:45.337,7.989635,-15.419349,-1.39023,0.74540776,-1.3044254,-5.2865767,-14.83125,36.225002,18.862501,0.32823855,-0.6418526,0.6391575,999.82, , , , 
2026-03-20 17:34:45.357,6.91765,-14.175081,-2.0841484,0.45402524,-0.62331116,-4.9353294,-15.281251,33.956253,18.431252,0.36672673,-0.62426186,0.6260579,999.82, , , , 
2026-03-20 17:34:45.377,6.7740808,-12.361321,-3.4289148,0.08384119,0.55077094,-4.490009,-22.2,31.837502,21.75,0.39610657,-0.60630345,0.61379945,999.81366, , , , 
2026-03-20 17:34:45.397,7.0468626,-11.176874,-4.1443686,-0.34193155,1.4212533,-4.3110256,-25.63125,30.750002,21.243752,0.41562614,-0.58768,0.6030849,999.81366, , , , 
2026-03-20 17:34:45.418,6.125626,-10.985449,-3.6466618,-0.5844449,1.6320016,-4.304917,-27.31875,25.987501,19.987501,0.4286477,-0.568496,0.5921072,999.7912, , , , 
2026-03-20 17:34:45.437,4.338187,-11.394622,-2.4071796,-0.59482956,0.8696424,-4.254826,-31.575,25.931252,20.1375,0.44376412,-0.54525745,0.575216,999.7912, , , , 
2026-03-20 17:34:45.457,2.9742785,-11.7463665,-1.5984055,-0.49464774,0.14698933,-4.069123,-32.100002,24.750002,20.25,0.4551657,-0.53312224,0.5624953,999.77484, , , , 
2026-03-20 17:34:45.477,1.7347964,-11.82533,-1.1964114,-0.36331183,-0.41500625,-3.6036441,-32.737503,20.60625,16.5375,0.47654295,-0.5165544,0.539194,999.77484, , , , 
2026-03-20 17:34:45.497,1.0456635,-12.504891,-2.2468605,-0.38774642,-0.5793289,-3.0679157,-35.643753,18.056252,19.1625,0.4929265,-0.5064534,0.5209054,999.77045, , , , 
2026-03-20 17:34:45.518,0.33499518,-12.155539,-2.6919255,-0.56367546,-0.55733776,-2.4686573,-38.325,15.13125,22.06875,0.5060926,-0.49969935,0.5039739,999.77045, , , , 
2026-03-20 17:34:45.537,-0.6364908,-11.062019,-2.7756743,-0.8330668,-0.23663375,-1.84191,-35.756252,13.293751,20.98125,0.5147879,-0.4959852,0.48902762,999.7795, , , , 
2026-03-20 17:34:45.557,-2.3353949,-10.865808,-3.1082766,-1.1250602,0.34246606,-1.2432625,-38.025,12.187501,21.28125,0.5176216,-0.4939339,0.4773286,999.7795, , , , 
2026-03-20 17:34:45.579,-3.8524444,-11.679367,-3.2805598,-1.4720314,0.70531976,-0.34712392,-38.362503,9.675,19.462502,0.51107675,-0.49440393,0.4687151,999.77655, , , , 
2026-03-20 17:34:45.597,-3.5940197,-12.18186,-3.1154552,-1.7365359,0.5287798,0.6327032,-40.143753,7.5000005,21.31875,0.49860382,-0.5004297,0.46593696,999.77655, , , , 
2026-03-20 17:34:45.618,-1.8089739,-12.854243,-1.9453648,-2.0211987,0.18730642,1.5257875,-40.050003,8.868751,22.7625,0.48096654,-0.51363873,0.4653347,999.77484, , , , 
2026-03-20 17:34:45.637,0.22492532,-13.296915,-0.031106694,-2.1684172,0.007101303,2.30464,-40.068752,9.4875,22.575,0.45859227,-0.5328939,0.4665676,999.77484, , , , 
2026-03-20 17:34:45.657,2.120041,-13.399807,2.1104696,-2.04319,0.12072215,2.932609,-39.73125,8.90625,21.65625,0.43177533,-0.5549807,0.47083995,999.7851, , , , 
2026-03-20 17:34:45.677,3.2398818,-13.600804,1.7467605,-1.7689117,0.4078286,3.4158032,-40.331253,11.8125,22.78125,0.40147334,-0.5762597,0.479582,999.7851, , , , 
2026-03-20 17:34:45.697,3.8261235,-14.75893,0.83988076,-1.7566944,0.36873326,3.9442012,-37.893753,13.687501,22.425001,0.36791566,-0.59658307,0.49168193,999.81854, , , , 
2026-03-20 17:34:45.717,5.0799623,-15.914663,1.7515461,-1.758527,-0.22930336,4.432893,-37.93125,14.418751,24.69375,0.33200473,-0.6190481,0.50411177,999.81854, , , , 
2026-03-20 17:34:45.738,6.7836523,-15.63231,4.2448673,-1.3632975,-0.7412081,5.043147,-34.050003,16.800001,23.53125,0.28647834,-0.6501547,0.519722,999.8234, , , , 
2026-03-20 17:34:45.757,7.8604226,-15.069997,4.7880383,-0.8477276,-0.6129264,5.385231,-31.143751,19.706251,24.150002,0.24975035,-0.67265356,0.5353076,999.8234, , , , 
2026-03-20 17:34:45.777,9.0544405,-14.323437,4.007978,-0.31627524,-0.18226677,5.6857767,-30.937502,22.331251,26.75625,0.21154694,-0.6895263,0.55501145,999.8432, , , , 
2026-03-20 17:34:45.797,10.023534,-14.024334,1.9908284,-0.067653276,0.5452732,5.924625,-27.300001,24.956251,24.056252,0.17041926,-0.7002682,0.57748663,999.8432, , , , 
2026-03-20 17:34:45.817,11.58844,-13.976477,1.0456635,-0.18555018,0.99425876,5.9215703,-23.6625,25.462502,23.19375,0.1252039,-0.706506,0.5995284,999.8588, , , , 
2026-03-20 17:34:45.837,13.095919,-13.483556,1.2083755,-0.39813113,1.0590105,5.6051426,-19.63125,29.475,23.775002,0.0783172,-0.71005577,0.6178991,999.8588, , , , 
2026-03-20 17:34:45.857,12.928421,-12.914063,1.8185452,-0.37491825,0.52328205,5.0089383,-15.337501,32.025,25.500002,0.03570841,-0.71242034,0.6318632,999.8466, , , , 
2026-03-20 17:34:45.878,12.727424,-12.466606,1.1724831,-0.41706792,0.26855144,4.5306315,-14.512501,32.362503,23.7,-0.008721489,-0.71432984,0.64516973,999.8466, , , , 
2026-03-20 17:34:45.897,12.646068,-11.787045,0.8542377,-0.61254466,0.5287798,4.1354017,-11.1,32.7,25.0125,-0.04088316,-0.715293,0.6522484,999.83905, , , , 
2026-03-20 17:34:45.919,12.433106,-11.404193,1.1126626,-0.8428407,0.920955,3.854404,-7.5000005,32.9625,23.38125,-0.06498172,-0.7158186,0.6550978,999.83905,37.88756182,127.73749772,180.558349609375,1.51
2026-03-20 17:34:45.937,12.392428,-10.949556,1.7371893,-1.0835214,1.4255294,3.5043786,-5.4,34.893753,26.60625,-0.106347725,-0.716266,0.6555666,999.82733, , , , 
2026-03-20 17:34:45.957,12.425928,-9.879965,3.0987053,-1.1250602,1.923995,3.22277,-2.49375,33.3375,26.23125,-0.14032458,-0.7159292,0.6526943,999.82733, , , , 
2026-03-20 17:34:45.977,12.789637,-8.920443,3.6346977,-1.0138829,2.2642467,2.9075637,-2.98125,32.41875,26.343752,-0.17489462,-0.71379364,0.6480999,999.82855, , , , 
2026-03-20 17:34:45.997,13.217953,-8.408379,3.859623,-0.6986766,2.3131158,2.412763,-3.8812501,32.41875,28.44375,-0.20765795,-0.7097553,0.6428376,999.82855, , , , 
2026-03-20 17:34:46.017,13.741981,-8.355737,3.2159536,-0.2924515,1.8958952,2.0590725,-2.04375,33.487503,27.88125,-0.23583467,-0.7040213,0.63867426,999.8293, , , , 
2026-03-20 17:34:46.037,15.938592,-8.147561,1.3639089,0.08994984,1.3326778,1.5630503,-2.2875001,33.09375,28.087502,-0.2617388,-0.6955644,0.6369581,999.8293, , , , 
2026-03-20 17:34:46.057,17.27618,-8.578269,0.059820566,0.14676027,1.0199151,0.9418008,-1.35,34.050003,28.237501,-0.27477452,-0.6897715,0.6366281,999.8244, , , , 
2026-03-20 17:34:46.077,17.824137,-8.353344,0.34217364,0.14553854,0.78473216,0.3101666,-0.69375,32.775,25.612501,-0.28168076,-0.6862989,0.63547194,999.8244, , , , 
2026-03-20 17:34:46.097,19.468004,-8.350951,0.3278167,0.20723587,0.6607266,-0.42897978,-2.4750001,33.5625,27.618752,-0.28278154,-0.684704,0.63370013,999.80536, , , , 
2026-03-20 17:34:46.117,19.795822,-7.8891363,0.50009996,0.2536616,0.7572433,-1.4295763,-5.55,32.8875,27.825,-0.27761722,-0.6852443,0.6303189,999.80536, , , , 
2026-03-20 17:34:46.137,17.986847,-8.413164,0.076570325,0.28359398,1.0632865,-2.4998114,-3.5062501,34.21875,27.525002,-0.26646066,-0.68758535,0.6240832,999.78754, , , , 
2026-03-20 17:34:46.157,15.460027,-10.54517,-0.43788654,0.40332347,1.6100105,-3.413665,-6.95625,33.862503,27.6,-0.2513168,-0.69047505,0.6141765,999.78754, , , , 
2026-03-20 17:34:46.177,14.646467,-12.27518,-1.8687944,0.67576915,1.8653519,-3.982991,-10.387501,33.506252,27.675001,-0.23362571,-0.69171184,0.6017146,999.77997, , , , 
2026-03-20 17:34:46.197,13.624732,-13.734802,-3.6323047,0.7704532,1.7572289,-4.5822496,-16.893751,33.112503,25.743752,-0.20624247,-0.6910777,0.5834174,999.77997, , , , 
2026-03-20 17:34:46.217,12.552748,-15.680167,-5.6303115,0.6317869,1.4658464,-4.8663015,-20.625,33.35625,24.73125,-0.17997509,-0.6906321,0.5659582,999.7619, , , , 
2026-03-20 17:34:46.237,12.062219,-16.2688,-5.302495,0.41248643,1.110934,-4.982366,-20.75625,30.2625,20.90625,-0.15132664,-0.6914727,0.5455474,999.7619, , , , 
2026-03-20 17:34:46.257,12.423535,-16.426727,-4.1443686,0.33979353,0.9087377,-5.0831585,-26.325,28.931252,22.96875,-0.12119453,-0.69258696,0.5231761,999.7238, , , , 
2026-03-20 17:34:46.277,13.612768,-17.144575,-2.3832514,0.45097092,0.43165234,-5.573683,-32.006252,25.368752,22.06875,-0.0882587,-0.6931927,0.49907684,999.7238, , , , 
2026-03-20 17:34:46.297,11.253445,-18.321842,-1.9477576,0.7808379,-0.303218,-6.0764246,-33.28125,24.13125,21.1875,-0.048108686,-0.6939023,0.47315353,999.70844, , , , 
2026-03-20 17:34:46.317,9.049655,-18.218952,-3.4073794,1.0044144,-0.76686436,-6.046492,-36.61875,18.65625,23.85,-0.0017971438,-0.6944605,0.4470541,999.70844, , , , 
2026-03-20 17:34:46.339,7.0348988,-16.220945,-6.0418773,0.81810063,-0.5475639,-5.5455832,-38.625,15.843751,22.5375,0.04495877,-0.69429666,0.42160806,999.71185, , , , 
2026-03-20 17:34:46.357,6.8889365,-13.677374,-7.733603,-0.046273008,0.80244726,-4.8375907,-40.48125,10.950001,21.46875,0.09057016,-0.68937117,0.38932195,999.71185, , , , 
2026-03-20 17:34:46.377,6.984649,-12.263216,-5.3407803,-0.71089387,1.5953498,-4.5370455,-42.0,7.8,21.956251,0.11336229,-0.6804573,0.3608548,999.6938, , , , 
2026-03-20 17:34:46.397,5.9700923,-11.447264,-2.184647,-0.6656899,1.4579052,-4.4680176,-42.375,5.775,20.25,0.13115615,-0.6687697,0.33105084,999.6938, , , , 
2026-03-20 17:34:46.417,4.139583,-10.822737,-1.1988041,-0.22403465,0.5935315,-4.3434014,-42.7125,1.2750001,20.081251,0.15136753,-0.6579178,0.30233935,999.68036, , , , 
2026-03-20 17:34:46.437,2.2899313,-10.291531,-2.158326,0.0820086,-0.3191005,-3.9860454,-43.40625,-2.2875001,19.275002,0.17532994,-0.6511101,0.27598032,999.68036, , , , 
2026-03-20 17:34:46.457,1.0959128,-9.265009,-2.8259234,0.13698642,-1.1504874,-3.2982116,-41.9625,-7.5937505,17.8875,0.20557356,-0.6493877,0.24644254,999.6901, , , , 
2026-03-20 17:34:46.477,1.1940185,-9.1669035,-3.1800613,1.527162E-4,-1.5561017,-2.8681629,-42.28125,-8.15625,20.8875,0.22206265,-0.65167135,0.23016489,999.6901, , , , 
2026-03-20 17:34:46.497,1.18684,-9.24826,-3.4767714,-0.2784016,-1.6941571,-2.3196063,-40.706253,-11.231251,21.056252,0.24488796,-0.65944535,0.20445389,999.6984, , , , 
2026-03-20 17:34:46.517,0.53359944,-9.767502,-3.778267,-0.68890274,-1.2665517,-1.7447826,-39.6375,-13.743751,23.7,0.25690636,-0.66649485,0.18571052,999.6984, , , , 
2026-03-20 17:34:46.537,-0.35174492,-10.851451,-3.0532417,-1.2490658,-0.4400517,-0.9604322,-38.68125,-15.525001,23.550001,0.26058155,-0.6718938,0.16955887,999.7111, , , , 
2026-03-20 17:34:46.557,-1.2299109,-11.657832,-1.7084754,-1.5404483,0.05291616,-0.18524474,-38.41875,-17.85,23.04375,0.25525886,-0.6750427,0.15721275,999.7111, , , , 
2026-03-20 17:34:46.577,-1.942972,-11.41855,-0.8805587,-1.6070325,0.18730642,0.7163917,-39.675003,-17.493752,23.925001,0.23860863,-0.67853045,0.14854896,999.7214, , , , 
2026-03-20 17:34:46.597,-1.8376877,-11.660225,-0.80877405,-1.6613995,0.16470441,1.4109449,-39.018753,-17.2875,22.9125,0.22430514,-0.6815686,0.14712484,999.7214, , , , 
2026-03-20 17:34:46.617,-0.46660042,-12.031113,-0.08135597,-1.7285947,0.058413945,2.3797765,-40.18125,-15.900001,20.493752,0.19314541,-0.6888674,0.15059626,999.7497, , , , 
2026-03-20 17:34:46.637,1.7659031,-12.488141,0.9164511,-1.6687299,9.926553E-4,2.8715227,-41.4,-16.143751,21.09375,0.16249304,-0.6960915,0.15835081,999.7497, , , , 
2026-03-20 17:34:46.657,3.0173492,-12.622139,1.6199409,-1.4372121,0.015653409,3.2661412,-42.768753,-14.925,21.46875,0.12923776,-0.7030886,0.17008375,999.7707, , , , 
2026-03-20 17:34:46.677,3.4432719,-12.973885,0.8853444,-1.2276855,0.05169443,3.6314385,-42.28125,-13.25625,21.16875,0.094882004,-0.70892465,0.18573986,999.7707, , , , 
2026-03-20 17:34:46.697,3.546163,-13.933406,-0.15553348,-1.2490658,0.030314164,4.1561713,-44.475002,-10.35,20.15625,0.05841709,-0.71375424,0.20449139,999.79706, , , , 
2026-03-20 17:34:46.717,4.5415773,-14.892928,0.13399807,-1.3810126,-0.2201404,4.7419906,-43.143753,-8.34375,18.056252,0.017970113,-0.7184183,0.22564492,999.79706, , , , 
2026-03-20 17:34:46.737,5.9820566,-15.771094,2.0458634,-1.3083197,-0.27328563,5.425548,-45.61875,-3.7500002,20.0625,-0.03841685,-0.72353786,0.2558019,999.80804, , , , 
2026-03-20 17:34:46.757,7.9968133,-15.974484,4.048656,-0.8281799,-0.35941756,5.895914,-41.643753,-0.112500004,19.275002,-0.08603403,-0.72400075,0.28468856,999.80804, , , , 
2026-03-20 17:34:46.777,9.822537,-15.706488,3.897908,-0.058490302,-0.73571026,6.049852,-42.15,6.9187503,19.85625,-0.13058388,-0.7210053,0.31894216,999.82587, , , , 
2026-03-20 17:34:46.797,11.085947,-15.873985,1.7826529,0.49861836,-0.9550107,6.0296936,-41.737503,10.668751,23.15625,-0.16923684,-0.7153143,0.35736537,999.82587, , , , 
2026-03-20 17:34:46.817,12.201003,-15.838093,0.76570326,0.70936674,-1.044197,5.92829,-41.831253,13.031251,22.25625,-0.20357339,-0.70725554,0.3964886,999.84686, , , , 
2026-03-20 17:34:46.837,13.201202,-15.330814,-0.3924229,0.66355187,-0.57077676,5.669894,-36.956253,18.375,22.81875,-0.23542817,-0.69639444,0.43353254,999.84686, , , , 
2026-03-20 17:34:46.857,13.454842,-14.208581,-0.2943172,0.2451095,0.15248711,5.27833,-34.0875,22.40625,23.0625,-0.27548602,-0.6786262,0.47185576,999.85077, , , , 
2026-03-20 17:34:46.877,14.076976,-13.347165,0.4235296,0.058795735,0.5122865,4.971065,-31.556252,23.306252,21.975,-0.3001659,-0.6664722,0.4898136,999.85077, , , , 
2026-03-20 17:34:46.897,14.7254305,-12.217752,0.91166544,0.027641632,0.722424,4.3724174,-28.612501,27.6,20.6625,-0.33170912,-0.649471,0.5087318,999.83734, , , , 
2026-03-20 17:34:46.917,14.49572,-11.191232,0.52163535,0.01970039,1.047404,3.8214173,-29.5125,28.987501,21.6,-0.3597083,-0.63251704,0.52317435,999.83734,37.88756494,127.73751849,180.6239013671875,1.53
2026-03-20 17:34:46.937,14.012369,-9.595219,-0.51206404,-0.032833982,1.7272965,3.3205082,-23.94375,32.662502,21.73125,-0.39252278,-0.6104672,0.5350354,999.83, , , , 
2026-03-20 17:34:46.957,14.411971,-9.066405,-1.550549,-0.28145593,2.3699262,3.03218,-24.525002,34.10625,21.5625,-0.41999468,-0.591608,0.5384521,999.83, , , , 
2026-03-20 17:34:46.977,15.306887,-8.664411,-1.3136597,-0.58016884,2.7889795,2.6235116,-23.681252,33.825,19.78125,-0.44950065,-0.5726625,0.53515273,999.82245, , , , 
2026-03-20 17:34:46.997,15.94577,-8.298309,0.16749759,-0.59544045,2.421239,2.0639594,-21.487501,35.287502,20.081251,-0.47715712,-0.5555874,0.5276824,999.82245, , , , 
2026-03-20 17:34:47.019,17.230717,-7.8293157,0.6652047,-0.3498728,1.6539928,1.483027,-19.7625,37.21875,19.800001,-0.49825066,-0.5419661,0.5206227,999.79877, , , , 
2026-03-20 17:34:47.037,18.273987,-7.8053875,0.6197411,-0.108581215,0.9069051,0.8061888,-20.38125,36.91875,17.25,-0.51075524,-0.5331078,0.51562315,999.79877, , , , 
2026-03-20 17:34:47.057,19.018154,-7.9920278,0.5168497,0.1443168,0.27466008,0.052381653,-19.96875,36.09375,17.71875,-0.5148048,-0.5295934,0.5123128,999.7983, , , , 
2026-03-20 17:34:47.077,17.850456,-7.015756,0.11485548,0.33063057,0.01687514,-0.79244435,-19.5,37.631252,17.4375,-0.5095063,-0.53191185,0.50865555,999.7983, , , , 
2026-03-20 17:34:47.097,16.73301,-6.984649,-0.009571291,0.3941605,0.0712421,-1.5150974,-18.956251,35.831253,15.76875,-0.5001049,-0.53738993,0.503408,999.8044, , , , 
2026-03-20 17:34:47.117,15.675381,-8.274381,-0.485743,0.41798422,0.10483967,-2.2646284,-19.800001,38.11875,14.64375,-0.48690033,-0.54567355,0.4948392,999.8044, , , , 
2026-03-20 17:34:47.137,14.218152,-10.657632,-1.5314065,0.27687445,0.020540329,-3.0532548,-26.04375,34.96875,17.19375,-0.46519944,-0.5602666,0.47917807,999.80194, , , , 
2026-03-20 17:34:47.157,13.421342,-11.947364,-1.39023,0.0490219,-0.16027565,-3.5120144,-25.06875,35.2125,14.606251,-0.45003715,-0.57137644,0.4672435,999.80194, , , , 
2026-03-20 17:34:47.177,13.560126,-13.677374,-0.3924229,-0.057879437,-0.384463,-3.9182394,-26.118752,33.73125,15.262501,-0.42739618,-0.58874667,0.4489268,999.7856, , , , 
2026-03-20 17:34:47.197,13.658232,-15.079568,0.33020952,0.0129808765,-0.7137191,-4.382497,-30.018751,30.35625,15.243751,-0.40067276,-0.60843986,0.42871064,999.7856, , , , 
2026-03-20 17:34:47.219,14.0697975,-15.790236,-0.59581286,0.07895427,-1.0680207,-5.063,-32.15625,28.406252,14.19375,-0.35988033,-0.635533,0.4017166,999.7846, , , , 
2026-03-20 17:34:47.237,13.505091,-16.534405,-1.2131611,-0.057268575,-1.1040617,-5.5260353,-35.737503,24.018751,17.737501,-0.32202724,-0.6588394,0.37659016,999.7846, , , , 
2026-03-20 17:34:47.257,11.586047,-17.594425,-0.32542387,-0.1763872,-1.0405318,-5.8339114,-37.706253,22.2,17.4375,-0.28184643,-0.68178487,0.34733954,999.7922, , , , 
2026-03-20 17:34:47.277,9.777073,-17.871992,1.3375878,0.043524116,-0.9397391,-5.8106985,-40.65,15.675,18.900002,-0.24052754,-0.7021883,0.31670144,999.7922, , , , 
2026-03-20 17:34:47.297,8.322237,-16.9364,0.30867413,0.28970262,-0.5946005,-5.5993395,-39.84375,13.89375,18.28125,-0.19860932,-0.7179539,0.28771034,999.7983, , , , 
2026-03-20 17:34:47.318,8.449057,-14.813965,-2.6799614,0.093615025,0.47991064,-5.080715,-42.075,4.96875,17.79375,-0.1511071,-0.7287433,0.25278053,999.7983, , , , 
2026-03-20 17:34:47.337,8.583055,-13.842479,-2.3114667,-0.16478078,0.96066123,-5.092932,-43.18125,2.3625002,17.90625,-0.11864624,-0.7308914,0.22211382,999.8017, , , , 
2026-03-20 17:34:47.357,7.123433,-13.708481,-1.4979069,-0.17333288,0.8464295,-5.1002626,-42.35625,-0.16875,16.893751,-0.08715334,-0.73042166,0.18968374,999.8017, , , , 
2026-03-20 17:34:47.377,4.5894337,-13.540983,-0.2632105,0.013591741,0.29420775,-4.8540845,-46.275,-4.18125,18.6,-0.06321628,-0.7303075,0.1662481,999.7785, , , , 
2026-03-20 17:34:47.397,2.9838498,-12.14836,0.083748795,0.5022836,-0.34597853,-4.2371106,-44.86875,-8.775001,18.88125,-0.023301315,-0.73176116,0.13303414,999.7785, , , , 
2026-03-20 17:34:47.418,2.8594232,-11.420942,-1.8520447,0.67943436,-0.655687,-3.7569711,-44.025,-12.656251,17.925001,0.008057977,-0.734351,0.112850875,999.7768, , , , 
2026-03-20 17:34:47.437,1.8687944,-10.518848,-3.9218364,0.319635,-0.51946414,-3.314705,-42.3375,-15.750001,20.868752,0.036566008,-0.7374275,0.095452294,999.7768, , , , 
2026-03-20 17:34:47.457,1.4691931,-10.040284,-3.9338005,-0.43783733,-0.042989608,-2.7392704,-42.3375,-18.712502,19.800001,0.06256736,-0.73925304,0.0728655,999.7807, , , , 
2026-03-20 17:34:47.478,0.8063812,-10.0881405,-1.753939,-0.8972076,0.39683303,-2.2456915,-41.268753,-20.71875,18.5625,0.07474884,-0.7376869,0.053626798,999.7807, , , , 
2026-03-20 17:34:47.497,-0.22013968,-10.191031,-0.49292147,-0.90759236,0.4896845,-1.8626795,-42.112503,-23.41875,19.425001,0.08195928,-0.73399603,0.035643127,999.76654, , , , 
2026-03-20 17:34:47.517,-1.7012969,-10.396814,-0.02871387,-0.7658717,0.3229184,-1.3257293,-39.393753,-25.368752,17.081251,0.086166896,-0.73034424,0.021165222,999.76654, , , , 
2026-03-20 17:34:47.537,-2.914458,-10.497313,-0.7920243,-0.64614224,0.04925097,-0.61162835,-40.631252,-25.612501,17.85,0.0870539,-0.72856885,0.01157191,999.7819, , , , 
2026-03-20 17:34:47.557,-3.6275191,-10.10489,-1.1270195,-0.7499892,-0.008781182,0.38041604,-41.7,-25.743752,19.050001,0.08266076,-0.7287846,0.0071613076,999.7819, , , , 
2026-03-20 17:34:47.577,-2.8546374,-10.10489,-0.47856453,-0.8758274,0.10117448,1.3125957,-42.487503,-25.44375,17.41875,0.071030356,-0.72964376,0.007868313,999.79803, , , , 
2026-03-20 17:34:47.597,-1.3423735,-10.559526,0.16749759,-1.0432043,0.3852266,2.0945027,-43.3125,-24.393751,17.4375,0.0521554,-0.7297702,0.013678485,999.79803, , , , 
2026-03-20 17:34:47.618,0.069391854,-11.459228,1.9645073,-1.0523673,0.7297543,2.7188065,-43.40625,-24.16875,17.587502,0.02687959,-0.7274656,0.023545487,999.80853, , , , 
2026-03-20 17:34:47.637,0.4761717,-13.064812,2.4670002,-0.62781626,0.6784417,3.42069,-45.318752,-20.1,14.325001,-0.009726578,-0.72139853,0.04325068,999.80853, , , , 
2026-03-20 17:34:47.657,2.120041,-14.294723,1.1150553,-0.14462224,0.11217005,4.085922,-48.393753,-19.425001,13.837501,-0.040960982,-0.71711415,0.067689426,999.8295, , , , 
2026-03-20 17:34:47.677,4.5822554,-15.079568,-0.80159557,0.10583232,-0.31604618,4.5666723,-47.550003,-17.34375,14.231251,-0.06511745,-0.71555775,0.090888835,999.8295, , , , 
2026-03-20 17:34:47.697,7.1808605,-15.596418,-2.120041,0.03375028,-0.5860484,4.9857254,-45.05625,-12.356251,13.5375,-0.107500926,-0.7137613,0.13442963,999.84393, , , , 
2026-03-20 17:34:47.717,9.008977,-15.304494,-1.0504491,-0.018784093,-0.83161604,5.128057,-47.7,-5.68125,15.750001,-0.14323358,-0.7118384,0.1700759,999.84393, , , , 
2026-03-20 17:34:47.737,9.757931,-14.804394,-0.11246266,0.1583667,-0.91102844,5.1958632,-46.518753,-1.3125,15.225,-0.17835964,-0.70902497,0.20600699,999.83563, , , , 
2026-03-20 17:34:47.757,10.363315,-14.311472,-0.51206404,0.36422813,-0.60193086,5.268556,-46.21875,3.80625,14.906251,-0.22001001,-0.7014125,0.25191554,999.83563, , , , 
2026-03-20 17:34:47.777,11.026127,-13.832908,-1.8544376,0.30863944,-0.072921984,5.259393,-46.18125,7.7812505,17.1375,-0.25273865,-0.6905513,0.28750914,999.8378, , , , 
2026-03-20 17:34:47.797,11.971292,-12.97867,-3.4504502,-0.12996148,0.7395282,5.128668,-44.475002,12.562501,16.3875,-0.28720573,-0.67507017,0.31837532,999.8378, , , , 
2026-03-20 17:34:47.818,11.602797,-12.722638,-3.455236,-0.84039724,1.431027,4.946019,-43.912502,15.243751,15.39375,-0.32531807,-0.65601194,0.3408529,999.8322, , , , 
2026-03-20 17:34:47.837,12.38525,-12.49532,-1.564906,-1.4824162,1.7584506,4.744434,-39.2625,19.96875,12.937501,-0.36720872,-0.6349026,0.35529965,999.8322, , , , 
2026-03-20 17:34:47.857,13.466805,-11.511869,0.36131623,-1.6522365,1.490281,4.247801,-37.3875,24.656252,10.78125,-0.4086516,-0.6142184,0.364097,999.8151, , , , 
2026-03-20 17:34:47.877,13.201202,-10.614561,0.5072784,-1.5990913,1.0724494,3.6045604,-38.475002,27.618752,15.056251,-0.44483536,-0.596326,0.3697931,999.8151, , , , 
2026-03-20 17:34:47.897,12.382857,-10.234102,0.49052864,-1.5954261,0.9050725,3.326006,-37.93125,27.431252,14.700001,-0.4757673,-0.58148503,0.3736939,999.8129, , , , 
2026-03-20 17:34:47.917,13.000205,-9.150154,1.1509477,-1.5251766,0.7883974,3.1622941,-36.412502,28.35,13.70625,-0.5040134,-0.56777436,0.37657183,999.8129,37.88756685,127.73753789,180.59674072265625,1.57
2026-03-20 17:34:47.937,14.670396,-7.6737823,1.6079768,-1.3413063,0.6424007,2.8208208,-32.925003,32.550003,14.343751,-0.5349763,-0.5518303,0.37955835,999.8149, , , , 
2026-03-20 17:34:47.957,16.541582,-6.7932234,2.3952155,-1.0780237,0.46219558,2.2655447,-32.1375,32.25,15.975,-0.5551023,-0.5409621,0.3809725,999.8149, , , , 
2026-03-20 17:34:47.977,18.058632,-6.6687965,2.78046,-0.7127265,0.18119776,1.6284128,-30.843752,35.100002,16.9125,-0.56969106,-0.5327916,0.3818537,999.8234, , , , 
2026-03-20 17:34:47.997,18.917656,-6.802795,2.7684958,-0.35048366,-0.019776747,0.90514886,-25.7625,35.5125,16.2,-0.57765317,-0.52827734,0.38273123,999.8234, , , , 
2026-03-20 17:34:48.017,18.608982,-6.8602223,2.9766715,-0.05299252,0.033979353,0.15195261,-29.081251,35.04375,15.637501,-0.57972294,-0.52721375,0.3823415,999.8393, , , , 
2026-03-20 17:34:48.037,17.383856,-7.874779,2.9216363,0.34468046,0.11522437,-0.5328268,-27.88125,35.287502,16.743752,-0.5755728,-0.5292446,0.3788653,999.8393, , , , 
2026-03-20 17:34:48.057,16.97947,-7.6402826,2.2301106,0.75212723,0.15859577,-1.0221295,-29.23125,34.3875,17.550001,-0.5698331,-0.5313438,0.3761599,999.851, , , , 
2026-03-20 17:34:48.077,16.457834,-7.3746796,0.24646074,0.9457714,0.04253146,-1.6146684,-28.29375,34.40625,13.593751,-0.55488354,-0.53677493,0.37057537,999.851, , , , 
2026-03-20 17:34:48.097,15.440885,-8.166703,-0.6125626,0.89262617,-0.28672466,-2.3171628,-29.906252,33.84375,15.187501,-0.53791475,-0.54552513,0.3640514,999.8581, , , , 
2026-03-20 17:34:48.118,13.6199465,-10.279566,-0.10289137,0.76251197,-0.791299,-2.9775076,-32.2125,33.24375,15.000001,-0.51640403,-0.55958074,0.35560364,999.8581, , , , 
2026-03-20 17:34:48.137,12.253645,-12.454642,0.8997013,0.7515164,-1.1193334,-3.319592,-35.34375,30.91875,16.237501,-0.490798,-0.5777922,0.34642106,999.8403, , , , 
2026-03-20 17:34:48.157,12.095718,-14.467006,1.4859428,0.79549867,-1.2329541,-3.5150688,-34.48125,29.175001,13.14375,-0.4550386,-0.60224766,0.3346867,999.8403, , , , 
2026-03-20 17:34:48.177,12.916456,-15.51267,1.430908,0.8150463,-1.3184752,-3.7349799,-37.03125,28.031252,12.712501,-0.43204057,-0.6170043,0.32722926,999.8393, , , , 
2026-03-20 17:34:48.197,13.459627,-16.003199,1.3184453,0.80466163,-1.4992913,-4.1357074,-39.956253,22.59375,16.875,-0.3902725,-0.6425493,0.31288803,999.8393, , , , 
2026-03-20 17:34:48.218,13.529019,-16.271194,1.0935199,0.7496838,-1.6550617,-4.573697,-41.11875,21.88125,15.656251,-0.35321814,-0.66423804,0.2990358,999.8486, , , , 
2026-03-20 17:34:48.237,12.062219,-16.46262,2.0985055,0.7826705,-1.6416228,-4.971981,-43.537502,16.518751,17.2875,-0.31276232,-0.6864532,0.28258786,999.8486, , , , 
2026-03-20 17:34:48.257,9.7196455,-16.048662,1.9214365,0.9231694,-1.0069343,-5.139969,-43.725002,12.8625,19.837502,-0.2700415,-0.70595515,0.26407948,999.86664, , , , 
2026-03-20 17:34:48.277,8.633304,-14.847465,-0.22013968,0.8761328,-0.008170316,-5.0013027,-45.09375,9.618751,18.768751,-0.22840329,-0.7190549,0.24365808,999.86664, , , , 
2026-03-20 17:34:48.297,8.829515,-13.942978,-2.333002,0.42042768,1.4218642,-4.8156,-45.206253,3.9,17.268751,-0.19218707,-0.72344244,0.21939202,999.8493, , , , 
