Time,Accel_X,Accel_Y,Accel_Z,Gyro_X,Gyro_Y,Gyro_Z,Mag_X,Mag_Y,Mag_Z,Orient_X,Orient_Y,Orient_Z,Pressure,Lat,Lng,Alt,Speed
2026-03-20 17:27:55.679,1.2203395,5.938986,5.6614184,-0.17119485,0.194255,0.1395826,-9.13125,-36.881252,-18.806252,0.26696336,0.13851607,0.6015001,1000.9352,37.88753721,127.73734442,160.82989501953125,0.0
2026-03-20 17:27:55.699,1.2011969,5.3647084,7.135397,-0.9750929,0.59253883,0.19089524,-8.90625,-36.73125,-18.88125,0.25728375,0.13757047,0.60656,1000.9352, , , , 
2026-03-20 17:27:55.719,1.5170496,4.5798626,8.489735,-1.0862703,0.42760533,0.08093958,-8.6625,-36.65625,-19.5,0.24673478,0.13517535,0.61060685,1000.9332, , , , 
2026-03-20 17:27:55.739,1.8041883,4.613362,8.518449,-1.0728313,0.3506364,-0.08032872,-8.6625,-36.43125,-20.268751,0.23641972,0.1311394,0.6133097,1000.9332, , , , 
2026-03-20 17:27:55.759,1.2011969,4.991428,8.705089,-1.0435097,0.56810427,-0.17562363,-8.7375,-35.90625,-21.31875,0.22313206,0.12711069,0.6151552,1000.9332, , , , 
2026-03-20 17:27:55.779,0.9092726,5.7762737,9.025727,-1.0227404,0.8344413,-0.123089254,-8.887501,-35.5125,-22.462502,0.2142325,0.1262362,0.6162397,1000.9332, , , , 
2026-03-20 17:27:55.799,1.4452649,5.709275,9.006584,-1.0117447,1.2596031,-0.01802051,-8.94375,-35.25,-23.41875,0.20086555,0.12715901,0.6187169,1000.9269, , , , 
2026-03-20 17:27:55.819,0.5455636,6.178268,11.523834,-0.87735456,1.6456697,0.11636974,-8.45625,-35.04375,-24.54375,0.1808953,0.13305494,0.62397486,1000.9269, , , , 
2026-03-20 17:27:55.839,-0.86141616,4.694718,12.007184,-0.6525563,1.1435388,0.22999059,-7.93125,-35.006252,-25.7625,0.16623227,0.13890275,0.62876964,1000.9269, , , , 
2026-03-20 17:27:55.862,-0.3397808,4.082155,10.63849,-0.63056517,0.7037162,0.42302385,-7.5000005,-34.875,-27.16875,0.15396124,0.14149426,0.63457876,1000.9216, , , , 
2026-03-20 17:27:55.879,-0.32542387,3.4313076,9.772287,-0.72097313,0.6658426,0.47311476,-7.2000003,-34.95,-28.800001,0.14957651,0.14167245,0.63721305,1000.9216, , , , 
2026-03-20 17:27:55.899,-1.0624132,3.7806597,9.456435,-0.8614721,0.6743947,0.33750278,-7.2187505,-35.456253,-30.750002,0.14020433,0.14095317,0.64259046,1000.9216, , , , 
2026-03-20 17:27:55.919,0.79920274,6.0729837,10.241281,-0.71242106,0.39095345,-0.18051054,-6.8437505,-36.05625,-33.112503,0.12801877,0.13967653,0.6465807,1000.9216, , , , 
2026-03-20 17:27:55.939,-0.02871387,4.3118663,9.461221,-0.57925254,0.0097738365,-0.5861248,-5.5125003,-36.99375,-35.568752,0.123271324,0.1382481,0.6456123,1000.9216, , , , 
2026-03-20 17:27:55.959,-0.7848458,1.9764715,8.575876,-0.8504765,0.046425723,-0.9294308,-3.3375,-37.93125,-37.3125,0.11779328,0.13496648,0.6415514,1000.92706, , , , 
2026-03-20 17:27:55.979,0.2105684,1.1676974,7.676175,-1.196226,-0.062308207,-1.4217877,-0.99375004,-38.1375,-37.8375,0.108773716,0.13029855,0.6349617,1000.92706, , , , 
2026-03-20 17:27:55.999,-2.9910283,1.3304094,8.987442,-1.3245076,-0.20525056,-1.7699807,0.63750005,-37.4625,-37.237503,0.095125504,0.12084358,0.62175786,1000.92706, , , , 
2026-03-20 17:27:56.019,-2.6225336,1.7036897,10.49492,-1.1498002,-0.33964083,-1.7797545,0.93750006,-36.0,-35.943752,0.086722985,0.114862904,0.61236906,1000.92706, , , , 
2026-03-20 17:27:56.039,-0.42592242,2.751746,11.629118,-0.5535962,-0.83688474,-1.7797545,0.58125,-33.91875,-34.65,0.0791149,0.1067411,0.59917295,1000.9394, , , , 
2026-03-20 17:27:56.059,-0.4642076,-0.75613195,10.408778,0.16355905,-1.897346,-1.6563598,0.22500001,-31.85625,-34.0125,0.080784015,0.09749759,0.58462447,1000.9394, , , , 
2026-03-20 17:27:56.079,-5.6853466,-1.4356936,10.078569,0.72921985,-2.547306,-0.8170316,0.075,-31.087502,-33.80625,0.09454794,0.08229205,0.5703607,1000.9394, , , , 
2026-03-20 17:27:56.099,1.3447664,5.163711,10.906486,1.0590868,-0.95417076,1.5238022,0.3375,-29.400002,-33.037502,0.11086426,0.07150685,0.5679713,1000.9394, , , , 
2026-03-20 17:27:56.119,2.3353949,2.321038,7.685746,1.586874,-0.29810202,1.3490949,0.1875,-29.156252,-32.79375,0.12736984,0.06972707,0.57799083,1000.9377, , , , 
2026-03-20 17:27:56.139,2.0291135,2.5172493,6.5084777,0.8623884,1.0983349,1.0106758,-1.35,-29.156252,-31.518751,0.14079861,0.07913482,0.5895693,1000.9377, , , , 
2026-03-20 17:27:56.159,-0.6891329,2.6608188,10.8682,0.8281799,1.2498293,0.8298598,-2.0062501,-29.325,-30.91875,0.14039296,0.08902033,0.5958004,1000.9377, , , , 
2026-03-20 17:27:56.179,0.44027936,3.2590244,9.547362,1.2130247,0.36651886,0.88850284,-4.18125,-30.187502,-29.212502,0.14209369,0.10186196,0.60323894,1000.9377, , , , 
2026-03-20 17:27:56.199,0.11006984,4.249653,5.804988,0.8965968,0.17715079,0.67103493,-4.96875,-30.69375,-28.218752,0.15006967,0.10995698,0.6090186,1000.93024, , , , 
2026-03-20 17:27:56.219,-1.3256238,5.4891353,6.1591253,0.43722647,0.64629495,0.6966913,-5.53125,-31.181252,-27.4125,0.15529743,0.11573151,0.6134692,1000.93024, , , , 
2026-03-20 17:27:56.239,-2.2492533,5.2307105,7.6809607,0.6070469,2.3163993,1.2134829,-6.01875,-31.425001,-26.6625,0.1532437,0.12572448,0.62077445,1000.93024, , , , 
2026-03-20 17:27:56.259,0.8422736,3.7806597,6.2787666,0.6827941,3.275457,1.4492767,-6.3750005,-31.518751,-26.081251,0.14390673,0.14749813,0.6333607,1000.93024, , , , 
2026-03-20 17:27:56.279,0.8327023,3.101098,9.623933,-1.527162E-4,2.3664901,0.9801325,-6.6375003,-31.687502,-25.800001,0.12903264,0.17451784,0.6470703,1000.8971, , , , 
2026-03-20 17:27:56.299,-3.5796626,4.7282176,10.758131,0.06826414,-0.524122,0.18967351,-6.8437505,-31.9125,-25.800001,0.12040954,0.18379153,0.65420705,1000.8971, , , , 
2026-03-20 17:27:56.319,-1.4644074,3.2829528,6.719046,-0.34101525,-1.3084724,0.47189304,-6.8812504,-32.0625,-26.156252,0.1253664,0.17872626,0.6552243,1000.8971, , , , 
2026-03-20 17:27:56.339,0.16749759,5.0823555,7.8963146,-0.65866494,-1.3634502,0.28252497,-7.1062503,-32.175003,-26.493752,0.13192001,0.16558453,0.6572011,1000.8971, , , , 
2026-03-20 17:27:56.359,-1.0289137,4.6803613,9.79143,-0.43631017,0.12828161,0.4486802,-7.5375004,-32.081253,-26.550001,0.13478658,0.15356533,0.6590477,1000.8784, , , , 
2026-03-20 17:27:56.379,-1.2251252,3.9625144,9.896714,0.25030184,1.4343106,0.833525,-8.00625,-31.500002,-26.493752,0.12826097,0.1581018,0.6659089,1000.8784, , , , 
2026-03-20 17:27:56.399,1.105484,3.0293136,8.111669,0.029168794,0.6316342,0.65759593,-8.64375,-31.125002,-26.437502,0.124190845,0.16545154,0.67130905,1000.8784, , , , 
2026-03-20 17:27:56.419,1.7084754,2.4837499,8.126026,-0.5193878,-0.7672462,-0.02046397,-9.150001,-30.862501,-26.493752,0.12253059,0.16586752,0.6754239,1000.8784, , , , 
2026-03-20 17:27:56.439,0.8327023,3.1728828,9.729217,-0.7967204,-0.9456187,-0.29657486,-9.431251,-30.562502,-26.812502,0.12404133,0.15525371,0.6746842,1000.8387, , , , 
2026-03-20 17:27:56.459,-0.42592242,3.5700915,11.136196,-0.4253146,-0.36285368,-0.2782489,-9.50625,-30.281252,-27.13125,0.12380703,0.14489,0.67260945,1000.8387, , , , 
2026-03-20 17:27:56.479,-0.019142581,3.6275191,10.983056,0.17333288,0.08429934,-0.10231985,-9.431251,-29.775002,-27.337502,0.12285811,0.14210248,0.67117786,1000.8387, , , , 
2026-03-20 17:27:56.499,1.3926228,2.5986054,10.442278,0.43356127,-0.3921752,-0.23304491,-9.356251,-29.2875,-27.4125,0.12447478,0.14353001,0.6700339,1000.8387, , , , 
2026-03-20 17:27:56.519,-0.36370903,3.6610186,9.346365,0.6033817,-0.32498005,-0.4639518,-9.168751,-29.025002,-27.31875,0.13031974,0.14380895,0.6665637,1000.81384, , , , 
2026-03-20 17:27:56.539,-0.9762716,5.020142,9.131011,0.72188944,0.19303326,-0.116980605,-8.90625,-29.04375,-27.093752,0.13605241,0.14904188,0.66215515,1000.81384, , , , 
2026-03-20 17:27:56.559,-0.2727818,4.3070807,7.905886,0.50197816,0.1404989,0.046731155,-8.64375,-29.343752,-26.75625,0.1388927,0.15366603,0.66120034,1000.81384, , , , 
2026-03-20 17:27:56.579,0.44027936,3.818945,9.01137,0.27962336,-0.16982041,-0.026572619,-8.3625,-29.625002,-26.343752,0.14166304,0.15714462,0.66087514,1000.81384, , , , 
2026-03-20 17:27:56.599,-0.30149564,3.9194436,8.71466,0.30405796,-0.4752528,-0.10354158,-8.1,-29.868752,-25.931252,0.14550664,0.15692791,0.65966016,1000.79193, , , , 
2026-03-20 17:27:56.619,-1.1294123,4.618148,7.3986077,0.30527967,-0.15760311,0.0650571,-7.9687505,-30.13125,-25.462502,0.1514346,0.15613101,0.6577581,1000.79193, , , , 
2026-03-20 17:27:56.639,-0.91884387,4.5655055,8.484949,0.30039275,0.44470957,0.24098615,-7.9875,-30.45,-24.975,0.15300584,0.1578607,0.65818423,1000.79193, , , , 
2026-03-20 17:27:56.659,-0.0047856453,3.6610186,8.9348,0.26740605,0.2516763,0.17379104,-7.9500003,-30.806252,-24.562502,0.15267414,0.16263998,0.66009194,1000.79193, , , , 
2026-03-20 17:27:56.679,0.17706887,4.2352962,8.260024,0.11957678,-0.023212861,0.0980438,-8.08125,-31.0125,-24.243752,0.1535151,0.16492833,0.6610984,1000.7658,37.88750964,127.73734019,168.0633544921875,0.0
2026-03-20 17:27:56.699,-0.076570325,4.2927237,7.52782,0.058490302,0.11484258,0.012522728,-8.212501,-31.050001,-24.0375,0.1545176,0.16571033,0.6614142,1000.7658, , , , 
2026-03-20 17:27:56.719,-0.05742774,4.197011,7.6953177,0.016951498,0.46792242,-0.032681264,-8.118751,-30.806252,-23.94375,0.1536807,0.16706645,0.66166073,1000.7658, , , , 
2026-03-20 17:27:56.739,-0.57906306,4.168297,8.800801,-0.22250749,-0.07208204,-0.085215636,-8.025001,-30.562502,-23.85,0.15012585,0.17121086,0.6621628,1000.7658, , , , 
2026-03-20 17:27:56.759,-0.38285163,4.058227,9.044869,-0.29092434,-0.98837924,-0.22693627,-7.9125004,-30.487501,-23.925001,0.15009606,0.16762589,0.66102016,1000.76624, , , , 
2026-03-20 17:27:56.779,0.7082755,3.656233,10.068997,-0.11255184,-0.6646209,-0.28069237,-7.8187504,-30.431252,-24.225,0.15474325,0.15784305,0.6577681,1000.76624, , , , 
2026-03-20 17:27:56.799,-0.51206404,4.115655,9.174082,0.08536835,-0.45937032,-0.39186975,-7.9125004,-30.45,-24.4125,0.15714382,0.15480341,0.6553267,1000.76624, , , , 
2026-03-20 17:27:56.819,-1.6079768,4.7377887,8.580662,0.057268575,-0.34819293,-0.15363249,-8.15625,-30.581251,-24.50625,0.15992163,0.1528182,0.65199804,1000.76624, , , , 
2026-03-20 17:27:56.839,-0.2009971,3.8333018,8.571091,0.012064579,-0.13072506,0.068722285,-8.25,-30.675001,-24.300001,0.16187592,0.1513627,0.65085065,1000.77576, , , , 
2026-03-20 17:27:56.859,0.44985065,3.9960139,8.446664,0.030390523,-0.06475167,-0.04367683,-8.212501,-30.750002,-23.8875,0.16277859,0.15048805,0.65098935,1000.77576, , , , 
2026-03-20 17:27:56.879,0.11964113,4.0007997,8.666803,0.08048143,-0.0537561,-0.18784092,-8.15625,-30.975,-23.587502,0.16326863,0.1506165,0.6503006,1000.77576, , , , 
2026-03-20 17:27:56.899,-1.4787644,4.613362,8.9826565,0.15622866,0.012217295,-0.14019346,-8.025001,-31.10625,-23.475,0.16401508,0.15112905,0.6486257,1000.77576, , , , 
2026-03-20 17:27:56.919,-1.0671989,4.5942197,8.7673025,0.23686282,0.15027274,0.076052666,-8.15625,-31.181252,-23.4375,0.16475569,0.15306452,0.64781827,1000.77814, , , , 
2026-03-20 17:27:56.939,0.086141616,4.3357944,8.484949,0.11835505,0.092851445,0.0980438,-8.3625,-31.275002,-23.400002,0.165595,0.15581903,0.64860225,1000.77814, , , , 
2026-03-20 17:27:56.959,1.1246266,3.6275191,9.135797,0.115911596,-0.3762927,-0.057115857,-8.34375,-31.275002,-23.53125,0.16625594,0.1560596,0.6488298,1000.77814, , , , 
2026-03-20 17:27:56.982,0.5168497,4.3357944,8.685946,0.21853687,-0.3591885,-0.2696968,-8.231251,-31.2,-23.587502,0.1712312,0.15307681,0.64626926,1000.779, , , , 
2026-03-20 17:27:56.999,-0.019142581,4.321438,8.9348,0.34926194,-0.05742129,-0.2696968,-7.9875,-31.312502,-23.56875,0.17369919,0.15300003,0.6441405,1000.779, , , , 
2026-03-20 17:27:57.019,-0.76570326,4.718646,8.484949,0.41523534,0.14905101,-0.20250167,-7.8750005,-31.406252,-23.5125,0.17593183,0.15604763,0.6417244,1000.779, , , , 
2026-03-20 17:27:57.039,-0.526421,4.9770713,8.403593,0.2698495,0.07574723,-0.040011644,-7.6125,-31.66875,-23.118752,0.17749009,0.1599425,0.64024484,1000.779, , , , 
2026-03-20 17:27:57.059,0.16749759,4.6612186,8.092526,0.056046844,-0.27000225,-0.013133593,-7.5937505,-31.931252,-22.800001,0.17907469,0.16153261,0.6396754,1000.779, , , , 
2026-03-20 17:27:57.079,0.31585258,4.618148,8.059027,-0.13087778,-0.44837475,-0.10109812,-7.5750003,-32.025,-22.425001,0.18186063,0.15792328,0.6384426,1000.78174, , , , 
2026-03-20 17:27:57.099,-0.46899325,4.618148,8.2456665,-0.012370012,-0.11484258,-0.044898562,-7.4812503,-32.006252,-21.993752,0.18289176,0.1555694,0.63753486,1000.78174, , , , 
2026-03-20 17:27:57.119,-0.2536392,4.426722,8.092526,0.12690715,0.17715079,0.052839804,-7.51875,-32.100002,-21.69375,0.18328293,0.15555577,0.6372563,1000.78174, , , , 
2026-03-20 17:27:57.139,0.32542387,4.651647,7.82453,0.114689864,0.15027274,0.03451386,-7.4812503,-32.025,-21.6,0.18311323,0.15772238,0.6377664,1000.78174, , , , 
2026-03-20 17:27:57.159,0.23449662,4.948357,7.1449685,-0.08567379,-0.10506874,-0.02046397,-7.36875,-31.893751,-21.50625,0.18326746,0.15871741,0.6379266,1000.78876, , , , 
2026-03-20 17:27:57.179,-0.086141616,4.9770713,7.7479596,-0.43142325,-0.47403106,0.054061532,-7.3500004,-31.893751,-21.618752,0.18324268,0.15631013,0.63780206,1000.78876, , , , 
2026-03-20 17:27:57.199,0.57427746,4.503292,8.628518,-0.54748756,-0.63896453,0.06139191,-7.2000003,-31.9125,-21.84375,0.18335125,0.1493656,0.63796866,1000.78876, , , , 
2026-03-20 17:27:57.219,0.3924229,4.388437,9.169296,-0.39721483,-0.33353218,0.041844238,-6.99375,-31.987501,-21.975,0.18329786,0.14175436,0.6380834,1000.78876, , , , 
2026-03-20 17:27:57.239,0.20578274,4.130012,8.997013,-0.21884231,-0.062308207,0.03695732,-6.8625,-31.95,-22.21875,0.182377,0.13768844,0.63844395,1000.8083, , , , 
2026-03-20 17:27:57.259,-0.11964113,4.23051,9.370294,-0.16264275,-0.012217295,0.03573559,-6.7500005,-31.687502,-22.35,0.1811897,0.13595572,0.638891,1000.8083, , , , 
2026-03-20 17:27:57.279,-0.14356937,4.1491547,9.676575,0.026725333,-0.020769402,0.06139191,-6.61875,-31.2,-22.5375,0.180386,0.13498768,0.6393155,1000.8083, , , , 
2026-03-20 17:27:57.299,0.44027936,4.3357944,8.944371,0.17455462,0.112399116,0.038179047,-6.5625005,-30.91875,-22.556252,0.18084058,0.13540919,0.6396868,1000.8083, , , , 
2026-03-20 17:27:57.319,-0.014356935,4.666004,8.054241,0.069485866,0.22357652,-0.0058032153,-6.5437503,-30.975,-22.612501,0.18111302,0.13748775,0.63989407,1000.81915, , , , 
2026-03-20 17:27:57.339,-0.22971097,4.465007,8.4705925,-0.14309508,-0.035430156,0.03695732,-6.61875,-31.2,-22.893751,0.17981625,0.13911842,0.6402707,1000.81915, , , , 
2026-03-20 17:27:57.359,0.31106696,4.5320063,9.542577,-0.2591594,-0.0,-0.031459536,-6.8625,-31.556252,-22.9125,0.17897663,0.13748771,0.6405085,1000.81915, , , , 
2026-03-20 17:27:57.379,-0.11485548,4.5320063,9.815358,0.095142186,-0.08796453,0.010079269,-7.0687504,-31.63125,-23.081251,0.1779356,0.13611972,0.6404694,1000.81915, , , , 
2026-03-20 17:27:57.399,-0.18664017,5.111069,8.346166,0.30527967,0.015882485,0.12370012,-7.14375,-31.48125,-23.34375,0.17950198,0.13681476,0.64040875,1000.82465, , , , 
2026-03-20 17:27:57.419,0.09571291,5.2977095,7.6331043,0.16966769,0.106290475,0.2751946,-7.1625004,-31.44375,-23.306252,0.18153314,0.13875926,0.6413494,1000.82465, , , , 
2026-03-20 17:27:57.439,1.2203395,4.7808595,7.9346,0.03527744,0.13561198,0.28741187,-6.9750004,-31.2,-23.2875,0.18228751,0.13984479,0.6435234,1000.82465, , , , 
2026-03-20 17:27:57.459,1.3495519,4.436293,7.9968133,-0.052687086,0.18325943,0.15546508,-6.99375,-31.25625,-23.1375,0.18192355,0.14055663,0.64565676,1000.82465, , , , 
2026-03-20 17:27:57.479,0.52163535,4.5128636,8.422736,-0.15897755,0.14538582,0.050396346,-7.18125,-31.3875,-22.931252,0.18005104,0.14095168,0.6471693,1000.83356, , , , 
2026-03-20 17:27:57.499,0.66999036,4.5320063,9.126225,-0.14920372,0.21013749,0.15302163,-7.3875003,-31.425001,-22.9125,0.17845231,0.14099412,0.64792323,1000.83356, , , , 
2026-03-20 17:27:57.519,0.2727818,4.2592244,9.164511,-0.011148282,0.17959425,0.076052666,-7.51875,-31.368752,-22.987501,0.17650102,0.14146338,0.6493159,1000.83356, , , , 
2026-03-20 17:27:57.539,0.6556334,4.584648,8.872586,0.06582068,0.13316852,0.054061532,-7.4625,-31.181252,-23.0625,0.17556687,0.14262246,0.65016544,1000.83356, , , , 
2026-03-20 17:27:57.559,0.70348984,4.723432,8.733803,0.07925971,0.021991132,-0.07910699,-7.2937503,-31.06875,-23.081251,0.17564934,0.14388119,0.6502664,1000.83887, , , , 
2026-03-20 17:27:57.579,-0.043070808,4.895715,9.083155,0.17333288,0.14782928,-0.08032872,-7.2562504,-31.181252,-23.2875,0.17586766,0.1447822,0.649721,1000.83887, , , , 
2026-03-20 17:27:57.599,-0.38763726,5.015356,9.547362,0.30527967,0.25900668,0.0736092,-7.0687504,-31.1625,-23.5125,0.17608936,0.14755923,0.64937377,1000.83887, , , , 
2026-03-20 17:27:57.619,0.8757731,4.699504,9.365508,0.5227475,0.22113305,0.14202607,-6.9750004,-31.087502,-23.493752,0.17718914,0.15153748,0.65002203,1000.83887, , , , 
2026-03-20 17:27:57.640,0.79441714,4.7282176,7.5086775,0.5740602,0.22846343,0.08093958,-6.95625,-31.06875,-23.38125,0.18096207,0.15779173,0.6504581,1000.8499, , , , 
2026-03-20 17:27:57.659,0.6891329,4.9292145,6.9344,0.25641048,0.16126831,0.032070402,-6.8250003,-31.031252,-23.025002,0.18272327,0.16120507,0.6505397,1000.8499, , , , 
2026-03-20 17:27:57.679,0.4354937,4.8861437,7.475178,-0.013591741,0.14782928,0.03573559,-6.9750004,-31.181252,-22.6875,0.18327628,0.16343749,0.65071434,1000.8499,37.88750964,127.73734019,168.0633544921875,0.0
2026-03-20 17:27:57.699,-0.3924229,4.4410787,8.01117,0.0059559317,0.33841908,0.1310305,-7.2937503,-31.331251,-22.575,0.18203765,0.16464019,0.651442,1000.8499, , , , 
2026-03-20 17:27:57.719,-0.29192436,5.221139,7.944171,0.12202024,0.5216785,0.21655156,-7.4437504,-31.35,-22.5,0.17967114,0.16848958,0.653651,1000.854, , , , 
2026-03-20 17:27:57.739,0.29192436,4.981857,7.925029,0.095142186,0.32253662,0.2751946,-7.5000005,-31.35,-22.425001,0.17826962,0.17141691,0.655509,1000.854, , , , 
2026-03-20 17:27:57.759,0.75613195,4.895715,8.025527,0.030390523,0.13316852,0.13347395,-7.3500004,-31.44375,-22.29375,0.1776402,0.17337705,0.65758073,1000.854, , , , 
2026-03-20 17:27:57.779,-0.043070808,5.020142,7.8628154,0.027947064,0.07086031,0.038179047,-6.95625,-31.48125,-22.275002,0.1773948,0.17413265,0.65847045,1000.854, , , , 
2026-03-20 17:27:57.799,-1.6223338,5.2833524,7.513463,-0.07589995,0.3262018,0.16890411,-6.7500005,-31.425001,-22.368752,0.17633455,0.17531754,0.6593978,1000.8552, , , , 
2026-03-20 17:27:57.819,-1.0241281,5.072784,8.800801,-0.06368265,0.582765,0.31917685,-6.80625,-31.425001,-22.44375,0.17397803,0.17709273,0.6613077,1000.8552, , , , 
2026-03-20 17:27:57.839,-0.033499517,4.5655055,9.858429,0.1244637,0.30421066,0.15668681,-7.0312505,-31.237501,-22.9125,0.17076123,0.18037349,0.6643317,1000.8552, , , , 
2026-03-20 17:27:57.859,-0.18664017,4.85743,8.298309,0.20876303,-0.21624613,-0.08888082,-7.2187505,-31.1625,-23.0625,0.17101283,0.18232188,0.664927,1000.8552, , , , 
2026-03-20 17:27:57.879,-0.8805587,5.316852,7.2646093,0.04016436,-0.4422661,-0.15363249,-7.4437504,-31.125002,-23.04375,0.17483735,0.18094513,0.66271156,1000.8523, , , , 
2026-03-20 17:27:57.899,-0.5599205,5.599205,7.728817,0.07803798,-0.124616414,-0.062002774,-7.4812503,-31.143751,-23.00625,0.17669861,0.17938972,0.66146123,1000.8523, , , , 
2026-03-20 17:27:57.919,0.33499518,5.508278,7.0540414,0.21731515,0.24312419,-0.04734202,-7.5750003,-31.237501,-22.9125,0.17774068,0.18025278,0.66080856,1000.8523, , , , 
2026-03-20 17:27:57.939,0.4019942,5.6757755,6.216553,0.069485866,0.18936808,-0.18051054,-7.5375004,-31.312502,-22.9125,0.1774788,0.18354861,0.66031,1000.8523, , , , 
2026-03-20 17:27:57.959,-0.52163535,6.1639113,6.3361945,-0.30558512,-0.13927718,-0.22693627,-7.3125005,-31.44375,-22.875,0.17619075,0.18399836,0.65868074,1000.8495, , , , 
2026-03-20 17:27:57.979,-0.8997013,5.9007006,7.456035,-0.3678933,-0.03176497,-0.15118903,-7.2000003,-31.612501,-22.931252,0.17480823,0.18195648,0.6578548,1000.8495, , , , 
2026-03-20 17:27:57.999,-0.9906286,5.651847,8.054241,-0.20662501,0.21013749,-0.11331542,-7.05,-31.781252,-22.987501,0.17205167,0.18046638,0.6574711,1000.8495, , , , 
2026-03-20 17:27:58.019,-1.2394822,6.029913,8.035098,-0.13454297,0.15760311,-0.10231985,-7.0312505,-31.893751,-22.9125,0.16872121,0.1813288,0.6572214,1000.8476, , , , 
2026-03-20 17:27:58.039,-1.550549,6.2117677,8.322237,-0.058795735,0.034208428,-0.04612029,-7.05,-32.04375,-23.025002,0.16717273,0.18169034,0.65695095,1000.8476, , , , 
2026-03-20 17:27:58.059,-1.5888343,6.393622,8.01117,0.04016436,-0.042760536,0.068722285,-6.7500005,-31.987501,-23.15625,0.16698173,0.18186182,0.65690494,1000.8476, , , , 
2026-03-20 17:27:58.079,-1.1676974,6.3074803,7.2789664,0.04016436,-0.098960094,0.14935644,-6.58125,-31.725,-23.2875,0.16794302,0.18183737,0.6573054,1000.8476, , , , 
2026-03-20 17:27:58.099,-0.98584294,6.1160545,7.0396843,-1.527162E-4,0.017104214,0.20433427,-6.4500003,-31.5375,-23.475,0.16922149,0.18148391,0.6585272,1000.8476, , , , 
2026-03-20 17:27:58.119,-0.7609176,6.053841,7.4129643,-0.12232567,0.017104214,0.22266021,-6.3562503,-31.48125,-23.53125,0.16918384,0.18125175,0.6601394,1000.84784, , , , 
2026-03-20 17:27:58.139,-0.4019942,5.85763,8.963513,-0.15042545,-0.16982041,0.18845178,-6.43125,-31.500002,-23.475,0.16883445,0.18021564,0.66144705,1000.84784, , , , 
2026-03-20 17:27:58.159,0.18185452,6.0490556,9.078369,0.101250835,-0.29565856,0.062613636,-6.4687505,-31.518751,-23.475,0.16998956,0.17783174,0.6623642,1000.84784, , , , 
2026-03-20 17:27:58.179,0.27756742,6.4271216,8.015956,0.34559676,-0.17959425,-0.08277218,-6.5062504,-31.612501,-23.6625,0.17319672,0.1771382,0.6617447,1000.84784, , , , 
2026-03-20 17:27:58.199,-0.6029913,7.111469,6.948757,0.31749696,-0.0537561,-0.1744019,-6.58125,-31.518751,-23.868752,0.17669849,0.17889798,0.65997756,1000.8493, , , , 
2026-03-20 17:27:58.219,-1.0576276,7.6809607,7.5086775,0.12202024,0.0036651888,-0.07666353,-6.6937504,-31.29375,-23.868752,0.1787981,0.18098171,0.6582137,1000.8493, , , , 
2026-03-20 17:27:58.239,-0.66999036,7.6809607,7.920243,0.023060145,-0.045203995,0.041844238,-6.95625,-31.275002,-23.8125,0.17963405,0.18198608,0.65764093,1000.8493, , , , 
2026-03-20 17:27:58.259,-0.6029913,7.719246,7.9968133,-0.09544762,-0.07574723,0.0858265,-7.18125,-31.237501,-23.53125,0.1802686,0.18176414,0.65787286,1000.8493, , , , 
2026-03-20 17:27:58.279,-1.0145568,7.7910304,8.9013,-0.297033,-0.112399116,0.14935644,-7.3875003,-31.331251,-23.1375,0.18019708,0.18025005,0.65861255,1000.8542, , , , 
2026-03-20 17:27:58.299,-0.4977071,7.503892,10.470992,-0.25671592,-0.17226386,0.205556,-7.5937505,-31.63125,-23.00625,0.17931026,0.17737465,0.66003096,1000.8542, , , , 
2026-03-20 17:27:58.319,0.18664017,7.2789664,10.236495,-0.03924806,-0.12705988,0.12614357,-7.74375,-31.875002,-23.00625,0.17946278,0.17464873,0.66136813,1000.8542, , , , 
2026-03-20 17:27:58.339,-0.2727818,7.173682,9.427721,0.004734202,0.10506874,0.040622506,-7.93125,-32.11875,-23.268751,0.18014717,0.17400983,0.6619125,1000.8542, , , , 
2026-03-20 17:27:58.359,-1.0432707,6.498906,9.858429,-0.056352276,0.19792019,0.12492185,-8.137501,-32.15625,-23.6625,0.17923161,0.17506374,0.6625389,1000.8582, , , , 
2026-03-20 17:27:58.379,-0.33020952,5.460421,10.073783,-0.0025961753,0.05131264,0.23365578,-8.2875,-32.04375,-23.925001,0.17802376,0.17578419,0.6639751,1000.8582, , , , 
2026-03-20 17:27:58.399,0.7513463,4.709075,9.097511,0.03161225,-0.18081598,0.18112141,-8.26875,-31.875002,-23.98125,0.1785199,0.17544083,0.665566,1000.8582, , , , 
2026-03-20 17:27:58.419,1.282553,4.1491547,8.863015,0.045051277,-0.44104436,0.017409647,-8.212501,-31.575,-23.71875,0.18061195,0.1727163,0.66599625,1000.8582, , , , 
2026-03-20 17:27:58.439,1.4931214,4.240082,8.360522,0.29550585,-0.27122396,-0.10720677,-8.19375,-31.35,-23.41875,0.1841809,0.17083268,0.6651362,1000.8714, , , , 
2026-03-20 17:27:58.459,1.3160524,4.26401,8.145168,0.66324645,0.12705988,-0.1707367,-8.118751,-31.25625,-23.25,0.18779129,0.17223081,0.66335046,1000.8714, , , , 
2026-03-20 17:27:58.479,1.0719845,4.3788652,6.9296145,0.87460566,0.33108872,-0.19028437,-8.175,-31.275002,-23.175001,0.19162314,0.17843395,0.6611724,1000.8714, , , , 
2026-03-20 17:27:58.499,0.45942193,4.723432,4.5655055,0.719446,0.05742129,-0.16829325,-8.25,-31.500002,-23.04375,0.19708769,0.18795694,0.65810865,1000.8714, , , , 
2026-03-20 17:27:58.519,0.7752745,5.3072805,4.575077,0.20509785,-0.035430156,-0.1291979,-8.15625,-31.85625,-22.725,0.19978721,0.19120295,0.6565435,1000.8799, , , , 
2026-03-20 17:27:58.539,1.1629118,4.9292145,5.6614184,-0.26282457,-0.14416409,-0.14263692,-8.025001,-32.15625,-22.25625,0.20086256,0.19167373,0.6552932,1000.8799, , , , 
2026-03-20 17:27:58.559,0.89491564,4.4841495,7.183254,-0.51450086,-0.07941242,-0.20127994,-7.9500003,-32.550003,-21.88125,0.19925167,0.18878551,0.6545609,1000.8799, , , , 
2026-03-20 17:27:58.579,-0.21535404,4.2975097,9.647861,-0.41187558,0.17226386,-0.18417573,-7.89375,-32.5875,-21.75,0.19421232,0.18512201,0.65402305,1000.8799, , , , 
2026-03-20 17:27:58.599,-0.51206404,4.1778684,10.112068,0.032833982,0.34697118,-0.116980605,-7.89375,-32.475002,-21.88125,0.19127256,0.1852032,0.65391195,1000.8867, , , , 
2026-03-20 17:27:58.619,0.1052842,3.991228,8.9348,0.35414886,0.34452772,-0.1414152,-7.89375,-32.4375,-22.1625,0.18937582,0.18861957,0.65359646,1000.8867, , , , 
2026-03-20 17:27:58.639,-0.31106696,4.3357944,7.704889,0.3932442,0.06963859,-0.22082762,-7.7812505,-32.4,-22.44375,0.18976128,0.1933344,0.65227586,1000.8867, , , , 
2026-03-20 17:27:58.659,-0.5694918,4.642076,6.977471,0.3346012,-0.23701553,-0.2159407,-7.55625,-32.60625,-22.556252,0.1921898,0.19591908,0.649886,1000.8867, , , , 
2026-03-20 17:27:58.679,-0.08135597,4.7808595,6.9152575,0.28451028,-0.018325943,-0.18417573,-7.33125,-32.90625,-22.44375,0.19537954,0.19690442,0.64740556,1000.8971,37.88749611,127.73734838,170.6639404296875,0.0
2026-03-20 17:27:58.699,-0.15314065,4.8239303,7.125826,0.37614,0.27122396,-0.12064579,-7.14375,-33.05625,-22.10625,0.19685008,0.19966207,0.64569247,1000.8971, , , , 
2026-03-20 17:27:58.719,-0.14356937,4.924429,6.3792653,0.34681848,0.32864526,-0.054672398,-6.9375005,-33.09375,-21.54375,0.1973975,0.20455097,0.64479536,1000.8971, , , , 
2026-03-20 17:27:58.739,-0.24885355,5.4125648,6.7573314,0.09758565,-0.06108648,-0.04612029,-6.58125,-33.05625,-21.0375,0.19796346,0.20856743,0.64419276,1000.8971, , , , 
2026-03-20 17:27:58.759,-0.4019942,5.8097734,7.0779696,-0.014813471,-0.4092794,-0.02046397,-6.3,-33.05625,-20.85,0.19919355,0.20785147,0.64357436,1000.9001, , , , 
2026-03-20 17:27:58.779,-0.0526421,6.1639113,6.8865438,-0.09300416,-0.54611313,0.045509428,-6.15,-33.018753,-20.79375,0.20192538,0.20454961,0.6426805,1000.9001, , , , 
2026-03-20 17:27:58.799,-0.038285162,6.4366927,7.001399,-0.24694209,-0.39584038,0.08460477,-6.1125,-32.943752,-20.79375,0.20459825,0.20004487,0.6422671,1000.9001, , , , 
2026-03-20 17:27:58.819,-0.19621146,6.6089764,9.150154,-0.36544985,-0.18325943,0.16279547,-6.2812505,-32.943752,-20.94375,0.20468219,0.19470836,0.6432253,1000.9001, , , , 
2026-03-20 17:27:58.839,0.41156548,6.273981,10.671989,-0.17974696,-0.26389357,0.16523892,-6.4875,-32.8875,-21.0375,0.20414336,0.1918716,0.6443424,1000.90454, , , , 
2026-03-20 17:27:58.859,0.8997013,6.407979,10.547563,0.09758565,-0.36163196,0.046731155,-6.675,-32.831253,-21.0375,0.2055281,0.18869025,0.64497894,1000.90454, , , , 
2026-03-20 17:27:58.879,0.6556334,6.728617,9.762716,0.2784016,-0.21746786,-0.059559315,-6.8250003,-32.7,-20.98125,0.20883694,0.18716176,0.64411646,1000.90454, , , , 
2026-03-20 17:27:58.899,0.28235307,6.6424756,9.107083,0.3187187,0.17348559,-0.08643737,-6.80625,-32.5875,-20.90625,0.21207914,0.1891289,0.64257956,1000.90454, , , , 
2026-03-20 17:27:58.919,-0.23928227,6.4031935,9.150154,0.18310672,0.375071,-0.083993904,-6.7500005,-32.68125,-20.71875,0.21223994,0.19207655,0.64212704,1000.90924, , , , 
2026-03-20 17:27:58.939,-0.6652047,5.8193445,9.556933,-0.011148282,0.26633704,-0.07666353,-6.7500005,-32.850002,-20.587502,0.21074982,0.19570333,0.6420283,1000.90924, , , , 
2026-03-20 17:27:58.959,-1.0863415,5.288138,9.777073,-0.117438756,0.07208204,-0.036346454,-6.7500005,-33.131252,-20.7,0.20885547,0.19706763,0.642049,1000.90924, , , , 
2026-03-20 17:27:58.979,-1.3686945,4.8861437,9.887143,-0.060017463,-0.0073303776,0.06139191,-6.8250003,-33.43125,-20.775002,0.20745504,0.1964387,0.6423985,1000.90924, , , , 
2026-03-20 17:27:58.999,-1.7850457,4.790431,9.925428,0.15134175,0.21135922,0.21288638,-6.8812504,-33.393753,-21.112501,0.20718606,0.19658348,0.6430192,1000.91327, , , , 
2026-03-20 17:27:59.019,-1.0001999,4.331009,9.174082,0.3272708,0.3420843,0.33139414,-6.675,-33.206253,-21.487501,0.20725541,0.19915982,0.64491534,1000.91327, , , , 
2026-03-20 17:27:59.039,-0.6795616,4.316652,7.8484583,0.3065014,0.20280711,0.29718572,-6.675,-33.1875,-21.54375,0.2080375,0.20286745,0.64720464,1000.91327, , , , 
2026-03-20 17:27:59.059,-0.7800602,4.4889355,6.623333,0.03894263,-0.04886918,0.29352054,-6.6375003,-32.98125,-21.525002,0.20938763,0.20467174,0.6490454,1000.91327, , , , 
2026-03-20 17:27:59.079,-0.32063824,4.3357944,6.4366927,-0.23594652,-0.14660755,0.33872452,-6.7125,-32.850002,-21.243752,0.21019265,0.2030771,0.65108836,1000.9224, , , , 
2026-03-20 17:27:59.099,0.5072784,4.0677986,6.4701924,-0.2933678,-0.08429934,0.3167334,-7.0125003,-32.8875,-20.831251,0.20992173,0.19976887,0.65369946,1000.9224, , , , 
2026-03-20 17:27:59.119,0.94277215,3.8333018,6.34098,-0.22739442,-0.05131264,0.21532984,-7.18125,-32.60625,-20.681252,0.20906761,0.19674447,0.6561706,1000.9224, , , , 
2026-03-20 17:27:59.139,0.51206404,3.9625144,5.7379885,-0.09544762,-0.098960094,0.09315688,-7.6125,-32.30625,-20.79375,0.20856287,0.19414346,0.6578717,1000.9224, , , , 
2026-03-20 17:27:59.159,-0.43070808,4.575077,4.800002,-0.17608178,-0.042760536,0.1310305,-7.8187504,-32.2125,-20.8875,0.20866296,0.19307733,0.6583344,1000.92664, , , , 
2026-03-20 17:27:59.179,-0.39720857,4.948357,5.2498527,-0.40698865,-0.0012217296,0.2764163,-8.325001,-31.650002,-21.337502,0.20765193,0.19106774,0.6598612,1000.92664, , , , 
2026-03-20 17:27:59.199,-0.20578274,4.7377887,7.097112,-0.47296205,0.073303774,0.3081813,-8.6625,-31.462502,-21.50625,0.20501518,0.18788376,0.6627445,1000.92664, , , , 
2026-03-20 17:27:59.219,-0.13878371,4.6085763,8.360522,-0.15286891,-0.098960094,0.23854269,-8.868751,-31.500002,-21.618752,0.20244454,0.1848673,0.66561085,1000.92664, , , , 
2026-03-20 17:27:59.239,0.17228323,4.9866424,7.149754,0.15256348,-0.19547673,0.11148282,-8.981251,-31.48125,-21.862501,0.20312038,0.18302487,0.6669914,1000.92816, , , , 
2026-03-20 17:27:59.259,-0.83748794,6.0490556,6.4606214,0.17088942,-0.14172062,0.011300999,-9.225,-31.556252,-22.2,0.20634271,0.18283068,0.6666432,1000.92816, , , , 
2026-03-20 17:27:59.279,-0.6987042,6.6759753,6.690332,0.17211115,-0.08552107,0.0980438,-9.337501,-31.650002,-22.5375,0.2079159,0.18311869,0.6663428,1000.92816, , , , 
2026-03-20 17:27:59.299,0.3684947,6.8051877,6.5371914,0.1660025,-0.0073303776,0.06017018,-9.4125,-31.743752,-22.706251,0.2098671,0.18390417,0.66657585,1000.92816, , , , 
2026-03-20 17:27:59.319,-0.44985065,7.5469627,7.111469,0.008399391,0.08307761,-0.029016078,-9.543751,-31.781252,-22.63125,0.21100087,0.18499057,0.6664898,1000.9286, , , , 
2026-03-20 17:27:59.339,-1.0480564,7.475178,9.178867,-0.07101303,0.12828161,0.03573559,-9.4875,-31.7625,-22.518751,0.2102813,0.18582168,0.6665493,1000.9286, , , , 
2026-03-20 17:27:59.359,-0.9379865,7.1306114,9.652647,0.046273008,0.023212861,0.11270455,-9.525001,-31.7625,-22.331251,0.2094903,0.18629092,0.6671523,1000.9286, , , , 
2026-03-20 17:27:59.379,-0.81834537,7.259824,8.748159,-0.01970039,0.18203771,0.18723005,-9.618751,-31.743752,-22.181252,0.20977195,0.18683209,0.66799897,1000.9286, , , , 
2026-03-20 17:27:59.399,-0.7609176,7.422536,10.001999,-0.22372922,0.41416633,0.27397284,-9.58125,-31.7625,-22.10625,0.20802778,0.18788992,0.67000484,1000.92834, , , , 
2026-03-20 17:27:59.419,0.6987042,7.4273214,11.447264,-0.2921461,0.09407318,0.29352054,-9.675,-31.85625,-22.125,0.20443626,0.18818508,0.6731743,1000.92834, , , , 
2026-03-20 17:27:59.439,2.0673988,7.4177504,10.628919,-0.3092503,-0.33353218,0.101708986,-9.731251,-31.743752,-22.275002,0.20326738,0.18542705,0.67535865,1000.92834, , , , 
2026-03-20 17:27:59.459,2.3641088,6.9822564,10.514063,-0.4253146,-0.33231044,-0.024129158,-9.84375,-31.5375,-22.556252,0.2036143,0.1805911,0.67580277,1000.92834, , , , 
2026-03-20 17:27:59.479,1.2921243,5.1828537,12.576675,-0.251829,-0.12950334,-0.09498947,-10.106251,-31.275002,-22.9125,0.20266186,0.1759535,0.67563075,1000.93005, , , , 
2026-03-20 17:27:59.499,1.4452649,3.8811584,12.409178,0.21853687,-0.12705988,-0.10598504,-10.387501,-30.937502,-23.268751,0.2022172,0.1742034,0.67505014,1000.93005, , , , 
2026-03-20 17:27:59.519,2.3449662,3.2733815,9.585648,0.5545125,-0.33231044,-0.26358816,-10.575001,-30.618752,-23.493752,0.2066216,0.17555611,0.6725448,1000.93005, , , , 
2026-03-20 17:27:59.539,2.0291135,3.5700915,6.8482585,0.4384482,-0.4667007,-0.42119128,-10.650001,-30.45,-23.41875,0.21095917,0.17661999,0.6696142,1000.93005, , , , 
2026-03-20 17:27:59.559,1.3639089,4.211368,6.0634127,0.12324197,-0.2480111,-0.4517345,-10.556251,-30.393751,-23.175001,0.21567829,0.17680243,0.6650841,1000.9335, , , , 
2026-03-20 17:27:59.579,1.2634103,4.3836513,6.4558353,-0.07589995,0.04886918,-0.39431322,-10.3125,-30.562502,-22.931252,0.21657087,0.17701878,0.661624,1000.9335, , , , 
2026-03-20 17:27:59.599,0.4211368,4.23051,7.125826,-0.24205516,0.07574723,-0.37843072,-9.9375,-30.975,-22.706251,0.21387087,0.17755559,0.6587368,1000.9335, , , , 
2026-03-20 17:27:59.619,-0.038285162,3.9577286,8.255239,-0.22617269,-0.10140356,-0.3026835,-9.637501,-31.368752,-22.59375,0.21192011,0.17690344,0.65725243,1000.9335, , , , 
2026-03-20 17:27:59.639,0.062213387,3.8285162,7.9106717,0.021838415,-0.14660755,-0.2623664,-9.450001,-31.650002,-22.6875,0.210895,0.17548518,0.65526193,1000.93555, , , , 
2026-03-20 17:27:59.660,0.148355,4.287938,6.7429743,0.15500695,-0.040317077,-0.22937973,-9.243751,-31.7625,-22.81875,0.21163727,0.17558746,0.6531136,1000.93555, , , , 
2026-03-20 17:27:59.679,0.20578274,4.6325045,6.1399827,0.0707076,-0.050090913,-0.2073886,-9.3,-31.706251,-22.95,0.21264862,0.17685454,0.65078276,1000.93555,37.88747998,127.73735744,173.3265380859375,1.59
2026-03-20 17:27:59.699,0.033499517,4.6372905,6.6185474,0.07803798,0.037873615,-0.1707367,-9.20625,-31.650002,-23.00625,0.21287204,0.17731349,0.64958394,1000.93555, , , , 
2026-03-20 17:27:59.719,-0.3684947,4.4889355,6.6089764,0.22953244,0.22846343,-0.118202336,-8.90625,-31.66875,-22.85625,0.21284996,0.17902419,0.64841914,1000.93555, , , , 
2026-03-20 17:27:59.739,-0.526421,4.871787,6.1495543,0.22464553,0.24312419,-0.0033597562,-8.7375,-31.7625,-22.63125,0.21279876,0.18257904,0.6478525,1000.93555, , , , 
2026-03-20 17:27:59.759,0.5072784,4.5320063,6.5515485,0.1036943,0.043982264,0.055283263,-8.587501,-31.968752,-22.35,0.21290337,0.18526834,0.64807135,1000.93555, , , , 
2026-03-20 17:27:59.779,1.0145568,4.139583,6.963114,0.14645483,-0.074525505,-0.0962112,-8.493751,-32.1375,-22.1625,0.21370502,0.1859331,0.64808285,1000.93555, , , , 
2026-03-20 17:27:59.799,-0.19142582,4.694718,7.4847493,0.2234238,0.07819069,-0.18906265,-8.400001,-32.081253,-22.087502,0.21496136,0.1869062,0.64679044,1000.9343, , , , 
2026-03-20 17:27:59.819,-0.38285163,5.3312087,8.484949,0.23075417,0.06352994,-0.065667965,-8.0625,-31.875002,-21.975,0.21572718,0.18938561,0.6453887,1000.9343, , , , 
2026-03-20 17:27:59.839,0.4833502,5.3790655,9.064013,0.15622866,-0.09773836,-0.033902995,-7.5375004,-31.725,-22.0125,0.21739733,0.1911067,0.6445211,1000.9343, , , , 
2026-03-20 17:27:59.859,0.8709874,5.9294147,9.848858,0.10491603,0.0024434591,-0.08643737,-7.2000003,-31.743752,-22.087502,0.21870218,0.19138017,0.64373034,1000.9305, , , , 
2026-03-20 17:27:59.879,0.72263247,6.15434,10.1599245,0.17211115,-0.014660755,-0.09987639,-7.275,-32.15625,-21.956251,0.219185,0.1920393,0.6431092,1000.9305, , , , 
2026-03-20 17:27:59.899,0.8566305,6.3122663,9.523434,0.22586726,-0.20036365,-0.033902995,-7.55625,-32.7,-21.84375,0.22060594,0.19311224,0.64201856,1000.9305, , , , 
2026-03-20 17:27:59.919,0.61734825,6.518049,9.518648,0.15378521,0.18936808,-0.07422007,-7.8562503,-32.9625,-21.712502,0.22246867,0.194374,0.64093935,1000.9305, , , , 
2026-03-20 17:27:59.939,-0.24885355,6.771688,8.41795,-0.058795735,0.35307986,0.011300999,-7.93125,-33.037502,-21.487501,0.22193567,0.19627328,0.6409249,1000.9305, , , , 
2026-03-20 17:27:59.959,-1.6031911,6.4797635,9.475577,-0.48640108,0.3090976,0.21777329,-7.7625003,-32.925003,-21.4125,0.21860464,0.19770312,0.6423849,1000.9326, , , , 
2026-03-20 17:27:59.979,-1.3686945,5.206782,12.323036,-0.5731439,0.02932151,0.4327977,-7.51875,-32.86875,-21.431252,0.2125713,0.19441743,0.6469556,1000.9326, , , , 
2026-03-20 17:27:59.999,-0.3684947,3.9433718,12.949956,-0.21639885,-0.194255,0.44379327,-7.3875003,-32.925003,-21.618752,0.21049403,0.19002078,0.65087175,1000.9326, , , , 
2026-03-20 17:28:00.020,0.23449662,4.0151563,10.748559,0.22708899,-0.38851,0.21777329,-7.5375004,-32.8125,-21.975,0.21279553,0.1868814,0.6528529,1000.9424, , , , 
2026-03-20 17:28:00.039,0.076570325,4.599005,8.451449,0.37614,-0.30665413,0.12125666,-7.8562503,-32.550003,-22.368752,0.21624346,0.18584377,0.6528411,1000.9424, , , , 
2026-03-20 17:28:00.059,0.09571291,5.0392847,6.1208405,0.36636615,-0.013439025,0.11514801,-8.2875,-32.268753,-22.59375,0.2206097,0.18642959,0.65244687,1000.9424, , , , 
2026-03-20 17:28:00.079,-0.13878371,5.2307105,4.4985065,0.08536835,0.26389357,0.19211698,-8.64375,-32.0625,-22.368752,0.22259732,0.18941268,0.6532799,1000.9424, , , , 
2026-03-20 17:28:00.099,-0.3397808,4.948357,4.685147,-0.3263545,0.18692462,0.3045161,-8.85,-32.0625,-22.1625,0.22140199,0.19026558,0.6549598,1000.9424, , , , 
2026-03-20 17:28:00.119,0.148355,4.388437,5.5226345,-0.57558733,-0.015882485,0.40347618,-8.925,-32.193752,-22.0125,0.21847516,0.18794598,0.65827066,1000.9487, , , , 
2026-03-20 17:28:00.139,1.1772687,3.7998023,6.364908,-0.51083565,-0.067195125,0.3741547,-8.887501,-32.34375,-21.993752,0.2155084,0.18311743,0.66208106,1000.9487, , , , 
2026-03-20 17:28:00.159,1.6701902,3.5796626,6.719046,-0.30680683,-0.041538805,0.109039366,-9.01875,-32.287502,-22.331251,0.21338369,0.1788227,0.6649708,1000.9487, , , , 
2026-03-20 17:28:00.179,0.14356937,3.9481573,6.9391856,-0.033139415,0.13072506,-0.07055488,-9.1875,-32.0625,-22.743752,0.2119213,0.17675743,0.6658182,1000.9487, , , , 
2026-03-20 17:28:00.199,-1.0815558,4.618148,5.656633,0.21609342,0.29199335,0.05650499,-9.3,-31.81875,-22.9125,0.2109545,0.1783401,0.66574013,1000.95276, , , , 
2026-03-20 17:28:00.219,0.33020952,5.0009995,4.9196434,0.0377209,0.22601996,0.21410811,-9.450001,-31.612501,-22.96875,0.21048632,0.18153632,0.6667596,1000.95276, , , , 
2026-03-20 17:28:00.239,1.3543376,4.8861437,6.556334,-0.17608178,0.0061086477,0.047952887,-9.637501,-31.462502,-23.025002,0.20957407,0.1820748,0.66845816,1000.95276, , , , 
2026-03-20 17:28:00.259,-0.2536392,5.541777,7.7910304,-0.06734784,-0.032986697,-0.16340633,-9.84375,-31.406252,-23.025002,0.20864439,0.18093204,0.66866696,1000.95276, , , , 
2026-03-20 17:28:00.279,-1.713261,6.7334027,7.752745,0.057268575,0.20036365,0.0027488915,-10.012501,-31.35,-23.118752,0.20820448,0.18120192,0.6677112,1000.95386, , , , 
2026-03-20 17:28:00.299,-0.44027936,6.9678993,9.633504,0.11346813,0.44470957,0.27030766,-10.03125,-31.368752,-23.4375,0.20674862,0.18370779,0.668748,1000.95386, , , , 
2026-03-20 17:28:00.319,0.74177504,7.149754,9.647861,0.25152358,0.25045455,0.20189081,-9.88125,-31.500002,-23.7,0.20551042,0.18703876,0.6711086,1000.95386, , , , 
2026-03-20 17:28:00.339,0.44506502,7.9920278,9.499506,0.14278965,-0.019547673,0.06994402,-9.712501,-31.706251,-23.8875,0.20630254,0.18958668,0.6722169,1000.95386, , , , 
2026-03-20 17:28:00.359,1.1629118,7.4847493,10.116854,0.108581215,-0.15760311,-0.10598504,-9.618751,-31.800001,-24.056252,0.20791066,0.18989967,0.67211384,1000.95154, , , , 
2026-03-20 17:28:00.379,-0.23928227,7.4177504,9.79143,0.10491603,-0.05986475,-0.4480693,-9.618751,-31.7625,-23.925001,0.20934485,0.19011378,0.67011964,1000.95154, , , , 
2026-03-20 17:28:00.399,-1.7180467,7.6953177,10.442278,0.19654575,0.29565856,-0.2538143,-9.618751,-31.706251,-23.643751,0.2093285,0.19184734,0.667122,1000.95154, , , , 
2026-03-20 17:28:00.419,-1.0767702,7.2789664,9.49472,0.25885394,0.21013749,-0.04978548,-9.637501,-31.706251,-23.493752,0.20839356,0.19599746,0.66581273,1000.95154, , , , 
2026-03-20 17:28:00.439,0.7465607,6.8817577,8.441878,0.14401138,0.27488914,-0.011911863,-9.637501,-31.7625,-23.306252,0.20883167,0.19898601,0.6654764,1000.95154, , , , 
2026-03-20 17:28:00.459,1.5744773,5.8097734,9.772287,0.19654575,0.7892373,-0.08032872,-9.69375,-31.81875,-23.19375,0.20703293,0.2029327,0.6658631,1000.95154, , , , 
2026-03-20 17:28:00.479,0.6364908,4.666004,10.566705,0.20143266,-0.7977894,-0.3564396,-9.5625,-31.81875,-23.175001,0.20595631,0.20545596,0.665068,1000.95154, , , , 
2026-03-20 17:28:00.499,0.6987042,4.996214,8.480164,0.004734202,-1.1252129,-0.2904662,-9.20625,-31.9125,-23.00625,0.21220677,0.20088312,0.6605983,1000.95154, , , , 
2026-03-20 17:28:00.519,0.94277215,4.5224347,7.6953177,-0.24694209,-1.0054834,-0.16951497,-8.981251,-32.11875,-22.85625,0.21869794,0.19312485,0.6565675,1000.95197, , , , 
2026-03-20 17:28:00.539,0.47377887,4.7712884,8.666803,-0.38621926,-0.16737695,-0.12797616,-8.85,-32.362503,-22.85625,0.22123598,0.18465035,0.65395606,1000.95197, , , , 
2026-03-20 17:28:00.559,-0.14356937,4.6755753,8.49452,-0.25305074,0.3176497,0.012522728,-8.887501,-32.41875,-22.7625,0.21911578,0.18327715,0.65406376,1000.95197, , , , 
2026-03-20 17:28:00.579,0.05742774,4.493721,7.8053875,-0.22495095,0.2480111,0.051618073,-9.1125,-32.287502,-22.7625,0.21524532,0.18391107,0.6554182,1000.95197, , , , 
2026-03-20 17:28:00.599,-0.033499517,4.0773697,7.0875406,-0.25305074,-0.16004658,0.06139191,-9.1875,-32.15625,-22.81875,0.21262775,0.18335615,0.65656406,1000.9517, , , , 
2026-03-20 17:28:00.619,0.0047856453,4.0390844,5.9581285,-0.23838998,-0.4667007,0.013744458,-9.1125,-31.968752,-22.78125,0.2130823,0.17842261,0.6566641,1000.9517, , , , 
2026-03-20 17:28:00.639,0.21535404,3.9768713,6.2548385,-0.20051636,-0.14172062,-0.010690134,-9.150001,-31.875002,-22.85625,0.21387477,0.1752176,0.6563511,1000.9517, , , , 
2026-03-20 17:28:00.659,0.33499518,3.7615173,7.460821,0.13790272,0.0061086477,-0.12553272,-8.981251,-31.875002,-22.931252,0.21322832,0.17375246,0.65606254,1000.94916, , , , 
2026-03-20 17:28:00.679,0.043070808,3.900301,6.2404814,0.35048366,-0.06963859,-0.17562363,-8.85,-31.893751,-23.0625,0.21406385,0.17481078,0.6550758,1000.94916,37.88746633,127.73736752,174.47320556640625,1.68
2026-03-20 17:28:00.699,-0.11006984,4.345366,5.1828537,0.34926194,0.04886918,-0.15363249,-8.7375,-31.9125,-23.38125,0.21730623,0.1778645,0.6525964,1000.94916, , , , 
2026-03-20 17:28:00.719,0.014356935,4.3645086,6.087341,0.37003133,0.22846343,-0.10476331,-8.625,-32.04375,-23.5125,0.21829407,0.1805062,0.65162027,1000.94916, , , , 
2026-03-20 17:28:00.739,-0.019142581,4.900501,5.690132,0.35781404,0.25411975,-0.05589413,-8.700001,-32.2125,-23.41875,0.21932375,0.1848599,0.65073,1000.94916, , , , 
2026-03-20 17:28:00.759,0.1052842,4.881358,6.853044,0.17944153,0.17715079,0.00763581,-8.681251,-32.362503,-23.23125,0.21986161,0.18878426,0.65041244,1000.9458, , , , 
2026-03-20 17:28:00.779,-0.22971097,5.3312087,8.327023,0.18921536,-0.013439025,0.0051923506,-8.587501,-32.362503,-22.875,0.22057784,0.19073084,0.65027213,1000.9458, , , , 
2026-03-20 17:28:00.799,0.4211368,5.1493545,7.8723865,0.27473643,0.21868959,0.12980877,-8.418751,-32.41875,-22.5375,0.22157942,0.1920936,0.6503406,1000.9458, , , , 
2026-03-20 17:28:00.819,0.0047856453,5.8672013,8.427522,0.14889829,0.41294459,0.15424335,-8.137501,-32.49375,-22.462502,0.2218257,0.19526152,0.6513664,1000.9458, , , , 
2026-03-20 17:28:00.839,0.2105684,6.2644095,10.073783,-0.04780017,0.27855435,0.21532984,-7.9875,-32.41875,-22.368752,0.22015272,0.19836228,0.65329814,1000.9445, , , , 
2026-03-20 17:28:00.859,0.9619147,6.250053,11.073983,-0.09666935,-0.112399116,0.23854269,-8.118751,-32.5875,-22.237501,0.21907495,0.19841737,0.65535855,1000.9445, , , , 
2026-03-20 17:28:00.879,1.7467605,6.1878395,12.12204,0.007177661,-0.06108648,0.17501275,-8.475,-32.68125,-22.21875,0.21988282,0.19630997,0.6567901,1000.9445, , , , 
2026-03-20 17:28:00.899,1.4691931,6.0155563,11.389835,0.23319763,0.16859868,0.019853106,-8.83125,-32.643753,-22.1625,0.22104445,0.19575892,0.6575995,1000.9445, , , , 
2026-03-20 17:28:00.919,-0.047856454,6.0634127,11.653047,0.3346012,0.46792242,0.012522728,-9.168751,-32.925003,-22.125,0.22108851,0.19914979,0.6578226,1000.94666, , , , 
2026-03-20 17:28:00.939,-0.15792629,5.4843497,10.820344,0.31383178,0.24312419,0.06994402,-9.375,-33.15,-22.1625,0.22071491,0.20507097,0.65842825,1000.94666, , , , 
2026-03-20 17:28:00.959,0.2536392,4.981857,9.724431,0.20265439,-0.0024434591,-0.0033597562,-9.225,-33.15,-21.993752,0.22139016,0.20710748,0.6585797,1000.94666, , , , 
2026-03-20 17:28:00.979,-0.24885355,4.8526444,8.585447,0.012064579,-0.10140356,-0.04856375,-9.1875,-33.24375,-21.768751,0.22256802,0.20782539,0.6580702,1000.94666, , , , 
2026-03-20 17:28:00.999,-0.4881358,5.15414,7.8867435,-0.14920372,0.019547673,-0.021685699,-9.056251,-33.112503,-21.5625,0.22273059,0.20709528,0.6576577,1000.9524, , , , 
2026-03-20 17:28:01.019,-0.6556334,4.9196434,8.006385,-0.31291547,0.2614501,0.038179047,-8.83125,-32.9625,-21.45,0.21974055,0.20646086,0.6585875,1000.9524, , , , 
2026-03-20 17:28:01.039,-0.81834537,4.4602213,8.427522,-0.34712392,0.20036365,0.043065965,-8.83125,-32.98125,-21.50625,0.21669167,0.20609365,0.65974003,1000.9524, , , , 
2026-03-20 17:28:01.059,-0.64606214,4.240082,7.3698936,-0.27870706,-0.098960094,0.062613636,-8.775001,-32.925003,-21.65625,0.21300705,0.20419781,0.66129106,1000.96387, , , , 
2026-03-20 17:28:01.079,-0.39720857,4.2448673,6.1064835,-0.23594652,-0.30787584,0.076052666,-8.7375,-32.90625,-21.956251,0.21253553,0.20186251,0.66175914,1000.96387, , , , 
2026-03-20 17:28:01.099,-0.4019942,4.4171505,4.723432,-0.23350306,-0.21991132,0.13591741,-8.8125,-32.775,-22.25625,0.21329464,0.19723919,0.66231376,1000.96387, , , , 
2026-03-20 17:28:01.119,-0.15792629,4.26401,5.517849,-0.22128576,-0.036651887,0.22510368,-8.94375,-32.662502,-22.575,0.21304289,0.19510116,0.6632831,1000.96387, , , , 
2026-03-20 17:28:01.139,0.49292147,3.8907297,6.2931237,-0.04046979,-0.1197295,0.1933387,-9.150001,-32.60625,-22.800001,0.21251479,0.1931315,0.66508174,1000.96387, , , , 
2026-03-20 17:28:01.159,0.5024927,4.273581,5.436493,0.15256348,-0.15149446,0.10537417,-9.337501,-32.475002,-22.875,0.21391793,0.1918663,0.66590315,1000.96704, , , , 
2026-03-20 17:28:01.179,0.8709874,4.74736,4.570291,0.20265439,-0.023212861,0.06627883,-9.5625,-32.325,-22.96875,0.21661912,0.19232102,0.6660143,1000.96704, , , , 
2026-03-20 17:28:01.199,0.46899325,5.316852,4.6325045,0.0707076,0.13561198,-0.040011644,-9.806251,-32.2125,-22.95,0.21756566,0.1932829,0.6659314,1000.96704, , , , 
2026-03-20 17:28:01.219,-0.7369894,5.7810597,6.45105,0.016951498,0.17470732,-0.059559315,-10.03125,-32.175003,-23.00625,0.21683134,0.1949334,0.6658037,1000.96704, , , , 
2026-03-20 17:28:01.239,-0.6269195,6.4462643,7.4129643,0.07315106,0.03054324,-0.0033597562,-10.200001,-32.175003,-22.96875,0.21602046,0.19636863,0.6657242,1000.9683, , , , 
2026-03-20 17:28:01.260,0.29671,6.943971,7.8436728,0.10491603,-0.2150244,-0.035124727,-10.087501,-32.175003,-22.837502,0.21689779,0.19674541,0.665406,1000.9683, , , , 
2026-03-20 17:28:01.279,0.20578274,7.594819,8.087741,0.15012002,-0.10140356,-0.0962112,-9.9375,-32.193752,-22.743752,0.2190332,0.19631244,0.6643384,1000.9683, , , , 
2026-03-20 17:28:01.299,-0.124426775,7.8580294,8.724232,0.09880738,0.14172062,-0.11209369,-9.825001,-32.175003,-22.650002,0.22022647,0.19731298,0.66322494,1000.9683, , , , 
2026-03-20 17:28:01.319,-0.64606214,7.479964,9.805787,0.07315106,0.28832817,-0.09376775,-9.825001,-32.175003,-22.66875,0.21941808,0.19956005,0.66266716,1000.9683, , , , 
2026-03-20 17:28:01.339,-0.5982057,7.350751,10.097712,-0.024587307,0.31642795,-0.092546016,-10.06875,-32.362503,-22.518751,0.21762176,0.2023339,0.6625637,1000.9683, , , , 
2026-03-20 17:28:01.359,-0.94277215,7.925029,10.561919,-0.25060728,0.22235478,-0.15118903,-10.06875,-32.568752,-22.40625,0.21502014,0.20414004,0.66255635,1000.9683, , , , 
2026-03-20 17:28:01.379,-0.91884387,8.030313,12.236895,-0.3581195,0.15149446,-0.11575887,-9.88125,-32.68125,-22.425001,0.21131767,0.2040958,0.6625715,1000.9683, , , , 
2026-03-20 17:28:01.399,-0.6795616,7.4847493,12.940385,-0.28970262,-0.03176497,-0.040011644,-9.543751,-32.643753,-22.40625,0.20795296,0.20273794,0.6628114,1000.9702, , , , 
2026-03-20 17:28:01.419,0.4211368,6.04427,12.222538,-0.123547405,-0.20525056,0.024740024,-9.337501,-32.53125,-22.556252,0.20670296,0.20055306,0.66302633,1000.9702, , , , 
2026-03-20 17:28:01.439,2.115255,4.9866424,10.150353,-0.009926553,-0.2614501,-0.042455103,-8.8125,-32.175003,-23.15625,0.20779155,0.19813178,0.66282886,1000.9702, , , , 
2026-03-20 17:28:01.459,2.3306093,4.3501515,9.312865,-0.01847866,-0.05497783,-0.17684536,-8.55,-31.875002,-23.4375,0.20898491,0.19651268,0.66195536,1000.9702, , , , 
2026-03-20 17:28:01.479,1.3639089,4.3645086,8.906086,-0.07101303,0.045203995,-0.2538143,-8.34375,-31.63125,-23.60625,0.20821518,0.1965039,0.66028655,1000.9794, , , , 
2026-03-20 17:28:01.499,0.5455636,4.5320063,8.56152,-0.110108376,0.032986697,-0.20005822,-8.4375,-31.650002,-23.38125,0.20714526,0.19658461,0.65925485,1000.9794, , , , 
2026-03-20 17:28:01.519,0.4546363,4.4171505,8.16431,-0.11988221,-0.06963859,-0.182954,-8.512501,-31.63125,-23.2875,0.20584148,0.19623339,0.65819114,1000.9794, , , , 
2026-03-20 17:28:01.539,0.23928227,4.3118663,7.652247,-0.04046979,-0.16493349,-0.18661919,-8.493751,-31.650002,-23.362501,0.20541912,0.19511335,0.6569191,1000.9794, , , , 
2026-03-20 17:28:01.559,0.019142581,4.1347976,7.01097,0.14889829,-0.13194679,-0.15363249,-8.38125,-31.706251,-23.5125,0.20617843,0.19434449,0.6553246,1000.987, , , , 
2026-03-20 17:28:01.579,0.26799613,3.9960139,5.905486,0.36147922,0.019547673,-0.13041963,-8.0625,-31.7625,-23.75625,0.20798172,0.19534934,0.6537125,1000.987, , , , 
2026-03-20 17:28:01.599,0.4211368,4.1874394,5.111069,0.4555524,0.09773836,-0.15729769,-7.8187504,-31.85625,-23.8125,0.21014652,0.19847594,0.6520996,1000.987, , , , 
2026-03-20 17:28:01.619,0.3062813,4.5655055,4.3740797,0.41279188,0.03176497,-0.17195843,-7.6312504,-32.15625,-23.60625,0.21253727,0.20236823,0.6502371,1000.987, , , , 
2026-03-20 17:28:01.639,-0.51206404,4.800002,4.85743,0.29550585,0.11606431,-0.11453715,-7.4437504,-32.53125,-23.4375,0.21507068,0.20628336,0.64801216,1000.99506, , , , 
2026-03-20 17:28:01.659,-0.90448695,4.613362,5.7667027,0.2942841,0.24556763,0.011300999,-7.3500004,-32.737503,-23.175001,0.21572301,0.20872898,0.6473982,1000.99506, , , , 
2026-03-20 17:28:01.679,-0.44506502,4.23051,7.0731835,0.37858346,0.20036365,0.05650499,-7.1250005,-32.90625,-22.875,0.2163104,0.2124928,0.6474542,1000.99506,37.88745219,127.73737777,175.03369140625,1.62
2026-03-20 17:28:01.699,-0.44506502,4.4985065,6.9056864,0.4384482,-0.07208204,0.040622506,-6.8625,-33.09375,-22.5,0.21825556,0.21589804,0.6472476,1000.99506, , , , 
2026-03-20 17:28:01.719,-0.30149564,4.981857,6.15434,0.32360563,-0.21258095,0.12125666,-6.8250003,-33.318752,-22.050001,0.22315872,0.21768253,0.64632463,1000.9957, , , , 
2026-03-20 17:28:01.739,0.29671,5.144569,6.4175506,0.15989386,-0.05253437,0.14691298,-6.95625,-33.600002,-21.806252,0.22566468,0.2178748,0.64628994,1000.9957, , , , 
2026-03-20 17:28:01.759,0.34456646,5.3982077,7.647461,-0.020922119,0.2272417,0.14691298,-7.05,-33.7125,-21.75,0.22674417,0.21839039,0.64708716,1000.9957, , , , 
2026-03-20 17:28:01.779,0.5455636,5.5944195,10.236495,-0.07467822,0.22479823,0.11026109,-7.36875,-33.84375,-21.581251,0.22459176,0.21968934,0.64913803,1000.9957, , , , 
2026-03-20 17:28:01.799,0.82313097,5.938986,10.514063,0.095142186,-0.16737695,0.022296565,-7.3500004,-33.768753,-21.45,0.2242,0.21984228,0.6498539,1000.9921, , , , 
2026-03-20 17:28:01.819,1.3639089,6.647261,10.006784,0.08536835,-0.3933969,-0.051007207,-7.3500004,-33.73125,-21.300001,0.22602303,0.21881723,0.649254,1000.9921, , , , 
2026-03-20 17:28:01.839,1.5840486,7.068398,9.738789,0.014508039,-0.26755878,-0.19394957,-7.3125005,-33.5625,-21.075,0.22900039,0.21645972,0.647589,1000.9921, , , , 
2026-03-20 17:28:01.860,-0.17706887,6.977471,10.916057,0.06704241,0.32498005,-0.27214026,-7.425,-33.5625,-21.075,0.22945292,0.21622117,0.64581007,1000.9921, , , , 
2026-03-20 17:28:01.879,-2.3353949,6.474978,12.136396,0.21364996,0.32131487,-0.16584979,-7.4062505,-33.6375,-20.98125,0.22655435,0.22123948,0.6444881,1000.98615, , , , 
2026-03-20 17:28:01.899,-1.9046868,5.9676995,11.274981,0.27107126,-0.34819293,-0.04367683,-7.2000003,-33.768753,-20.8875,0.22688328,0.22314271,0.6436689,1000.98615, , , , 
2026-03-20 17:28:01.919,-1.5601203,5.6853466,9.461221,0.2784016,-0.49357873,0.00763581,-6.9375005,-33.84375,-20.5125,0.23113777,0.22208647,0.64188015,1000.98615, , , , 
2026-03-20 17:28:01.939,-1.1581261,5.6709895,7.958528,0.19288056,0.023212861,0.113926284,-6.76875,-33.862503,-20.19375,0.23596926,0.22114854,0.64057577,1000.98804, , , , 
2026-03-20 17:28:01.959,-0.9810573,5.508278,7.676175,0.03405571,0.34697118,0.1517999,-6.8437505,-33.956253,-20.212502,0.23607086,0.22253484,0.64129436,1000.98804, , , , 
2026-03-20 17:28:01.979,-1.1485549,5.111069,7.60439,-0.24205516,0.17348559,0.19089524,-7.1625004,-34.143753,-20.23125,0.23390043,0.22422177,0.6432673,1000.98804, , , , 
2026-03-20 17:28:01.999,-0.6269195,4.4985065,7.752745,-0.4045452,-0.080634154,0.23121232,-7.5375004,-34.443752,-20.25,0.23156528,0.22261159,0.6455539,1000.98804, , , , 
2026-03-20 17:28:02.019,-0.043070808,4.115655,7.4656067,-0.27137667,-0.112399116,0.21655156,-7.8562503,-34.6875,-20.2875,0.23000073,0.21884649,0.6477484,1000.98804, , , , 
2026-03-20 17:28:02.039,0.33020952,4.139583,6.135197,-0.044134982,0.080634154,0.16157374,-8.0625,-34.7625,-20.25,0.22919983,0.21640849,0.6498633,1000.99335, , , , 
2026-03-20 17:28:02.059,0.0047856453,4.436293,4.8861437,0.015729768,0.14172062,0.11636974,-8.19375,-34.59375,-20.362501,0.22884801,0.21666516,0.6508057,1000.99335, , , , 
2026-03-20 17:28:02.079,-0.4881358,4.833502,3.804588,-0.09911281,0.15638138,0.1725693,-8.175,-34.2,-20.60625,0.22813372,0.21742216,0.6520268,1000.99335, , , , 
2026-03-20 17:28:02.099,-0.43070808,4.7952166,4.082155,-0.33246315,0.12095123,0.24831653,-8.118751,-33.75,-20.75625,0.22602616,0.2168127,0.6546254,1000.994, , , , 
2026-03-20 17:28:02.119,0.08135597,4.709075,6.1878395,-0.42164943,0.0537561,0.2629773,-8.231251,-33.412502,-20.94375,0.2232177,0.21446231,0.65749156,1000.994, , , , 
2026-03-20 17:28:02.139,0.526421,4.800002,7.322037,-0.3263545,-0.16859868,0.1640172,-8.418751,-33.16875,-21.206251,0.22164756,0.21198827,0.6593233,1000.994, , , , 
2026-03-20 17:28:02.159,-0.038285162,5.206782,7.6139617,-0.08689552,-0.24678937,0.101708986,-8.6625,-33.24375,-21.5625,0.22134429,0.20847915,0.660445,1000.994, , , , 
2026-03-20 17:28:02.179,0.20578274,5.6470613,6.4031935,0.15134175,-0.18081598,0.14080434,-9.075001,-33.54375,-21.975,0.22301885,0.20652837,0.6607262,1000.994, , , , 
2026-03-20 17:28:02.199,1.2059826,6.1830535,5.584848,0.12812889,0.0012217296,0.0736092,-9.28125,-33.73125,-22.368752,0.2258608,0.20651482,0.66103774,1000.9906, , , , 
2026-03-20 17:28:02.219,0.51206404,6.7381887,7.1545396,0.019394957,0.20402883,-0.07666353,-9.31875,-33.862503,-22.5,0.22608535,0.20735839,0.66111314,1000.9906, , , , 
2026-03-20 17:28:02.239,-0.37328035,7.216753,8.6141615,0.045051277,0.112399116,-0.13041963,-9.4125,-33.7125,-22.368752,0.2249005,0.20910828,0.6608309,1000.9906, , , , 
2026-03-20 17:28:02.259,-0.6843473,7.594819,10.059426,0.1244637,-0.040317077,-0.044898562,-9.375,-33.393753,-22.21875,0.22462577,0.21051747,0.65980005,1000.9798, , , , 
2026-03-20 17:28:02.279,0.2009971,7.025327,10.078569,0.26374087,-0.13561198,-0.07177661,-9.262501,-33.225002,-22.06875,0.22553964,0.21108325,0.65923357,1000.9798, , , , 
2026-03-20 17:28:02.299,0.023928227,7.3603225,8.537591,0.3113883,-0.20525056,-0.2159407,-9.1875,-33.018753,-22.10625,0.22825216,0.21215984,0.65755844,1000.9798, , , , 
2026-03-20 17:28:02.319,-0.32063824,8.413164,7.01097,0.10980295,-0.12583815,-0.1744019,-9.1875,-32.925003,-22.1625,0.2309544,0.21315202,0.6550614,1000.9798, , , , 
2026-03-20 17:28:02.339,-0.15792629,8.867801,8.212168,-0.52671814,0.3274235,0.05650499,-9.225,-32.98125,-22.21875,0.23010145,0.21320029,0.6545868,1000.9798, , , , 
2026-03-20 17:28:02.359,0.44506502,7.537391,12.01197,-0.80771595,0.12217296,0.12614357,-9.1875,-33.0,-22.181252,0.22395366,0.21111351,0.65723425,1000.97614, , , , 
2026-03-20 17:28:02.379,0.91884387,5.5657053,14.261223,-0.55970484,-0.38728827,0.028405212,-9.20625,-33.16875,-21.91875,0.21868987,0.2057626,0.65967214,1000.97614, , , , 
2026-03-20 17:28:02.399,1.5074782,4.900501,12.4426775,-0.07345649,-0.6560688,-0.10231985,-9.20625,-33.487503,-21.9375,0.21865532,0.19928767,0.65957433,1000.97614, , , , 
2026-03-20 17:28:02.419,2.0578275,4.6755753,9.245867,0.25885394,-0.34574947,-0.23182319,-9.337501,-33.525,-22.2,0.22337851,0.19501099,0.6566909,1000.97614, , , , 
2026-03-20 17:28:02.439,1.6558332,4.9435716,7.173682,0.27107126,0.012217295,-0.34177884,-9.46875,-33.3375,-22.518751,0.22556645,0.19560371,0.6545368,1000.97894, , , , 
2026-03-20 17:28:02.459,0.79441714,5.058427,6.216553,0.014508039,0.13316852,-0.3515527,-9.39375,-33.09375,-22.612501,0.22625828,0.1980512,0.65177333,1000.97894, , , , 
2026-03-20 17:28:02.479,0.0,4.8191447,6.9344,-0.28359398,0.06597339,-0.2819141,-9.01875,-32.90625,-22.556252,0.22440246,0.1992522,0.6498179,1000.97894, , , , 
2026-03-20 17:28:02.499,-0.19142582,4.4075794,7.719246,-0.42164943,-0.09529491,-0.16951497,-8.587501,-32.775,-22.44375,0.22143392,0.19778767,0.64876264,1000.97894, , , , 
2026-03-20 17:28:02.519,0.2727818,3.9290147,8.015956,-0.29947644,-0.10873393,-0.14019346,-8.231251,-32.756252,-22.40625,0.21885484,0.1947724,0.6482286,1000.9823, , , , 
2026-03-20 17:28:02.539,0.57906306,4.082155,7.3268228,-0.056352276,-0.014660755,-0.18539746,-7.8562503,-32.737503,-22.556252,0.21734115,0.19276583,0.6474843,1000.9823, , , , 
2026-03-20 17:28:02.559,0.10049855,4.5128636,6.0011992,0.075594515,0.12705988,-0.19394957,-7.5937505,-32.662502,-22.78125,0.21676815,0.1931514,0.6462012,1000.9823, , , , 
2026-03-20 17:28:02.579,-0.7178468,4.7138605,6.101698,-0.020922119,0.27000225,-0.08277218,-7.5937505,-32.71875,-22.837502,0.21523456,0.19574142,0.6451936,1000.98724, , , , 
2026-03-20 17:28:02.599,-0.72263247,4.4985065,7.111469,-0.0820086,0.12705988,0.022296565,-7.65,-32.925003,-22.875,0.21369122,0.19692592,0.6454011,1000.98724, , , , 
2026-03-20 17:28:02.619,-0.086141616,4.752146,7.0492554,0.019394957,-0.12828161,0.101708986,-7.8,-33.225002,-23.025002,0.21289082,0.19692637,0.64592814,1000.98724, , , , 
2026-03-20 17:28:02.639,0.36370903,5.0249276,6.4271216,0.082924895,-0.10506874,0.1273653,-7.9500003,-33.28125,-23.1,0.21428919,0.19598445,0.6463093,1000.98724, , , , 
2026-03-20 17:28:02.659,0.36370903,4.9435716,6.8817577,0.20876303,0.13072506,0.13836087,-7.8750005,-33.1875,-23.212502,0.21567322,0.19603847,0.6469081,1000.98724, , , , 
2026-03-20 17:28:02.679,0.10049855,4.7856455,6.862615,0.3602575,0.40194902,0.17379104,-7.7812505,-33.05625,-23.19375,0.21651222,0.19859728,0.64784163,1000.99335,37.88743987,127.73738917,175.4619140625,1.64
2026-03-20 17:28:02.699,0.17228323,4.584648,7.365108,0.37369654,0.4166098,0.17989968,-7.7250004,-32.90625,-22.987501,0.21665291,0.2036336,0.6493079,1000.99335, , , , 
2026-03-20 17:28:02.719,0.44506502,4.7042894,7.4177504,0.18066326,-0.05253437,0.09682207,-7.6875005,-32.98125,-22.95,0.21769094,0.20808618,0.6506057,1000.99335, , , , 
2026-03-20 17:28:02.739,-0.05742774,5.048856,9.202796,0.013286309,-0.25778493,-0.010690134,-7.7250004,-33.15,-22.96875,0.21948493,0.20721678,0.6503926,1000.99335, , , , 
2026-03-20 17:28:02.759,-0.23449662,5.4699926,10.380065,0.25641048,-0.09407318,0.03451386,-7.8,-33.1875,-22.96875,0.22084016,0.20632659,0.649903,1000.99335, , , , 
2026-03-20 17:28:02.779,0.85184485,6.0107703,9.23151,0.506865,0.18203771,0.028405212,-7.9875,-33.2625,-23.00625,0.22329536,0.20807575,0.64947015,1000.99335, , , , 
2026-03-20 17:28:02.799,0.70348984,6.7094746,8.724232,0.4225657,0.3103193,-0.042455103,-8.15625,-33.393753,-22.725,0.22533482,0.21279451,0.6490055,1000.99335, , , , 
2026-03-20 17:28:02.819,0.28713873,6.647261,8.465807,0.18555018,0.22968516,-0.092546016,-8.231251,-33.54375,-22.368752,0.22600304,0.21720205,0.6484696,1000.99335, , , , 
2026-03-20 17:28:02.839,-0.7322037,6.862615,8.776874,-0.14309508,0.25411975,-0.05222894,-8.19375,-33.768753,-22.087502,0.2249778,0.2196201,0.6481486,1000.9966, , , , 
2026-03-20 17:28:02.859,-1.5696917,6.4701924,9.753145,-0.45585784,0.30543238,0.1188132,-7.7812505,-33.91875,-21.712502,0.22046393,0.22013825,0.6496105,1000.9966, , , , 
2026-03-20 17:28:02.879,-0.79920274,5.4221363,11.700903,-0.5352703,0.19669846,0.17379104,-7.4062505,-33.9,-21.4125,0.21667232,0.21890837,0.6516514,1000.9966, , , , 
2026-03-20 17:28:02.899,-0.39720857,4.5655055,12.691531,-0.30680683,0.040317077,0.008857539,-7.2937503,-33.862503,-21.581251,0.21161428,0.21568696,0.6543918,1000.9966, , , , 
2026-03-20 17:28:02.919,-1.1006985,4.924429,11.303694,-0.016035201,0.012217295,-0.10720677,-7.3125005,-33.862503,-21.91875,0.21016437,0.21474272,0.65455574,1000.9991, , , , 
2026-03-20 17:28:02.939,-1.1916257,5.178068,9.020942,0.023060145,0.0024434591,-0.060781047,-7.3875003,-33.80625,-22.44375,0.20967354,0.21500258,0.6539144,1000.9991, , , , 
2026-03-20 17:28:02.959,-1.2346965,5.005785,7.594819,-0.08078687,-0.07819069,0.052839804,-7.275,-33.7125,-23.00625,0.20955966,0.21492976,0.6536437,1000.9991, , , , 
2026-03-20 17:28:02.979,-0.4833502,4.5415773,6.9296145,-0.12965605,-0.09651663,0.1640172,-7.0687504,-33.581253,-23.081251,0.20953453,0.21305194,0.65455914,1000.9991, , , , 
2026-03-20 17:28:02.999,-0.24885355,4.15394,5.7188463,-0.11133011,-0.12217296,0.14202607,-7.0687504,-33.24375,-23.0625,0.20970733,0.21167012,0.65542847,1001.00275, , , , 
2026-03-20 17:28:03.019,-1.0145568,4.359723,5.613562,-0.22861615,-0.032986697,0.1725693,-7.3875003,-32.850002,-23.081251,0.20976096,0.20971975,0.65647006,1001.00275, , , , 
2026-03-20 17:28:03.039,-0.7896315,4.024728,6.843473,-0.21639885,-0.03054324,0.29962918,-7.8562503,-32.568752,-23.212502,0.2086509,0.20766911,0.6583476,1001.00275, , , , 
2026-03-20 17:28:03.059,0.19142582,3.7328033,6.7525454,-0.044134982,-0.17348559,0.26664248,-8.231251,-32.30625,-23.5125,0.20847112,0.2054519,0.6606323,1001.00275, , , , 
2026-03-20 17:28:03.079,0.13878371,3.9290147,5.9150577,0.12079851,-0.17592905,0.12370012,-8.306251,-32.381252,-23.625,0.210211,0.2036598,0.661785,1001.0068, , , , 
2026-03-20 17:28:03.099,-0.34456646,4.3070807,5.3216376,0.20631959,-0.091629714,0.11148282,-8.4375,-32.68125,-23.737501,0.21248505,0.20331348,0.6619706,1001.0068, , , , 
2026-03-20 17:28:03.119,0.15314065,4.6612186,4.6707897,0.20509785,-0.03054324,0.12980877,-8.700001,-32.831253,-23.643751,0.21470289,0.20400505,0.6621932,1001.0068, , , , 
2026-03-20 17:28:03.139,0.44506502,5.2689953,4.871787,0.008399391,-0.010995566,0.06383537,-8.981251,-32.943752,-23.53125,0.2164546,0.20473917,0.6626945,1001.0068, , , , 
2026-03-20 17:28:03.159,0.13399807,5.656633,6.8243303,-0.04780017,-0.02443459,-0.0033597562,-9.1125,-32.9625,-23.5125,0.21648508,0.20448399,0.6629239,1001.00464, , , , 
2026-03-20 17:28:03.179,-0.22971097,6.0394845,7.52782,0.18188499,-0.0073303776,-0.058337588,-9.1875,-32.71875,-23.325,0.21671432,0.20444417,0.6627144,1001.00464, , , , 
2026-03-20 17:28:03.199,-0.32063824,6.7908306,7.0636125,0.32238388,-0.02687805,-0.083993904,-9.09375,-32.775,-23.1375,0.2182671,0.20610416,0.66172785,1001.00464, , , , 
2026-03-20 17:28:03.219,-0.20578274,7.628319,6.465407,0.20631959,-0.11606431,-0.04612029,-9.01875,-32.9625,-23.04375,0.22130615,0.20836374,0.6601081,1001.00464, , , , 
2026-03-20 17:28:03.239,-0.02871387,7.9393854,8.255239,-0.024587307,0.05131264,-0.01802051,-9.243751,-33.24375,-22.9125,0.22232659,0.20874682,0.6595888,1000.993, , , , 
2026-03-20 17:28:03.259,0.11964113,7.853244,10.1599245,-0.0013744457,0.1075122,-0.05589413,-9.4875,-33.487503,-22.7625,0.22172822,0.2092077,0.65961295,1000.993, , , , 
2026-03-20 17:28:03.279,-0.4211368,7.877172,9.911072,0.056046844,-0.10995566,-0.116980605,-9.525001,-33.45,-22.800001,0.22138202,0.2099652,0.659147,1000.993, , , , 
2026-03-20 17:28:03.299,0.2727818,8.221739,8.331808,-0.0820086,-0.13927718,-0.0962112,-9.50625,-33.375,-22.725,0.22265987,0.2090489,0.65769494,1000.993, , , , 
2026-03-20 17:28:03.319,-0.076570325,8.322237,9.260223,-0.33124143,0.3103193,-0.1621846,-9.4125,-33.318752,-22.650002,0.22151811,0.20856497,0.657349,1000.9853, , , , 
2026-03-20 17:28:03.339,-1.0097711,7.647461,12.533605,-0.3434587,0.5412262,-0.15974113,-9.168751,-33.393753,-22.650002,0.2158923,0.20957944,0.65789497,1000.9853, , , , 
2026-03-20 17:28:03.359,-1.2346965,6.474978,13.864015,0.0010690134,0.20402883,-0.12186752,-9.20625,-33.581253,-22.63125,0.21050791,0.21138541,0.6584112,1000.9853, , , , 
2026-03-20 17:28:03.379,0.27756742,5.7523456,10.801202,0.4176788,-0.24190246,-0.07422007,-9.0375,-33.5625,-22.78125,0.21058273,0.21276683,0.65756106,1000.9853, , , , 
2026-03-20 17:28:03.399,1.3639089,5.465207,7.274181,0.43722647,-0.13194679,-0.10598504,-8.90625,-33.3375,-23.0625,0.21491568,0.21406488,0.65562445,1000.97894, , , , 
2026-03-20 17:28:03.419,1.4404793,5.532206,6.326623,0.14645483,0.09040799,-0.1291979,-8.775001,-33.43125,-23.081251,0.21775134,0.21620095,0.65393883,1000.97894, , , , 
2026-03-20 17:28:03.439,1.2490535,5.0679984,6.8243303,-0.15409064,-0.0073303776,-0.13530655,-8.418751,-33.506252,-23.00625,0.21750592,0.21734999,0.65310484,1000.97894, , , , 
2026-03-20 17:28:03.459,1.3543376,4.642076,7.331609,-0.29092434,-0.20525056,-0.19394957,-8.1,-33.600002,-22.81875,0.21632771,0.21571225,0.65239084,1000.97894, , , , 
2026-03-20 17:28:03.479,0.3684947,4.6707897,7.298109,-0.2848157,-0.15149446,-0.21349724,-7.8375,-33.862503,-22.462502,0.21524683,0.21263632,0.6511381,1000.97064, , , , 
2026-03-20 17:28:03.499,-0.23928227,4.6037908,7.1210403,-0.24205516,-0.050090913,-0.109650224,-7.4812503,-33.825,-22.462502,0.21375234,0.21037766,0.65014136,1000.97064, , , , 
2026-03-20 17:28:03.519,-0.014356935,4.493721,7.810173,-0.17119485,0.05986475,-0.01924224,-7.2937503,-33.787502,-22.518751,0.21204942,0.20893589,0.65003854,1000.97064, , , , 
2026-03-20 17:28:03.539,0.44027936,4.6372905,7.623533,0.004734202,-0.06108648,-0.07177661,-7.2937503,-33.825,-22.5375,0.21092834,0.20834932,0.6501924,1000.97064, , , , 
2026-03-20 17:28:03.559,-0.13878371,4.8526444,7.1210403,0.069485866,-0.08307761,-0.11575887,-7.3125005,-33.693752,-22.81875,0.21135566,0.20811968,0.6494287,1000.96704, , , , 
2026-03-20 17:28:03.579,-0.89013004,4.8909297,7.34118,0.13545926,0.0097738365,-0.042455103,-7.4062505,-33.581253,-22.987501,0.21211678,0.2084202,0.6484004,1000.96704, , , , 
2026-03-20 17:28:03.599,-0.74177504,4.4841495,7.2358956,0.2600757,-0.0,0.049174614,-7.36875,-33.600002,-22.987501,0.21308771,0.20971845,0.64798534,1000.96704, , , , 
2026-03-20 17:28:03.619,-0.23928227,4.316652,6.518049,0.4054615,-0.13316852,0.06383537,-7.2937503,-33.65625,-23.025002,0.21548864,0.2112871,0.64768666,1000.96704, , , , 
2026-03-20 17:28:03.639,-0.11006984,4.8861437,5.56092,0.44211337,-0.17104214,0.045509428,-7.3500004,-33.787502,-23.00625,0.21947718,0.2128649,0.64688265,1000.95917, , , , 
2026-03-20 17:28:03.659,0.08135597,5.2689953,4.881358,0.37369654,-0.11117739,0.044287696,-7.4625,-34.050003,-22.85625,0.22366497,0.21448778,0.6459018,1000.95917, , , , 
2026-03-20 17:28:03.679,0.22492532,5.4843497,5.139783,0.16355905,0.043982264,0.06750056,-7.51875,-34.18125,-22.59375,0.22710806,0.21637607,0.64536464,1000.95917,37.8874273,127.73740134,176.03857421875,1.59
2026-03-20 17:28:03.699,-0.55034924,5.723632,7.771888,0.024281874,0.15027274,0.09071342,-7.55625,-34.21875,-22.06875,0.22732535,0.2172613,0.64572614,1000.95917, , , , 
2026-03-20 17:28:03.719,-0.16271193,5.465207,10.360922,0.17699806,-0.05742129,0.12492185,-7.3875003,-34.29375,-21.5625,0.22701406,0.21818942,0.6466425,1000.95386, , , , 
2026-03-20 17:28:03.739,0.6221339,5.651847,8.839087,0.51541716,-0.40805766,0.038179047,-7.2562504,-34.36875,-21.300001,0.23009104,0.2184503,0.6464257,1000.95386, , , , 
2026-03-20 17:28:03.759,0.5407779,6.580262,5.948557,0.44577858,-0.15515965,-0.02046397,-7.275,-34.443752,-21.16875,0.23618412,0.21916854,0.6445389,1000.95386, , , , 
2026-03-20 17:28:03.779,-0.08135597,7.456035,7.838887,0.06826414,0.3921752,0.12125666,-7.1250005,-34.55625,-21.075,0.2385635,0.22144642,0.6438592,1000.95386, , , , 
2026-03-20 17:28:03.799,0.2536392,6.704689,10.207782,-1.527162E-4,0.3188714,0.14080434,-7.1062503,-34.706253,-21.0375,0.23663735,0.22423011,0.6456428,1000.9496, , , , 
2026-03-20 17:28:03.819,0.19142582,6.4701924,9.930214,-0.029474225,-0.08307761,0.018631376,-7.1062503,-34.800003,-20.925001,0.23544937,0.22529751,0.6469149,1000.9496, , , , 
2026-03-20 17:28:03.839,-1.3830515,6.6999035,8.221739,-0.25427246,-0.21624613,0.049174614,-7.36875,-34.93125,-20.831251,0.2361581,0.22255796,0.64659613,1000.9496, , , , 
2026-03-20 17:28:03.859,-2.0817556,6.04427,9.595219,-0.5548179,0.28221953,0.39003715,-7.8,-34.987503,-20.90625,0.2339285,0.21969998,0.64861095,1000.9447, , , , 
2026-03-20 17:28:03.879,-0.9906286,4.9579287,12.686746,-0.56459177,0.4092794,0.4914407,-8.15625,-35.04375,-20.962502,0.22979411,0.21790898,0.6524064,1000.9447, , , , 
2026-03-20 17:28:03.899,-0.148355,4.287938,13.050455,-0.20295982,0.09040799,0.36560258,-8.34375,-34.95,-21.1875,0.22504786,0.21583235,0.6574635,1000.9447, , , , 
2026-03-20 17:28:03.919,0.25842485,4.800002,9.580862,-0.01847866,-0.09040799,0.21166465,-8.400001,-34.7625,-21.618752,0.22469324,0.21381454,0.66037524,1000.9447, , , , 
2026-03-20 17:28:03.939,0.19142582,4.627719,7.594819,-0.19562945,-0.073303774,0.088269964,-8.64375,-34.5,-21.956251,0.22502977,0.2126752,0.66121566,1000.9447, , , , 
2026-03-20 17:28:03.959,-0.047856454,4.436293,7.513463,-0.35201082,-0.042760536,0.041844238,-8.90625,-34.237503,-22.143751,0.2239063,0.21038902,0.6621292,1000.9445, , , , 
2026-03-20 17:28:03.979,-0.038285162,4.3836513,7.240681,-0.2603811,-0.015882485,-0.016798781,-9.0375,-33.956253,-22.2,0.2217891,0.2078476,0.6629787,1000.9445, , , , 
2026-03-20 17:28:03.999,-1.253839,4.881358,5.9246287,-0.108886644,0.14905101,-0.036346454,-9.450001,-33.75,-22.237501,0.21977507,0.2065257,0.6632248,1000.9445, , , , 
2026-03-20 17:28:04.019,-1.5122639,4.9770713,5.7427745,-0.08811724,0.2687805,0.17623448,-9.58125,-33.675003,-22.462502,0.21820273,0.20727465,0.66385716,1000.9445, , , , 
2026-03-20 17:28:04.039,-0.33499518,4.388437,5.1732826,-0.108886644,-0.05864302,0.26664248,-9.6,-33.600002,-22.837502,0.21664704,0.20772475,0.66583776,1000.94214, , , , 
2026-03-20 17:28:04.059,0.6987042,4.182654,4.173083,-0.19196425,-0.30543238,0.21044292,-9.806251,-33.45,-23.19375,0.21730164,0.205378,0.6675499,1000.94214, , , , 
2026-03-20 17:28:04.079,0.8662018,4.2975097,4.6325045,-0.16386448,-0.12705988,0.08093958,-9.806251,-33.393753,-23.4375,0.21840733,0.2011533,0.6687767,1000.94214, , , , 
2026-03-20 17:28:04.099,0.64606214,4.8765726,5.0679984,-0.014813471,0.10140356,-0.009468404,-9.8625,-33.46875,-23.587502,0.21815129,0.20029631,0.6691196,1000.94214, , , , 
2026-03-20 17:28:04.119,0.047856454,5.6470613,3.9050865,-0.055130545,0.24434592,-0.02046397,-10.06875,-33.412502,-23.681252,0.21733528,0.20131199,0.6692837,1000.93896, , , , 
2026-03-20 17:28:04.139,-1.1102697,6.5850477,6.178268,-0.45585784,0.30054548,0.12980877,-10.21875,-33.375,-23.79375,0.2145202,0.2022937,0.6702341,1000.93896, , , , 
2026-03-20 17:28:04.159,-0.09571291,6.2117677,10.078569,-0.3923279,-0.18325943,0.21166465,-10.2375,-33.318752,-23.94375,0.2102976,0.20016861,0.67277145,1000.93896, , , , 
2026-03-20 17:28:04.179,0.9667004,6.2213387,10.284351,0.13179408,-0.37751442,0.00763581,-10.14375,-33.206253,-24.075,0.21032187,0.19613081,0.67401,1000.93896, , , , 
2026-03-20 17:28:04.199,0.17706887,7.1976104,7.628319,0.51541716,-0.019547673,-0.17562363,-9.918751,-33.206253,-24.13125,0.2140348,0.19572264,0.67257446,1000.93365, , , , 
2026-03-20 17:28:04.219,-0.79441714,7.891529,6.4845495,0.43722647,0.39950556,-0.14752385,-9.900001,-33.15,-24.018751,0.21662071,0.20040649,0.67052543,1000.93365, , , , 
2026-03-20 17:28:04.239,-1.1916257,7.5469627,8.1020975,0.1244637,0.56321734,-0.02046397,-10.106251,-33.15,-23.8125,0.21502328,0.20779483,0.67016435,1000.93365, , , , 
2026-03-20 17:28:04.259,-0.526421,7.4033933,9.083155,-0.14553854,0.25656322,-0.009468404,-10.3125,-33.2625,-23.550001,0.21280095,0.21058533,0.6708242,1000.93365, , , , 
2026-03-20 17:28:04.279,-0.44985065,7.776674,10.035499,-0.30558512,-0.028099779,-0.11575887,-10.368751,-33.412502,-23.362501,0.21030942,0.2105921,0.671281,1000.9237, , , , 
2026-03-20 17:28:04.299,-0.47377887,7.8484583,10.648061,-0.34712392,0.15882485,-0.07666353,-10.106251,-33.61875,-23.456251,0.20712882,0.20845647,0.671211,1000.9237, , , , 
2026-03-20 17:28:04.319,-0.11006984,6.838687,11.5621195,-0.3837758,0.29810202,-0.031459536,-9.975,-33.73125,-23.60625,0.20405778,0.20792916,0.6718318,1000.9237, , , , 
2026-03-20 17:28:04.339,0.30149564,5.2402816,12.935599,-0.29581127,0.0036651888,-0.01802051,-9.84375,-33.881252,-24.187502,0.19963366,0.20710883,0.67297035,1000.9237, , , , 
2026-03-20 17:28:04.359,1.4739788,4.666004,11.078769,-0.10033454,-0.37140578,-0.07299834,-9.7875,-33.80625,-24.50625,0.19850875,0.2045404,0.6731253,1000.9224, , , , 
2026-03-20 17:28:04.379,1.7324036,4.694718,8.915657,-0.031917684,-0.19792019,-0.18051054,-10.05,-33.6375,-25.1625,0.20016696,0.2015607,0.6719264,1000.9224, , , , 
2026-03-20 17:28:04.399,0.6987042,5.063213,8.52802,-0.13698642,0.34697118,-0.20127994,-9.975,-33.300003,-25.181252,0.19978419,0.20114271,0.6706506,1000.9224, , , , 
2026-03-20 17:28:04.419,0.2009971,4.6564326,8.848659,-0.28725916,0.29565856,-0.14508039,-9.806251,-32.943752,-25.087502,0.1958974,0.20276248,0.67044216,1000.9224, , , , 
2026-03-20 17:28:04.439,0.033499517,4.278367,8.882157,-0.45463613,-0.0073303776,-0.11942407,-9.375,-32.737503,-24.937502,0.19184062,0.20217164,0.67061645,1000.93134, , , , 
2026-03-20 17:28:04.460,0.0,4.0390844,9.446864,-0.32146758,-0.06108648,-0.118202336,-9.150001,-32.71875,-24.843752,0.18810685,0.19835165,0.67059183,1000.93134, , , , 
2026-03-20 17:28:04.479,0.014356935,4.0295134,8.336594,0.03161225,-0.06108648,-0.12797616,-8.981251,-32.850002,-24.993752,0.1870939,0.1970544,0.6702042,1000.93134, , , , 
2026-03-20 17:28:04.499,0.25842485,4.101298,6.532406,0.25763223,0.03054324,-0.14019346,-8.793751,-33.112503,-25.312502,0.187686,0.19751312,0.66907704,1000.93134, , , , 
2026-03-20 17:28:04.519,-0.07178468,4.2592244,5.0344987,0.24785839,0.098960094,-0.13897173,-8.700001,-33.3375,-25.44375,0.18894325,0.19991757,0.6676613,1000.9388, , , , 
2026-03-20 17:28:04.539,-0.8422736,4.536792,5.5896335,0.056046844,0.12828161,-0.05589413,-8.512501,-33.46875,-25.593752,0.1894056,0.20221986,0.66658926,1000.9388, , , , 
2026-03-20 17:28:04.559,-0.46899325,4.45065,7.4512496,0.07192933,0.028099779,0.082161315,-8.3625,-33.487503,-25.63125,0.18893237,0.20337296,0.666599,1000.9388, , , , 
2026-03-20 17:28:04.579,0.047856454,4.2687955,7.7240314,0.29184064,-0.043982264,0.07971785,-8.1,-33.43125,-25.575,0.18984365,0.20401795,0.666948,1000.9388, , , , 
2026-03-20 17:28:04.599,-0.14356937,4.1922255,7.164111,0.5740602,0.09407318,0.057726722,-8.043751,-33.300003,-25.44375,0.19260646,0.20610568,0.66669464,1000.94666, , , , 
2026-03-20 17:28:04.619,-0.2440679,4.575077,6.580262,0.7976367,0.25900668,0.12492185,-7.9687505,-33.16875,-25.25625,0.19610293,0.21124993,0.6661545,1000.94666, , , , 
2026-03-20 17:28:04.639,0.5886344,5.1206403,4.9435716,0.7524327,0.16371176,0.16279547,-7.89375,-33.16875,-25.0125,0.20033623,0.21801524,0.665832,1000.94666, , , , 
2026-03-20 17:28:04.659,0.8039884,5.3886366,4.6899323,0.30894485,0.028099779,0.09315688,-8.043751,-33.45,-24.6375,0.20537719,0.22390445,0.66558224,1000.9583, , , , 
2026-03-20 17:28:04.679,-0.124426775,5.6279187,7.7671022,0.1660025,0.112399116,0.09560034,-8.19375,-33.9,-24.093752,0.20680185,0.22533107,0.66565275,1000.9583,37.88741511,127.73741276,176.29718017578125,1.57
2026-03-20 17:28:04.699,-0.043070808,5.5896335,9.542577,0.35903576,0.24068072,0.21532984,-8.175,-34.36875,-23.587502,0.20779014,0.22826353,0.6666588,1000.9583, , , , 
2026-03-20 17:28:04.719,0.8805587,5.8432727,9.322437,0.47876528,0.0012217296,0.18234314,-8.118751,-34.7625,-23.00625,0.20924611,0.2308736,0.66737145,1000.9583, , , , 
2026-03-20 17:28:04.739,1.6845472,6.623333,7.7623167,0.38713557,-0.3262018,0.03084867,-7.9875,-34.912502,-22.5375,0.21338937,0.23297156,0.66714656,1000.9583, , , , 
2026-03-20 17:28:04.759,1.6510476,7.389036,7.23111,0.09636392,-0.17592905,-0.08888082,-7.89375,-34.93125,-22.237501,0.21783681,0.23284365,0.66571796,1000.96405, , , , 
2026-03-20 17:28:04.779,-0.06699903,7.63789,8.149954,-0.2689332,0.16859868,-0.0058032153,-8.08125,-34.93125,-21.806252,0.21789269,0.23250099,0.66509575,1000.96405, , , , 
2026-03-20 17:28:04.799,-0.23449662,6.63769,9.571291,-0.717308,0.047647454,0.09926552,-8.475,-34.912502,-21.431252,0.21510549,0.23125419,0.66630167,1000.96405, , , , 
2026-03-20 17:28:04.819,-0.4977071,5.556134,11.576476,-0.9787581,-0.20036365,0.08093958,-8.587501,-34.893753,-21.31875,0.2100445,0.22556515,0.66873896,1000.96405, , , , 
2026-03-20 17:28:04.839,-0.8709874,4.388437,14.218152,-0.7466295,-0.27855435,-0.015577052,-8.793751,-34.800003,-21.35625,0.20515344,0.21720155,0.670751,1000.97656, , , , 
2026-03-20 17:28:04.859,-1.052842,4.249653,13.294522,-0.15286891,-0.29688028,-0.08277218,-8.587501,-34.631252,-21.806252,0.2024919,0.21036161,0.6712033,1000.97656, , , , 
2026-03-20 17:28:04.879,-0.9092726,4.752146,10.356136,0.04016436,-0.30665413,-0.1707367,-8.418751,-34.4625,-22.462502,0.20331988,0.20852357,0.6702754,1000.97656, , , , 
2026-03-20 17:28:04.899,-1.1629118,4.881358,8.19781,0.076816246,-0.26267186,-0.16951497,-8.137501,-34.125,-23.025002,0.20515148,0.20710357,0.668375,1000.97656, , , , 
2026-03-20 17:28:04.919,-1.2777673,4.981857,5.9581285,-0.013591741,-0.074525505,-0.0632245,-8.043751,-33.956253,-23.212502,0.20667088,0.20634668,0.6667631,1000.9853, , , , 
2026-03-20 17:28:04.939,-1.1437693,4.7138605,5.096712,-0.27015495,0.07941242,0.0650571,-8.306251,-33.862503,-23.212502,0.20566049,0.20572373,0.66690725,1000.9853, , , , 
2026-03-20 17:28:04.959,-0.8805587,4.2687955,5.359923,-0.45341438,0.0036651888,0.1310305,-8.56875,-33.693752,-23.19375,0.20376973,0.20422412,0.66795796,1000.9853, , , , 
2026-03-20 17:28:04.979,-0.9284152,4.0965123,5.6757755,-0.45585784,0.07941242,0.18112141,-8.962501,-33.73125,-23.306252,0.20079406,0.20105556,0.6698637,1000.9853, , , , 
2026-03-20 17:28:04.999,-1.0576276,4.1108694,5.8432727,-0.5780308,0.11728604,0.25076,-9.356251,-33.61875,-23.5125,0.19724868,0.19822657,0.67234886,1000.98975, , , , 
2026-03-20 17:28:05.019,-0.019142581,3.7088752,8.389236,-0.6488911,-0.08918626,0.22999059,-9.543751,-33.24375,-23.681252,0.19190295,0.19287138,0.6762732,1000.98975, , , , 
2026-03-20 17:28:05.039,-0.07178468,4.0390844,9.911072,-0.21273366,-0.20647229,0.06994402,-9.543751,-32.86875,-23.8875,0.19008467,0.18896165,0.67773056,1000.98975, , , , 
2026-03-20 17:28:05.059,0.10049855,4.7808595,7.7479596,0.40668324,-0.013439025,-0.013133593,-9.618751,-32.53125,-24.225,0.1908007,0.18729489,0.6778675,1000.98975, , , , 
2026-03-20 17:28:05.079,-0.22013968,5.56092,4.6372905,0.51541716,0.21013749,-0.065667965,-9.637501,-32.268753,-24.73125,0.19429465,0.19215119,0.67655843,1000.9913, , , , 
2026-03-20 17:28:05.099,-0.79920274,6.005985,4.761717,0.22953244,0.14660755,0.029626941,-9.75,-32.41875,-25.06875,0.19572122,0.1965189,0.6758952,1000.9913, , , , 
2026-03-20 17:28:05.119,-0.26799613,5.828916,6.250053,0.051159926,-0.067195125,0.083383046,-9.84375,-32.643753,-25.218752,0.19626938,0.19773415,0.676057,1000.9913, , , , 
2026-03-20 17:28:05.139,0.023928227,5.838487,7.8053875,0.06582068,-0.12828161,0.032070402,-9.5625,-32.60625,-25.1625,0.19739957,0.19739391,0.6762638,1000.9913, , , , 
2026-03-20 17:28:05.159,0.28713873,6.1495543,8.609376,0.3358229,-0.02443459,-0.033902995,-9.337501,-32.68125,-24.88125,0.19911113,0.19755141,0.6758804,1000.98596, , , , 
2026-03-20 17:28:05.179,0.8470592,7.097112,7.594819,0.47876528,0.073303774,-0.098654665,-9.243751,-32.71875,-24.768751,0.20233619,0.20143333,0.6744237,1000.98596, , , , 
2026-03-20 17:28:05.199,0.22971097,7.690532,6.9344,0.2698495,0.08796453,-0.13775001,-9.150001,-32.850002,-24.6375,0.20413819,0.20421812,0.67322844,1000.98596, , , , 
2026-03-20 17:28:05.219,-0.37328035,7.408179,8.3174515,-0.025809037,0.15027274,-0.10720677,-9.262501,-33.112503,-24.375002,0.2046855,0.20664531,0.6721106,1000.98596, , , , 
2026-03-20 17:28:05.239,-0.22492532,7.183254,10.762917,-0.108886644,0.10995566,-0.09987639,-9.31875,-33.300003,-24.018751,0.20307878,0.20754443,0.67184746,1000.96936, , , , 
2026-03-20 17:28:05.259,0.2632105,7.52782,11.155339,0.021838415,-0.018325943,-0.18906265,-9.20625,-33.35625,-23.625,0.20194006,0.20762794,0.67129254,1000.96936, , , , 
2026-03-20 17:28:05.279,0.1052842,7.6713896,10.284351,0.013286309,0.19303326,-0.21716243,-9.0375,-33.28125,-23.38125,0.20162676,0.20835355,0.66990244,1000.96936, , , , 
2026-03-20 17:28:05.299,-0.55034924,6.474978,11.341979,-0.15775582,0.3347539,-0.16829325,-8.85,-33.24375,-23.268751,0.19938195,0.21031207,0.66902435,1000.96936, , , , 
2026-03-20 17:28:05.319,-0.28235307,4.9866424,12.614961,-0.13087778,-0.05497783,-0.08643737,-8.775001,-33.1875,-23.2875,0.19609286,0.21116842,0.6689195,1000.9613, , , , 
2026-03-20 17:28:05.339,1.5170496,4.206582,10.380065,0.10613775,-0.4386009,-0.16462806,-8.3625,-33.112503,-23.71875,0.19736312,0.20874934,0.667643,1000.9613, , , , 
2026-03-20 17:28:05.359,1.6366907,4.718646,7.9106717,0.17699806,-0.24434592,-0.32589635,-8.231251,-33.09375,-23.8125,0.19986998,0.207448,0.6657101,1000.9613, , , , 
2026-03-20 17:28:05.379,0.4977071,5.2642097,7.0779696,0.06704241,0.22601996,-0.32589635,-7.9500003,-33.112503,-23.8875,0.20108941,0.20823467,0.6629204,1000.9613, , , , 
2026-03-20 17:28:05.399,-0.31106696,5.2307105,7.111469,-0.23228133,0.17715079,-0.23060146,-7.7812505,-33.037502,-23.71875,0.19892108,0.21042946,0.6613268,1000.9573, , , , 
2026-03-20 17:28:05.419,-0.7609176,4.7952166,8.5423765,-0.53038335,-0.14905101,-0.1291979,-7.5937505,-32.756252,-23.41875,0.19561727,0.20927165,0.66077113,1000.9573, , , , 
2026-03-20 17:28:05.439,-0.16749759,4.15394,9.5665045,-0.38133234,-0.31398448,-0.08643737,-7.5000005,-32.60625,-23.362501,0.193001,0.20477718,0.660688,1000.9573, , , , 
2026-03-20 17:28:05.459,0.09571291,4.1874394,8.839087,-0.0013744457,-0.23090689,-0.15118903,-7.4437504,-32.625,-23.34375,0.1927213,0.20074993,0.6600205,1000.9573, , , , 
2026-03-20 17:28:05.479,-0.5838487,4.7712884,7.389036,0.3688096,0.07819069,-0.17684536,-7.6312504,-32.643753,-23.6625,0.19408827,0.20062783,0.65838563,1000.95447, , , , 
2026-03-20 17:28:05.499,-0.94755775,4.962714,6.4127645,0.4555524,0.14782928,-0.10598504,-7.8750005,-32.86875,-23.962502,0.19576488,0.20464487,0.656693,1000.95447, , , , 
2026-03-20 17:28:05.519,-0.67477596,4.5224347,6.948757,0.50197816,-0.047647454,-0.04367683,-7.9687505,-32.943752,-24.0375,0.19811119,0.20859034,0.65528554,1000.95447, , , , 
2026-03-20 17:28:05.539,-0.2009971,4.139583,6.206982,0.719446,0.0073303776,-0.058337588,-7.8375,-32.943752,-23.962502,0.20219938,0.2119758,0.65369195,1000.95447, , , , 
2026-03-20 17:28:05.560,-0.5024927,4.4075794,4.723432,0.75854135,0.24556763,-0.033902995,-7.55625,-33.1875,-23.587502,0.20785019,0.21910807,0.65141815,1000.95447, , , , 
2026-03-20 17:28:05.579,-0.57906306,4.843073,5.4460645,0.7170025,0.5033526,0.09682207,-7.1062503,-33.46875,-23.025002,0.21004973,0.22452076,0.65073556,1000.95447, , , , 
2026-03-20 17:28:05.599,-0.23449662,5.1589255,4.56072,0.59727305,0.36163196,0.17501275,-6.7500005,-33.9,-22.44375,0.21206304,0.23237716,0.650944,1000.95447, , , , 
2026-03-20 17:28:05.619,-0.2536392,5.474778,4.8526444,0.18066326,-0.015882485,0.20799945,-6.4875,-34.256252,-21.9375,0.21431024,0.23707515,0.6515804,1000.95447, , , , 
2026-03-20 17:28:05.639,-0.43070808,5.608776,7.164111,0.020616686,-0.098960094,0.309403,-6.20625,-34.443752,-21.6375,0.21614571,0.23685533,0.6527159,1000.95154, , , , 
2026-03-20 17:28:05.659,0.05742774,5.723632,9.073584,0.22586726,0.23823726,0.33261588,-6.1687503,-34.537502,-21.4125,0.2175255,0.23633176,0.65466255,1000.95154, , , , 
2026-03-20 17:28:05.679,0.21535404,6.2309103,9.250652,0.38347036,0.15760311,0.24953826,-6.15,-34.55625,-21.16875,0.21849236,0.23899257,0.6567423,1000.95154,37.88740274,127.7374248,176.7020263671875,1.61
2026-03-20 17:28:05.699,0.07178468,7.1306114,8.068598,0.24663666,-0.1197295,0.21777329,-6.3375,-34.66875,-20.85,0.2210442,0.24131784,0.65765893,1000.95154, , , , 
2026-03-20 17:28:05.719,0.8279166,7.288538,9.0544405,-0.024587307,-0.21746786,0.22143848,-6.675,-34.6875,-20.53125,0.22378363,0.24081765,0.6584456,1000.95, , , , 
2026-03-20 17:28:05.739,0.6125626,6.8339014,9.466006,-0.108886644,0.02932151,0.1517999,-6.9,-34.575,-20.4375,0.22527207,0.23885055,0.6595635,1000.95, , , , 
2026-03-20 17:28:05.759,-0.47377887,6.0011992,10.442278,-0.23228133,0.19792019,0.101708986,-7.14375,-34.5,-20.456251,0.22414857,0.23807147,0.66103345,1000.95, , , , 
2026-03-20 17:28:05.779,-1.105484,5.3790655,11.767901,-0.3263545,0.11606431,0.101708986,-7.6125,-34.350002,-20.6625,0.2212336,0.23724711,0.662808,1000.95, , , , 
2026-03-20 17:28:05.799,-0.81834537,4.551149,12.323036,-0.19929464,-0.098960094,0.038179047,-7.6875005,-34.36875,-20.868752,0.21849966,0.2345424,0.6645382,1000.9507, , , , 
2026-03-20 17:28:05.819,-0.8662018,4.584648,10.882557,0.021838415,-0.10262528,-0.04978548,-7.7625003,-34.3875,-21.0,0.21823758,0.2332826,0.6646356,1000.9507, , , , 
2026-03-20 17:28:05.839,-1.3495519,5.312066,7.6426754,-0.0050396346,-0.07941242,-0.033902995,-7.74375,-34.068752,-20.98125,0.21881963,0.232949,0.6639484,1000.9507, , , , 
2026-03-20 17:28:05.859,-1.0241281,5.45085,5.9964137,-0.31658068,0.08796453,0.0858265,-7.7812505,-33.825,-20.925001,0.2185193,0.23217711,0.6639785,1000.9507, , , , 
2026-03-20 17:28:05.879,-0.6652047,4.8239303,6.7429743,-0.62201303,0.32375833,0.15057817,-7.9875,-33.61875,-21.0375,0.21351227,0.22984731,0.6667186,1000.95557, , , , 
2026-03-20 17:28:05.899,-0.8805587,4.1491547,7.704889,-0.6342304,0.22601996,0.12370012,-8.137501,-33.581253,-21.056252,0.20886482,0.22798958,0.6690294,1000.95557, , , , 
2026-03-20 17:28:05.919,-1.0911272,4.115655,7.274181,-0.52671814,0.02687805,0.11759147,-8.25,-33.65625,-21.225,0.20370333,0.22484525,0.67158306,1000.95557, , , , 
2026-03-20 17:28:05.939,-0.5312066,4.1778684,6.5946193,-0.4876228,-0.19181155,0.11636974,-8.3625,-33.506252,-21.69375,0.20055772,0.2209754,0.6735059,1000.95557, , , , 
2026-03-20 17:28:05.959,-0.41156548,4.465007,6.4941206,-0.3581195,-0.36407542,0.055283263,-8.53125,-33.2625,-22.050001,0.199254,0.21460032,0.6748351,1000.95874, , , , 
2026-03-20 17:28:05.979,-0.23928227,4.6229334,6.101698,-0.09422589,-0.18936808,0.025961753,-8.85,-33.09375,-22.5,0.19957589,0.21148705,0.6750313,1000.95874, , , , 
2026-03-20 17:28:05.999,-0.2632105,4.8191447,5.0009995,0.07315106,0.023212861,0.003970621,-9.13125,-32.831253,-23.1,0.20026049,0.21029136,0.6749765,1000.95874, , , , 
2026-03-20 17:28:06.019,-0.74177504,5.1206403,4.900501,-0.04291325,-0.015882485,0.028405212,-9.337501,-32.756252,-23.41875,0.20047076,0.21094006,0.67493826,1000.95874, , , , 
2026-03-20 17:28:06.039,-0.526421,5.1254263,5.8767724,-0.16508621,-0.27244568,0.12614357,-9.39375,-32.831253,-23.6625,0.20079409,0.20919293,0.6754426,1000.9589, , , , 
2026-03-20 17:28:06.059,0.6556334,4.8622155,6.2787666,-0.06368265,-0.34452772,0.0858265,-9.356251,-32.8125,-23.71875,0.20190436,0.20668523,0.67583036,1000.9589, , , , 
2026-03-20 17:28:06.081,0.37328035,5.493921,5.6997037,0.07315106,-0.15271619,-0.04367683,-9.543751,-32.831253,-23.5125,0.20444712,0.2041364,0.67542344,1000.9589, , , , 
2026-03-20 17:28:06.100,-0.2105684,6.431907,5.9294147,-0.056352276,0.010995566,-0.04367683,-9.806251,-32.71875,-23.38125,0.205413,0.20403917,0.6747357,1000.9564, , , , 
2026-03-20 17:28:06.119,0.22013968,6.920043,8.020741,-0.22983788,0.09040799,0.00641408,-9.993751,-32.475002,-23.38125,0.20424934,0.20374353,0.6749243,1000.9564, , , , 
2026-03-20 17:28:06.139,0.9667004,6.9344,10.188639,-0.24449863,-0.074525505,-0.09987639,-10.125,-32.287502,-23.6625,0.20276147,0.20273107,0.67529714,1000.9564, , , , 
2026-03-20 17:28:06.159,0.0526421,7.1066833,10.758131,-0.061239194,-0.11362085,-0.28069237,-10.087501,-32.23125,-24.0375,0.20182997,0.2009191,0.6744953,1000.9564, , , , 
2026-03-20 17:28:06.179,-0.8039884,7.245467,11.097912,0.13790272,0.021991132,-0.32223117,-9.993751,-32.325,-24.337502,0.20164989,0.2010176,0.6723301,1000.9564, , , , 
2026-03-20 17:28:06.199,-0.36370903,7.647461,10.006784,0.16111559,-0.15149446,-0.3564396,-9.825001,-32.475002,-24.393751,0.20240422,0.20315616,0.6689755,1000.95154, , , , 
2026-03-20 17:28:06.219,-0.076570325,8.063812,9.437292,-0.05146536,-0.20647229,-0.42729992,-9.69375,-32.643753,-24.13125,0.20346674,0.20313926,0.66652477,1000.95154, , , , 
2026-03-20 17:28:06.239,-0.3589234,7.944171,10.906486,-0.18585561,0.06352994,-0.32833982,-9.58125,-32.68125,-23.8875,0.20300615,0.20252733,0.6636111,1000.95154, , , , 
2026-03-20 17:28:06.259,-0.47377887,6.771688,12.08854,-0.22617269,0.012217295,-0.23915356,-9.337501,-32.737503,-23.737501,0.20056964,0.20232457,0.6620467,1000.95154, , , , 
2026-03-20 17:28:06.279,0.2009971,5.130212,12.528819,-0.12476913,-0.3188714,-0.15729769,-9.056251,-32.79375,-23.831251,0.19903922,0.20009318,0.6605565,1000.9454, , , , 
2026-03-20 17:28:06.299,1.8376877,4.26401,10.758131,0.08536835,-0.3933969,-0.22082762,-8.64375,-32.775,-24.112501,0.2003148,0.19795181,0.6592732,1000.9454, , , , 
2026-03-20 17:28:06.319,2.2301106,4.2927237,8.906086,0.15378521,-0.17104214,-0.38331765,-8.475,-32.8125,-24.13125,0.20279795,0.19653131,0.65661895,1000.9454, , , , 
2026-03-20 17:28:06.339,0.8279166,4.8287163,8.279166,0.114689864,0.22479823,-0.50304717,-7.9125004,-32.68125,-24.093752,0.20310006,0.19800344,0.65330535,1000.9454, , , , 
2026-03-20 17:28:06.359,-0.66999036,5.015356,8.12124,0.03894263,0.24434592,-0.43829548,-7.8187504,-32.643753,-24.093752,0.20060566,0.20211624,0.6494435,1000.946, , , , 
2026-03-20 17:28:06.379,-0.8422736,4.752146,7.82453,-0.060017463,0.021991132,-0.33811367,-7.74375,-32.756252,-24.0375,0.19913967,0.2036694,0.6475722,1000.946, , , , 
2026-03-20 17:28:06.399,-1.0624132,4.570291,7.4512496,-0.052687086,-0.15760311,-0.23060146,-7.4625,-32.9625,-24.16875,0.1981641,0.20371148,0.6454152,1000.946, , , , 
2026-03-20 17:28:06.419,-0.6556334,4.4554358,6.465407,0.045051277,-0.118507765,-0.10231985,-7.0687504,-33.1875,-24.225,0.1986164,0.2027376,0.6437269,1000.946, , , , 
2026-03-20 17:28:06.439,-0.34456646,4.130012,6.4031935,0.15256348,0.15882485,-0.0754418,-6.675,-33.3375,-24.112501,0.19927885,0.20293,0.6427797,1000.94684, , , , 
2026-03-20 17:28:06.459,-0.7369894,4.048656,6.829116,0.35659233,0.32375833,-0.08032872,-6.3375,-33.393753,-23.925001,0.1991756,0.20577277,0.6422235,1000.94684, , , , 
2026-03-20 17:28:06.479,-1.0336994,4.273581,5.8767724,0.44333512,0.21991132,-0.016798781,-6.0937505,-33.506252,-23.775002,0.1997215,0.2107382,0.6415732,1000.94684, , , , 
2026-03-20 17:28:06.499,-0.47377887,4.618148,5.2737813,0.2490801,-0.13805544,0.03695732,-5.9812503,-33.675003,-23.71875,0.2017619,0.2141928,0.640931,1000.94684, , , , 
2026-03-20 17:28:06.519,-0.06699903,4.7856455,6.2691956,0.15622866,-0.15760311,0.088269964,-5.8125,-33.787502,-23.643751,0.20452492,0.21412075,0.6404553,1000.9462, , , , 
2026-03-20 17:28:06.539,0.41635114,4.6468616,6.8865438,0.37003133,0.17715079,0.101708986,-5.625,-33.9,-23.41875,0.20676385,0.21458523,0.6405075,1000.9462, , , , 
2026-03-20 17:28:06.559,0.43070808,4.8909297,6.853044,0.5129737,0.25411975,0.016187917,-5.5875,-34.0875,-22.931252,0.20850803,0.21856399,0.64065367,1000.9462, , , , 
2026-03-20 17:28:06.579,-0.19142582,5.4173503,5.642276,0.43966994,0.16249003,-0.013133593,-5.68125,-34.275,-22.3875,0.21081254,0.22335462,0.6400058,1000.9462, , , , 
2026-03-20 17:28:06.599,-0.526421,5.6279187,6.096912,0.11957678,0.14294235,0.088269964,-5.775,-34.443752,-21.956251,0.21235773,0.22688553,0.63958496,1000.9434, , , , 
2026-03-20 17:28:06.619,-0.47377887,5.4317074,7.9537425,-0.12232567,-0.09651663,0.13836087,-5.9625,-34.6875,-21.54375,0.21245171,0.22772878,0.64031637,1000.9434, , , , 
2026-03-20 17:28:06.639,-0.24885355,5.4987063,9.399008,-0.058795735,-0.23090689,0.19822562,-5.86875,-34.800003,-21.393751,0.21289201,0.22558828,0.64134926,1000.9434, , , , 
2026-03-20 17:28:06.659,1.2777673,5.5704913,9.954143,0.13790272,-0.11484258,0.12980877,-5.5687504,-34.93125,-21.431252,0.21456374,0.22360191,0.64231336,1000.9434, , , , 
2026-03-20 17:28:06.679,0.7609176,6.4558353,9.643075,0.32116216,0.16493349,-0.051007207,-5.49375,-35.100002,-21.46875,0.21645184,0.22418037,0.6423111,1000.93665,37.88739019,127.73743645,177.0025634765625,1.61
2026-03-20 17:28:06.699,0.2009971,6.862615,9.375079,0.28817546,0.34819293,-0.07910699,-5.6062503,-35.2125,-21.525002,0.21724157,0.22776002,0.6416785,1000.93665, , , , 
2026-03-20 17:28:06.719,-0.41635114,6.7381887,9.226724,0.1122464,0.33353218,-0.11453715,-5.925,-35.268753,-21.487501,0.21658842,0.23194179,0.64125806,1000.93665, , , , 
2026-03-20 17:28:06.739,-1.3160524,6.3218374,9.183653,-0.22617269,0.18203771,-0.0962112,-6.2250004,-35.23125,-21.300001,0.21398392,0.2346875,0.64104307,1000.93665, , , , 
2026-03-20 17:28:06.759,-2.2731814,5.8624153,10.662417,-0.504727,-0.039095346,-0.009468404,-6.1875005,-35.193752,-21.0375,0.21148941,0.23378004,0.6414074,1000.9364, , , , 
2026-03-20 17:28:06.779,-2.1678972,5.3790655,11.787045,-0.45341438,-0.06108648,0.14691298,-5.90625,-35.025,-20.925001,0.20810558,0.23013538,0.64266235,1000.9364, , , , 
2026-03-20 17:28:06.799,-1.5696917,5.1589255,11.4903345,-0.23594652,-0.05986475,0.14446951,-5.8125,-34.987503,-21.09375,0.20574996,0.22676836,0.6445407,1000.9364, , , , 
2026-03-20 17:28:06.819,-1.7563318,5.3072805,9.906285,-0.041691523,-0.06352994,0.14813471,-5.7375,-34.875,-21.337502,0.20501037,0.2248227,0.6458096,1000.9364, , , , 
2026-03-20 17:28:06.839,-1.3974084,5.1732826,7.4943204,0.008399391,-0.10506874,0.24953826,-5.8875003,-34.818752,-21.75,0.20556867,0.22390401,0.6469211,1000.94025, , , , 
2026-03-20 17:28:06.859,-1.0480564,5.029713,5.761917,-0.16630794,-0.100181825,0.31428993,-6.24375,-34.8375,-22.03125,0.20658481,0.22246294,0.6486022,1000.94025, , , , 
2026-03-20 17:28:06.879,-0.8805587,4.642076,5.680561,-0.4411971,-0.04886918,0.40103272,-6.43125,-34.66875,-22.10625,0.20604129,0.21961665,0.6513814,1000.94025, , , , 
2026-03-20 17:28:06.899,-0.21535404,3.9768713,6.202196,-0.49617493,-0.14660755,0.40347618,-6.7500005,-34.443752,-22.143751,0.20372774,0.21396159,0.6559912,1000.94025, , , , 
2026-03-20 17:28:06.919,0.4833502,3.7423747,6.4462643,-0.3923279,-0.07208204,0.28985533,-7.0875,-34.21875,-22.125,0.20254326,0.21033792,0.65851617,1000.94257, , , , 
2026-03-20 17:28:06.939,-0.062213387,4.048656,6.613762,-0.22495095,0.068416856,0.11636974,-7.2000003,-33.975002,-22.35,0.20089778,0.2071471,0.6608953,1000.94257, , , , 
2026-03-20 17:28:06.959,-1.0001999,4.4075794,6.7525454,-0.044134982,0.112399116,0.08093958,-7.425,-33.65625,-22.800001,0.19926405,0.2063617,0.6621297,1000.94257, , , , 
2026-03-20 17:28:06.979,-0.65084773,4.3740797,6.532406,0.12568542,-0.05864302,0.0736092,-7.70625,-33.45,-23.268751,0.19910629,0.20682725,0.66292053,1000.94257, , , , 
2026-03-20 17:28:06.999,-0.18185452,4.6468616,5.5896335,0.3028362,-0.13561198,0.03695732,-7.9125004,-33.35625,-23.7,0.20067866,0.20713013,0.6627813,1000.9445, , , , 
2026-03-20 17:28:07.019,0.3493521,5.278567,5.020142,0.3773617,0.019547673,0.0051923506,-8.08125,-33.28125,-24.075,0.20372821,0.20856507,0.6621047,1000.9445, , , , 
2026-03-20 17:28:07.039,-0.36370903,6.1495543,5.178068,0.32849252,0.16982041,-0.010690134,-8.175,-33.300003,-23.962502,0.20600821,0.21158455,0.6613656,1000.9445, , , , 
2026-03-20 17:28:07.059,-0.6221339,6.489335,6.8243303,0.22098033,-0.010995566,0.06750056,-8.175,-33.35625,-23.56875,0.20754488,0.21517381,0.66104,1000.9445, , , , 
2026-03-20 17:28:07.079,-0.18185452,6.9009004,6.680761,0.21364996,-0.27000225,0.09193515,-8.08125,-33.318752,-23.19375,0.2095162,0.21556255,0.6608595,1000.9434, , , , 
2026-03-20 17:28:07.099,0.148355,7.4177504,6.8482585,0.14401138,-0.13316852,0.06383537,-8.1,-33.3375,-22.7625,0.21283476,0.2150544,0.6604694,1000.9434, , , , 
2026-03-20 17:28:07.119,-0.047856454,7.7814593,7.0779696,0.069485866,0.17959425,0.054061532,-8.15625,-33.375,-22.44375,0.21436699,0.21554002,0.66047066,1000.9434, , , , 
2026-03-20 17:28:07.139,-1.1294123,7.8149586,8.202596,-0.23716825,0.41538805,0.08093958,-8.26875,-33.487503,-22.331251,0.21209447,0.21773012,0.66174984,1000.9434, , , , 
2026-03-20 17:28:07.159,-1.2921243,7.6331043,10.380065,-0.4705186,0.3017672,0.14935644,-8.34375,-33.5625,-22.3125,0.20864804,0.21811286,0.66340286,1000.9405, , , , 
2026-03-20 17:28:07.179,-0.4546363,7.6426754,12.074183,-0.5988002,0.021991132,0.12858704,-8.606251,-33.693752,-22.275002,0.20389591,0.21615171,0.6660019,1000.9405, , , , 
2026-03-20 17:28:07.199,0.047856454,7.580462,13.710874,-0.5487093,-0.23701553,-0.0058032153,-8.793751,-33.825,-22.556252,0.20023955,0.2115811,0.6678495,1000.9405, , , , 
2026-03-20 17:28:07.219,0.6987042,6.8099732,13.686946,-0.15409064,-0.27488914,-0.15118903,-8.793751,-33.6375,-23.15625,0.19881253,0.20567292,0.6677716,1000.9405, , , , 
2026-03-20 17:28:07.239,0.64606214,6.0011992,11.9306135,0.27595815,-0.056199558,-0.25503606,-8.8125,-33.24375,-23.56875,0.1995169,0.20476985,0.6665112,1000.93854, , , , 
2026-03-20 17:28:07.259,0.5838487,5.8624153,9.724431,0.43233955,0.06963859,-0.2196059,-8.85,-33.09375,-23.75625,0.20137227,0.20717877,0.66412616,1000.93854, , , , 
2026-03-20 17:28:07.279,1.1006985,5.3982077,7.8293157,0.21853687,0.07696896,-0.17318016,-8.90625,-33.16875,-24.075,0.20316271,0.21060057,0.66207236,1000.93854, , , , 
2026-03-20 17:28:07.299,1.2107682,4.85743,8.169097,-0.07834341,0.02932151,-0.19028437,-8.64375,-33.225002,-23.79375,0.20313363,0.21222211,0.6604827,1000.93854, , , , 
2026-03-20 17:28:07.319,1.0480564,4.479364,8.834301,-0.14553854,-0.0048869182,-0.23060146,-8.53125,-33.3375,-23.587502,0.20215046,0.2119059,0.6596838,1000.9405, , , , 
2026-03-20 17:28:07.339,0.076570325,4.436293,8.9826565,-0.0490219,0.050090913,-0.29657486,-8.175,-33.45,-23.04375,0.20071606,0.21142755,0.6582388,1000.9405, , , , 
2026-03-20 17:28:07.359,-0.9810573,4.4410787,8.56152,0.16111559,0.06597339,-0.228158,-7.8375,-33.3375,-22.78125,0.19962677,0.21239032,0.65641,1000.9405, , , , 
2026-03-20 17:28:07.379,-0.7896315,4.220939,6.920043,0.40423977,0.028099779,-0.13286309,-7.6125,-33.46875,-22.6875,0.2008663,0.21530977,0.6542033,1000.9405, , , , 
2026-03-20 17:28:07.399,-0.4546363,4.273581,5.0105705,0.45433068,0.11728604,-0.12186752,-7.3125005,-33.6375,-22.725,0.2026919,0.21798238,0.6529172,1000.943, , , , 
2026-03-20 17:28:07.419,-1.2346965,4.709075,4.536792,0.28084508,0.16371176,-0.054672398,-6.99375,-33.80625,-22.66875,0.20452106,0.22195914,0.65144545,1000.943, , , , 
2026-03-20 17:28:07.439,-1.2777673,4.6564326,5.5274205,0.08659008,-0.0024434591,0.13347395,-6.8250003,-33.9,-22.44375,0.20523958,0.22446816,0.6511216,1000.943, , , , 
2026-03-20 17:28:07.459,-0.21535404,4.058227,6.4845495,0.048716467,-0.2932151,0.23487751,-6.675,-34.050003,-22.331251,0.20656982,0.22400045,0.6519711,1000.943, , , , 
2026-03-20 17:28:07.479,0.86141616,3.7998023,6.5946193,0.17211115,-0.34574947,0.1725693,-6.6562505,-34.0875,-22.21875,0.2096055,0.22175473,0.6527423,1000.9483, , , , 
2026-03-20 17:28:07.499,0.7752745,4.1635113,6.5515485,0.40668324,-0.15271619,0.049174614,-6.8437505,-33.99375,-22.03125,0.21350645,0.22067696,0.65258825,1000.9483, , , , 
2026-03-20 17:28:07.519,0.6652047,4.74736,6.0490556,0.5911644,0.074525505,-0.02046397,-7.14375,-34.143753,-21.9375,0.21738896,0.2229787,0.6516217,1000.9483, , , , 
2026-03-20 17:28:07.539,0.34456646,5.1828537,5.369494,0.5496256,0.14172062,-0.09010255,-7.4625,-34.21875,-21.5625,0.22083163,0.22763531,0.650243,1000.9483, , , , 
2026-03-20 17:28:07.559,-0.27756742,5.6949177,5.953343,0.28817546,0.2357938,-0.07788526,-7.5750003,-34.350002,-21.056252,0.22306535,0.23217578,0.64882964,1000.9494, , , , 
2026-03-20 17:28:07.579,-0.5168497,5.6949177,8.039884,0.15989386,0.24923283,-0.057115857,-7.5375004,-34.65,-20.7,0.22303343,0.23563538,0.64830625,1000.9494, , , , 
2026-03-20 17:28:07.599,-0.8853444,6.1160545,8.193025,0.17088942,0.013439025,-0.07666353,-7.2375,-34.631252,-20.456251,0.22277689,0.23883408,0.64775574,1000.9494, , , , 
2026-03-20 17:28:07.619,-1.2969099,7.3603225,7.8484583,-0.13942988,-0.2687805,0.03329213,-6.9375005,-34.65,-20.2875,0.22362003,0.23884954,0.6471081,1000.9494, , , , 
2026-03-20 17:28:07.639,-0.61734825,7.4512496,9.375079,-0.43020153,-0.30298892,0.22510368,-6.7312503,-34.74375,-20.04375,0.22415707,0.23551017,0.6475047,1000.9532, , , , 
2026-03-20 17:28:07.659,0.70348984,7.0540414,10.380065,-0.504727,-0.34452772,0.23976442,-6.525,-34.7625,-19.875,0.22362848,0.22984444,0.6494886,1000.9532, , , , 
2026-03-20 17:28:07.679,0.4833502,6.5515485,11.662618,-0.48884454,-0.23090689,0.032070402,-6.7125,-34.893753,-19.706251,0.22265027,0.22371039,0.6512904,1000.9532,37.88737814,127.7374476,177.403076171875,1.57
2026-03-20 17:28:07.699,-1.0241281,5.919843,11.916257,-0.031917684,-0.06963859,-0.041233372,-6.99375,-34.818752,-19.7625,0.22062308,0.218232,0.65179735,1000.9583, , , , 
2026-03-20 17:28:07.719,-0.9236295,5.6183476,10.514063,0.16111559,0.0048869182,-0.014355322,-7.1250005,-34.575,-20.118752,0.22072314,0.21810006,0.6516201,1000.9583, , , , 
2026-03-20 17:28:07.739,-0.70348984,5.474778,9.3511505,0.2784016,0.18203771,0.0027488915,-7.33125,-34.350002,-20.41875,0.22149529,0.21967596,0.65128326,1000.9583, , , , 
2026-03-20 17:28:07.759,-0.4211368,5.4173503,7.9106717,0.344375,0.20647229,-0.015577052,-7.2375,-33.975002,-20.6625,0.2221796,0.22302255,0.65106577,1000.9583, , , , 
2026-03-20 17:28:07.779,-0.37806597,5.9437714,5.6327047,0.13668099,0.08918626,-0.04367683,-7.2375,-33.693752,-20.643751,0.2231169,0.22633627,0.65057325,1000.9583, , , , 
2026-03-20 17:28:07.799,-0.7322037,6.1399827,5.1349974,-0.33857182,0.050090913,0.028405212,-7.55625,-33.787502,-20.5125,0.22288588,0.2272447,0.6503926,1000.9668, , , , 
2026-03-20 17:28:07.819,-1.2059826,5.8097734,6.9726853,-0.6843213,0.12095123,0.15424335,-7.6687503,-33.975002,-20.456251,0.21954224,0.22484846,0.6519504,1000.9668, , , , 
2026-03-20 17:28:07.839,-0.5024927,4.7569313,9.643075,-0.6049088,0.03176497,0.25076,-7.8562503,-34.2,-20.2875,0.21314912,0.2194627,0.6560083,1000.9668, , , , 
2026-03-20 17:28:07.859,-0.014356935,4.4458647,8.71466,-0.17363831,-0.08307761,0.17501275,-7.8375,-34.2,-20.71875,0.21104044,0.21660091,0.6579701,1000.9668, , , , 
2026-03-20 17:28:07.879,-0.14356937,4.651647,5.4891353,0.095142186,0.040317077,0.09926552,-7.70625,-33.9375,-21.46875,0.2111061,0.2151026,0.6591225,1000.98083, , , , 
2026-03-20 17:28:07.899,-0.7322037,4.9292145,4.2592244,-0.066126116,0.239459,0.14202607,-7.8187504,-33.600002,-22.143751,0.21122542,0.2160419,0.65987796,1000.98083, , , , 
2026-03-20 17:28:07.919,-1.1150553,4.718646,5.8480587,-0.31291547,0.13683371,0.20922118,-8.0625,-33.581253,-22.48125,0.20842794,0.21632306,0.66232735,1000.98083, , , , 
2026-03-20 17:28:07.939,-0.91884387,4.5798626,7.23111,-0.23228133,-0.092851445,0.21655156,-8.231251,-33.6375,-22.556252,0.20687445,0.21472485,0.6639918,1000.98083, , , , 
2026-03-20 17:28:07.959,-0.09571291,4.709075,6.2548385,0.06582068,-0.1075122,0.15302163,-8.4375,-33.675003,-22.59375,0.20693038,0.2124723,0.6654879,1000.9847, , , , 
2026-03-20 17:28:07.979,-0.5168497,5.3790655,5.1254263,0.11713332,0.11484258,0.1188132,-8.53125,-33.487503,-22.650002,0.20822026,0.21252985,0.6660986,1000.9847, , , , 
2026-03-20 17:28:07.999,-0.16271193,5.5226345,5.8432727,0.024281874,0.0024434591,0.1273653,-8.700001,-33.318752,-22.81875,0.20858346,0.21375287,0.6671831,1000.9847, , , , 
2026-03-20 17:28:08.019,0.24885355,5.6327047,6.829116,0.08170316,-0.037873615,0.044287696,-9.01875,-33.375,-22.96875,0.20901568,0.21369752,0.6676437,1000.9847, , , , 
2026-03-20 17:28:08.039,0.34456646,6.192625,6.513263,0.15867212,-0.045203995,-0.0876591,-9.20625,-33.318752,-22.9125,0.21012034,0.21409151,0.66738373,1000.9864, , , , 
2026-03-20 17:28:08.059,0.29671,6.7525454,7.0540414,0.10002911,0.118507765,-0.17928882,-9.375,-33.412502,-22.893751,0.21105456,0.21530402,0.6662697,1000.9864, , , , 
2026-03-20 17:28:08.079,0.09092726,6.8817577,8.987442,0.11957678,0.26633704,-0.23304491,-9.39375,-33.581253,-23.00625,0.20995408,0.21823609,0.66476536,1000.9864, , , , 
2026-03-20 17:28:08.099,-0.2727818,6.862615,10.001999,0.24541493,0.3017672,-0.29779658,-9.13125,-33.581253,-23.00625,0.2089292,0.2208752,0.66366696,1000.9864, , , , 
2026-03-20 17:28:08.119,-0.6795616,7.7144604,9.332008,0.23075417,0.2272417,-0.32467464,-8.71875,-33.675003,-22.931252,0.20815706,0.22516116,0.6615995,1000.9866, , , , 
2026-03-20 17:28:08.139,-0.8757731,8.532805,9.360723,-0.01725693,0.13927718,-0.22204934,-8.25,-33.73125,-22.931252,0.20736018,0.22834437,0.6595542,1000.9866, , , , 
2026-03-20 17:28:08.159,-0.74177504,8.585447,10.250853,-0.3507891,0.13194679,-0.057115857,-7.8187504,-33.65625,-22.85625,0.20453548,0.22894101,0.6589184,1000.9866, , , , 
2026-03-20 17:28:08.179,-0.6364908,7.6139617,11.97847,-0.52671814,-0.03176497,0.06383537,-7.5750003,-33.61875,-22.7625,0.20190197,0.22735944,0.659715,1000.9866, , , , 
2026-03-20 17:28:08.199,0.014356935,6.0490556,13.050455,-0.40576693,-0.2602284,0.13836087,-7.70625,-33.61875,-22.95,0.19912331,0.22313344,0.66129225,1000.9893, , , , 
2026-03-20 17:28:08.219,1.1246266,5.111069,12.045469,-0.09300416,-0.37262753,0.0650571,-7.8,-33.45,-23.175001,0.19903055,0.21844348,0.662352,1000.9893, , , , 
2026-03-20 17:28:08.239,1.5840486,4.7425747,9.274581,0.11835505,-0.25900668,-0.06811142,-7.70625,-33.28125,-23.362501,0.20194504,0.2151402,0.6616812,1000.9893, , , , 
2026-03-20 17:28:08.259,1.4213367,4.8287163,7.9346,0.11346813,-0.05131264,-0.16462806,-7.6875005,-33.075,-23.56875,0.20335677,0.21483867,0.66069525,1000.9893, , , , 
2026-03-20 17:28:08.279,0.6891329,4.7282176,7.097112,-0.03924806,0.08429934,-0.21349724,-7.5937505,-33.018753,-23.493752,0.20350537,0.21560398,0.6592967,1000.9983, , , , 
2026-03-20 17:28:08.299,0.3493521,4.426722,7.288538,-0.18585561,0.020769402,-0.2244928,-7.5375004,-33.131252,-23.118752,0.20202588,0.21595049,0.6581697,1000.9983, , , , 
2026-03-20 17:28:08.319,-0.019142581,4.2017965,7.786245,-0.16752967,-0.06108648,-0.26480988,-7.51875,-33.1875,-22.9125,0.20025352,0.21495228,0.6569456,1000.9983, , , , 
2026-03-20 17:28:08.339,-0.28235307,4.1204405,7.2502527,0.10980295,0.040317077,-0.29779658,-7.3500004,-33.46875,-22.650002,0.19921316,0.21450101,0.6551822,1000.9983, , , , 
2026-03-20 17:28:08.359,-0.57906306,4.733003,5.5896335,0.25396705,0.24068072,-0.3026835,-7.3500004,-33.581253,-22.518751,0.19907968,0.21667713,0.65290564,1001.004, , , , 
2026-03-20 17:28:08.379,-1.2777673,5.1254263,5.608776,0.10613775,0.27488914,-0.16829325,-7.2000003,-33.65625,-22.556252,0.19826706,0.22073014,0.65100574,1001.004, , , , 
2026-03-20 17:28:08.399,-0.85184485,4.790431,6.1639113,0.008399391,0.023212861,-0.027794348,-6.7875004,-33.75,-22.706251,0.19700336,0.22347434,0.6501866,1001.004, , , , 
2026-03-20 17:28:08.419,-0.10049855,4.479364,6.795616,0.063377224,-0.11117739,-0.004581486,-6.5437503,-33.80625,-22.81875,0.19730234,0.22328348,0.6500093,1001.004, , , , 
2026-03-20 17:28:08.439,0.3589234,4.4745784,7.0779696,0.3602575,0.11484258,-0.08277218,-6.3750005,-33.9,-22.893751,0.1986348,0.22361869,0.64943653,1001.0125, , , , 
2026-03-20 17:28:08.459,-0.49292147,4.8909297,6.3314085,0.6388118,0.5033526,-0.14630212,-6.2250004,-33.99375,-23.025002,0.20009172,0.22819856,0.6481501,1001.0125, , , , 
2026-03-20 17:28:08.479,-1.7180467,5.4843497,4.910072,0.54840386,0.6243038,0.0051923506,-6.2812505,-34.10625,-23.0625,0.20064636,0.23887499,0.646875,1001.0125, , , , 
2026-03-20 17:28:08.499,-1.3399807,5.4412785,5.345566,0.107359484,0.18448116,0.19089524,-6.01875,-34.3125,-22.893751,0.20050555,0.24347982,0.6472426,1001.0125, , , , 
2026-03-20 17:28:08.519,-0.0047856453,5.1876397,7.5469627,-0.11866048,-0.07941242,0.23976442,-5.34375,-34.3875,-22.893751,0.20064193,0.24399121,0.6487854,1001.0161, , , , 
2026-03-20 17:28:08.539,0.5407779,5.0775695,9.078369,0.095142186,0.11728604,0.12370012,-4.8187504,-34.443752,-22.931252,0.20096704,0.24268623,0.6503938,1001.0161, , , , 
2026-03-20 17:28:08.559,-0.40677986,5.977271,9.217153,0.42745262,0.42027497,0.03084867,-4.5750003,-34.5,-22.725,0.20109941,0.24511515,0.6509849,1001.0161, , , , 
2026-03-20 17:28:08.579,-0.38285163,6.8051877,7.786245,0.4017963,0.33597562,0.07238748,-4.70625,-34.612503,-22.5375,0.20150015,0.25070122,0.65104234,1001.0161, , , , 
2026-03-20 17:28:08.599,-0.43070808,7.628319,7.322037,-0.07345649,0.046425723,0.12370012,-4.89375,-34.74375,-22.1625,0.20207405,0.2543446,0.65140283,1001.01654, , , , 
2026-03-20 17:28:08.619,-0.4019942,7.556534,8.484949,-0.57680905,-0.21135922,0.23854269,-5.08125,-34.893753,-21.75,0.2009944,0.2512513,0.6534748,1001.01654, , , , 
2026-03-20 17:28:08.639,-0.6412765,6.6711893,10.403993,-0.8321505,-0.15149446,0.2678642,-5.2875004,-34.93125,-21.487501,0.19903836,0.24650355,0.65574807,1001.01654, , , , 
2026-03-20 17:28:08.659,-1.4787644,5.838487,12.241681,-0.88712835,-0.18692462,0.29840744,-5.4187503,-34.6875,-21.487501,0.19481964,0.23925687,0.65942293,1001.01654, , , , 
2026-03-20 17:28:08.679,-1.6701902,4.776074,14.155939,-0.6317869,-0.3420843,0.2764163,-5.68125,-34.40625,-21.75,0.19102538,0.23141739,0.66305417,1001.0167,37.88736665,127.73745859,177.62774658203125,1.59
2026-03-20 17:28:08.699,-1.6175481,4.7138605,12.610175,-0.16875139,-0.39950556,0.21777329,-6.01875,-34.0125,-22.181252,0.19016974,0.22481544,0.6653708,1001.0167, , , , 
2026-03-20 17:28:08.719,-1.7036897,5.0536413,9.839287,0.07315106,-0.27488914,0.23487751,-6.4687505,-33.600002,-22.7625,0.19211149,0.22089502,0.66642237,1001.0167, , , , 
2026-03-20 17:28:08.739,-1.1724831,5.163711,7.2119675,0.053603385,-0.09407318,0.33628106,-6.9750004,-33.1875,-23.268751,0.19463931,0.21931463,0.66755927,1001.0167, , , , 
2026-03-20 17:28:08.759,-0.40677986,4.790431,5.6327047,-0.16508621,-0.046425723,0.3423897,-7.2000003,-32.86875,-23.4375,0.19594628,0.2182299,0.6697176,1001.0193, , , , 
2026-03-20 17:28:08.779,-0.3062813,4.23051,6.2261243,-0.46807513,-0.06475167,0.24831653,-7.425,-32.68125,-23.306252,0.1947931,0.2147232,0.6729955,1001.0193, , , , 
2026-03-20 17:28:08.799,-0.46899325,3.9194436,7.1018977,-0.44730574,-0.12095123,0.18112141,-7.70625,-32.662502,-23.38125,0.19311509,0.21150896,0.6747791,1001.0193, , , , 
2026-03-20 17:28:08.819,-0.3924229,3.7184465,7.0396843,-0.30314165,-0.06475167,0.12492185,-7.7812505,-32.775,-23.4375,0.19135305,0.20759146,0.6765667,1001.0193, , , , 
2026-03-20 17:28:08.839,-0.6269195,3.8620157,6.2979093,-0.13087778,0.045203995,0.06750056,-8.043751,-32.8125,-23.85,0.19003911,0.20560712,0.677708,1001.01953, , , , 
2026-03-20 17:28:08.859,-0.7082755,4.130012,6.125626,-0.057574004,0.028099779,0.023518294,-8.325001,-32.68125,-24.375002,0.18903437,0.20508474,0.6783838,1001.01953, , , , 
2026-03-20 17:28:08.879,-0.34456646,4.4985065,5.130212,0.06826414,-0.0073303776,-0.011911863,-8.56875,-32.456253,-24.712502,0.18891132,0.20501752,0.6785045,1001.01953, , , , 
2026-03-20 17:28:08.899,-0.44506502,4.709075,4.8047876,0.08659008,0.12828161,-0.041233372,-8.925,-32.1375,-24.843752,0.18929897,0.20578276,0.67822117,1001.01953, , , , 
2026-03-20 17:28:08.919,-0.7848458,4.9196434,5.517849,0.0377209,0.22235478,-0.010690134,-9.3,-32.0625,-24.993752,0.18873827,0.20757714,0.6780893,1001.018, , , , 
2026-03-20 17:28:08.939,-0.6987042,4.948357,7.1066833,0.059712034,0.20525056,0.021074835,-9.375,-32.25,-25.10625,0.187444,0.20949766,0.6784185,1001.018, , , , 
2026-03-20 17:28:08.959,-0.7369894,5.383851,7.5996046,0.12812889,0.1075122,-0.010690134,-9.28125,-32.456253,-25.125002,0.18678394,0.21122986,0.6786522,1001.018, , , , 
2026-03-20 17:28:08.979,-0.79920274,5.962914,8.049456,0.240528,0.08429934,-0.008246674,-8.681251,-32.831253,-25.181252,0.18708442,0.21304284,0.67842215,1001.018, , , , 
2026-03-20 17:28:08.999,-0.22971097,6.647261,8.073383,0.28084508,0.11728604,-0.0070249448,-8.4375,-32.831253,-25.25625,0.18817699,0.21545346,0.6780005,1001.01526, , , , 
2026-03-20 17:28:09.019,0.033499517,7.2550383,9.188439,0.21853687,0.21380267,-0.062002774,-8.2875,-32.737503,-25.181252,0.18898624,0.21915849,0.67745453,1001.01526, , , , 
2026-03-20 17:28:09.039,0.3397808,7.3746796,10.269995,0.29184064,0.11362085,-0.14752385,-8.19375,-32.643753,-24.993752,0.18912011,0.22140568,0.67691356,1001.01526, , , , 
2026-03-20 17:28:09.059,0.019142581,7.2215385,9.753145,0.33704466,0.05131264,-0.30757043,-8.212501,-32.5875,-24.750002,0.19025838,0.22446091,0.6751551,1001.01526, , , , 
2026-03-20 17:28:09.079,-1.3591232,7.743174,8.997013,0.2075413,0.19669846,-0.32100943,-8.118751,-32.643753,-24.393751,0.19124624,0.22857848,0.67171043,1001.0074, , , , 
2026-03-20 17:28:09.099,-1.2777673,7.9633136,9.690931,-0.07467822,0.23701553,-0.2489274,-7.9125004,-32.79375,-24.056252,0.18964697,0.23148474,0.6699673,1001.0074, , , , 
2026-03-20 17:28:09.119,-0.83748794,7.776674,11.356337,-0.29458955,-0.0036651888,-0.23182319,-7.8187504,-32.8875,-23.8875,0.18753658,0.23196827,0.6692367,1001.0074, , , , 
2026-03-20 17:28:09.139,-0.44027936,6.8578296,12.863814,-0.13332124,-0.23701553,-0.21105379,-7.55625,-32.943752,-23.79375,0.18557376,0.23007202,0.6682114,1001.0074, , , , 
2026-03-20 17:28:09.159,0.26799613,5.8241305,11.653047,0.3113883,-0.31520623,-0.22082762,-7.275,-33.037502,-23.962502,0.18667379,0.22836758,0.6663626,1001.00525, , , , 
2026-03-20 17:28:09.179,0.65084773,5.4795637,8.260024,0.44089165,-0.17715079,-0.23182319,-7.18125,-33.075,-24.075,0.19167984,0.22969061,0.6626981,1001.00525, , , , 
2026-03-20 17:28:09.199,1.0671989,5.1876397,7.52782,0.21242823,-0.14416409,-0.25747952,-7.0875,-33.09375,-23.94375,0.19403265,0.23106916,0.66066545,1001.00525, , , , 
2026-03-20 17:28:09.219,0.80877405,5.178068,8.015956,-1.527162E-4,-0.22601996,-0.36743516,-6.99375,-33.43125,-23.625,0.19563319,0.23135208,0.6580846,1001.00525, , , , 
2026-03-20 17:28:09.239,-0.14356937,5.2163534,7.786245,-0.0490219,-0.09773836,-0.3979784,-6.7875004,-33.825,-23.175001,0.19608305,0.23045866,0.6551248,1001.0048, , , , 
2026-03-20 17:28:09.259,-1.105484,4.9770713,7.972885,-0.117438756,0.043982264,-0.3356702,-6.43125,-34.0125,-22.95,0.19496591,0.2305135,0.65254694,1001.0048, , , , 
2026-03-20 17:28:09.279,-1.7419748,4.402794,8.523234,-0.116217025,-0.13194679,-0.22937973,-6.01875,-34.21875,-22.987501,0.19324607,0.23039015,0.6506455,1001.0048, , , , 
2026-03-20 17:28:09.299,-1.1772687,4.3740797,7.9920278,0.075594515,-0.38606653,-0.16584979,-5.5125003,-34.21875,-23.268751,0.19332731,0.22893417,0.64897895,1001.0048, , , , 
2026-03-20 17:28:09.319,-0.6843473,4.776074,5.8480587,0.23564109,-0.46425724,-0.10598504,-5.15625,-34.143753,-23.34375,0.19652501,0.2271313,0.64682794,1001.004, , , , 
2026-03-20 17:28:09.339,-0.89491564,4.8526444,5.1493545,0.2490801,-0.29199335,-0.014355322,-4.59375,-33.9,-23.268751,0.20181262,0.22565849,0.64438576,1001.004, , , , 
2026-03-20 17:28:09.359,-1.3926228,4.7569313,5.575277,0.34559676,0.041538805,0.15546508,-4.5,-33.881252,-23.23125,0.20429175,0.22596927,0.6437727,1001.004, , , , 
2026-03-20 17:28:09.379,-0.32542387,4.2257247,6.7429743,0.5740602,0.3762927,0.3008509,-4.65,-33.80625,-23.00625,0.20670897,0.22907859,0.64448524,1001.004, , , , 
2026-03-20 17:28:09.399,1.0193424,4.4075794,6.058627,0.7487675,0.26389357,0.23243405,-5.175,-34.0125,-22.66875,0.20938285,0.23513816,0.6458505,1001.0021, , , , 
2026-03-20 17:28:09.419,0.5838487,5.1014977,5.288138,0.674242,0.008552107,0.11636974,-5.5125003,-34.36875,-22.125,0.21502426,0.24168143,0.6457088,1001.0021, , , , 
2026-03-20 17:28:09.439,-0.22492532,5.465207,5.15414,0.56550807,-0.013439025,0.15057817,-5.68125,-34.706253,-21.50625,0.21871883,0.24456446,0.64515144,1001.0021, , , , 
2026-03-20 17:28:09.459,-0.033499517,5.436493,5.393422,0.44089165,-0.042760536,0.17745622,-5.7937503,-34.875,-21.09375,0.22304386,0.24756826,0.6448952,1001.0021, , , , 
2026-03-20 17:28:09.479,-0.32063824,5.6853466,5.058427,0.23808455,-0.05131264,0.13225223,-5.8875003,-35.081253,-20.362501,0.22655815,0.24947733,0.64491516,1000.997, , , , 
2026-03-20 17:28:09.499,-0.9523434,5.6039906,7.159325,-0.108886644,-0.23335035,0.101708986,-5.8875003,-35.04375,-20.25,0.22855766,0.2491076,0.6453384,1000.997, , , , 
2026-03-20 17:28:09.519,-0.014356935,5.733203,8.79123,-0.09666935,-0.3176497,0.0772744,-5.925,-34.875,-19.931252,0.22952192,0.24667802,0.6455722,1000.997, , , , 
2026-03-20 17:28:09.539,0.72741807,6.2931237,9.437292,0.08170316,-0.0024434591,-0.06444623,-6.05625,-34.6875,-19.612501,0.2308043,0.24447921,0.6454969,1000.997, , , , 
2026-03-20 17:28:09.559,0.31585258,7.068398,9.068798,0.03405571,0.037873615,-0.19761476,-6.1687503,-34.59375,-19.331251,0.23091896,0.24538529,0.6446992,1000.994, , , , 
2026-03-20 17:28:09.579,-0.19621146,7.1976104,9.355937,-0.19074252,0.0024434591,-0.3197877,-6.4500003,-34.66875,-19.125,0.23018788,0.24563713,0.6432137,1000.994, , , , 
2026-03-20 17:28:09.599,-1.3351951,7.183254,10.3848505,-0.25427246,0.2944368,-0.29779658,-6.6562505,-35.006252,-19.143751,0.22740221,0.24560383,0.6417737,1000.994, , , , 
2026-03-20 17:28:09.619,-2.5555346,7.01097,10.466207,-0.40088,0.034208428,-0.17562363,-6.5625005,-35.287502,-19.21875,0.22294635,0.24623302,0.64116704,1000.994, , , , 
2026-03-20 17:28:09.639,-2.4837499,6.4271216,10.849058,-0.549931,-0.27122396,0.040622506,-6.3375,-35.4,-19.3875,0.21980128,0.24305573,0.6412743,1000.99316, , , , 
2026-03-20 17:28:09.659,-1.2394822,5.4556355,11.174481,-0.37033677,-0.09773836,0.160352,-5.9437504,-35.4,-19.59375,0.21771899,0.23789367,0.6426159,1000.99316, , , , 
2026-03-20 17:28:09.679,-0.9236295,5.211568,10.332209,-0.15531237,0.062308207,0.1310305,-5.5875,-35.287502,-19.96875,0.2160127,0.23496328,0.6443536,1000.99316,37.88735451,127.73747128,177.974365234375,1.6
2026-03-20 17:28:09.699,-0.55513483,5.2307105,8.240881,-1.527162E-4,0.23090689,0.101708986,-5.49375,-35.100002,-20.41875,0.21471564,0.23462391,0.6457285,1000.99316, , , , 
2026-03-20 17:28:09.719,-1.0911272,5.1493545,5.852844,-0.17486005,0.30298892,0.06383537,-5.5687504,-34.95,-20.775002,0.21231617,0.23652491,0.64731383,1000.99445, , , , 
2026-03-20 17:28:09.739,-1.8903298,4.800002,6.3744793,-0.5401572,0.106290475,0.19211698,-5.6625004,-34.6875,-21.243752,0.20965984,0.23629917,0.64869803,1000.99445, , , , 
2026-03-20 17:28:09.759,-1.253839,4.1587257,7.460821,-0.5865829,-0.062308207,0.3081813,-5.8125,-34.40625,-21.6,0.20580618,0.23265287,0.6516557,1000.99445, , , , 
2026-03-20 17:28:09.779,-0.11964113,3.694518,7.8053875,-0.32146758,0.02932151,0.21655156,-5.86875,-34.068752,-21.806252,0.20300476,0.22822693,0.6548406,1000.99445, , , , 
2026-03-20 17:28:09.799,-1.0097711,4.2687955,7.0731835,0.016951498,0.09651663,0.12125666,-6.01875,-33.80625,-22.125,0.20133433,0.22672963,0.65674496,1000.99506, , , , 
2026-03-20 17:28:09.819,-0.8039884,4.8095737,4.8382874,0.07925971,-0.0537561,0.160352,-6.2812505,-33.787502,-22.2,0.20159328,0.22727129,0.6576218,1000.99506, , , , 
2026-03-20 17:28:09.839,-0.11006984,4.9531426,4.072584,-0.12476913,-0.15271619,0.17379104,-6.4687505,-33.46875,-22.575,0.20288426,0.22648868,0.65850013,1000.99506, , , , 
