Time,Accel_X,Accel_Y,Accel_Z,Gyro_X,Gyro_Y,Gyro_Z,Mag_X,Mag_Y,Mag_Z,Orient_X,Orient_Y,Orient_Z,Pressure,Lat,Lng,Alt,Speed
2026-03-20 18:06:03.278,-0.8997013,6.910472,7.2670026,-0.025427246,-0.09491312,-0.13141228,-20.04375,-14.718751,-36.9,0.16034089,0.3216686,0.76570404,999.9914,37.88747887,127.7373781,178.75128173828125,0.0
2026-03-20 18:06:03.298,-1.0097711,6.5539412,5.8360944,-0.5599339,-0.12240203,-0.36048657,-18.150002,-16.3875,-38.25,0.16129914,0.31932324,0.7632668,999.98553, , , , 
2026-03-20 18:06:03.318,-1.227518,6.5898337,6.704689,-0.92523104,-0.08697187,-0.30489787,-17.6625,-15.468751,-39.131252,0.15703383,0.31457198,0.76282656,999.9699, , , , 
2026-03-20 18:06:03.338,-1.5888343,6.2237315,7.487142,-0.984485,-0.030161448,-0.2334267,-18.50625,-16.050001,-39.300003,0.15155663,0.30826408,0.7637561,999.9699, , , , 
2026-03-20 18:06:03.358,-1.1485549,5.855237,8.257631,-0.9233985,-0.09369139,-0.11614066,-19.3875,-12.918751,-36.768753,0.14554691,0.30137816,0.7655996,999.956, , , , 
2026-03-20 18:06:03.378,-1.2921243,6.056234,8.386844,-0.76640624,-0.30749404,-0.15095995,-18.243752,-14.64375,-38.643753,0.14121729,0.29362193,0.7674369,999.956, , , , 
2026-03-20 18:06:03.398,-1.4117653,5.9270215,7.865208,-0.70715237,-0.58788097,-0.15462515,-19.237501,-12.281251,-37.912502,0.13967058,0.28621238,0.7680092,999.9582, , , , 
2026-03-20 18:06:03.418,-1.5122639,5.613562,7.8723865,-0.8048907,-0.642248,-0.07276927,-20.625,-13.931251,-36.112503,0.1393811,0.2781819,0.7682607,999.9582, , , , 
2026-03-20 18:06:03.438,-1.4452649,5.548956,8.286345,-0.9105703,-0.64957833,0.056734066,-21.300001,-12.243751,-36.91875,0.1386283,0.26904267,0.76926327,999.9599, , , , 
2026-03-20 18:06:03.458,-0.5240282,5.9820566,9.004191,-0.97410023,-0.72899073,-0.003130682,-21.13125,-11.3625,-35.5875,0.13861167,0.25571433,0.77157795,999.9599, , , , 
2026-03-20 18:06:03.480,0.9906286,6.108876,8.999406,-1.0669518,-0.8218422,-0.5309178,-21.975,-9.9375,-38.2125,0.13877416,0.24117859,0.77187574,999.95966, , , , 
2026-03-20 18:06:03.498,0.77766734,5.9581285,8.879765,-1.2465459,-0.69905835,-1.0550399,-22.368752,-10.2375,-36.0,0.13670637,0.2325261,0.76971394,999.95966, , , , 
2026-03-20 18:06:03.518,0.20578274,6.178268,9.35833,-1.5660282,-1.0692425,-1.30244,-23.831251,-10.89375,-35.49375,0.13336648,0.21844243,0.76493543,999.9975, , , , 
2026-03-20 18:06:03.538,0.4977071,6.0514483,11.102697,-1.5556436,-0.7259364,-1.4240022,-23.081251,-8.587501,-34.93125,0.12897466,0.20286457,0.7589424,999.9975, , , , 
2026-03-20 18:06:03.558,0.5910272,4.2592244,10.671989,-1.494557,-0.13034327,-1.3421463,-22.95,-6.58125,-35.362503,0.12144802,0.18999588,0.75291735,1000.10394, , , , 
2026-03-20 18:06:03.578,-2.885744,5.005785,10.327422,-1.1934007,1.1219295,-0.6494256,-23.2875,-8.34375,-36.768753,0.1051676,0.18151382,0.7478703,1000.10394, , , , 
2026-03-20 18:06:03.598,-5.156533,4.4243293,10.028319,-0.94477874,2.2196536,0.33956447,-20.362501,-7.55625,-36.206253,0.091487646,0.18289454,0.7487804,1000.1757, , , , 
2026-03-20 18:06:03.618,-3.4624143,3.5988052,10.616954,-0.68760467,3.148779,1.7885357,-19.612501,-6.8437505,-37.55625,0.062199246,0.19494894,0.75966495,1000.1757, , , , 
2026-03-20 18:06:03.639,1.3040884,-0.47856453,12.38525,-0.47441286,1.7315726,1.9925646,-19.050001,-5.53125,-38.006252,0.04121059,0.20577712,0.77359426,1000.2211, , , , 
2026-03-20 18:06:03.658,1.0241281,-0.09332009,10.880164,-0.09445497,-1.5884775,0.99685496,-18.675001,-5.9812503,-39.393753,0.041804634,0.20154208,0.7838221,1000.2211, , , , 
2026-03-20 18:06:03.679,-3.1513474,3.1082766,10.226924,0.6269763,-1.446146,1.091539,-19.1625,-4.8,-39.112503,0.06083512,0.1907164,0.78892326,1000.20526, , , , 
2026-03-20 18:06:03.698,-2.7708886,2.6703901,9.5665045,1.15232,-1.1688133,1.5515202,-20.38125,-3.43125,-37.987503,0.0732044,0.18926965,0.7924257,1000.20526, , , , 
2026-03-20 18:06:03.718,-0.3182454,1.9525433,7.877172,1.4088832,-0.51763153,1.3981931,-22.275002,-3.3750002,-37.78125,0.090592444,0.19204028,0.79806036,1000.20966, , , , 
2026-03-20 18:06:03.739,0.9379865,2.6321049,6.6185474,1.0234276,0.19402592,0.22166756,-21.50625,-3.825,-35.68125,0.10249107,0.20175171,0.80110085,1000.20966, , , , 
2026-03-20 18:06:03.758,0.39481574,4.95075,7.834101,0.89209163,-0.40339983,-0.56695884,-21.206251,-4.4437504,-35.625,0.106870025,0.20861569,0.79803294,1000.1528, , , , 
2026-03-20 18:06:03.781,0.40917268,4.989035,6.853044,1.2488366,-2.6055675,-1.0886374,-22.612501,-5.775,-37.143753,0.12893009,0.21228284,0.7858181,1000.1257, , , , 
2026-03-20 18:06:03.798,-0.062213387,4.517649,5.5657053,1.0521382,-3.190165,-1.3152683,-22.518751,-4.5375004,-37.068752,0.1419923,0.20973821,0.77948046,1000.1257, , , , 
2026-03-20 18:06:03.819,-1.5960127,5.508278,6.2691956,0.6324741,-4.1681595,-1.1228458,-25.35,-8.325001,-35.475002,0.17680913,0.19583033,0.76121205,1000.1257, , , , 
2026-03-20 18:06:03.839,-1.4548361,5.1852465,5.259424,0.30566147,-3.9390852,-0.887052,-27.13125,-9.637501,-32.5875,0.20834091,0.17777468,0.7465151,1000.06854, , , , 
2026-03-20 18:06:03.858,-1.9525433,4.4171505,4.759324,-0.16409355,-2.756451,-0.6604212,-27.900002,-8.231251,-31.518751,0.22716571,0.16432299,0.73685133,1000.06854, , , , 
2026-03-20 18:06:03.878,-2.254039,4.45065,4.8885365,-0.91545725,-0.6379719,0.20945026,-30.675001,-9.543751,-29.2875,0.24060993,0.14735545,0.72877824,1000.0119, , , , 
2026-03-20 18:06:03.898,1.3160524,4.981857,7.4416785,-1.0999384,1.3791035,1.0781,-30.73125,-9.150001,-30.54375,0.23202051,0.14134483,0.7349727,1000.0119, , , , 
2026-03-20 18:06:03.919,4.479364,5.1493545,10.688739,-1.0553453,2.2227077,1.0231222,-30.112501,-8.34375,-31.125002,0.21372348,0.14197876,0.74724805,1000.01434, , , , 
2026-03-20 18:06:03.938,3.4672,4.3262234,11.351551,-0.8116102,1.95576,0.66576624,-30.712502,-7.6687503,-30.937502,0.19386189,0.1453744,0.7582131,1000.01434, , , , 
2026-03-20 18:06:03.958,-0.50488555,4.220939,11.380264,-0.4481457,1.0522909,0.97852904,-29.38125,-6.9,-31.743752,0.17909074,0.14813058,0.76620895,1000.0683, , , , 
2026-03-20 18:06:03.978,0.7393822,4.2185464,10.313066,0.12240203,0.03642281,1.5380812,-28.95,-6.4500003,-33.975002,0.17395546,0.14783388,0.7774326,1000.0683, , , , 
2026-03-20 18:06:03.998,2.8977082,4.6396832,9.286545,0.46326458,-0.92813265,0.95042926,-28.06875,-4.875,-33.54375,0.1804787,0.14561437,0.78387254,1000.0778, , , , 
2026-03-20 18:06:04.018,2.9742785,5.103891,6.6711893,0.15538873,-1.4308743,0.2937496,-29.737501,-5.175,-33.1875,0.18997948,0.1418398,0.7847088,1000.0778, , , , 
2026-03-20 18:06:04.038,2.469393,4.23051,8.092526,-0.28382304,-0.7735839,0.04940369,-31.06875,-4.5750003,-33.24375,0.20222701,0.13277784,0.78305864,1000.0478, , , , 
2026-03-20 18:06:04.058,2.0219352,4.0031924,10.301102,-0.34674212,-0.19326234,-0.1381318,-31.143751,-5.5687504,-33.018753,0.20381722,0.12747924,0.7823773,1000.0478, , , , 
2026-03-20 18:06:04.078,1.5074782,3.9338005,10.406385,-0.045585785,-0.34231335,-0.15218168,-30.843752,-3.43125,-33.018753,0.20376584,0.12452287,0.78140515,1000.0512, , , , 
2026-03-20 18:06:04.098,1.8089739,4.199404,9.229117,0.033826638,-0.3832413,-0.1625664,-31.050001,-3.5812502,-32.0625,0.20613918,0.12268637,0.7798939,1000.0512, , , , 
2026-03-20 18:06:04.118,1.6462619,4.019942,9.329616,-0.057192214,0.2410625,-0.16806418,-32.831253,-3.7500002,-32.643753,0.20730412,0.12192766,0.778603,1000.0424, , , , 
2026-03-20 18:06:04.138,1.8711873,4.3669014,9.561719,-0.08468113,0.45242172,-0.17234023,-31.706251,-4.0125003,-32.4375,0.20293581,0.124125056,0.7785081,1000.0424, , , , 
2026-03-20 18:06:04.158,2.416751,4.5678983,9.353543,-0.059635673,0.19769111,-0.32994333,-31.837502,-3.91875,-31.968752,0.20045254,0.12553813,0.7781581,1000.02264, , , , 
2026-03-20 18:06:04.179,1.9142581,4.23051,9.614362,0.025885396,0.076739885,-0.49793115,-31.518751,-3.8625002,-33.075,0.1985825,0.12688181,0.77566344,1000.02264, , , , 
2026-03-20 18:06:04.198,1.4883357,4.249653,8.712267,0.06498074,0.09506583,-0.50465065,-31.66875,-4.51875,-32.25,0.19751604,0.12863012,0.77292776,999.9975, , , , 
2026-03-20 18:06:04.218,0.44506502,3.6275191,8.508878,0.0032833982,0.090178914,-0.3983602,-32.756252,-4.8562503,-33.206253,0.19654983,0.13040526,0.7702568,999.9975, , , , 
2026-03-20 18:06:04.238,1.0073783,4.627719,8.609376,-0.033979353,0.03642281,-0.07460186,-32.8875,-4.9875,-34.875,0.19525571,0.13154976,0.7691333,999.9687, , , , 
2026-03-20 18:06:04.258,1.9286151,4.699504,8.860622,-0.0022143847,-0.33681557,-0.23220497,-29.1375,-5.2312503,-34.18125,0.19546641,0.13128822,0.76843786,999.9687, , , , 
2026-03-20 18:06:04.278,1.9621146,4.8358946,8.018349,-0.041920595,-0.53290313,-0.27801985,-29.962502,-6.3187504,-33.412502,0.199608,0.12861356,0.7654416,999.96454,37.88747887,127.7373781,178.75128173828125,0.0
2026-03-20 18:06:04.298,1.2969099,4.4339004,8.453842,-0.2514472,-0.09491312,-0.26702428,-30.581251,-5.11875,-35.11875,0.20155035,0.12597148,0.7630581,999.96454, , , , 
2026-03-20 18:06:04.318,0.6125626,4.388437,8.932407,-0.28076872,0.048029244,-0.07093667,-30.018751,-5.1937504,-34.55625,0.20042057,0.1247459,0.7622455,999.9672, , , , 
2026-03-20 18:06:04.341,1.3280165,4.321438,9.896714,-0.18180864,0.022372922,0.15813762,-31.143751,-4.8375,-32.1375,0.19798076,0.12272354,0.7629433,999.9672, , , , 
2026-03-20 18:06:04.358,2.2085752,4.6731825,9.777073,-0.007101303,0.011377357,0.21616977,-30.6,-5.1375003,-33.5625,0.19738488,0.12151107,0.76417685,999.9882, , , , 
2026-03-20 18:06:04.378,3.333202,5.0440702,7.8197446,-0.20013458,1.0614539,0.1673006,-31.3875,-5.34375,-33.0,0.1950158,0.12278887,0.76606435,999.9882, , , , 
2026-03-20 18:06:04.398,2.3545375,5.948557,7.3292155,-0.6130792,1.6649883,-0.06055197,-30.69375,-4.275,-34.6875,0.18202756,0.12842514,0.769847,1000.0063, , , , 
2026-03-20 18:06:04.418,1.4237294,5.178068,9.851251,-0.5672643,0.5758164,-0.23464844,-29.550001,-3.7687502,-36.375,0.16612759,0.13208057,0.77233535,1000.0063, , , , 
2026-03-20 18:06:04.438,1.0648061,4.1228333,10.834701,-0.21907139,0.09995275,-0.27435464,-28.5375,-3.0375001,-35.90625,0.1621067,0.13149466,0.77202713,999.99725, , , , 
2026-03-20 18:06:04.458,0.6053841,3.6897326,10.147961,0.016111558,0.19769111,-0.16562071,-28.931252,-5.0625,-36.206253,0.16011481,0.13148217,0.7709882,999.99725, , , , 
2026-03-20 18:06:04.478,0.74177504,3.414558,9.676575,0.10957387,0.26610798,-0.1259145,-27.206251,-2.1750002,-34.0875,0.15784216,0.13378257,0.77034116,999.99384, , , , 
2026-03-20 18:06:04.498,0.29671,3.3667014,9.332008,0.21281002,0.18608469,-0.08804089,-29.175001,-3.9750001,-35.475002,0.15645973,0.13646714,0.7699325,999.99384, , , , 
2026-03-20 18:06:04.518,0.41635114,3.4193435,8.496913,0.2683987,0.00160352,-0.051999863,-26.343752,-3.9375002,-36.862503,0.1568665,0.13897604,0.76937234,999.9692, , , , 
2026-03-20 18:06:04.538,0.0047856453,3.333202,8.149954,0.24396412,0.043142326,0.0011453715,-27.431252,-3.3000002,-35.081253,0.15849876,0.14074752,0.7686853,999.9692, , , , 
2026-03-20 18:06:04.558,-0.4881358,3.4863427,8.683554,0.14439316,0.26244277,0.23510659,-27.431252,-3.3187501,-34.78125,0.15840295,0.14359875,0.7692569,999.9399, , , , 
2026-03-20 18:06:04.578,0.77766734,4.0151563,8.133204,0.098578304,0.14271328,0.35911214,-28.35,-4.275,-34.93125,0.15761468,0.14560856,0.7712533,999.9399, , , , 
2026-03-20 18:06:04.598,1.68694,4.240082,7.836494,-0.004657844,-0.08391755,0.17707443,-28.48125,-4.9125004,-35.34375,0.15811054,0.14603521,0.773035,999.8969, , , , 
2026-03-20 18:06:04.619,0.64606214,3.9696927,8.2049885,-0.10300707,-0.101632625,0.050625417,-29.737501,-4.03125,-36.506252,0.15905169,0.14494695,0.77362704,999.8969, , , , 
2026-03-20 18:06:04.638,-0.44745782,3.6514473,8.190632,-0.12133302,-0.14805835,0.19784383,-27.656252,-3.825,-36.412502,0.15930241,0.14342518,0.77408665,999.8444, , , , 
2026-03-20 18:06:04.658,0.6125626,3.7543387,7.7001033,-0.13965896,-0.26962045,0.31207556,-27.300001,-4.1625004,-35.8125,0.16013853,0.14117967,0.77540565,999.8444, , , , 
2026-03-20 18:06:04.679,1.4261223,4.24726,7.3172517,-0.37850708,-0.44493863,0.14836378,-29.325,-4.1062503,-36.693752,0.16162634,0.1375479,0.7767472,999.8117, , , , 
2026-03-20 18:06:04.699,1.68694,3.6179478,8.111669,-0.3229184,-0.7680861,-0.0410043,-30.2625,-3.6000001,-35.23125,0.16476494,0.12997742,0.7767672,999.8117, , , , 
2026-03-20 18:06:04.718,1.1246266,3.5198421,8.01117,-0.18608469,-1.0191516,-0.05016727,-27.056252,-3.0187502,-35.90625,0.16983348,0.12304158,0.77533215,999.8029, , , , 
2026-03-20 18:06:04.738,2.172683,3.546163,6.943971,-0.22579089,-1.2274565,-0.083764836,-29.6625,-2.6625001,-34.275,0.17519067,0.117344655,0.7739124,999.8029, , , , 
2026-03-20 18:06:04.758,1.3375878,3.8787656,7.9633136,-0.3345248,-1.1022291,-0.102090776,-30.675001,-3.2812502,-33.206253,0.18525587,0.10563766,0.7706821,999.8244, , , , 
2026-03-20 18:06:04.778,1.3734802,2.9120653,7.6259255,-0.28932083,-1.1071161,0.037797257,-32.5125,-2.98125,-32.86875,0.19125365,0.09731649,0.76874614,999.8244, , , , 
2026-03-20 18:06:04.798,2.158326,2.833102,6.6017976,-0.36690065,-1.2683843,0.0561232,-31.06875,-2.325,-33.375,0.1979943,0.08828582,0.7672067,999.8571, , , , 
2026-03-20 18:06:04.818,0.80159557,2.268396,7.314859,-0.41760245,-1.5108976,0.21678063,-33.506252,-2.0812502,-32.9625,0.20564193,0.07735677,0.76543385,999.8571, , , , 
2026-03-20 18:06:04.839,0.6963114,1.8496519,7.5756764,-0.20257804,-1.9055163,0.58757555,-33.975002,-2.025,-30.618752,0.21808055,0.06116418,0.7642616,999.8825, , , , 
2026-03-20 18:06:04.858,1.3974084,1.7443677,5.515456,0.047265664,-2.6538258,0.91927516,-34.162502,-0.69375,-29.118752,0.23420009,0.046036582,0.7637737,999.8825, , , , 
2026-03-20 18:06:04.878,2.981457,1.8041883,2.928815,-0.030314164,-2.6648211,1.0243438,-36.65625,-1.44375,-29.2875,0.24954838,0.0329491,0.7632771,999.8945, , , , 
2026-03-20 18:06:04.899,1.9166509,1.1174482,1.2179468,-0.49579313,-2.760116,1.0298417,-39.825,-1.5562501,-24.91875,0.27360755,0.008797331,0.76195407,999.8945, , , , 
2026-03-20 18:06:04.918,2.3904297,0.11246266,2.0051854,-0.69798934,-3.6354854,1.280907,-40.537502,0.84375006,-23.4375,0.29235002,-0.015318178,0.7600587,999.8703, , , , 
2026-03-20 18:06:04.938,3.8093736,-0.5599205,3.2973096,-0.5342776,-4.7808566,1.2839614,-43.7625,3.5625002,-16.3125,0.3176796,-0.04663071,0.7552526,999.8703, , , , 
2026-03-20 18:06:04.958,4.6061835,-1.1796615,2.3952155,-0.47502372,-5.0850673,1.3908627,-44.90625,3.1875002,-14.156251,0.34998494,-0.08199777,0.746342,999.8698, , , , 
2026-03-20 18:06:04.978,5.4556355,-1.8735801,1.2705889,-0.86353374,-4.5078,1.561294,-44.79375,7.0125003,-8.681251,0.38070378,-0.11834439,0.7362782,999.8698, , , , 
2026-03-20 18:06:05.000,4.867001,-3.0867412,2.6703901,-1.1677444,-4.313545,1.8758894,-46.3125,6.95625,-5.8875003,0.40475497,-0.15548927,0.7268828,999.86395, , , , 
2026-03-20 18:06:05.020,5.994021,-4.208975,4.7569313,-0.94966567,-4.1675487,2.3902376,-45.112503,9.13125,0.80625004,0.42985246,-0.20374544,0.7163025,999.86395, , , , 
2026-03-20 18:06:05.040,7.783852,-4.800002,3.385844,-0.76762795,-3.4949865,2.8502188,-46.21875,11.231251,4.8187504,0.44705266,-0.24073274,0.71029955,999.88837, , , , 
2026-03-20 18:06:05.058,10.918449,-4.0534415,1.4763715,-1.0174717,-2.7595053,2.8599925,-43.6875,13.81875,7.9687505,0.45745823,-0.27498373,0.7081236,999.88837, , , , 
2026-03-20 18:06:05.078,9.927821,-5.24746,1.7467605,-1.6680427,-2.1272602,2.8954227,-42.881252,15.88125,10.6875,0.46195298,-0.31671324,0.7049656,999.9008, , , , 
2026-03-20 18:06:05.098,9.760324,-6.5084777,4.5128636,-1.8067089,-1.8560363,3.0395868,-40.96875,17.94375,9.450001,0.45948783,-0.34257323,0.70333356,999.9008, , , , 
2026-03-20 18:06:05.118,9.994821,-7.0348988,5.2929235,-1.2850304,-1.6397902,3.363956,-39.768753,20.53125,13.200001,0.4509788,-0.38280734,0.70356697,999.89667, , , , 
2026-03-20 18:06:05.138,12.727424,-6.597012,2.2037897,-1.2856413,-1.66789,3.1721444,-36.0,23.38125,14.94375,0.44446027,-0.4122391,0.7042183,999.89667, , , , 
2026-03-20 18:06:05.158,10.593026,-7.54457,2.2420747,-1.5764129,-1.3887247,3.0542476,-35.081253,25.2,16.9125,0.4372087,-0.44093642,0.7025056,999.9135, , , , 
2026-03-20 18:06:05.178,11.540584,-8.985049,5.2929235,-1.5086069,-1.3520728,3.4280968,-32.643753,25.706251,17.7,0.4264515,-0.46990272,0.70068145,999.9135, , , , 
2026-03-20 18:06:05.198,15.503098,-8.556734,7.52782,-0.8952987,-1.4180462,3.3309693,-30.31875,28.031252,20.41875,0.4152099,-0.49683896,0.70000446,999.9299, , , , 
2026-03-20 18:06:05.218,15.357136,-7.690532,4.87418,-0.5306124,-1.0967313,2.9534547,-27.018751,30.712502,22.087502,0.40595427,-0.5175918,0.70074904,999.9299, , , , 
2026-03-20 18:06:05.238,13.641482,-7.539784,3.682554,-0.5831468,-0.81573355,2.7384305,-25.968752,32.325,22.35,0.39677018,-0.5343961,0.7017246,999.9753, , , , 
2026-03-20 18:06:05.258,13.4763775,-7.2693954,3.5940197,-0.63934636,-0.45287988,2.6602397,-23.15625,31.85625,23.306252,0.3858997,-0.5500042,0.702513,999.9753, , , , 
2026-03-20 18:06:05.278,13.749159,-6.649654,2.9623144,-0.6448441,-0.1523344,2.347477,-19.96875,32.943752,21.675001,0.3700284,-0.5671564,0.7038804,999.9982,37.88747887,127.7373781,178.75128173828125,0.0
2026-03-20 18:06:05.298,11.650654,-6.2380886,2.4646072,-0.7456368,0.17814344,2.1477242,-18.993752,33.525,22.78125,0.36010024,-0.57624984,0.70440006,999.9982, , , , 
2026-03-20 18:06:05.318,9.846465,-6.4343,1.5840486,-0.8274927,0.279547,2.103742,-18.618752,34.800003,24.675001,0.34172016,-0.5906557,0.705106,999.9921, , , , 
2026-03-20 18:06:05.338,9.868001,-6.6592255,1.5720844,-0.91851157,0.3296379,2.0976334,-14.531251,35.23125,21.75,0.3262384,-0.60250396,0.70491356,999.9921, , , , 
2026-03-20 18:06:05.358,9.205189,-6.7645097,1.7156538,-0.8690315,0.3333031,2.0017276,-17.118752,34.8375,22.96875,0.31071097,-0.6140567,0.7041779,999.9672, , , , 
2026-03-20 18:06:05.378,8.516056,-6.908079,0.9164511,-0.8916335,0.37545276,1.9614104,-15.50625,34.875,22.95,0.29921317,-0.62216824,0.7035563,999.9672, , , , 
2026-03-20 18:06:05.398,8.690732,-7.0205417,1.7108682,-1.043128,0.58559024,1.8294636,-12.20625,34.575,24.018751,0.27936324,-0.63592416,0.70148325,999.9401, , , , 
2026-03-20 18:06:05.417,7.972885,-7.539784,1.8664017,-1.007087,0.7602976,1.8154137,-11.34375,33.80625,24.281252,0.2623038,-0.6462567,0.69971657,999.9401, , , , 
2026-03-20 18:06:05.437,8.360522,-7.6259255,1.3974084,-0.99548054,0.6992111,1.7207297,-11.19375,34.6875,25.29375,0.24472286,-0.65590084,0.6980839,999.914, , , , 
2026-03-20 18:06:05.457,7.879565,-7.946564,1.4596218,-1.0217477,0.5300016,1.5985568,-10.63125,35.23125,25.518751,0.2286043,-0.66521394,0.69562274,999.914, , , , 
2026-03-20 18:06:05.477,7.3340015,-8.458628,2.2779672,-0.8733076,0.15431972,1.5674027,-8.8125,34.162502,26.00625,0.21139245,-0.6764367,0.69165725,999.9052, , , , 
2026-03-20 18:06:05.497,9.107083,-8.360522,3.3810585,-0.56421,-0.102854356,1.3255002,-5.49375,33.037502,24.16875,0.20082602,-0.68383175,0.6890364,999.9052, , , , 
2026-03-20 18:06:05.517,8.472985,-8.360522,3.103491,-0.124998204,0.11827869,0.987692,-4.9125004,33.9375,26.531252,0.19348331,-0.6877176,0.6884443,999.8979, , , , 
2026-03-20 18:06:05.537,7.812566,-8.370093,1.7228323,0.08391755,0.4890736,0.8661299,-5.4750004,34.0125,26.437502,0.18576625,-0.6885303,0.6903654,999.8979, , , , 
2026-03-20 18:06:05.557,6.975078,-7.7814593,1.7635103,0.42111492,0.5568796,0.66820973,-4.425,33.375,25.125002,0.17834774,-0.6875384,0.6935981,999.8874, , , , 
2026-03-20 18:06:05.577,7.4679995,-8.281559,0.5024927,0.47914705,0.302149,0.49472412,-3.3000002,34.5,24.31875,0.17226347,-0.68466926,0.69815737,999.8874, , , , 
2026-03-20 18:06:05.598,6.599405,-7.9680996,-0.076570325,0.42539096,0.30825764,0.2607629,-3.6000001,34.4625,24.35625,0.16849162,-0.6816833,0.7021326,999.8774, , , , 
2026-03-20 18:06:05.618,5.9174504,-8.2456665,-0.7585248,0.30199626,0.091400646,0.12698352,-1.3875,35.831253,22.650002,0.16577995,-0.6784232,0.70591193,999.8774, , , , 
2026-03-20 18:06:05.637,4.8789654,-8.575876,-0.42592242,0.10102176,0.0938441,0.07261655,-2.23125,34.612503,23.587502,0.16510154,-0.67714554,0.7072865,999.8742, , , , 
2026-03-20 18:06:05.657,3.8835511,-8.539984,-0.05742774,-0.027870705,0.08590286,0.1465312,-1.10625,35.737503,21.69375,0.16443881,-0.67704916,0.70759094,999.8742, , , , 
2026-03-20 18:06:05.677,4.369294,-8.563912,0.6221339,-0.01687514,0.18119776,0.20334162,-1.3312501,36.206253,23.7,0.1620426,-0.67743665,0.7077727,999.8725, , , , 
2026-03-20 18:06:05.698,3.845266,-8.973084,0.5766702,0.11384992,-0.11995857,0.20211989,-4.05,34.425003,24.862501,0.1604258,-0.6773221,0.70838547,999.8725, , , , 
2026-03-20 18:06:05.717,4.046263,-8.319844,0.64606214,0.19448407,-0.26473352,0.25587597,-3.43125,35.11875,22.59375,0.16027327,-0.676847,0.709338,999.8776, , , , 
2026-03-20 18:06:05.738,5.2426744,-8.46102,-0.0047856453,0.2286925,-0.33925903,0.07689261,-1.66875,35.175003,22.875,0.16125529,-0.6759524,0.7105289,999.8776, , , , 
2026-03-20 18:06:05.759,3.8380876,-8.721839,-0.715454,0.11018474,-0.2543488,-0.07276927,-4.05,35.175003,24.206251,0.16445681,-0.67475516,0.71133,999.8891, , , , 
2026-03-20 18:06:05.777,3.4767714,-8.595019,-0.72502524,-0.028481571,-0.20059273,0.007864884,-0.975,36.375,21.956251,0.1662739,-0.6748079,0.7110401,999.8891, , , , 
2026-03-20 18:06:05.797,3.6921253,-8.508878,-0.13399807,-0.09506583,-0.2946659,0.046349365,-3.1125002,36.131252,24.056252,0.1677223,-0.67574155,0.7100643,999.89716, , , , 
2026-03-20 18:06:05.817,4.2568316,-8.34138,0.3589234,-0.07429643,-0.2787834,0.012140937,-3.0375001,35.662502,22.837502,0.16955586,-0.67676747,0.70894605,999.89716, , , , 
2026-03-20 18:06:05.837,5.2498527,-8.274381,0.17467605,-0.05780308,-0.0045051277,-0.088651754,-2.90625,34.18125,23.362501,0.17093396,-0.6772866,0.7082276,999.9089, , , , 
2026-03-20 18:06:05.858,6.4606214,-8.336594,-0.45942193,-0.106672265,0.041920595,-0.349491,-0.8625,36.487503,24.712502,0.17203511,-0.6773922,0.7075956,999.9089, , , , 
2026-03-20 18:06:05.877,6.2213387,-7.8484583,-0.782453,-0.22334744,-0.22747077,-0.5938369,-3.3000002,34.5,24.018751,0.17534055,-0.6776979,0.7059581,999.9272, , , , 
2026-03-20 18:06:05.898,5.704489,-7.479964,-0.23928227,-0.34674212,-0.497473,-0.7465531,-2.71875,36.675003,25.06875,0.18396224,-0.67913705,0.7017512,999.9272, , , , 
2026-03-20 18:06:05.917,5.8480587,-7.3196445,0.7968099,-0.32536185,-0.50846857,-0.7251729,-3.825,35.550003,25.087502,0.1923148,-0.68060523,0.6976494,999.9416, , , , 
2026-03-20 18:06:05.938,6.2715883,-7.219146,1.0193424,-0.2031889,-0.5023599,-0.6133846,-3.0,33.787502,24.487501,0.20000637,-0.6814031,0.6943086,999.9416, , , , 
2026-03-20 18:06:05.957,7.6019974,-7.192825,1.5433706,-0.12560907,-0.646524,-0.59200436,-3.0375001,35.025,24.112501,0.20787156,-0.6816722,0.6915158,999.9821, , , , 
2026-03-20 18:06:05.977,9.016156,-7.125826,3.0149565,0.10651954,-0.9275218,-0.60177815,-2.3812501,33.975002,24.712502,0.21721919,-0.68115133,0.6891758,999.9821, , , , 
2026-03-20 18:06:05.997,10.693524,-6.6448684,3.548556,0.50541425,-1.0741293,-0.68363404,-4.6125,32.475002,26.268751,0.22855935,-0.6786027,0.6883043,1000.0185, , , , 
2026-03-20 18:06:06.018,12.136396,-6.216553,2.2995026,0.7906881,-1.0386992,-0.887052,-5.175,34.78125,26.5125,0.24191266,-0.673122,0.6894839,1000.0185, , , , 
2026-03-20 18:06:06.038,12.1459675,-5.9150577,1.1796615,0.75342536,-0.7424298,-1.2511275,-5.2125,33.675003,24.2625,0.26063654,-0.66369224,0.6917277,1000.049, , , , 
2026-03-20 18:06:06.058,12.260823,-6.1495543,1.3471591,0.6868411,-0.5512291,-1.5669445,-2.86875,35.175003,23.625,0.2753249,-0.65531117,0.6931757,1000.049, , , , 
2026-03-20 18:06:06.078,11.952149,-6.788438,1.7204394,0.68745196,-0.5860484,-1.7954079,-4.8187504,35.475002,22.25625,0.2911111,-0.64620394,0.69398785,1000.0644, , , , 
2026-03-20 18:06:06.098,11.638689,-7.1282187,1.698904,0.7314342,-0.6709586,-1.8772638,-5.8125,35.737503,23.118752,0.3082229,-0.63629717,0.69434506,1000.0644, , , , 
2026-03-20 18:06:06.117,12.165111,-7.298109,2.0841484,0.70516706,-0.57260936,-2.0269258,-5.9625,34.875,21.806252,0.32581303,-0.6258486,0.69428784,1000.08075, , , , 
2026-03-20 18:06:06.138,12.009577,-7.7096744,1.9405792,0.67156947,-0.38812822,-2.2169046,-5.9812503,36.225002,22.03125,0.34317085,-0.6144843,0.6940349,1000.08075, , , , 
2026-03-20 18:06:06.157,11.684153,-7.9393854,1.3686945,0.56894416,-0.21219915,-2.2370632,-8.400001,33.6375,20.41875,0.36000943,-0.60259944,0.6933463,1000.1027, , , , 
2026-03-20 18:06:06.177,12.748959,-7.4847493,0.86859465,0.4125628,0.1598175,-2.3170865,-9.5625,34.3875,20.19375,0.3748437,-0.5908776,0.69237554,1000.1027, , , , 
2026-03-20 18:06:06.197,12.514462,-7.288538,0.94277215,0.10407609,0.62346387,-2.6286275,-10.70625,33.881252,22.050001,0.39009875,-0.575933,0.6905368,1000.1137, , , , 
2026-03-20 18:06:06.218,11.100305,-7.8221374,2.1942184,-0.013209951,0.79756033,-2.865643,-12.69375,31.95,20.6625,0.40029702,-0.563522,0.6880389,1000.1137, , , , 
2026-03-20 18:06:06.238,10.205389,-7.8053875,2.9479575,0.18776456,0.65461797,-2.8766387,-16.29375,30.825,21.112501,0.41088542,-0.5499785,0.68508494,1000.13007, , , , 
2026-03-20 18:06:06.258,10.124033,-7.628319,3.0125637,0.46509716,0.36262462,-2.974377,-16.5,29.587502,18.2625,0.4229677,-0.53472286,0.6821191,1000.13007, , , , 
2026-03-20 18:06:06.277,9.389436,-7.676175,2.1080768,0.7106648,0.07002038,-3.0537894,-22.0125,27.88125,20.79375,0.43774852,-0.51772696,0.67850393,1000.1447,37.88747571,127.73739262,180.04754638671875,0.0
2026-03-20 18:06:06.297,9.267402,-7.635497,0.9810573,0.79679674,-0.13950625,-3.1264822,-22.44375,26.98125,18.73125,0.45451462,-0.499783,0.6739091,1000.1447, , , , 
2026-03-20 18:06:06.317,8.525627,-7.3579297,0.23928227,0.70089096,-0.3191005,-3.1576364,-24.6375,25.518751,18.112501,0.47253895,-0.48171148,0.66766036,1000.1445, , , , 
2026-03-20 18:06:06.337,7.3579297,-7.233503,0.40917268,0.46876237,-0.028939718,-3.0250788,-28.518751,22.3875,19.1625,0.49417308,-0.46032575,0.6578082,1000.1445, , , , 
2026-03-20 18:06:06.357,5.8767724,-6.769295,0.94755775,0.5628355,-0.11018474,-2.8179955,-28.800001,22.575,21.0375,0.50839245,-0.44369495,0.6505141,1000.1237, , , , 
2026-03-20 18:06:06.378,5.005785,-6.1447687,0.07178468,0.66484994,-0.2757291,-2.4924047,-30.562502,21.7875,21.112501,0.52249277,-0.4277709,0.64346176,1000.1237, , , , 
2026-03-20 18:06:06.398,5.022535,-5.2570314,-0.9954142,0.58665925,-0.3447568,-2.2572217,-30.825,18.900002,19.143751,0.53598535,-0.4134305,0.63645786,1000.1005, , , , 
2026-03-20 18:06:06.418,2.8426733,-4.8789654,-1.1892328,0.36430448,-0.030161448,-1.8461097,-31.3875,17.71875,21.431252,0.54751414,-0.40092492,0.62958926,1000.1005, , , , 
2026-03-20 18:06:06.438,2.914458,-5.048856,-0.9954142,0.2824486,0.10117448,-1.3959024,-32.100002,16.050001,17.4375,0.5547104,-0.39053854,0.62508196,1000.06635, , , , 
2026-03-20 18:06:06.458,2.2037897,-4.9363933,-1.0887343,0.22502731,0.2154062,-0.8540653,-35.90625,15.750001,22.0125,0.5592187,-0.38261545,0.62246543,1000.06635, , , , 
2026-03-20 18:06:06.478,1.3423735,-5.1876397,-1.5553347,0.19142975,0.211741,-0.3097848,-35.04375,17.081251,22.3125,0.56096554,-0.3775332,0.6221913,1000.0429, , , , 
2026-03-20 18:06:06.498,1.3208381,-5.2307105,-2.1128623,0.07475458,-0.010613776,0.39332056,-33.393753,15.01875,20.868752,0.56069386,-0.37644914,0.62389547,1000.0429, , , , 
2026-03-20 18:06:06.519,1.727618,-5.532206,-2.7182465,-0.09750929,-0.15538873,0.8331432,-33.375,15.7875,19.893751,0.55897003,-0.38055077,0.6259154,1000.0202, , , , 
2026-03-20 18:06:06.538,1.9621146,-5.869594,-2.629712,-0.3522399,-0.31360272,1.3242785,-32.25,17.00625,20.475,0.5556201,-0.3894125,0.62791085,1000.0202, , , , 
2026-03-20 18:06:06.558,2.5316064,-5.953343,-0.9954142,-0.50617784,-0.3814087,1.8997132,-32.737503,16.837502,21.0,0.5484261,-0.40638602,0.6307744,1000.0063, , , , 
2026-03-20 18:06:06.578,3.5533416,-6.7932234,-1.2131611,-0.528169,-0.3502546,2.206978,-32.8125,17.94375,21.712502,0.5424436,-0.4183475,0.6334183,1000.0063, , , , 
2026-03-20 18:06:06.598,3.9960139,-7.984849,-1.6414764,-0.6289616,-0.4455495,2.5179083,-30.187502,18.581251,21.2625,0.53283143,-0.43595496,0.63748187,1000.0085, , , , 
2026-03-20 18:06:06.618,4.735396,-8.075776,-0.8063812,-0.70043284,-0.66301733,2.8777077,-28.500002,21.975,22.275002,0.5192487,-0.4615854,0.64166534,1000.0085, , , , 
2026-03-20 18:06:06.638,6.068198,-8.348558,0.08135597,-0.6491202,-0.73448855,3.101895,-29.643751,21.46875,23.962502,0.50734085,-0.48368463,0.6445284,1000.01605, , , , 
2026-03-20 18:06:06.659,7.1712894,-9.176475,0.2943172,-0.5257255,-0.76197743,3.2130723,-27.825,23.2875,23.831251,0.49448383,-0.5054737,0.6475876,1000.01605, , , , 
2026-03-20 18:06:06.679,7.6809607,-10.7126665,0.4354937,-0.37362018,-0.8377247,3.2704937,-24.993752,26.550001,25.35,0.4813545,-0.5263244,0.65055317,1000.03314, , , , 
2026-03-20 18:06:06.698,7.8460655,-11.662618,0.7322037,-0.15004367,-0.9702823,3.4018295,-21.6,27.393751,25.725,0.46819577,-0.5460667,0.6534434,1000.03314, , , , 
2026-03-20 18:06:06.718,8.276773,-12.2584305,0.49052864,0.12728895,-1.0252602,3.6046367,-18.768751,29.04375,25.0125,0.45491514,-0.5644307,0.65673333,1000.05634, , , , 
2026-03-20 18:06:06.738,9.176475,-12.612568,-0.2416751,0.29649848,-0.976391,3.7488008,-17.98125,30.000002,24.88125,0.44078723,-0.5812567,0.66066784,1000.05634, , , , 
2026-03-20 18:06:06.758,10.372886,-11.952149,-0.62931234,0.30260715,-0.772973,3.711538,-14.45625,31.368752,23.5125,0.42125347,-0.6002841,0.6656612,1000.0661, , , , 
2026-03-20 18:06:06.779,10.250853,-11.246266,0.08135597,0.24457498,-0.5029708,3.5655413,-12.993751,33.112503,27.112501,0.40431124,-0.6138336,0.6691229,1000.0661, , , , 
2026-03-20 18:06:06.799,10.291531,-10.502099,0.61734825,0.29038984,-0.23296855,3.4213772,-10.012501,32.568752,25.29375,0.38596934,-0.62563014,0.67275095,1000.0756, , , , 
2026-03-20 18:06:06.819,9.932607,-9.760324,0.22253251,0.32704175,0.07918335,3.2173483,-4.18125,36.018753,25.556252,0.3667906,-0.6353934,0.67680776,1000.0756, , , , 
2026-03-20 18:06:06.839,9.810573,-9.224331,-0.44027936,0.1871537,0.545884,3.0945647,-2.34375,37.0875,24.225,0.3461686,-0.643933,0.68107563,1000.0839, , , , 
2026-03-20 18:06:06.858,9.839287,-8.724232,-0.55513483,-0.045585785,0.9380592,2.9070292,-2.2875001,37.331253,24.675001,0.32315296,-0.65246737,0.68499225,1000.0839, , , , 
2026-03-20 18:06:06.878,9.652647,-8.73141,0.0047856453,-0.22701262,0.9881501,2.677955,1.5187501,36.487503,23.081251,0.29931113,-0.6612029,0.6877693,1000.0844, , , , 
2026-03-20 18:06:06.899,9.363115,-8.642876,0.7369894,-0.23800819,0.8500947,2.4091744,3.3937502,38.775,25.687502,0.27182123,-0.6713819,0.6894597,1000.0844, , , , 
2026-03-20 18:06:06.919,8.595019,-8.4012,0.485743,-0.26488623,0.8910226,2.2546256,4.59375,37.40625,25.331251,-0.25162455,0.6784089,-0.6902246,1000.0844, , , , 
2026-03-20 18:06:06.938,8.623733,-8.059027,0.5838487,-0.33819002,1.043128,2.1697154,4.275,37.256252,25.5375,-0.23143631,0.6851857,-0.6905012,1000.0844, , , , 
2026-03-20 18:06:06.959,8.762517,-7.6953177,1.2323036,-0.3491856,1.1726313,2.0322707,4.5375004,37.143753,26.118752,-0.21085498,0.69175106,-0.6904432,1000.0866, , , , 
2026-03-20 18:06:06.979,8.941978,-7.4105716,1.5218352,-0.19219333,1.0058652,1.8648938,6.3750005,36.206253,27.075,-0.19102217,0.697231,-0.6906033,1000.0866, , , , 
2026-03-20 18:06:06.998,9.470792,-7.2526455,0.7298109,0.005726857,0.713261,1.6920191,7.1250005,37.55625,24.45,-0.17371482,0.70086795,-0.6913484,1000.092, , , , 
2026-03-20 18:06:07.019,9.877572,-7.123433,-0.32063824,0.042378742,0.62407476,1.5338051,8.175,37.893753,26.94375,-0.15933672,0.7030773,-0.6923698,1000.092, , , , 
2026-03-20 18:06:07.038,10.71506,-6.597012,-0.8805587,-0.03092503,0.8067233,1.3542109,7.65,36.09375,28.0125,-0.14604998,0.7050646,-0.6931118,1000.0998, , , , 
2026-03-20 18:06:07.060,11.674582,-6.3481584,-1.4045869,-0.14026983,0.90812683,1.023733,9.825001,35.831253,26.118752,-0.1330968,0.70729244,-0.693425,1000.0998, , , , 
2026-03-20 18:06:07.078,12.4426775,-7.1138616,-1.4452649,-0.19036074,0.63201594,0.68653566,10.425,35.8875,26.343752,-0.1204523,0.710265,-0.6928198,1000.0832, , , , 
2026-03-20 18:06:07.098,13.172488,-7.542177,-1.3543376,-0.19463679,0.23006694,0.33651012,11.4375,37.125,24.018751,-0.11557203,0.71218073,-0.69178045,1000.0832, , , , 
2026-03-20 18:06:07.118,13.490734,-8.23131,-0.9619147,-0.21784966,-0.0570395,-0.02328922,8.26875,36.15,27.487501,-0.11563107,0.7136319,-0.6903663,1000.0715, , , , 
2026-03-20 18:06:07.138,13.878371,-8.896515,-0.3469593,-0.18425208,-0.35269806,-0.38736463,11.512501,34.7625,25.837502,-0.11982251,0.7145532,-0.6887998,1000.0715, , , , 
2026-03-20 18:06:07.158,14.301901,-8.958728,0.5240282,-0.09873102,-0.65324354,-0.7135664,10.06875,34.10625,26.175001,-0.12799609,0.7145708,-0.68740934,1000.07806, , , , 
2026-03-20 18:06:07.178,15.012569,-8.879765,1.5409778,0.077198036,-1.0551926,-1.202869,9.50625,34.818752,23.8875,-0.14090703,0.7130557,-0.68654656,1000.07806, , , , 
2026-03-20 18:06:07.198,14.577076,-8.616554,1.9142581,0.2946659,-1.2531128,-1.8974223,7.7625003,33.506252,25.5375,-0.16550222,0.70766276,-0.68675965,1000.0881, , , , 
2026-03-20 18:06:07.218,13.239488,-9.260223,1.6151553,0.32276568,-0.9238566,-2.4435356,5.90625,35.4,28.406252,-0.18924166,0.70089495,-0.68768245,1000.0881, , , , 
2026-03-20 18:06:07.238,11.650654,-10.691132,1.6821543,0.32520914,-0.49502954,-2.8418193,7.6875005,36.73125,25.2,0.21305595,-0.69288486,0.68879646,1000.1098, , , , 
2026-03-20 18:06:07.258,10.202995,-11.531013,1.1940185,0.36858055,-0.25618142,-3.1020477,3.7500002,36.825,25.462502,0.2360807,-0.6835136,0.6901911,1000.1098, , , , 
2026-03-20 18:06:07.278,10.090533,-11.846865,0.74895346,0.35514152,-0.29649848,-3.304244,2.625,36.3375,25.593752,0.25918135,-0.6730516,0.6911548,1000.1237,37.88747571,127.73739262,180.04754638671875,0.0
2026-03-20 18:06:07.298,10.427921,-12.57189,0.35413775,0.21036656,-0.60193086,-3.6286132,0.69375,36.787502,23.306252,0.28407916,-0.66181874,0.6905765,1000.1237, , , , 
2026-03-20 18:06:07.318,10.363315,-13.378271,1.1006985,0.09552398,-0.8841504,-3.9193847,-0.20625001,35.30625,24.562502,0.31230623,-0.65015465,0.6872072,1000.1203, , , , 
2026-03-20 18:06:07.338,9.537791,-13.7324095,1.6534405,0.049709123,-0.97700185,-4.1460156,-4.4625,36.0,24.50625,0.35132465,-0.6341277,0.67959756,1000.1203, , , , 
2026-03-20 18:06:07.358,8.71466,-13.708481,1.2059826,-0.0297033,-0.55550516,-4.1826677,-6.4125004,34.425003,25.725,0.38163874,-0.61993,0.67235625,1000.1171, , , , 
2026-03-20 18:06:07.378,8.01117,-13.69891,0.11006984,-0.22456917,0.33208138,-4.012847,-10.25625,33.525,25.575,0.40650606,-0.6051556,0.66571754,1000.1171, , , , 
2026-03-20 18:06:07.398,8.693125,-13.473985,-0.08853444,-0.50923216,1.3180171,-3.7837727,-12.656251,32.53125,26.343752,0.4230815,-0.59069586,0.6606003,1000.122, , , , 
2026-03-20 18:06:07.417,8.405986,-13.373486,3.3044882,-0.39438957,1.4218642,-3.7685013,-15.825001,31.968752,24.843752,0.43320668,-0.5758246,0.65677905,1000.122, , , , 
2026-03-20 18:06:07.438,9.150154,-13.636696,1.8041883,0.1834885,1.079169,-3.8301985,-17.4375,29.175001,25.650002,0.44364482,-0.5578411,0.6541552,1000.1152, , , , 
2026-03-20 18:06:07.458,7.7814593,-12.859029,1.7156538,0.52618366,0.528169,-4.021399,-20.0625,26.812502,22.96875,0.45851433,-0.53721756,0.65029764,1000.1152, , , , 
2026-03-20 18:06:07.478,5.4867425,-12.208181,1.2490535,0.7546471,0.15248711,-4.026897,-21.337502,26.19375,21.900002,0.481906,-0.5089573,0.6431487,1000.1064, , , , 
2026-03-20 18:06:07.498,4.4458647,-11.58844,0.30149564,0.8933134,-0.1107956,-3.8888416,-24.562502,24.243752,24.0375,0.50222456,-0.485865,0.63600886,1000.1064, , , , 
2026-03-20 18:06:07.518,2.6153553,-10.578669,-1.174876,0.8248965,-0.19448407,-3.6133416,-26.8875,22.7625,23.2875,0.5224397,-0.46338046,0.6278836,1000.0942, , , , 
2026-03-20 18:06:07.538,1.0456635,-9.590433,-1.5170496,0.5793289,-0.0900262,-3.1619124,-30.000002,19.81875,25.181252,0.540128,-0.44329476,0.6192815,1000.0942, , , , 
2026-03-20 18:06:07.558,0.3182454,-8.843872,-1.3136597,0.3502546,0.108504854,-2.5730388,-31.237501,17.325,24.993752,0.55349964,-0.42624447,0.6116303,1000.0712, , , , 
2026-03-20 18:06:07.579,0.3278167,-8.054241,-1.2323036,0.267177,0.13660464,-2.0513604,-30.525002,16.40625,23.737501,0.5650615,-0.40889364,0.6042131,1000.0712, , , , 
2026-03-20 18:06:07.598,0.083748795,-7.8293157,-1.564906,0.21219915,0.077961616,-1.709276,-33.675003,16.087502,24.393751,0.5705204,-0.40038157,0.60048413,1000.0495, , , , 
2026-03-20 18:06:07.618,-0.41874397,-8.085348,-1.7706888,0.13645191,-0.06864593,-1.190041,-31.9125,13.9125,23.550001,0.5778311,-0.3899424,0.5950648,1000.0495, , , , 
2026-03-20 18:06:07.638,-1.2059826,-8.346166,-1.605584,0.11995857,-0.22258386,-0.6011673,-32.1375,12.656251,21.7875,0.5821517,-0.38572446,0.59175557,1000.03534, , , , 
2026-03-20 18:06:07.658,-1.2346965,-8.889337,-2.158326,0.14744748,-0.36247188,0.08544471,-32.60625,13.968751,22.706251,0.58495563,-0.38565785,0.59015447,1000.03534, , , , 
2026-03-20 18:06:07.678,-1.2753744,-9.236296,-3.3403804,0.010613776,-0.4486038,0.8563561,-30.7875,14.26875,22.95,0.58572644,-0.39042905,0.59046835,1000.03485, , , , 
2026-03-20 18:06:07.698,0.44506502,-9.245867,-3.522235,-0.37178758,-0.34048074,1.6920191,-32.006252,13.51875,24.975,0.5828245,-0.40115896,0.5925463,1000.03485, , , , 
2026-03-20 18:06:07.718,1.6749759,-8.927621,-2.4119651,-0.7370847,-0.013057235,2.2668428,-30.88125,15.375001,23.6625,0.5746454,-0.41700205,0.5965672,1000.02606, , , , 
2026-03-20 18:06:07.738,3.0293136,-8.882157,-0.5623133,-0.9069051,0.3174206,2.6694028,-31.406252,17.19375,24.54375,0.56070596,-0.43589112,0.60295033,1000.02606, , , , 
2026-03-20 18:06:07.758,3.804588,-9.609575,0.60059845,-0.7199805,0.2410625,2.9455137,-29.362501,20.00625,24.16875,0.538471,-0.46055683,0.6135564,1000.0195, , , , 
2026-03-20 18:06:07.779,3.9433718,-10.499705,0.21296121,-0.39622217,-0.22380558,3.2002442,-29.212502,18.65625,24.69375,0.52134585,-0.48042175,0.62222,1000.0195, , , , 
2026-03-20 18:06:07.799,4.436293,-11.722438,-0.8925229,-0.19341506,-0.66973686,3.5380526,-26.56875,20.79375,23.831251,0.50618786,-0.50120366,0.6299105,1000.0312, , , , 
2026-03-20 18:06:07.819,5.5274205,-12.815958,-1.1509477,-0.14515674,-0.94035,3.96016,-23.962502,24.4125,25.368752,0.4912436,-0.52354276,0.6365132,1000.0312, , , , 
2026-03-20 18:06:07.838,6.9344,-13.19881,-0.37328035,-0.046807513,-1.0460296,4.258873,-23.118752,26.362501,25.63125,0.47495618,-0.5468534,0.6423641,1000.04706, , , , 
2026-03-20 18:06:07.858,8.252846,-13.268202,0.22253251,0.19204062,-1.0906227,4.416476,-20.681252,27.6,25.9125,0.4573393,-0.56928796,0.64806455,1000.04706, , , , 
2026-03-20 18:06:07.878,9.296116,-13.351951,-0.0071784677,0.45165816,-1.112003,4.4335804,-16.275002,29.906252,26.868752,0.43913,-0.5891993,0.65393054,1000.05536, , , , 
2026-03-20 18:06:07.898,9.817751,-13.330415,-0.8853444,0.56894416,-0.8933134,4.3871546,-10.51875,31.612501,27.243752,0.41581583,-0.61010736,0.66104716,1000.05536, , , , 
2026-03-20 18:06:07.919,10.765309,-12.878172,-1.4811572,0.44432777,-0.35575238,4.337064,-8.775001,33.787502,27.712502,0.39449072,-0.6246478,0.6666013,1000.06635, , , , 
2026-03-20 18:06:07.938,12.047862,-11.964113,-1.3136597,0.3276526,0.055970486,4.232606,-6.3375,34.800003,26.00625,0.36996543,-0.6380714,0.6717588,1000.06635, , , , 
2026-03-20 18:06:07.959,12.725031,-11.179267,-2.4741786,0.029550584,0.5965858,3.8941865,0.3,36.131252,21.525002,0.3433211,-0.65031403,0.67625576,1000.07074, , , , 
2026-03-20 18:06:07.978,12.224931,-10.832308,-2.2971098,-0.38644832,0.9215659,3.6070802,-0.09375,33.7125,24.806252,0.3154302,-0.6626724,0.6787926,1000.07074, , , , 
2026-03-20 18:06:07.999,12.090933,-10.353744,-1.4668003,-0.76396275,1.101771,3.2802675,1.3312501,35.081253,25.800001,0.28005472,-0.67914116,0.67843467,1000.0583, , , , 
2026-03-20 18:06:08.019,11.478371,-9.9756775,-0.4211368,-0.95149827,1.1188751,2.9748352,2.5500002,35.325,26.1375,-0.25304016,0.6923985,-0.6756868,1000.0583, , , , 
2026-03-20 18:06:08.039,10.750952,-9.853643,0.4881358,-1.0419062,1.2111158,2.7958517,3.7875001,33.581253,27.487501,-0.22708175,0.70515364,-0.6716533,1000.0544, , , , 
2026-03-20 18:06:08.058,10.578669,-9.631111,1.3806586,-0.9417244,1.2160027,2.686507,4.96875,33.581253,26.75625,-0.20141192,0.71684724,-0.6673523,1000.0544, , , , 
2026-03-20 18:06:08.079,10.906486,-9.0233345,1.6247265,-0.6992111,1.079169,2.5967097,4.96875,32.943752,28.0125,-0.17661251,0.72661173,-0.6636622,1000.06244, , , , 
2026-03-20 18:06:08.099,12.007184,-8.233703,1.1988041,-0.45303258,0.9398918,2.5264604,8.0625,31.5375,27.468752,-0.15320103,0.73417246,-0.6609341,1000.06244, , , , 
2026-03-20 18:06:08.119,14.017155,-7.944171,0.30867413,-0.24228424,0.7163153,2.334038,9.9375,32.2125,28.612501,-0.13150325,0.73958164,-0.65927756,1000.0776, , , , 
2026-03-20 18:06:08.139,16.398014,-7.058827,-0.34217364,-0.09995275,0.26794055,1.8679482,9.825001,30.206251,29.212502,-0.11014478,0.7437501,-0.6580212,1000.0776, , , , 
2026-03-20 18:06:08.159,17.44607,-6.62094,-0.5096712,-0.11827869,-0.024663666,1.2302053,10.425,31.7625,29.062502,-0.1001965,0.74562347,-0.6571059,1000.0798, , , , 
2026-03-20 18:06:08.179,17.702103,-7.2909307,0.5814559,-0.074907295,-0.20364705,0.6321687,12.20625,30.45,28.95,-0.09637628,0.746781,-0.6561338,1000.0798, , , , 
2026-03-20 18:06:08.198,18.69273,-7.149754,1.550549,0.2079231,-0.44127345,-0.011071924,13.087501,31.9125,28.931252,-0.09784457,0.746213,-0.6564827,1000.07245, , , , 
2026-03-20 18:06:08.219,19.326828,-6.317052,1.820938,0.40523243,-0.5408444,-0.73739016,11.493751,31.368752,30.50625,-0.1051439,0.7431404,-0.6589693,1000.07245, , , , 
2026-03-20 18:06:08.239,17.934206,-6.6735826,1.7252251,0.56894416,-0.5738311,-1.75448,12.3,32.4375,29.906252,-0.119538635,0.73765504,-0.6631474,1000.0798, , , , 
2026-03-20 18:06:08.258,15.034104,-8.925228,1.3495519,0.65263265,-0.57138765,-2.6365688,9.28125,32.756252,30.206251,-0.14027154,0.7300324,-0.6681802,1000.0798, , , , 
2026-03-20 18:06:08.279,13.399807,-11.095519,1.2801601,0.73571026,-0.659963,-3.0831108,10.6125,34.03125,27.825,-0.16526225,0.72058946,-0.67322,1000.08514,37.88747571,127.73739262,180.04754638671875,0.0
2026-03-20 18:06:08.299,12.940385,-12.732209,0.8255238,0.7491493,-0.7528145,-3.4862816,7.2937503,33.5625,27.581251,0.20051916,-0.7063019,0.6788845,1000.08514, , , , 
2026-03-20 18:06:08.318,12.559926,-13.58884,0.5312066,0.6459131,-0.7210495,-3.800877,6.525,34.21875,29.325,0.2233737,-0.696793,0.6812847,1000.0839, , , , 
2026-03-20 18:06:08.338,11.827723,-14.237295,0.9595219,0.44127345,-0.6000983,-4.1405177,1.1437501,35.68125,27.187502,0.26287094,-0.68013656,0.68267536,1000.0839, , , , 
2026-03-20 18:06:08.358,11.330015,-14.524433,2.0458634,0.37041312,-0.5451205,-4.39647,-0.20625001,37.03125,27.393751,0.29486185,-0.6657959,0.681646,1000.08685, , , , 
2026-03-20 18:06:08.378,11.023734,-14.924035,2.7613173,0.416228,-0.5805506,-4.6982374,-3.3750002,34.96875,26.00625,0.32750374,-0.64947796,0.6793321,1000.08685, , , , 
2026-03-20 18:06:08.398,9.475577,-15.469599,3.0532417,0.54023355,-0.61842424,-4.9181485,-6.1875005,36.300003,26.531252,0.3613558,-0.6305261,0.6757854,1000.0986, , , , 
2026-03-20 18:06:08.418,7.4129643,-15.292529,2.4765713,0.74792755,-0.70333445,-4.818578,-9.993751,35.662502,26.6625,0.39492318,-0.6090669,0.6716601,1000.0986, , , , 
2026-03-20 18:06:08.438,7.2670026,-14.218152,-0.1698904,0.6672934,-0.22747077,-4.459389,-10.575001,34.74375,24.91875,0.42606393,-0.58657676,0.6672793,1000.1069, , , , 
2026-03-20 18:06:08.458,7.692925,-13.16531,-1.0600204,0.27267477,0.58864456,-4.2407,-12.76875,34.03125,24.4125,0.45038885,-0.5649881,0.66314685,1000.1069, , , , 
2026-03-20 18:06:08.478,7.5828547,-12.782458,-0.124426775,0.027717989,0.7957277,-4.19855,-18.431252,32.831253,24.0,0.47189903,-0.53928244,0.65796596,1000.1025, , , , 
2026-03-20 18:06:08.498,6.518049,-12.593426,0.18424734,0.05215258,0.42737627,-4.197328,-19.35,30.2625,21.91875,0.4885018,-0.51882464,0.6517403,1000.1025, , , , 
2026-03-20 18:06:08.518,5.343173,-12.524034,0.3469593,0.10468695,0.12072215,-4.0971465,-22.462502,29.550001,23.98125,0.5063496,-0.49856812,0.64326346,1000.0964, , , , 
2026-03-20 18:06:08.538,3.9361932,-12.21536,0.47856453,0.24029893,-0.13400847,-3.922439,-24.6375,26.718752,23.60625,0.52465737,-0.47856447,0.6334532,1000.0964, , , , 
2026-03-20 18:06:08.558,2.0458634,-11.832508,-0.44745782,0.3691914,-0.36980227,-3.5675266,-28.1625,25.125002,22.518751,0.543125,-0.45900208,0.6230127,1000.0898, , , , 
2026-03-20 18:06:08.578,0.971486,-11.787045,-1.591227,0.28672466,-0.43455392,-3.0763915,-27.768751,23.53125,23.8125,0.5606036,-0.44131115,0.61235124,1000.0898, , , , 
2026-03-20 18:06:08.598,0.55513483,-11.162518,-1.7706888,0.14500403,-0.30077454,-2.5315,-31.050001,18.956251,24.712502,0.5751246,-0.42685345,0.6023167,1000.0905, , , , 
2026-03-20 18:06:08.618,-0.19142582,-10.514063,-2.2085752,0.003894263,0.067576915,-2.029369,-30.993752,19.96875,24.50625,0.5856056,-0.41517073,0.5942524,1000.0905, , , , 
2026-03-20 18:06:08.638,-1.3926228,-10.616954,-2.5866413,-0.16226095,0.5141191,-1.4044545,-32.287502,17.212502,25.10625,0.5915777,-0.40361303,0.5887903,1000.0783, , , , 
2026-03-20 18:06:08.658,-1.7491534,-11.428121,-3.089134,-0.2587776,0.4890736,-0.8125265,-34.331253,18.0,25.893751,0.591613,-0.39789918,0.5876802,1000.0783, , , , 
2026-03-20 18:06:08.678,-2.8091738,-11.045269,-3.1322048,-0.38583747,0.11400264,-0.075212725,-35.381252,15.656251,25.050001,0.58998275,-0.39733902,0.5872819,1000.0717, , , , 
2026-03-20 18:06:08.698,-1.5696917,-10.353744,-2.2995026,-0.5568796,-0.033826638,0.7946587,-34.48125,15.8625,26.493752,0.58658016,-0.40320507,0.58739793,1000.0717, , , , 
2026-03-20 18:06:08.718,-0.54317075,-9.911072,-1.5050855,-0.6460659,0.08773545,1.3969713,-35.475002,14.400001,24.206251,0.5798244,-0.4137074,0.5895677,1000.0683, , , , 
2026-03-20 18:06:08.738,0.8279166,-10.021141,-0.51445687,-0.5978075,0.08773545,1.8606178,-34.612503,16.59375,25.218752,0.5698306,-0.42701587,0.59408545,1000.0683, , , , 
2026-03-20 18:06:08.758,1.6821543,-10.758131,-0.28953153,-0.3748419,-0.18898629,2.3322053,-31.931252,16.0125,24.206251,0.55561876,-0.44628862,0.60167986,1000.0715, , , , 
2026-03-20 18:06:08.778,2.6512475,-11.452049,-0.701097,-0.14576761,-0.55489427,2.748815,-31.800001,18.018751,23.456251,0.5445955,-0.4637442,0.60828173,1000.0715, , , , 
2026-03-20 18:06:08.798,3.778267,-12.033505,-1.3280165,-0.021762058,-0.93057615,3.1263297,-31.800001,19.63125,24.91875,0.5342175,-0.48315063,0.6144659,1000.07, , , , 
2026-03-20 18:06:08.818,4.5559344,-12.244074,-1.3830515,0.01244637,-1.1058943,3.45864,-30.956251,20.962502,25.368752,0.5237555,-0.5043307,0.6197263,1000.07, , , , 
2026-03-20 18:06:08.838,5.304888,-12.064611,-0.8662018,0.01244637,-0.8963677,3.8196611,-25.650002,24.73125,26.1375,0.5111796,-0.52632487,0.6249962,1000.0673, , , , 
2026-03-20 18:06:08.858,5.7858453,-12.131611,-0.4833502,0.05215258,-0.6086504,4.1073785,-24.6,26.325,26.400002,0.49476567,-0.5480579,0.6314342,1000.0673, , , , 
2026-03-20 18:06:08.878,6.151947,-12.796816,-0.4642076,0.11995857,-0.5500074,4.3248463,-20.90625,28.06875,27.618752,0.4748754,-0.56914777,0.6387472,1000.06464, , , , 
2026-03-20 18:06:08.898,6.7573314,-13.622339,-0.9212367,0.26290092,-0.7741948,4.6137853,-17.23125,30.300001,28.031252,0.45327964,-0.58965015,0.64564383,1000.06464, , , , 
2026-03-20 18:06:08.918,8.336594,-13.694124,-1.7922242,0.33376125,-0.9507347,4.831864,-11.400001,30.675001,25.237501,0.42542747,-0.6143913,0.6522261,1000.05804, , , , 
2026-03-20 18:06:08.938,9.743574,-12.94517,-2.4071796,0.22563818,-0.7491493,4.9100547,-6.76875,34.143753,25.48125,0.40165555,-0.6331183,0.65567005,1000.05804, , , , 
2026-03-20 18:06:08.958,11.507084,-11.904293,-2.2707887,-0.06696605,-0.06620247,4.7805514,-7.425,36.787502,27.712502,0.37470087,-0.6510929,0.65777206,1000.03436, , , , 
2026-03-20 18:06:08.978,11.763116,-11.782259,-1.9046868,-0.4719694,0.9350049,4.478784,-4.40625,35.850002,27.91875,0.34318846,-0.6683417,0.6593225,1000.03436, , , , 
2026-03-20 18:06:08.998,11.430513,-11.985648,-0.49052864,-0.61674434,1.2777001,4.284529,0.20625001,36.825,27.056252,0.30806643,-0.6851181,0.6599973,1000.0158, , , , 
2026-03-20 18:06:09.017,12.236895,-11.743974,-0.6987042,-0.58864456,1.2153919,4.090885,1.3125,35.8125,27.000002,-0.272299,0.7002172,-0.6599437,1000.0158, , , , 
2026-03-20 18:06:09.038,12.792029,-10.827522,-0.997807,-0.6759982,1.0449606,3.76224,4.5750003,34.537502,27.35625,-0.23882495,0.713471,-0.6584455,1000.0004, , , , 
2026-03-20 18:06:09.058,13.01217,-10.04507,0.05503492,-0.85253817,1.124373,3.368232,6.6000004,35.98125,28.44375,-0.20086256,0.728674,-0.6538598,1000.0004, , , , 
2026-03-20 18:06:09.078,13.69891,-9.348758,1.442872,-0.6912699,1.0736712,3.0230935,9.84375,34.6875,28.650002,-0.17281994,0.7392612,-0.64946914,1000.00946, , , , 
2026-03-20 18:06:09.098,14.443077,-9.434899,0.46660042,-0.28748822,0.94477874,2.722548,7.8375,32.737503,28.968752,-0.14762816,0.7465357,-0.64683914,1000.00946, , , , 
2026-03-20 18:06:09.118,16.345371,-9.097511,-2.5004997,-0.14088069,0.76823884,2.4708717,9.58125,32.775,30.7875,-0.12510179,0.75102067,-0.6458246,1000.01385, , , , 
2026-03-20 18:06:09.138,18.862621,-8.159525,-3.1728828,-0.33880088,0.4078286,1.995008,10.40625,32.49375,30.2625,-0.106204204,0.75507385,-0.6439233,1000.01385, , , , 
2026-03-20 18:06:09.157,20.662024,-7.9346,-1.7204394,-0.5086213,-0.22563818,1.2008837,12.900001,31.0125,30.075,-0.09488783,0.7593286,-0.64018774,1000.00653, , , , 
2026-03-20 18:06:09.178,21.181267,-7.611569,0.4426722,-0.39805475,-0.7069996,0.3511709,12.975,30.88125,32.4,-0.09371411,0.7625452,-0.6360973,1000.00653, , , , 
2026-03-20 18:06:09.198,21.255444,-7.166504,2.4598217,-0.058413945,-0.6471349,-0.7538835,13.2375,30.54375,30.525002,-0.10373989,0.76291335,-0.63407606,1000.03827, , , , 
2026-03-20 18:06:09.218,18.948763,-7.7623167,2.3449662,0.33864817,-0.32704175,-1.763643,15.375001,31.7625,30.393751,-0.11825191,0.7595108,-0.6364642,1000.03827, , , , 
2026-03-20 18:06:09.238,15.735202,-9.619147,1.1006985,0.610483,-0.33131778,-2.513174,13.387501,31.2,29.081251,-0.13758081,0.75286496,-0.64169914,1000.06415, , , , 
2026-03-20 18:06:09.258,13.909478,-11.4496565,0.1363909,0.80046195,-0.59032446,-2.9670465,11.231251,32.831253,29.38125,-0.16129017,0.7436178,-0.64796007,1000.06415, , , , 
2026-03-20 18:06:09.278,14.342579,-12.335001,-0.28713873,0.79924023,-0.74670583,-3.3531132,6.4687505,33.45,31.687502,-0.18858097,0.7324138,-0.65396476,1000.06537,37.88748373,127.73741106,179.90997314453125,1.45
2026-03-20 18:06:09.298,14.026727,-13.471592,0.10767702,0.65324354,-0.7082214,-3.8607419,7.6125,33.206253,30.35625,-0.21920413,0.71992177,-0.6585301,1000.06537, , , , 
2026-03-20 18:06:09.318,12.722638,-14.507684,0.9092726,0.55611604,-0.5603921,-4.2914014,6.43125,35.100002,27.750002,0.25210187,-0.7061396,0.661347,1000.07074, , , , 
2026-03-20 18:06:09.338,11.188839,-15.136996,1.2346965,0.50663596,-0.41500625,-4.582173,-0.6,35.34375,30.7875,0.29402635,-0.6865228,0.6630111,1000.07074, , , , 
2026-03-20 18:06:09.358,10.502099,-15.711273,1.6414764,0.5103012,-0.3514763,-4.7819257,-0.675,35.49375,27.843752,0.3272759,-0.6688951,0.6628913,1000.08344, , , , 
2026-03-20 18:06:09.379,9.688539,-15.704095,1.8281165,0.56588984,-0.39545858,-4.980457,-4.9125004,34.162502,29.75625,0.35242277,-0.6542567,0.66193175,1000.08344, , , , 
2026-03-20 18:06:09.398,7.8149586,-15.326029,1.1892328,0.642248,-0.28122687,-5.038489,-6.5062504,34.143753,28.237501,0.39419374,-0.62692887,0.6589395,1000.0981, , , , 
2026-03-20 18:06:09.418,6.398408,-14.601004,-0.33738798,0.59215707,0.15431972,-4.7416086,-7.74375,32.925003,25.331251,0.42438546,-0.6036927,0.65596133,1000.0981, , , , 
2026-03-20 18:06:09.438,7.003792,-13.387843,-1.2490535,0.34109163,0.8390991,-4.364705,-13.593751,33.05625,26.718752,0.44780156,-0.5810849,0.65346944,1000.101, , , , 
2026-03-20 18:06:09.458,7.5996046,-12.921243,-0.8566305,0.2775617,0.9050725,-4.344547,-16.10625,31.425001,26.60625,0.46571848,-0.55888706,0.65115684,1000.101, , , , 
2026-03-20 18:06:09.478,6.2979093,-12.693924,-1.5146568,0.3105484,0.32169667,-4.425181,-18.337502,29.718752,25.237501,0.48906657,-0.53036845,0.6452257,1000.10077, , , , 
2026-03-20 18:06:09.498,4.4578285,-12.586247,-1.8281165,0.18837543,0.064522594,-4.326832,-22.743752,27.4125,24.300001,0.50988597,-0.5081671,0.63666993,1000.10077, , , , 
2026-03-20 18:06:09.518,2.388037,-12.179467,-1.6749759,0.052763447,0.06330086,-4.0159016,-24.562502,24.862501,23.23125,0.5292559,-0.4874522,0.62644833,1000.0915, , , , 
2026-03-20 18:06:09.538,0.7800602,-11.598011,-1.7635103,-0.056581352,0.10483967,-3.5675266,-24.900002,23.212502,23.98125,0.5455669,-0.4686871,0.61617476,1000.0915, , , , 
2026-03-20 18:06:09.558,-0.076570325,-11.023734,-1.4979069,-0.15187626,0.08223767,-2.9865942,-25.312502,21.056252,22.462502,0.5586293,-0.45256346,0.6064375,1000.08636, , , , 
2026-03-20 18:06:09.578,-0.21774685,-10.782059,-0.91405827,-0.13171771,-0.07170025,-2.5284457,-27.2625,18.50625,20.79375,0.5692284,-0.4393697,0.5973972,1000.08636, , , , 
2026-03-20 18:06:09.598,-0.16271193,-10.454242,-0.6652047,0.02649626,-0.416228,-1.9853868,-31.181252,18.31875,25.087502,0.579002,-0.4290504,0.5888624,1000.0905, , , , 
2026-03-20 18:06:09.618,-0.7465607,-9.760324,-1.3280165,0.072921984,-0.41683885,-1.5290709,-31.425001,16.425001,25.518751,0.58851314,-0.4213212,0.5809518,1000.0905, , , , 
2026-03-20 18:06:09.638,-2.2707887,-9.52822,-1.6654046,-0.010766491,-0.08697187,-0.9029345,-31.312502,15.7875,28.48125,0.5964525,-0.4146954,0.57429534,1000.09174, , , , 
2026-03-20 18:06:09.658,-2.4885356,-10.162318,-1.7611175,-0.04619665,-0.08697187,-0.19127703,-30.375002,14.531251,26.906252,0.5984183,-0.4130483,0.5724819,1000.09174, , , , 
2026-03-20 18:06:09.677,-1.605584,-9.836894,-1.6749759,0.003894263,-0.32154396,0.5454259,-33.43125,13.106251,27.000002,0.59820485,-0.41616297,0.5726292,1000.10126, , , , 
2026-03-20 18:06:09.698,0.34217364,-9.664611,-2.2205393,-0.04497492,-0.26962045,1.1837796,-31.2,16.087502,25.2,0.59619695,-0.42351237,0.57438654,1000.10126, , , , 
2026-03-20 18:06:09.718,0.91405827,-9.853643,-2.5459633,-0.23189954,0.041920595,1.6523129,-29.98125,14.212501,25.95,0.5907619,-0.43373865,0.5783521,1000.08905, , , , 
2026-03-20 18:06:09.738,1.6462619,-10.303494,-1.9190438,-0.42798713,0.21051927,2.103131,-30.225,15.918751,26.6625,0.5808353,-0.44667104,0.5845501,1000.08905, , , , 
2026-03-20 18:06:09.758,2.7326035,-11.174481,-0.74416786,-0.43592837,-0.0014508038,2.5533385,-27.937502,18.525002,26.41875,0.564305,-0.4667103,0.59361476,1000.0827, , , , 
2026-03-20 18:06:09.778,4.0271206,-11.693725,-0.10767702,-0.2551124,-0.35758498,2.8929791,-27.6,20.0625,24.45,0.55052507,-0.48515978,0.6006557,1000.0827, , , , 
2026-03-20 18:06:09.798,5.1326046,-12.279965,-0.64845496,-0.05108357,-0.57322025,3.1678684,-22.743752,20.19375,24.712502,0.5372899,-0.5044871,0.60739213,1000.08563, , , , 
2026-03-20 18:06:09.817,5.6039906,-12.751352,-1.8520447,-0.048029244,-0.5274054,3.445201,-23.868752,22.050001,27.187502,0.5231526,-0.52417207,0.614255,1000.08563, , , , 
2026-03-20 18:06:09.837,6.2811594,-12.760923,-1.2873386,-0.234343,-0.46143198,3.78362,-21.618752,22.9125,25.518751,0.5063871,-0.5450649,0.6207549,1000.0744, , , , 
2026-03-20 18:06:09.858,7.3340015,-12.325429,0.6795616,-0.19341506,-0.34658942,3.9968119,-18.31875,25.48125,25.331251,0.48671415,-0.5668048,0.6268043,1000.0744, , , , 
2026-03-20 18:06:09.879,7.925029,-11.966506,1.4117653,0.047265664,-0.23602287,4.085387,-17.94375,27.50625,27.337502,0.4648587,-0.5869341,0.63373375,1000.07587, , , , 
2026-03-20 18:06:09.898,8.128419,-11.763116,0.44985065,0.32826346,-0.07475458,4.1617455,-15.20625,28.143751,28.85625,0.44177333,-0.604211,0.64192015,1000.07587, , , , 
2026-03-20 18:06:09.918,8.109276,-11.710474,-0.73459655,0.33681557,0.43837184,4.3425612,-12.0375,30.375002,23.925001,0.41648743,-0.6194252,0.6509105,1000.08075, , , , 
2026-03-20 18:06:09.938,9.846465,-11.523834,-1.8329022,-0.024205517,1.5379285,4.5441465,-10.78125,31.612501,25.425001,0.37637472,-0.63781387,0.6632164,1000.08075, , , , 
2026-03-20 18:06:09.958,12.000006,-11.179267,-1.4931214,-0.5471058,2.3656502,4.5233774,-7.8750005,32.268753,25.706251,0.33527648,-0.65323305,0.6726018,1000.0756, , , , 
2026-03-20 18:06:09.978,14.732609,-10.5690975,0.7800602,-0.82993615,2.0174572,4.0530114,-5.6062503,35.49375,25.125002,0.29236326,-0.668804,0.67864287,1000.0756, , , , 
2026-03-20 18:06:09.998,14.38565,-9.456435,1.6103697,-0.68455034,1.0651191,3.3975534,-6.58125,33.525,25.181252,0.25756192,-0.6819245,0.6808702,1000.0839, , , , 
2026-03-20 18:06:10.018,13.201202,-8.673982,1.753939,-0.67050046,0.7095958,2.9235225,-6.0375004,32.8125,27.937502,0.2306912,-0.6925236,0.6809262,1000.0839, , , , 
2026-03-20 18:06:10.038,11.184053,-8.219346,2.5674987,-0.6491202,0.7089849,2.7115524,-1.8375001,34.518753,24.7875,0.2078362,-0.70171386,0.67972654,1000.0966, , , , 
2026-03-20 18:06:10.058,11.643475,-7.7671022,3.6179478,-0.36323547,0.8116102,2.7622542,-0.20625001,34.050003,26.79375,0.1792551,-0.71114856,0.67883974,1000.0966, , , , 
2026-03-20 18:06:10.078,14.254045,-7.9680996,2.7302105,0.1419497,0.44386962,2.6431355,-0.8625,33.61875,25.500002,0.15710501,-0.71528697,0.68046695,1000.11957, , , , 
2026-03-20 18:06:10.098,16.594225,-7.769495,-0.08853444,0.520075,-0.24213153,2.3291512,0.52500004,34.10625,28.10625,0.14062467,-0.7157646,0.68393105,1000.11957, , , , 
2026-03-20 18:06:10.118,18.374485,-6.9678993,-2.644069,0.35086545,-0.52190757,1.8257985,2.86875,34.10625,27.562502,-0.13107565,0.7149175,-0.6868087,1000.10956, , , , 
2026-03-20 18:06:10.138,18.41277,-6.448657,-1.8424734,-0.21662793,-0.11995857,1.1281909,7.5937505,34.96875,26.7,-0.12564628,0.71588844,-0.68670994,1000.10956, , , , 
2026-03-20 18:06:10.158,18.415163,-7.0133634,1.052842,-0.24717116,0.11094832,0.6266709,5.4187503,33.75,27.91875,-0.12176011,0.7185122,-0.68461424,1000.09344, , , , 
2026-03-20 18:06:10.178,19.058832,-6.908079,1.6199409,0.13828452,-0.0063377223,0.12637265,7.8562503,34.0125,25.95,-0.12038131,0.71922845,-0.6841307,1000.09344, , , , 
2026-03-20 18:06:10.198,20.018354,-6.6041903,0.33020952,0.40950847,-0.40523243,-0.79847664,9.543751,32.943752,26.306252,-0.12663095,0.7157136,-0.6867604,1000.1081, , , , 
2026-03-20 18:06:10.218,18.324236,-7.704889,-0.4953143,0.32704175,-0.62331116,-1.7825798,5.9812503,33.45,26.343752,-0.14130513,0.710842,-0.6890105,1000.1081, , , , 
2026-03-20 18:06:10.238,15.5342045,-9.911072,0.124426775,0.15111268,-0.65324354,-2.5070653,5.68125,34.275,27.712502,0.16238442,-0.7056126,0.6896429,1000.09784, , , , 
2026-03-20 18:06:10.258,13.505091,-11.794223,1.3998013,0.16882776,-0.7350994,-2.8803039,3.6937501,34.575,27.13125,0.18685442,-0.6996298,0.6891118,1000.09784, , , , 
2026-03-20 18:06:10.278,12.780066,-13.186846,1.2370893,0.23602287,-0.76197743,-3.2034512,1.4625001,35.71875,25.7625,0.2132089,-0.6919546,0.6883752,1000.1081,37.88749363,127.73742647,179.707763671875,1.92
2026-03-20 18:06:10.298,12.600604,-13.899907,1.6295122,0.20853396,-0.96356285,-3.4856708,0.61875004,33.768753,26.41875,0.24137281,-0.68298095,0.6867277,1000.1081, , , , 
2026-03-20 18:06:10.321,12.842279,-13.99562,3.1489546,0.28122687,-1.2280673,-3.981693,-2.1375,35.23125,25.5375,0.2806977,-0.6697525,0.6825079,1000.1159, , , , 
2026-03-20 18:06:10.339,9.88475,-14.493327,3.7591243,0.5408444,-1.5805362,-4.44595,-1.44375,33.3375,21.712502,0.31672752,-0.65569973,0.6779097,1000.1159, , , , 
2026-03-20 18:06:10.358,8.894122,-14.270794,3.211168,0.6110939,-1.4669154,-4.436787,-3.61875,34.237503,22.2,0.35491794,-0.63852656,0.6725889,1000.1418, , , , 
2026-03-20 18:06:10.377,8.671589,-13.55534,3.0245278,0.6398045,-0.99593866,-4.433122,-7.275,34.237503,22.743752,0.39033386,-0.61961293,0.6671932,1000.1418, , , , 
2026-03-20 18:06:10.398,7.891529,-12.519248,1.4548361,0.5933788,-0.17737986,-4.341492,-8.775001,33.5625,25.10625,0.42062658,-0.59894,0.66295546,1000.1486, , , , 
2026-03-20 18:06:10.418,7.7120676,-11.557333,-0.9403793,0.24518585,1.1310925,-4.072712,-14.1,32.643753,25.406252,0.4427583,-0.5777443,0.6606787,1000.1486, , , , 
2026-03-20 18:06:10.438,8.116454,-10.975878,-0.59581286,-0.019929463,1.6436081,-4.026286,-16.237501,30.562502,23.118752,0.45601907,-0.5571986,0.6597575,1000.1298, , , , 
2026-03-20 18:06:10.458,7.537391,-11.057234,0.7537391,0.10713041,1.0327432,-4.17045,-17.04375,29.250002,21.28125,0.4671899,-0.536256,0.6577435,1000.1298, , , , 
2026-03-20 18:06:10.478,6.1710896,-11.425728,0.11724831,0.3172679,0.13599378,-4.221152,-23.53125,26.23125,21.50625,0.48817888,-0.5091363,0.6500678,1000.12494, , , , 
2026-03-20 18:06:10.498,4.508078,-11.215159,-0.7728817,0.25557056,-0.12056944,-4.0659924,-22.237501,26.737501,20.41875,0.50834626,-0.48814592,0.6403055,1000.12494, , , , 
2026-03-20 18:06:10.518,3.3260236,-10.734202,-0.8566305,0.074143715,0.0077121677,-3.8020988,-24.768751,22.987501,21.675001,0.5268161,-0.46873116,0.62931335,1000.1086, , , , 
2026-03-20 18:06:10.538,1.6175481,-10.710274,-1.0313065,-0.06024654,0.23128867,-3.4722319,-28.237501,19.650002,22.368752,0.541559,-0.4505921,0.6188117,1000.1086, , , , 
2026-03-20 18:06:10.558,0.009571291,-11.004591,-0.87338024,-0.106672265,0.085292,-2.911458,-28.518751,19.518751,19.78125,0.5530713,-0.43446237,0.6091504,1000.1015, , , , 
2026-03-20 18:06:10.578,-0.27756742,-11.341979,-0.97866446,-0.022983788,-0.23541202,-2.2639413,-29.1375,16.575,21.4125,0.56318676,-0.4218056,0.599947,1000.1015, , , , 
2026-03-20 18:06:10.598,-0.29671,-11.428121,-1.5696917,-0.055970486,-0.26473352,-1.6225332,-31.500002,14.343751,21.7875,0.5721026,-0.41322428,0.5917009,1000.0942, , , , 
2026-03-20 18:06:10.618,-1.2299109,-10.837093,-1.9740787,-0.20868668,0.118889555,-0.95913404,-30.656252,14.925,22.275002,0.57819575,-0.4071667,0.5850569,1000.0942, , , , 
2026-03-20 18:06:10.638,-2.7062824,-11.277373,-2.2205393,-0.30153814,0.2966512,-0.326889,-32.30625,11.887501,22.931252,0.5779334,-0.40549842,0.58359444,1000.0854, , , , 
2026-03-20 18:06:10.658,-3.6849468,-10.77488,-2.2372892,-0.35651594,0.15431972,0.43302676,-32.625,13.218751,22.893751,0.5745986,-0.4080857,0.58458966,1000.0854, , , , 
2026-03-20 18:06:10.678,-2.3928227,-10.394422,-2.062613,-0.38705918,0.07735075,1.1843904,-31.66875,12.712501,21.431252,0.56881475,-0.41570488,0.5875544,1000.07074, , , , 
2026-03-20 18:06:10.698,-1.0671989,-10.1599245,-1.9980069,-0.4634173,0.15493058,1.8703916,-32.04375,13.031251,21.768751,0.559953,-0.42718828,0.592885,1000.07074, , , , 
2026-03-20 18:06:10.718,0.5982057,-10.4351,-1.5290136,-0.5049561,0.08895718,2.3590834,-31.556252,14.08125,21.806252,0.5479958,-0.4418372,0.60006315,1000.0678, , , , 
2026-03-20 18:06:10.737,1.5744773,-11.303694,-0.87338024,-0.42615455,-0.17737986,2.7787476,-30.862501,14.64375,22.48125,0.5343893,-0.45912915,0.6078851,1000.0678, , , , 
2026-03-20 18:06:10.758,2.713461,-12.5551405,-0.7322037,-0.25022548,-0.5756637,3.2460592,-31.10625,15.618751,22.29375,0.52050173,-0.4787269,0.6157654,1000.0695, , , , 
2026-03-20 18:06:10.778,4.0414777,-13.909478,-1.1365907,-0.07429643,-0.9507347,3.756742,-26.737501,18.31875,21.375,0.50331867,-0.5061117,0.62521964,1000.0695, , , , 
2026-03-20 18:06:10.798,4.8598228,-14.935999,-1.052842,0.008170316,-1.0997857,4.2515426,-26.8875,20.53125,22.800001,0.4882809,-0.52976197,0.6325318,1000.06537, , , , 
2026-03-20 18:06:10.821,7.259824,-14.967106,-0.3900301,0.16332997,-1.08879,4.7744427,-22.40625,24.712502,23.79375,0.46581867,-0.5602782,0.64179003,1000.06537, , , , 
2026-03-20 18:06:10.838,9.044869,-14.486148,-0.4019942,0.3154353,-0.9409608,4.9344893,-16.10625,27.6,23.737501,0.4501798,-0.5775978,0.64767647,1000.07074, , , , 
2026-03-20 18:06:10.858,10.30828,-14.009976,-0.5886344,0.46021026,-0.84994197,4.9296026,-16.40625,28.312502,23.56875,0.42761827,-0.59836906,0.65551394,1000.07074, , , , 
2026-03-20 18:06:10.878,10.932807,-13.677374,-0.5312066,0.6263655,-0.96478456,4.841027,-13.650001,28.837502,23.25,0.40472883,-0.616277,0.66246206,1000.05804, , , , 
2026-03-20 18:06:10.898,11.827723,-13.237095,-0.36131623,0.76564264,-1.0038799,4.7200756,-10.106251,31.2,23.0625,0.38279426,-0.6312471,0.6681185,1000.05804, , , , 
2026-03-20 18:06:10.918,12.9954195,-12.18186,-1.0839486,0.8615484,-0.37102398,4.443965,-6.95625,33.018753,23.081251,0.35437363,-0.64543915,0.6750402,1000.0461, , , , 
2026-03-20 18:06:10.938,13.103097,-11.521441,-2.3952155,0.6294198,0.20624322,4.0701156,-4.125,33.1875,22.48125,0.32919797,-0.65417105,0.6807558,1000.0461, , , , 
2026-03-20 18:06:10.958,12.093326,-11.32523,-2.5387847,0.19204062,0.6020836,3.847761,-2.025,32.662502,22.125,-0.30244395,0.6630745,-0.6846928,1000.0307, , , , 
2026-03-20 18:06:10.978,12.835101,-10.549955,0.5814559,-0.0040469794,0.42126763,3.548437,0.0375,34.237503,22.9125,-0.27529934,0.6729851,-0.6859782,1000.0307, , , , 
2026-03-20 18:06:10.998,12.882957,-10.004392,1.8664017,0.26229006,0.25022548,3.142823,5.3812504,35.175003,20.587502,-0.2518973,0.68055594,-0.6864986,1000.0351, , , , 
2026-03-20 18:06:11.018,12.232109,-9.195618,0.62452674,0.47792533,0.39133525,2.8013494,4.3500004,34.55625,23.04375,-0.23123369,0.684571,-0.6884115,1000.0351, , , , 
2026-03-20 18:06:11.038,11.992827,-8.425129,-0.9236295,0.38263044,0.75418895,2.6077054,5.6062503,34.18125,22.1625,-0.21103917,0.6870297,-0.69102144,1000.0505, , , , 
2026-03-20 18:06:11.058,13.079168,-7.7503524,-0.90448695,0.14805835,1.268537,2.3706899,9.825001,34.631252,20.625,-0.18375593,0.6912605,-0.69328356,1000.0505, , , , 
2026-03-20 18:06:11.078,14.361721,-7.274181,-1.1102697,0.08269582,1.336343,2.071977,8.025001,34.443752,21.13125,-0.16160342,0.6950738,-0.69448674,1000.0429, , , , 
2026-03-20 18:06:11.098,15.601204,-6.6999035,-2.0147567,-0.029092435,1.0131956,1.6119958,12.6,33.91875,20.5125,-0.14293022,0.6984048,-0.6950198,1000.0429, , , , 
2026-03-20 18:06:11.118,16.201801,-5.8935223,-2.0889342,-0.2361756,0.6607266,1.0768782,14.062501,35.30625,20.90625,-0.13050544,0.7016426,-0.6941601,1000.0263, , , , 
2026-03-20 18:06:11.138,16.800007,-6.518049,-1.0576276,-0.4719694,0.50251263,0.3615556,13.06875,33.3375,21.28125,-0.12279323,0.706275,-0.69131124,1000.0263, , , , 
2026-03-20 18:06:11.158,16.926826,-6.8913293,0.016749758,-0.41149378,0.29604036,-0.037949976,14.606251,32.362503,22.25625,-0.1217058,0.70884395,-0.6894016,1000.01825, , , , 
2026-03-20 18:06:11.178,17.745173,-6.6185474,0.27517462,-0.26855144,-0.017333288,-0.4814378,13.500001,32.006252,22.706251,-0.12457518,0.71065515,-0.6877889,1000.01825, , , , 
2026-03-20 18:06:11.198,17.967705,-6.5635123,0.35413775,-0.17081307,-0.36491534,-1.4844778,10.05,30.900002,23.2875,-0.13747324,0.710022,-0.68713635,1000.02875, , , , 
2026-03-20 18:06:11.218,15.780665,-8.611769,0.7968099,-0.21846052,-0.44310603,-2.2492805,10.481251,32.193752,21.91875,-0.15536416,0.7077685,-0.68684095,1000.02875, , , , 
2026-03-20 18:06:11.238,13.931013,-10.880164,2.2325034,-0.10300707,-0.49441868,-2.7019312,9.243751,32.175003,25.143751,-0.17729835,0.704051,-0.686493,1000.0417, , , , 
2026-03-20 18:06:11.258,13.442878,-11.976077,2.1080768,0.13767365,-0.35575238,-3.0165267,6.6375003,32.79375,22.9125,-0.20104633,0.6976837,-0.68726057,1000.0417, , , , 
2026-03-20 18:06:11.278,13.052848,-12.827922,0.21296121,0.08880447,-0.030161448,-3.3641088,6.9375005,32.71875,20.56875,-0.22488786,0.6893363,-0.6886509,1000.0573,37.88750461,127.73744085,179.7529296875,1.5
2026-03-20 18:06:11.298,12.806387,-13.847264,1.0432707,-0.14393501,0.099341884,-3.7452884,4.3875003,33.1875,21.581251,0.2488462,-0.68088627,0.6883868,1000.0573, , , , 
2026-03-20 18:06:11.318,12.41875,-14.574683,2.6536403,-0.0956767,0.11522437,-4.1331873,2.71875,32.268753,22.425001,0.27402717,-0.6713429,0.6866411,1000.0632, , , , 
2026-03-20 18:06:11.338,11.741581,-15.515062,3.7208393,0.108963005,0.05169443,-4.586449,-1.5937501,31.95,23.04375,0.30788767,-0.6553097,0.68390626,1000.0632, , , , 
2026-03-20 18:06:11.358,8.650054,-16.256838,3.5198421,0.45165816,-0.13767365,-4.852175,-4.03125,31.237501,19.331251,0.33783522,-0.6380622,0.68144983,1000.0839, , , , 
2026-03-20 18:06:11.378,7.5086775,-15.926627,2.8402805,0.63369584,-0.04848739,-4.734278,-4.9500003,32.625,21.056252,0.3672558,-0.618017,0.67908,1000.0839, , , , 
2026-03-20 18:06:11.398,7.192825,-14.8785715,1.8233309,0.89209163,-0.1871537,-4.528417,-7.0125003,33.16875,19.5375,0.39552397,-0.59618473,0.6765935,1000.102, , , , 
2026-03-20 18:06:11.418,7.958528,-13.746766,-1.2323036,0.75159276,0.056581352,-4.373868,-10.368751,31.706251,19.35,0.4222746,-0.57342845,0.6736207,1000.102, , , , 
2026-03-20 18:06:11.438,7.9034934,-13.229917,-1.8496519,0.34048074,0.43287405,-4.369592,-10.6125,31.181252,18.16875,0.4452927,-0.55149084,0.6691428,1000.08563, , , , 
2026-03-20 18:06:11.458,6.5108705,-12.957134,-0.7106683,0.20364705,0.27343833,-4.364705,-16.7625,27.675001,20.1,0.46546173,-0.5304709,0.66262597,1000.08563, , , , 
2026-03-20 18:06:11.478,5.1014977,-12.760923,-0.55752766,0.17249294,0.04925097,-4.208324,-15.431251,26.85,17.23125,0.48551112,-0.5098287,0.654029,1000.08246, , , , 
2026-03-20 18:06:11.498,3.9098723,-12.067004,-0.63888365,0.15722132,-0.046654798,-3.9627562,-19.556252,26.04375,17.85,0.5096933,-0.4851408,0.64137924,1000.08246, , , , 
2026-03-20 18:06:11.518,2.7326035,-11.497513,-0.7465607,0.11934771,0.050472703,-3.7000842,-23.456251,24.375002,21.45,0.5268181,-0.46626714,0.6310614,1000.0754, , , , 
2026-03-20 18:06:11.538,0.9667004,-11.260623,-0.8350951,0.10651954,0.024205517,-3.3280678,-25.63125,24.525002,21.525002,0.5415806,-0.44841743,0.6211755,1000.0754, , , , 
2026-03-20 18:06:11.558,-0.0,-11.315659,-0.701097,0.14011711,-0.27450737,-2.7727916,-26.306252,20.34375,20.90625,0.5547336,-0.43291068,0.61153364,1000.07855, , , , 
2026-03-20 18:06:11.579,-0.5886344,-11.253445,-1.0408778,0.17066035,-0.39729118,-2.2889867,-28.031252,19.800001,20.34375,0.5670652,-0.42057464,0.6021232,1000.07855, , , , 
2026-03-20 18:06:11.598,-2.0410776,-10.942378,-1.7898313,0.028328855,-0.019776747,-1.5993203,-27.7875,18.825,20.98125,0.576517,-0.4112027,0.59464854,1000.0805, , , , 
2026-03-20 18:06:11.618,-3.3379877,-11.069198,-1.4452649,-0.07979421,0.19830199,-0.7612139,-31.25625,17.831251,22.95,0.58103037,-0.40395272,0.5904366,1000.0805, , , , 
2026-03-20 18:06:11.638,-2.6009982,-11.839686,-1.4883357,-0.026038112,-0.050319985,-0.02451095,-27.35625,16.518751,19.837502,0.58098763,-0.40311047,0.5902594,1000.0732, , , , 
2026-03-20 18:06:11.658,-2.1894326,-10.829915,-1.5314065,0.03810269,-0.38629562,0.69997466,-27.468752,18.35625,21.75,0.5802219,-0.40720445,0.59123844,1000.0732, , , , 
2026-03-20 18:06:11.678,-0.8422736,-10.475778,-2.0171494,0.0051159924,-0.3050506,1.330998,-30.993752,18.46875,24.581251,0.57790536,-0.4155541,0.5937289,1000.06805, , , , 
2026-03-20 18:06:11.698,0.29910284,-10.717453,-2.1128623,-0.16165009,-0.003894263,1.913763,-29.268751,18.900002,23.1375,0.57161623,-0.4268373,0.5988997,1000.06805, , , , 
2026-03-20 18:06:11.718,1.1294123,-11.456835,-1.605584,-0.23495387,-0.02527453,2.3767984,-26.456251,21.825,21.45,0.5614663,-0.4408055,0.60605574,1000.05804, , , , 
2026-03-20 18:06:11.738,2.565106,-12.124433,-1.2753744,-0.17997603,-0.28367034,2.7934084,-27.300001,21.243752,20.493752,0.5494572,-0.45753208,0.613767,1000.05804, , , , 
2026-03-20 18:06:11.758,3.7471602,-12.638889,-1.2993027,-0.087124586,-0.55550516,3.1391578,-24.0,22.44375,22.237501,0.53707814,-0.47638094,0.6211199,1000.05096, , , , 
2026-03-20 18:06:11.778,4.4051867,-13.332808,-1.7706888,-0.12316561,-0.60315263,3.561876,-21.525002,25.425001,23.34375,0.52043146,-0.5020592,0.62970626,1000.05096, , , , 
2026-03-20 18:06:11.798,5.4580283,-13.316058,-0.97866446,-0.20746495,-0.42111492,3.9699337,-20.400002,25.800001,22.125,0.50363046,-0.52438617,0.63665265,1000.0422, , , , 
2026-03-20 18:06:11.818,6.458228,-12.866207,-0.21535404,-0.1824195,-0.18593197,4.2833076,-18.69375,26.962502,22.03125,0.48827395,-0.54140586,0.64240676,1000.0422, , , , 
2026-03-20 18:06:11.837,7.82453,-12.110075,-0.11964113,-0.06879865,-0.10835214,4.4726753,-16.5,29.925001,22.875,0.45869076,-0.568685,0.6527434,1000.0373, , , , 
2026-03-20 18:06:11.858,8.4347,-11.949757,-0.40677986,2.290743E-4,-0.18287764,4.516047,-12.656251,31.556252,23.306252,0.43372104,-0.58889824,0.66035706,1000.0373, , , , 
2026-03-20 18:06:11.878,8.456235,-12.284752,-0.44027936,-0.020540329,-0.022831071,4.6486044,-10.14375,33.825,21.825,0.40792027,-0.6078443,0.6667984,1000.03094, , , , 
2026-03-20 18:06:11.898,9.420543,-12.447463,0.08853444,-0.10545053,0.3210858,4.7707777,-6.8812504,34.0125,22.706251,0.37901813,-0.62599593,0.6726493,1000.03094, , , , 
2026-03-20 18:06:11.918,11.284552,-12.222538,0.3397808,-0.0816268,0.5947532,4.790325,-4.6687503,34.875,22.893751,0.34683225,-0.64288867,0.67808586,1000.01605, , , , 
2026-03-20 18:06:11.942,11.921042,-12.107682,-0.6723832,-0.05902481,0.10361794,4.2613163,-0.28125,34.18125,24.018751,0.2910708,-0.66710407,0.6848233,1000.018, , , , 
2026-03-20 18:06:11.958,11.58844,-11.854043,-1.0911272,-0.10361794,-0.10835214,4.1434193,2.0062501,33.693752,21.337502,0.2777766,-0.6729317,0.68520236,1000.018, , , , 
2026-03-20 18:06:11.978,11.806187,-11.578869,-0.78723866,-0.31497714,-0.34109163,3.9119017,5.9625,35.2125,22.21875,-0.25354883,0.6842397,-0.68374896,1000.018, , , , 
2026-03-20 18:06:11.998,12.428321,-11.047662,0.22013968,-0.40905032,-0.19081889,3.6822166,5.26875,32.006252,24.956251,-0.23127246,0.6950198,-0.68015635,1000.018, , , , 
2026-03-20 18:06:12.018,13.184453,-10.480563,1.0911272,-0.415159,0.29787293,3.412825,8.981251,31.931252,20.868752,-0.20874569,0.70474505,-0.6761969,1000.018, , , , 
2026-03-20 18:06:12.038,13.746766,-9.923036,1.3663018,-0.25450155,0.57337296,3.0829582,12.825001,31.44375,21.5625,-0.18515709,0.7128822,-0.6731688,1000.02094, , , , 
2026-03-20 18:06:12.058,14.684752,-9.729217,0.3493521,-0.005268709,0.4231002,2.7463717,13.5375,32.25,23.75625,-0.1576778,0.71971154,-0.6711589,1000.02094, , , , 
2026-03-20 18:06:12.078,17.190039,-9.138189,-0.80877405,0.09124792,0.28260133,2.3554182,17.56875,31.050001,22.181252,-0.13952675,0.7228174,-0.6703343,1000.0312, , , , 
2026-03-20 18:06:12.098,19.09233,-7.690532,-1.5290136,0.005726857,0.56970775,1.642539,18.73125,31.050001,22.66875,-0.12526214,0.7249062,-0.6698359,1000.0312, , , , 
2026-03-20 18:06:12.118,18.326628,-7.7120676,-1.5840486,-0.23312128,1.1066579,0.8209259,19.10625,29.962502,22.21875,-0.113999486,0.7275282,-0.6692324,1000.0219, , , , 
2026-03-20 18:06:12.138,16.505692,-7.597212,-0.124426775,-0.19769111,1.2300526,0.21555892,18.75,29.156252,25.406252,-0.10513398,0.7306141,-0.66857064,1000.0219, , , , 
2026-03-20 18:06:12.158,16.19941,-6.7334027,-0.023928227,0.033215772,0.8293253,-0.2994001,16.087502,29.868752,26.868752,-0.099842414,0.73198503,-0.6692909,1000.0241, , , , 
2026-03-20 18:06:12.178,16.187445,-6.71426,0.023928227,0.23113596,0.118889555,-0.96157753,15.525001,29.325,26.962502,-0.10167339,0.730885,-0.6713996,1000.0241, , , , 
2026-03-20 18:06:12.198,15.35235,-8.23131,-0.17467605,0.31482443,-0.7314342,-1.7990731,16.275002,31.500002,26.925001,-0.11743803,0.72622085,-0.67502147,1000.0275, , , , 
2026-03-20 18:06:12.219,14.809179,-10.49492,0.76570326,0.33681557,-1.2402846,-2.4417028,14.38125,31.44375,25.10625,-0.14042063,0.72050864,-0.67745537,1000.0275, , , , 
2026-03-20 18:06:12.238,13.966906,-11.863615,1.6414764,0.41806057,-1.2231804,-2.9444447,14.475,32.081253,26.60625,-0.16897766,0.7127829,-0.67975986,1000.03705, , , , 
2026-03-20 18:06:12.258,13.497912,-12.538391,1.6630118,0.39118254,-0.71799517,-3.3928194,12.0375,34.443752,25.800001,-0.19852929,0.7032927,-0.68229127,1000.03705, , , , 
2026-03-20 18:06:12.278,12.880565,-13.593625,2.1918256,0.35819584,-0.11262819,-3.8473027,10.70625,34.8375,22.518751,0.22687133,-0.69256026,0.684755,1000.05756,37.88751334,127.73745445,179.7794189453125,1.44
2026-03-20 18:06:12.298,12.354143,-14.048262,1.8376877,0.3759109,0.1390481,-4.24803,7.74375,34.875,25.462502,0.25418267,-0.6800092,0.68719107,1000.05756, , , , 
2026-03-20 18:06:12.318,10.865808,-14.6225395,1.820938,0.33742642,0.16775873,-4.6310425,5.11875,36.24375,23.79375,0.28214082,-0.6655041,0.6886221,1000.07904, , , , 
2026-03-20 18:06:12.338,6.530013,-15.536597,2.5866413,0.34781113,-0.31421357,-4.7874236,-1.8937501,34.893753,24.150002,0.32004252,-0.6447933,0.6874848,1000.07904, , , , 
2026-03-20 18:06:12.358,4.8861437,-14.64886,4.5678983,0.4541016,-0.6483566,-4.408077,-3.6937501,36.206253,24.2625,0.35111362,-0.62754756,0.68418413,1000.0976, , , , 
2026-03-20 18:06:12.377,5.615955,-13.16531,5.197211,0.8285617,-0.8536072,-3.9444304,-4.4812503,35.25,24.862501,0.38099098,-0.6092782,0.68088293,1000.0976, , , , 
2026-03-20 18:06:12.398,8.896515,-12.220145,2.9503503,1.0038799,-0.5829941,-3.7788858,-5.86875,35.381252,21.75,0.40842646,-0.58924705,0.6789824,1000.1286, , , , 
2026-03-20 18:06:12.418,11.136196,-12.35175,1.1629118,0.98433226,-0.3814087,-4.1466265,-8.400001,35.23125,23.268751,0.4341226,-0.56747663,0.67709976,1000.1286, , , , 
2026-03-20 18:06:12.438,10.097712,-13.196417,-0.85902333,0.9049198,-0.6000983,-4.6298203,-10.556251,35.5125,23.325,0.4613347,-0.54352355,0.67300206,1000.1125, , , , 
2026-03-20 18:06:12.458,7.003792,-13.63191,-3.07717,0.53717923,-0.53901184,-4.8222427,-11.75625,34.29375,19.5,0.49056458,-0.51862305,0.6650453,1000.1125, , , , 
2026-03-20 18:06:12.478,3.7064822,-13.454842,-3.8787656,-0.04925097,0.11155918,-4.6353183,-17.60625,33.16875,22.800001,0.51640284,-0.49524313,0.65447086,1000.0861, , , , 
2026-03-20 18:06:12.498,0.91405827,-13.028919,-2.57707,-0.52511466,0.63812464,-4.094092,-21.300001,30.91875,24.243752,0.5377137,-0.47003448,0.64147836,1000.0861, , , , 
2026-03-20 18:06:12.518,0.02871387,-12.19861,-1.2466606,-0.43409577,0.56970775,-3.551644,-24.16875,27.4125,21.65625,0.5484445,-0.452794,0.63237923,1000.05756, , , , 
2026-03-20 18:06:12.538,-0.77766734,-11.542976,-1.5194423,-0.1805869,0.09506583,-3.0586762,-26.19375,24.69375,22.650002,0.5585684,-0.43727788,0.6236244,1000.05756, , , , 
2026-03-20 18:06:12.558,-1.7874385,-11.286944,-2.359323,-0.15493058,-0.4473821,-2.423377,-27.975,23.1375,23.23125,0.56975454,-0.42475635,0.6139894,1000.0666, , , , 
2026-03-20 18:06:12.580,-1.861616,-11.60519,-1.119841,-0.23739733,-0.8878156,-1.6652937,-28.331251,21.375,23.0625,0.5834205,-0.4158982,0.6006057,1000.0666, , , , 
2026-03-20 18:06:12.598,-2.1391835,-11.784652,-0.09571291,-0.14698933,-1.0222058,-1.207756,-27.956251,19.66875,23.4375,0.59316355,-0.4135459,0.5903713,1000.0644, , , , 
2026-03-20 18:06:12.618,-2.6895328,-12.167503,-0.14596218,0.052763447,-0.9818888,-0.5351939,-29.831251,19.95,24.843752,0.5993761,-0.4136267,0.58429736,1000.0644, , , , 
2026-03-20 18:06:12.638,-3.4767714,-11.464013,-1.0863415,0.092469655,-0.6972258,0.42080948,-29.531252,19.35,25.931252,0.6056389,-0.41752937,0.57902104,1000.07074, , , , 
2026-03-20 18:06:12.658,-2.1655045,-11.052447,-1.5314065,-0.01809687,-0.38201955,1.2931244,-29.75625,18.206251,26.025002,0.6048024,-0.4254682,0.5796881,1000.07074, , , , 
2026-03-20 18:06:12.678,0.016749758,-10.6408825,-1.079163,-0.14821106,-0.18593197,1.9705734,-28.968752,19.1625,25.875002,0.5986129,-0.4377382,0.5838374,1000.0727, , , , 
2026-03-20 18:06:12.698,2.5866413,-11.117054,-0.086141616,-0.067576915,-0.16760603,2.429333,-27.88125,21.6375,25.931252,0.5888136,-0.45287138,0.59008044,1000.0727, , , , 
2026-03-20 18:06:12.718,3.8524444,-11.985648,-0.27038896,0.18471023,-0.2720639,2.7262132,-25.612501,21.35625,27.093752,0.5748382,-0.47284424,0.59954375,1000.0644, , , , 
2026-03-20 18:06:12.738,4.2185464,-12.751352,-0.88295156,0.29100072,-0.36980227,2.993161,-25.1625,23.643751,27.225,0.5660431,-0.48502967,0.60571706,1000.0644, , , , 
2026-03-20 18:06:12.758,4.735396,-13.450056,-1.012164,0.28855726,-0.36002842,3.3560147,-21.7875,26.493752,25.781252,0.55317813,-0.5023255,0.61393255,1000.0578, , , , 
2026-03-20 18:06:12.778,5.6063833,-13.452449,-0.42592242,0.2702313,-0.09430225,3.792783,-19.725,29.550001,27.243752,0.5325601,-0.5256451,0.62509936,1000.0578, , , , 
2026-03-20 18:06:12.798,6.680761,-13.110275,-0.0526421,0.3746892,-0.030161448,4.100048,-21.65625,30.843752,27.54375,0.5118559,-0.5445656,0.6352602,1000.0551, , , , 
2026-03-20 18:06:12.818,8.149954,-12.502499,0.85184485,0.6966149,-0.6190351,4.180682,-17.268751,30.806252,27.075,0.49083388,-0.5625541,0.6447569,1000.0551, , , , 
2026-03-20 18:06:12.838,8.700303,-11.822937,1.268196,1.4253767,-1.7827325,4.054233,-10.96875,35.8125,26.2875,0.47537807,-0.5773922,0.65158623,1000.0551, , , , 
2026-03-20 18:06:12.858,8.736196,-11.284552,-0.38763726,1.8468733,-2.1168756,3.94611,-9.262501,36.35625,26.531252,0.46615934,-0.58747375,0.6563092,1000.0551, , , , 
2026-03-20 18:06:12.878,8.7577305,-11.363515,-1.9046868,1.8163301,-1.4864631,3.968712,-6.8250003,36.61875,24.4125,0.45699152,-0.5943286,0.66068566,1000.06024, , , , 
2026-03-20 18:06:12.898,9.157332,-11.442478,-2.053042,1.6037492,-0.33925903,4.181293,-2.49375,36.84375,21.9375,-0.44135517,0.600888,-0.666434,1000.06024, , , , 
2026-03-20 18:06:12.918,11.667403,-11.229517,-2.4670002,1.3093123,0.8586468,4.302855,4.125,38.287502,20.23125,-0.40874636,0.61073756,-0.67683154,1000.0473, , , , 
2026-03-20 18:06:12.938,12.854243,-10.487741,-2.3282163,1.1291072,1.1885138,4.0499573,4.55625,38.2125,19.425001,-0.3769795,0.61901724,-0.6856639,1000.0473, , , , 
2026-03-20 18:06:12.958,13.148561,-9.920643,-3.6011982,0.8059597,1.2410482,3.69871,6.15,38.98125,20.60625,-0.34594306,0.6265315,-0.6928254,1000.03534, , , , 
2026-03-20 18:06:12.978,12.959527,-9.355937,-3.4911282,0.34964374,1.4243076,3.3242497,7.6875005,39.2625,20.268751,-0.3167751,0.63479155,-0.69704,1000.03534, , , , 
2026-03-20 18:06:12.998,12.524034,-8.925228,-2.400001,-0.19463679,2.0162356,2.988885,13.44375,39.2625,17.04375,-0.28768182,0.6448093,-0.6989217,1000.03046, , , , 
2026-03-20 18:06:13.018,12.277573,-8.56152,-0.6843473,-0.47074768,2.3870306,2.7207153,13.2375,39.09375,19.5375,-0.2568148,0.65666544,-0.6993818,1000.03046, , , , 
2026-03-20 18:06:13.037,12.504891,-8.855837,0.19860429,-0.3992765,2.2440882,2.5087452,15.637501,37.331253,20.775002,-0.22597185,0.6682128,-0.69917727,1000.0275, , , , 
2026-03-20 18:06:13.058,14.0602255,-9.171689,-0.7369894,-0.10178535,1.6014584,2.3236532,17.1375,36.862503,21.431252,-0.19171077,0.67890614,-0.6990133,1000.0275, , , , 
2026-03-20 18:06:13.078,16.141981,-8.63809,-1.7754744,0.0692568,0.94966567,2.0579271,17.268751,35.268753,20.71875,-0.17533106,0.682926,-0.6989639,1000.03143, , , , 
2026-03-20 18:06:13.097,18.204596,-8.147561,-3.1274192,2.290743E-4,0.31864235,1.3725368,19.050001,33.956253,20.925001,-0.1578957,0.68673104,-0.6983892,1000.03143, , , , 
2026-03-20 18:06:13.118,18.388842,-7.537391,-2.5866413,-0.20685409,0.11950042,0.7225767,20.53125,36.975002,21.056252,-0.15235792,0.6891631,-0.69683284,1000.0351, , , , 
2026-03-20 18:06:13.138,18.984655,-6.8889365,-1.3040884,-0.30703592,0.20868668,-0.09842559,18.1875,34.96875,23.41875,-0.15182588,0.69144005,-0.69508785,1000.0351, , , , 
2026-03-20 18:06:13.158,18.403198,-6.6448684,-0.8422736,-0.31375542,0.29237515,-1.004338,19.181252,34.59375,20.868752,-0.15597026,0.69280577,-0.6942584,1000.0378, , , , 
2026-03-20 18:06:13.178,16.45544,-7.8317084,-0.8255238,-0.36323547,0.19646938,-1.8687117,17.325,35.737503,23.94375,-0.16582544,0.6927994,-0.6942804,1000.0378, , , , 
2026-03-20 18:06:13.198,13.926228,-10.061819,-0.02632105,-0.34552038,-0.2543488,-2.485685,14.7375,35.98125,23.587502,-0.18646349,0.6908013,-0.6940026,1000.0424, , , , 
2026-03-20 18:06:13.218,13.596018,-11.095519,0.28235307,-0.2880991,-0.59887654,-2.88458,12.58125,35.4,22.7625,-0.20902629,0.6869447,-0.69323355,1000.0424, , , , 
2026-03-20 18:06:13.238,13.634303,-11.894721,0.87338024,-0.3400226,-0.6672934,-3.3018005,15.056251,37.3875,21.768751,-0.235199,0.6814415,-0.6917199,1000.0546, , , , 
2026-03-20 18:06:13.258,13.42852,-12.744173,2.1463618,-0.34429866,-0.70333445,-3.7630033,10.462501,35.90625,24.656252,-0.2640555,0.67432153,-0.6892818,1000.0546, , , , 
2026-03-20 18:06:13.278,12.337394,-13.3352,3.0699914,-0.1995237,-0.6617956,-4.1845,7.9500003,37.275,23.90625,0.2951043,-0.6645178,0.6865292,1000.06366,37.88752082,127.73746638,179.47607421875,1.18
2026-03-20 18:06:13.300,11.265409,-13.966906,2.725425,-0.040088,-0.36858055,-4.6145487,6.0375004,38.568752,23.56875,0.33477885,-0.64774406,0.6834174,1000.06366, , , , 
2026-03-20 18:06:13.318,9.097511,-14.423935,2.6344976,0.06314815,-0.16332997,-4.812469,4.36875,36.05625,21.88125,0.3580546,-0.63552195,0.6815638,1000.0905, , , , 
2026-03-20 18:06:13.338,7.379465,-14.433506,1.6366907,0.1786016,0.15431972,-4.705568,0.54375005,37.3875,22.518751,0.39372164,-0.61245173,0.67869806,1000.0905, , , , 
2026-03-20 18:06:13.357,6.6687965,-13.69891,0.552742,0.20670137,0.43531752,-4.438009,-4.6875,36.112503,21.6,0.41837513,-0.5928613,0.67646265,1000.10077, , , , 
2026-03-20 18:06:13.380,7.759924,-12.665211,-0.36131623,-0.03459022,1.0351868,-4.1649523,-8.512501,34.725002,22.837502,0.4416745,-0.5689254,0.6739925,1000.10077, , , , 
2026-03-20 18:06:13.398,8.779266,-12.720245,0.28235307,-0.043753188,0.9692133,-4.2272606,-9.993751,36.693752,21.337502,0.45296723,-0.5546691,0.67209876,1000.10297, , , , 
2026-03-20 18:06:13.418,7.6163545,-12.7393875,0.66999036,0.17921245,0.21907139,-4.4117417,-14.700001,34.575,23.962502,0.47039282,-0.5343449,0.6674096,1000.10297, , , , 
2026-03-20 18:06:13.438,5.869594,-12.758531,0.43788654,0.30932665,-0.32337654,-4.3940268,-16.893751,33.0,22.125,0.4921328,-0.5129862,0.65941423,1000.0976, , , , 
2026-03-20 18:06:13.458,4.7808595,-12.354143,0.040677983,0.35575238,-0.5170207,-4.1551785,-22.650002,30.150002,25.050001,0.51548827,-0.4917931,0.6490929,1000.0976, , , , 
2026-03-20 18:06:13.478,4.082155,-11.935399,-0.34456646,0.28733552,-0.38263044,-3.8662395,-24.31875,28.237501,23.475,0.5372675,-0.4714385,0.6354563,1000.09076, , , , 
2026-03-20 18:06:13.498,3.2207394,-11.894721,-1.227518,0.2409098,-0.37102398,-3.5162141,-25.087502,26.6625,24.431252,0.560463,-0.44745392,0.624955,1000.09076, , , , 
2026-03-20 18:06:13.518,2.28036,-12.007184,-1.605584,0.09063706,-0.5762746,-3.131369,-28.35,22.85625,24.056252,0.57709104,-0.43084776,0.61375487,1000.08563, , , , 
2026-03-20 18:06:13.538,1.2873386,-11.669796,-1.2083755,-0.009544762,-0.7241038,-2.6481752,-28.7625,20.0625,24.4125,0.59223527,-0.41774672,0.60176617,1000.08563, , , , 
2026-03-20 18:06:13.558,-0.08135597,-11.126625,-1.18684,-0.13171771,-0.4907535,-2.0428083,-29.79375,19.462502,25.48125,0.6047429,-0.40779567,0.59067523,1000.0695, , , , 
2026-03-20 18:06:13.578,-1.0911272,-11.507084,-1.160519,-0.21051927,-0.18593197,-1.4111739,-29.587502,19.10625,26.41875,0.612833,-0.40063083,0.58251655,1000.0695, , , , 
2026-03-20 18:06:13.598,-2.0697916,-11.169696,-1.0001999,-0.22334744,-0.11873684,-0.6451496,-30.675001,17.25,25.087502,0.61669916,-0.39694807,0.5777431,1000.0727, , , , 
2026-03-20 18:06:13.618,-1.3950156,-10.176675,-1.0336994,-0.23556472,-0.08025236,0.119653136,-33.881252,17.400002,27.112501,0.6173443,-0.39779618,0.5758181,1000.0727, , , , 
2026-03-20 18:06:13.638,-0.83030945,-9.01137,-0.87338024,-0.29726207,0.06940951,0.8038217,-32.662502,16.181252,26.1375,0.613642,-0.40433222,0.5772097,1000.06976, , , , 
2026-03-20 18:06:13.658,0.10049855,-9.332008,-0.35413775,-0.28321218,0.12194388,1.3077852,-30.35625,16.5375,24.6375,0.6072398,-0.41297793,0.5810363,1000.06976, , , , 
2026-03-20 18:06:13.678,0.6412765,-10.13839,-0.1268196,-0.12316561,-0.046654798,1.8062508,-31.556252,18.0375,25.9125,0.5991647,-0.42413855,0.58657366,1000.06464, , , , 
2026-03-20 18:06:13.698,1.6390835,-10.865808,-0.6939186,0.07475458,-0.24701844,2.4311655,-28.95,19.40625,26.94375,0.59039336,-0.43787605,0.5932743,1000.06464, , , , 
2026-03-20 18:06:13.718,2.8594232,-11.090733,-1.5457634,0.07108939,-0.12484549,2.9644504,-27.768751,19.40625,26.362501,0.5798622,-0.45419213,0.60128313,1000.07245, , , , 
2026-03-20 18:06:13.738,4.0534415,-10.849058,-1.6797615,-0.102396205,0.18303037,3.4030514,-29.531252,21.69375,28.425001,0.56528294,-0.47274745,0.61095786,1000.07245, , , , 
2026-03-20 18:06:13.758,5.2905307,-10.334601,-0.8805587,-0.21479532,0.24411684,3.6742754,-26.41875,23.15625,26.475,0.5463592,-0.49303254,0.62153363,1000.0634, , , , 
2026-03-20 18:06:13.778,6.4845495,-9.934999,0.083748795,-0.12377647,-0.024663666,3.7897286,-22.275002,26.94375,25.500002,0.5207715,-0.51911604,0.6335609,1000.0634, , , , 
2026-03-20 18:06:13.798,6.8219376,-9.987641,0.3804588,0.107741274,-0.27939427,3.8410413,-22.181252,27.562502,27.31875,0.5013113,-0.5389211,0.64172375,1000.06586, , , , 
2026-03-20 18:06:13.818,6.8913293,-10.375279,0.083748795,0.3239874,-0.39057165,3.9528296,-20.56875,28.85625,25.518751,0.48251468,-0.557117,0.6493268,1000.06586, , , , 
2026-03-20 18:06:13.838,7.204789,-10.772488,-0.79920274,0.4492147,-0.3606393,4.1568584,-15.675,32.100002,25.7625,0.46299514,-0.5740544,0.6567618,1000.06537, , , , 
2026-03-20 18:06:13.858,7.623533,-11.284552,-1.4691931,0.36247188,-0.18287764,4.4402995,-13.5375,34.050003,27.281252,0.44130364,-0.59057057,0.6637912,1000.06537, , , , 
2026-03-20 18:06:13.878,9.817751,-10.913664,-0.8566305,0.28489205,0.07979421,4.6614327,-9.356251,36.487503,25.612501,0.41576,-0.6075558,0.6701561,1000.06464, , , , 
2026-03-20 18:06:13.898,11.389835,-10.743773,-1.3136597,0.20547964,0.49396053,4.6125636,-8.175,35.006252,23.56875,0.38716346,-0.6236224,0.67606187,1000.06464, , , , 
2026-03-20 18:06:13.918,11.595618,-10.820344,-1.7874385,-0.004657844,1.0583996,4.4360237,-5.1000004,37.912502,24.468752,0.34722215,-0.64205366,0.6827189,1000.0568, , , , 
2026-03-20 18:06:13.938,11.334801,-11.466406,-2.3306093,-0.5825359,2.0754895,4.312629,-2.9250002,37.65,23.025002,0.31036174,-0.6571238,0.6867436,1000.0568, , , , 
2026-03-20 18:06:13.958,12.117254,-11.492727,-0.8255238,-1.1353686,2.5513532,4.0615635,0.675,36.768753,24.69375,0.26838505,-0.6741806,0.68804747,1000.049, , , , 
2026-03-20 18:06:13.978,12.1459675,-10.9375925,1.375873,-1.2441025,2.0260093,3.6675558,2.6437502,35.71875,25.0125,0.22787292,-0.69105333,0.68594354,1000.049, , , , 
2026-03-20 18:06:13.998,12.8686,-10.554741,2.6153553,-0.8219949,0.75052375,3.2313983,4.78125,36.1875,25.218752,-0.19534159,0.7047503,-0.6819883,1000.049, , , , 
2026-03-20 18:06:14.019,14.541183,-10.844273,1.605584,-0.30947936,-0.07903063,2.935129,6.58125,35.625,24.91875,-0.1723696,0.71365756,-0.6785996,1000.049, , , , 
2026-03-20 18:06:14.038,16.938791,-10.348958,-0.37088752,-0.043753188,-0.40339983,2.56861,10.1625,34.5,25.3875,-0.15600976,0.71854556,-0.67662996,1000.0632, , , , 
2026-03-20 18:06:14.058,18.78605,-9.102298,-1.457229,-0.22334744,-0.33131778,1.8203007,11.681251,34.143753,26.94375,-0.1423381,0.72246784,-0.6741955,1000.0632, , , , 
2026-03-20 18:06:14.078,18.75255,-9.071191,0.18185452,-0.38705918,-0.26290092,1.2308161,11.56875,32.8875,26.400002,-0.1375687,0.7251053,-0.6717854,1000.05853, , , , 
2026-03-20 18:06:14.098,18.98944,-7.6666036,2.1655045,-0.06696605,-0.20731224,0.5289325,11.4375,33.73125,27.91875,-0.13448262,0.7278308,-0.66897833,1000.05853, , , , 
2026-03-20 18:06:14.118,18.640089,-6.9678993,1.7635103,0.33498296,-0.36491534,-0.22365287,11.45625,33.24375,28.875002,-0.1373238,0.7261881,-0.670224,1000.0627, , , , 
2026-03-20 18:06:14.138,18.080168,-7.1952176,-0.29192436,0.5640573,-0.57260936,-1.1283436,12.918751,33.787502,26.5125,-0.14650986,0.7212559,-0.6739422,1000.0627, , , , 
2026-03-20 18:06:14.158,16.754543,-8.458628,-1.7252251,0.3588067,-0.7228821,-1.9145266,10.668751,34.275,27.806252,-0.16231404,0.7148699,-0.6777765,1000.071, , , , 
2026-03-20 18:06:14.178,14.816358,-9.698111,-0.9523434,0.03199404,-0.8218422,-2.5431063,10.03125,35.5875,28.25625,-0.18399727,0.7088866,-0.6793776,1000.071, , , , 
2026-03-20 18:06:14.198,12.691531,-10.8682,1.5696917,-0.13293944,-0.7247147,-2.9920921,9.84375,35.831253,25.331251,-0.21590701,0.70162094,-0.6785255,1000.06537, , , , 
2026-03-20 18:06:14.218,11.882757,-11.586047,3.1609187,-0.008933897,-0.52068585,-3.263927,7.8375,37.612503,26.98125,-0.24220663,0.6942897,-0.6776585,1000.06537, , , , 
2026-03-20 18:06:14.238,12.074183,-11.861222,3.2398818,0.20853396,-0.31421357,-3.5626397,3.9562502,35.850002,26.718752,0.26827815,-0.68426,0.67799425,1000.07684, , , , 
2026-03-20 18:06:14.258,12.421143,-12.01197,2.548356,0.35636324,-0.25007278,-4.026897,4.03125,36.84375,26.5125,0.2952419,-0.67120475,0.67903155,1000.07684, , , , 
2026-03-20 18:06:14.278,11.32523,-13.222738,2.4095724,0.4400517,-0.4644863,-4.6530333,-0.65625,34.518753,24.50625,0.32526472,-0.65515655,0.6791578,1000.10126,37.8875281,127.73747765,179.347900390625,1.28
2026-03-20 18:06:14.298,9.171689,-14.361721,2.5196424,0.53962266,-0.6593522,-4.8643928,-0.056250002,35.4375,25.312502,0.35871428,-0.6361407,0.6775009,1000.10126, , , , 
2026-03-20 18:06:14.318,7.8963146,-14.52204,2.5124638,0.66301733,-0.58360493,-4.8100257,-2.0625,38.25,21.65625,0.3924223,-0.6149694,0.67462575,1000.1171, , , , 
2026-03-20 18:06:14.338,7.594819,-13.610375,0.62452674,0.6379719,0.24778202,-4.500317,-7.6687503,34.66875,24.45,0.42253134,-0.5923292,0.67209035,1000.1171, , , , 
2026-03-20 18:06:14.358,8.252846,-12.725031,-0.40917268,0.28183773,1.6906446,-4.2266498,-9.09375,35.193752,20.1,0.44640335,-0.5641125,0.6722449,1000.13324, , , , 
2026-03-20 18:06:14.378,8.568698,-12.540784,0.3278167,0.2531271,2.0357833,-4.274908,-13.181251,33.35625,23.868752,0.45614043,-0.54106075,0.67440563,1000.13324, , , , 
2026-03-20 18:06:14.398,7.60439,-12.837494,0.22013968,0.45654505,1.5843542,-4.3665376,-17.325,32.9625,21.09375,0.46586272,-0.51615727,0.67542773,1000.1252, , , , 
2026-03-20 18:06:14.418,5.3814583,-12.526426,0.06460621,0.68439764,0.771904,-4.2993426,-23.71875,30.431252,22.368752,0.47931826,-0.4904752,0.6733647,1000.1252, , , , 
2026-03-20 18:06:14.438,3.9338005,-11.794223,-0.47377887,0.76625353,0.30703592,-4.0885944,-24.6,30.225,20.475,0.49593186,-0.4653662,0.66835505,1000.1152, , , , 
2026-03-20 18:06:14.458,2.0985055,-10.999805,-0.8063812,0.8077923,0.021762058,-3.8075964,-27.6,27.056252,20.962502,0.5135359,-0.44152635,0.66135746,1000.1152, , , , 
2026-03-20 18:06:14.478,0.2009971,-10.621739,-2.292324,0.73632115,-0.25923574,-3.376937,-30.093752,24.075,19.85625,0.53091836,-0.41948274,0.65326506,1000.1149, , , , 
2026-03-20 18:06:14.498,-0.74177504,-10.683953,-3.0747771,0.40950847,-0.73082334,-2.6933792,-32.662502,20.8125,20.775002,0.55158097,-0.39829907,0.6409204,1000.1149, , , , 
2026-03-20 18:06:14.518,-0.8063812,-10.21496,-2.37368,0.19814926,-0.98005617,-2.0226495,-33.225002,21.75,21.69375,0.5664637,-0.38818964,0.6296581,1000.101, , , , 
2026-03-20 18:06:14.538,-0.72741807,-9.793823,-1.7994026,0.060704686,-0.86643535,-1.4722605,-33.206253,18.900002,21.54375,0.5787229,-0.38259587,0.6192154,1000.101, , , , 
2026-03-20 18:06:14.558,-1.39023,-10.413564,-2.1176481,-0.04130973,-0.53656834,-0.93347776,-34.2,18.4125,22.612501,0.5870528,-0.37961218,0.6114816,1000.0854, , , , 
2026-03-20 18:06:14.578,-2.6608188,-10.669596,-2.5698915,-0.18425208,-0.30627233,-0.2212094,-34.256252,18.7875,21.975,0.5909087,-0.3797622,0.60717016,1000.0854, , , , 
2026-03-20 18:06:14.598,-2.1535404,-10.3848505,-2.4478576,-0.3730093,-0.27450737,0.7433461,-32.9625,18.0375,22.650002,0.59048194,-0.38490728,0.60586244,1000.08466, , , , 
2026-03-20 18:06:14.618,-0.51445687,-10.3441725,-1.7874385,-0.5122865,-0.26595524,1.6291,-31.81875,18.018751,24.075,0.5847548,-0.39888954,0.60750043,1000.08466, , , , 
2026-03-20 18:06:14.638,1.1700903,-10.870593,-1.3040884,-0.57031864,-0.32582,2.1281765,-33.300003,18.618752,24.056252,0.5766783,-0.41481507,0.6108309,1000.0788, , , , 
2026-03-20 18:06:14.658,2.507678,-11.842079,-0.5814559,-0.5257255,-0.5182424,2.5429537,-31.66875,20.15625,23.79375,0.56675345,-0.43383145,0.6148801,1000.0788, , , , 
2026-03-20 18:06:14.678,3.022135,-12.734602,-0.13160525,-0.35834855,-0.78519034,2.9809437,-30.206251,20.0625,22.556252,0.55622554,-0.4548698,0.61912715,1000.081, , , , 
2026-03-20 18:06:14.698,3.586841,-12.952349,0.2943172,-0.100563616,-1.0405318,3.553324,-28.500002,23.587502,24.337502,0.54512084,-0.47754407,0.6237077,1000.081, , , , 
2026-03-20 18:06:14.718,4.505685,-12.622139,0.16749759,0.13461933,-1.0961205,4.056677,-24.750002,24.712502,24.50625,0.5326432,-0.50114214,0.62907666,1000.09247, , , , 
2026-03-20 18:06:14.738,6.0801625,-12.078969,-0.37567315,0.25740314,-0.9531781,4.4415216,-23.175001,26.737501,24.375002,0.517613,-0.5248488,0.6354325,1000.09247, , , , 
2026-03-20 18:06:14.758,7.7503524,-11.686545,-0.73459655,0.26412266,-0.7253256,4.5960703,-19.462502,29.23125,25.087502,0.49931252,-0.5479136,0.6423014,1000.09784, , , , 
2026-03-20 18:06:14.778,8.695518,-11.676974,-0.7728817,0.22197299,-0.5628355,4.5807986,-16.331251,31.031252,25.725,0.47836208,-0.56968325,0.6487994,1000.09784, , , , 
2026-03-20 18:06:14.798,8.872586,-12.272787,-0.7513463,0.19142975,-0.4058433,4.5588074,-12.900001,33.393753,24.468752,0.45004594,-0.59478205,0.6554447,1000.0937, , , , 
2026-03-20 18:06:14.822,8.647661,-12.952349,-0.91405827,0.11568252,0.018707734,4.715189,-9.225,34.893753,24.45,0.42447406,-0.6135574,0.66018593,1000.0937, , , , 
2026-03-20 18:06:14.838,9.346365,-13.763515,-0.8781659,-0.26549712,0.86292285,5.142794,-3.7875001,35.5875,22.9125,0.3840949,-0.63744015,0.6660394,1000.08685, , , , 
2026-03-20 18:06:14.858,11.509477,-13.447663,0.57906306,-0.52694726,1.4823397,5.376755,-1.9312501,36.131252,23.456251,0.3541878,-0.65280414,0.66889995,1000.08685, , , , 
2026-03-20 18:06:14.878,14.065011,-12.622139,2.6321049,-0.519006,1.9545382,5.0982013,-0.75,37.74375,24.7875,0.3096637,-0.6724386,0.6721873,1000.0822, , , , 
2026-03-20 18:06:14.898,14.871393,-10.858629,3.8907297,-0.1372155,1.9502622,4.4250283,2.30625,36.300003,25.95,-0.26551497,0.68744874,-0.67592907,1000.0822, , , , 
2026-03-20 18:06:14.918,14.1726885,-9.475577,2.78046,0.32520914,1.5403719,3.5527132,8.118751,36.675003,24.225,-0.21810205,0.6975597,-0.682182,1000.08563, , , , 
2026-03-20 18:06:14.938,13.000205,-8.224132,0.8566305,0.5121338,1.0217477,2.8569381,7.5750003,35.475002,25.125002,-0.18908525,0.7004231,-0.68743825,1000.08563, , , , 
2026-03-20 18:06:14.958,11.624332,-7.6067834,-0.9212367,0.41195193,0.90812683,2.3596942,7.8750005,36.2625,25.2,-0.16664419,0.7014316,-0.6916633,1000.0949, , , , 
2026-03-20 18:06:14.978,11.397015,-7.84128,-1.8975084,-0.027870705,1.1824051,1.999895,10.96875,36.206253,24.112501,-0.14139017,0.7040854,-0.69408727,1000.0949, , , , 
2026-03-20 18:06:14.998,12.02872,-8.3174515,-1.5936198,-0.22884522,1.2612067,1.7915901,12.262501,36.84375,23.79375,-0.12670048,0.7069376,-0.6938952,1000.07245, , , , 
2026-03-20 18:06:15.018,12.758531,-8.685946,-1.579263,-0.42554367,1.1842377,1.4611121,12.468751,35.11875,25.406252,-0.10867412,0.71136034,-0.6924241,1000.07245, , , , 
2026-03-20 18:06:15.038,13.349558,-8.719446,-0.8805587,-0.6307942,0.92767453,1.0726022,11.08125,33.975002,25.312502,-0.094154924,0.7164411,-0.68942916,1000.0573, , , , 
2026-03-20 18:06:15.058,14.242081,-10.317851,0.55513483,-0.7059306,0.49884745,0.5961277,11.681251,34.143753,26.94375,-0.083099626,0.7231732,-0.6840435,1000.0573, , , , 
2026-03-20 18:06:15.078,15.196816,-10.351351,2.07697,-0.46708247,0.12927426,0.2485456,11.7375,33.787502,27.112501,-0.08007731,0.727228,-0.6802779,1000.0566, , , , 
2026-03-20 18:06:15.098,16.070196,-9.224331,2.8139594,-0.18486296,-0.1645517,-0.14485131,13.968751,33.881252,26.718752,-0.08133801,0.7284315,-0.67896587,1000.0566, , , , 
2026-03-20 18:06:15.118,16.967505,-8.398808,3.0939198,0.31115925,-0.52618366,-1.1961496,9.675,33.05625,28.593752,-0.09214367,0.7262427,-0.68026114,1000.06976, , , , 
2026-03-20 18:06:15.138,15.235102,-10.686346,0.86859465,0.7216604,-0.6672934,-2.3525167,11.118751,34.21875,26.38125,-0.115050115,0.7184495,-0.68557596,1000.06976, , , , 
2026-03-20 18:06:15.158,13.25863,-11.552547,-0.9667004,0.7870229,-0.5622247,-2.9181774,11.793751,36.15,26.493752,-0.1329656,0.71182895,-0.6895239,1000.09125, , , , 
2026-03-20 18:06:15.178,11.614761,-12.083755,-2.3904297,0.5927679,-0.15905392,-3.3390632,8.94375,35.11875,26.550001,0.1584255,-0.7023213,0.6939882,1000.09125, , , , 
2026-03-20 18:06:15.198,11.267802,-12.579068,-2.4263222,0.27328563,0.3210858,-3.7471209,3.525,35.7,24.768751,0.18908939,-0.69112015,0.6966437,1000.0876, , , , 
2026-03-20 18:06:15.218,11.743974,-12.849458,-1.8089739,0.1419497,0.3748419,-4.202215,1.7437501,37.85625,26.062502,0.2136986,-0.6819895,0.6963542,1000.0876, , , , 
2026-03-20 18:06:15.238,11.880364,-13.277773,-1.3519448,0.19020802,-0.099800035,-4.8075824,-0.75,36.35625,25.95,0.2424059,-0.6709548,0.6939229,1000.0783, , , , 
2026-03-20 18:06:15.258,10.463814,-14.127225,-1.6103697,0.25495967,-0.68195415,-5.372632,-1.725,35.775,24.54375,0.27811313,-0.65713465,0.6885741,1000.0783, , , , 
2026-03-20 18:06:15.278,8.9348,-15.03889,-2.6919255,0.12912154,-0.72899073,-5.539398,-5.6062503,36.881252,24.431252,0.31787103,-0.6413118,0.6798279,1000.08124,37.88753679,127.73748786,179.4571533203125,1.35
2026-03-20 18:06:15.300,6.108876,-14.778072,-3.603591,-0.25083634,0.17325652,-5.1350055,-9.4875,34.875,22.63125,0.3623058,-0.62084794,0.66596514,1000.08124, , , , 
2026-03-20 18:06:15.318,5.252246,-13.60559,-4.254439,-0.5159517,0.9087377,-4.6701374,-11.75625,33.768753,21.84375,0.38199908,-0.6090359,0.65774316,1000.07587, , , , 
2026-03-20 18:06:15.338,5.994021,-12.035898,-4.496114,-0.92889625,1.7395139,-4.207713,-16.575,31.893751,24.937502,0.39848775,-0.5945163,0.64783424,1000.07587, , , , 
2026-03-20 18:06:15.358,6.7573314,-11.267802,-2.9886355,-1.12926,2.0577743,-4.1411285,-22.575,28.29375,24.993752,0.4087078,-0.57707775,0.635502,1000.07294, , , , 
2026-03-20 18:06:15.378,6.273981,-11.107483,-1.6462619,-0.9069051,1.5666391,-4.2413106,-23.681252,28.556252,24.487501,0.41423416,-0.5658108,0.6270877,1000.07294, , , , 
2026-03-20 18:06:15.398,4.6205406,-11.4018,-1.6199409,-0.54099715,0.63751376,-4.271854,-27.468752,25.050001,24.300001,0.42951658,-0.54583764,0.61014503,1000.06635, , , , 
2026-03-20 18:06:15.418,2.4095724,-11.483156,-2.268396,-0.3436878,-0.16516256,-3.9419868,-32.71875,20.775002,24.487501,0.44677162,-0.5308786,0.59393877,1000.06635, , , , 
2026-03-20 18:06:15.438,0.97866446,-11.296515,-2.5387847,-0.3504073,-0.63675016,-3.4343581,-34.5,17.118752,24.4125,0.46547452,-0.5188622,0.5763296,1000.06903, , , , 
2026-03-20 18:06:15.458,0.19381863,-11.026127,-2.6895328,-0.42248935,-0.8566615,-2.8259368,-33.9,13.687501,26.250002,0.48304138,-0.51053566,0.5585115,1000.06903, , , , 
2026-03-20 18:06:15.478,-0.1794617,-10.463814,-2.5028925,-0.5617665,-0.9342413,-2.1619267,-32.34375,12.4875,23.831251,0.49774578,-0.50598985,0.5416574,1000.07196, , , , 
2026-03-20 18:06:15.498,-0.29910284,-9.810573,-2.0697916,-0.70104367,-0.59215707,-1.4722605,-35.100002,10.8,28.087502,0.5101338,-0.504846,0.5237178,1000.07196, , , , 
2026-03-20 18:06:15.518,-0.7585248,-10.01157,-2.2037897,-0.83054703,-0.09124792,-0.9035454,-34.818752,7.1062503,27.956251,0.51378554,-0.5055867,0.5137173,1000.0744, , , , 
2026-03-20 18:06:15.538,-1.1988041,-11.315659,-2.7014968,-0.93072885,0.24289511,-0.28657195,-34.893753,8.212501,28.987501,0.5116581,-0.50780666,0.50805706,1000.0744, , , , 
2026-03-20 18:06:15.558,-2.1894326,-11.373086,-2.9790642,-1.1213187,0.12072215,0.61567533,-35.41875,6.3,27.900002,0.5048447,-0.51349896,0.50561756,1000.071, , , , 
2026-03-20 18:06:15.578,-0.95473623,-11.382657,-2.5387847,-1.3216823,-0.10835214,1.6052762,-34.5,7.8750005,27.712502,0.49020752,-0.5288218,0.5055209,1000.071, , , , 
2026-03-20 18:06:15.598,1.1964114,-11.260623,-1.4404793,-1.4212533,-0.22563818,2.2326343,-36.15,5.5875,28.95,0.47811884,-0.541953,0.50696546,1000.05975, , , , 
2026-03-20 18:06:15.618,3.5413775,-11.492727,-0.11485548,-1.3699406,-0.23663375,2.6480224,-35.30625,8.418751,29.325,0.45893812,-0.562055,0.510437,1000.05975, , , , 
2026-03-20 18:06:15.638,4.658826,-11.8899355,0.5886344,-1.1665226,-0.1957058,2.8654904,-32.15625,9.262501,26.625002,0.43782955,-0.58236206,0.5157016,1000.07465, , , , 
2026-03-20 18:06:15.658,4.469793,-12.368501,0.66759753,-0.8904118,-0.1786016,3.160538,-32.193752,9.975,28.9125,0.41016325,-0.6061821,0.5249878,1000.07465, , , , 
2026-03-20 18:06:15.678,4.4171505,-12.660424,0.65324056,-0.7108175,-0.24457498,3.5612652,-33.225002,11.475,30.000002,0.38652134,-0.6246565,0.5346876,1000.0893, , , , 
2026-03-20 18:06:15.698,4.8215375,-12.765709,1.1270195,-0.5128973,-0.37530005,3.991925,-32.41875,14.156251,31.312502,0.361133,-0.643236,0.5460016,1000.0893, , , , 
2026-03-20 18:06:15.717,5.6685967,-12.772887,1.3567305,-0.18303037,-0.44249517,4.423806,-30.0375,16.518751,31.087502,0.33412915,-0.6611336,0.5591404,1000.10126, , , , 
2026-03-20 18:06:15.738,6.5228343,-12.629318,1.1006985,0.046654798,-0.42355835,4.6712065,-27.468752,17.4375,28.593752,0.3057094,-0.6772745,0.5740461,1000.10126, , , , 
2026-03-20 18:06:15.758,7.367501,-12.641282,0.31106696,0.19814926,-0.2164752,4.8703485,-25.875002,22.66875,32.456253,0.27573857,-0.6910819,0.5899205,1000.1049, , , , 
2026-03-20 18:06:15.780,8.267202,-13.598412,-0.7106683,0.09063706,0.16592614,5.026119,-25.406252,23.475,31.125002,0.24302149,-0.7026245,0.6057378,1000.1049, , , , 
2026-03-20 18:06:15.798,9.06162,-14.045869,-0.29671,-0.16226095,0.70226544,5.1965504,-19.48125,23.71875,29.56875,0.19611754,-0.7150138,0.62338567,1000.09906, , , , 
2026-03-20 18:06:15.818,10.083355,-13.847264,0.2321038,-0.3504073,1.1500293,5.2191525,-19.0125,28.125002,29.41875,0.15363422,-0.7230226,0.6353706,1000.09906, , , , 
2026-03-20 18:06:15.838,10.96152,-13.473985,1.2155539,-0.45425433,1.233107,5.058495,-17.925001,28.48125,29.587502,0.10946784,-0.7292331,0.64477843,1000.0971, , , , 
2026-03-20 18:06:15.858,12.038291,-12.423535,1.7611175,-0.38461575,1.2221113,4.7054152,-13.106251,32.081253,29.812502,0.06676397,-0.73332065,0.652053,1000.0971, , , , 
2026-03-20 18:06:15.878,12.768102,-11.253445,1.4117653,-0.32352927,1.1836269,4.1837363,-10.650001,32.7,30.750002,0.027381098,-0.73508906,0.65770626,1000.10175, , , , 
2026-03-20 18:06:15.898,12.638889,-10.590633,0.72741807,-0.37545276,1.1891247,3.5685956,-7.9125004,33.0,28.743752,-0.0074701547,-0.7353867,0.6614058,1000.10175, , , , 
2026-03-20 18:06:15.918,11.619547,-10.246066,0.75613195,-0.52206033,1.2520437,3.0096545,-6.4125004,33.2625,29.343752,-0.045571785,-0.73546046,0.6626147,1000.1047, , , , 
2026-03-20 18:06:15.938,10.514063,-10.04507,1.7108682,-0.4994583,1.1860703,2.7830236,-5.7937503,34.2,30.000002,-0.07304686,-0.7354623,0.66171694,1000.1047, , , , 
2026-03-20 18:06:15.958,10.827522,-9.970892,2.160719,-0.26671883,1.2758675,2.762865,-3.99375,32.025,27.937502,-0.09936745,-0.734019,0.6612415,1000.09515, , , , 
2026-03-20 18:06:15.978,12.717853,-10.009177,1.7371893,0.038713556,1.426751,2.7274349,-1.40625,33.412502,29.437502,-0.12595132,-0.7301075,0.66206414,1000.09515, , , , 
2026-03-20 18:06:15.998,15.570097,-10.061819,0.27996024,0.28550294,1.1518619,2.3987896,-2.25,34.425003,30.862501,-0.15089646,-0.7241725,0.66404665,1000.0905, , , , 
2026-03-20 18:06:16.018,18.12324,-9.145369,0.0,0.3899608,0.532445,1.8514547,-1.2750001,33.91875,28.312502,-0.16992459,-0.7180522,0.6667017,1000.0905, , , , 
2026-03-20 18:06:16.038,20.678774,-8.279166,0.29192436,0.59887654,-0.050319985,1.0225112,-0.54375005,35.60625,30.45,-0.17979918,-0.7127214,0.67036384,1000.08295, , , , 
2026-03-20 18:06:16.058,21.614367,-7.338787,-0.76570326,0.804738,-0.18165591,-0.23159412,1.2,36.675003,26.6625,-0.1783255,-0.7069991,0.6765929,1000.08295, , , , 
2026-03-20 18:06:16.078,20.245672,-6.6424756,-2.2420747,0.7137191,0.07612903,-1.2951097,-0.375,36.24375,29.00625,-0.17151587,-0.7046781,0.6797203,1000.0705, , , , 
2026-03-20 18:06:16.098,17.185253,-8.492127,-3.2207394,0.31360272,0.57398385,-2.5302782,-1.7437501,36.75,28.2,-0.15384561,-0.704572,0.6799802,1000.0705, , , , 
2026-03-20 18:06:16.118,14.098511,-10.858629,-2.914458,0.074143715,0.9362266,-3.2596507,-0.0375,37.6875,25.181252,-0.13627128,-0.70733595,0.674993,1000.0527, , , , 
2026-03-20 18:06:16.138,11.940185,-12.35175,-3.1058838,-0.035201084,1.1555271,-3.6597672,-7.8375,36.768753,25.593752,-0.11746617,-0.71038646,0.6670585,1000.0527, , , , 
2026-03-20 18:06:16.158,12.14836,-13.179667,-3.249453,-0.15554145,1.2050071,-3.9853582,-9.3,36.3375,28.706251,-0.0978177,-0.71309376,0.6567421,1000.04193, , , , 
2026-03-20 18:06:16.178,12.323036,-14.3569355,-2.536392,-0.19463679,1.0620648,-4.3634834,-12.262501,35.8125,24.88125,-0.07591407,-0.7155377,0.6438717,1000.04193, , , , 
2026-03-20 18:06:16.198,13.055241,-15.21596,-1.7994026,-0.07918335,0.70715237,-4.7648215,-15.900001,33.300003,28.031252,-0.050095093,-0.71716803,0.62923634,1000.04486, , , , 
2026-03-20 18:06:16.218,13.739588,-16.046268,-2.536392,0.09185879,0.34613127,-5.39218,-19.612501,29.85,23.98125,-0.0098106675,-0.71722686,0.609022,1000.04486, , , , 
2026-03-20 18:06:16.238,12.672389,-17.376678,-3.048456,0.035048366,0.12866339,-5.9761667,-22.0125,28.85625,24.45,0.028731762,-0.715855,0.5894692,1000.04315, , , , 
2026-03-20 18:06:16.258,10.750952,-18.656837,-3.3427732,8.3993905E-4,0.15920663,-6.2608294,-25.687502,25.987501,24.993752,0.07004071,-0.71273273,0.56637543,1000.04315, , , , 
2026-03-20 18:06:16.278,7.3268228,-18.273987,-3.4408789,-0.008323032,0.20624322,-6.069018,-28.593752,20.962502,24.35625,0.11097898,-0.7073313,0.5412143,1000.04144,37.88754496,127.73749802,179.67230224609375,1.22
2026-03-20 18:06:16.299,6.2213387,-16.266409,-5.491528,-0.34674212,0.8555925,-5.2938304,-31.087502,14.981251,23.1,0.15411726,-0.6973034,0.5102381,1000.04144, , , , 
2026-03-20 18:06:16.318,6.9798636,-14.486148,-4.7856455,-0.694935,1.2459351,-4.9499135,-31.800001,14.418751,23.5125,0.17358397,-0.6902714,0.49119183,1000.03656, , , , 
2026-03-20 18:06:16.338,6.946364,-13.648661,-2.8091738,-0.7596867,1.1879029,-4.830184,-36.2625,10.59375,24.825,0.195181,-0.67977536,0.46479884,1000.03656, , , , 
2026-03-20 18:06:16.358,5.759524,-13.25863,-1.8879371,-0.49701485,0.5965858,-4.7556586,-38.71875,3.4875002,25.48125,0.22262596,-0.6659239,0.43133315,1000.04193, , , , 
2026-03-20 18:06:16.378,4.1587257,-12.914063,-2.5698915,-0.3296379,-0.033215772,-4.524141,-40.800003,1.8000001,24.4125,0.24732351,-0.6562433,0.40484387,1000.04193, , , , 
2026-03-20 18:06:16.398,2.7421749,-12.643675,-3.1250265,-0.43715012,-0.34658942,-4.1405177,-38.287502,-1.8000001,22.650002,0.27190626,-0.64895165,0.378591,1000.0495, , , , 
2026-03-20 18:06:16.418,1.174876,-12.124433,-2.524428,-0.68455034,-0.4455495,-3.4966664,-37.706253,-7.6875005,21.525002,0.29295608,-0.6438223,0.35290006,1000.0495, , , , 
2026-03-20 18:06:16.438,0.4331009,-11.10509,-1.6247265,-0.76213014,-0.34109163,-2.9450555,-37.74375,-8.45625,23.587502,0.30906126,-0.64031655,0.3291369,1000.05804, , , , 
2026-03-20 18:06:16.458,-1.4596218,-10.169497,-1.5553347,-0.7291435,-0.03932442,-2.3848925,-34.125,-10.950001,22.575,0.32097447,-0.63674164,0.3086217,1000.05804, , , , 
2026-03-20 18:06:16.478,-3.290131,-9.683753,-1.7371893,-0.7059306,0.20379977,-1.6042073,-37.987503,-13.106251,25.725,0.32831168,-0.6327454,0.29276106,1000.0678, , , , 
2026-03-20 18:06:16.498,-3.1561332,-10.2723875,-2.0841484,-0.6057488,0.20074543,-0.59200436,-37.59375,-15.675,24.45,0.32998404,-0.6298132,0.28111437,1000.0678, , , , 
2026-03-20 18:06:16.518,-2.3306093,-10.224531,-3.0843484,-0.6161335,0.015653409,0.25098908,-36.131252,-15.750001,22.743752,0.32597992,-0.6311333,0.27816784,1000.06, , , , 
2026-03-20 18:06:16.539,-1.2035898,-10.021141,-4.046263,-0.8134428,-0.023441937,0.9070578,-36.16875,-16.743752,22.2,0.31970805,-0.63465446,0.27856776,1000.06, , , , 
2026-03-20 18:06:16.558,0.54317075,-9.499506,-3.656233,-1.4334706,0.2154062,1.6804127,-36.393753,-15.76875,21.393751,0.30097046,-0.64398926,0.28197116,1000.04926, , , , 
2026-03-20 18:06:16.578,2.0195422,-9.923036,-1.9046868,-1.7327943,0.42065677,2.0597596,-35.90625,-16.21875,21.993752,0.27781594,-0.6527107,0.2859026,1000.04926, , , , 
2026-03-20 18:06:16.598,2.981457,-10.779666,0.1363909,-1.6491058,0.42432195,2.4097853,-38.662502,-16.125,21.0375,0.25018448,-0.66117454,0.2914449,1000.0566, , , , 
2026-03-20 18:06:16.618,3.2183464,-11.13859,0.2943172,-1.3406191,0.18730642,2.6975026,-36.73125,-12.543751,18.618752,0.22169583,-0.6697017,0.29968634,1000.0566, , , , 
2026-03-20 18:06:16.638,2.4311078,-11.992827,-1.4644074,-1.2379938,0.05169443,3.155651,-37.331253,-11.118751,19.21875,0.1859878,-0.6811805,0.31411946,1000.06903, , , , 
2026-03-20 18:06:16.658,2.0434706,-12.789637,-1.835295,-1.4817289,0.19891284,3.7933939,-41.23125,-10.03125,20.643751,0.15308695,-0.691068,0.3281532,1000.06903, , , , 
2026-03-20 18:06:16.678,3.4767714,-13.311273,-0.32063824,-1.693699,0.20441063,4.464734,-40.987503,-6.76875,18.73125,0.113310345,-0.7008014,0.34416404,1000.0793, , , , 
2026-03-20 18:06:16.698,5.7690954,-13.46202,1.6558332,-1.5104395,-0.1749364,4.955259,-43.256252,-3.3937502,20.175001,0.06952211,-0.71026856,0.36247054,1000.0793, , , , 
2026-03-20 18:06:16.718,9.257831,-13.304094,2.4311078,-0.9087377,-0.76564264,5.1446266,-40.59375,2.4750001,20.025002,0.017069839,-0.72141075,0.38953823,1000.0961, , , , 
2026-03-20 18:06:16.738,10.533205,-12.9954195,1.6007984,-0.5831468,-0.6483566,5.013291,-40.03125,6.01875,20.23125,-0.020557882,-0.7277434,0.41301858,1000.0961, , , , 
2026-03-20 18:06:16.758,10.351351,-13.127025,0.91884387,-0.60330534,-0.21769693,4.923494,-36.675003,7.2375,18.4125,-0.047837026,-0.7298961,0.43002298,1000.1071, , , , 
2026-03-20 18:06:16.778,11.535798,-13.313665,1.550549,-0.68516123,0.35834855,4.914942,-36.7125,11.475,18.31875,-0.08600777,-0.72915393,0.45071468,1000.1071, , , , 
2026-03-20 18:06:16.798,12.4426775,-13.344772,1.0767702,-0.70165455,0.70043284,4.709691,-37.575,14.606251,20.25,-0.13520895,-0.7228715,0.47324803,1000.11884, , , , 
2026-03-20 18:06:16.818,12.35175,-12.832707,0.6580262,-0.794506,0.5813142,4.375548,-34.95,18.84375,20.04375,-0.17290343,-0.716049,0.48792198,1000.11884, , , , 
2026-03-20 18:06:16.838,12.129218,-12.193824,0.7968099,-0.9282854,0.39866564,4.1134872,-33.112503,21.393751,20.15625,-0.2075092,-0.7099429,0.4996733,1000.1232, , , , 
2026-03-20 18:06:16.858,12.58864,-10.789237,1.4476577,-1.0645082,0.43165234,3.7243662,-31.63125,23.56875,18.0375,-0.23966198,-0.70439553,0.50857985,1000.1232, , , , 
2026-03-20 18:06:16.878,12.576675,-9.803394,2.603391,-1.0767255,0.6020836,3.291263,-30.000002,26.587502,19.087502,-0.26946247,-0.6988354,0.51416147,1000.11884, , , , 
2026-03-20 18:06:16.898,12.323036,-9.879965,2.7732813,-0.89896387,0.79694945,2.952233,-27.712502,26.94375,18.0375,-0.29665858,-0.69247067,0.5174846,1000.11884, , , , 
2026-03-20 18:06:16.918,12.466606,-10.332209,2.3377876,-0.55749047,0.62163126,2.7811909,-23.493752,29.643751,16.368752,-0.32706743,-0.6827336,0.5212712,1000.12885, , , , 
2026-03-20 18:06:16.938,14.048262,-10.068997,0.8542377,-0.25633413,0.24167338,2.690783,-25.63125,30.150002,18.88125,-0.34711677,-0.67435175,0.52668625,1000.12885, , , , 
2026-03-20 18:06:16.958,16.409977,-8.595019,-0.059820566,-0.2031889,0.049861837,2.4531567,-24.375002,31.368752,20.85,-0.36353192,-0.6666423,0.5330993,1000.11835, , , , 
2026-03-20 18:06:16.978,19.121046,-8.025527,0.32542387,-0.1824195,0.027259842,1.9082652,-22.181252,32.2125,21.6375,-0.37643483,-0.6605808,0.5379822,1000.11835, , , , 
2026-03-20 18:06:16.998,20.95634,-7.183254,1.430908,0.12851068,-0.1437823,1.1575124,-19.96875,33.693752,21.487501,-0.38417298,-0.6564127,0.54136205,1000.11566, , , , 
2026-03-20 18:06:17.018,22.444675,-6.13759,0.8470592,0.45165816,-0.22991423,0.24121523,-21.2625,35.175003,20.2875,-0.3849538,-0.65375847,0.54478973,1000.11566, , , , 
2026-03-20 18:06:17.038,21.59283,-5.4628143,0.12921242,0.5793289,-0.047876526,-0.9084323,-21.84375,34.36875,19.78125,-0.37835827,-0.65367496,0.54612964,1000.1064, , , , 
2026-03-20 18:06:17.058,18.719051,-6.826723,-0.8039884,0.60559607,0.056581352,-1.9872195,-21.50625,34.66875,19.725,-0.3652723,-0.6565983,0.54328626,1000.1064, , , , 
2026-03-20 18:06:17.078,15.376278,-9.60479,-2.012364,0.50419253,-0.042378742,-2.8271585,-20.456251,32.4375,17.118752,-0.34101805,-0.66433567,0.5345035,1000.09467, , , , 
2026-03-20 18:06:17.098,13.493127,-11.423335,-2.07697,0.32093307,-0.15111268,-3.231551,-23.306252,32.98125,19.556252,-0.31754208,-0.67316115,0.5241914,1000.09467, , , , 
2026-03-20 18:06:17.118,12.705888,-12.713067,-1.4069797,0.17066035,-0.16149737,-3.5149922,-24.093752,30.431252,18.862501,-0.29229134,-0.6831701,0.51133984,1000.0832, , , , 
2026-03-20 18:06:17.138,12.9643135,-13.5481615,-0.7609176,0.14256057,-0.16943862,-3.7727773,-28.0125,29.156252,18.2625,-0.26543456,-0.6933474,0.49638864,1000.0832, , , , 
2026-03-20 18:06:17.158,12.957134,-13.993227,-0.5168497,0.17615813,-0.17004949,-4.2455864,-28.837502,27.206251,17.831251,-0.23611131,-0.7031289,0.47950518,1000.0876, , , , 
2026-03-20 18:06:17.178,12.782458,-14.440684,-0.28713873,0.23357943,-0.23174682,-4.6890745,-29.306252,24.16875,17.60625,-0.2036311,-0.7124347,0.46049362,1000.0876, , , , 
2026-03-20 18:06:17.198,12.081362,-15.230316,-0.2105684,0.3087158,-0.33498296,-5.1514993,-32.100002,23.5125,19.1625,-0.16730352,-0.72113854,0.43926433,1000.092, , , , 
2026-03-20 18:06:17.218,9.851251,-15.986448,-0.42592242,0.45471248,-0.41500625,-5.5100765,-34.0125,18.956251,17.925001,-0.11678981,-0.73024994,0.41008967,1000.092, , , , 
2026-03-20 18:06:17.238,6.8099732,-15.438492,-1.9645073,0.45287988,-0.10407609,-5.3207088,-35.662502,14.437501,17.737501,-0.075076036,-0.7350092,0.38605013,1000.0905, , , , 
2026-03-20 18:06:17.258,6.1304116,-14.246866,-3.2398818,0.07108939,0.67905253,-4.863171,-39.131252,9.712501,19.143751,-0.03912792,-0.73560226,0.36144254,1000.0905, , , , 
2026-03-20 18:06:17.278,6.5922265,-13.531412,-1.9525433,-0.21235187,1.2105049,-4.5534625,-40.050003,7.275,18.45,-0.010974598,-0.7317623,0.3353293,1000.08905,37.88755161,127.73750768,179.1705322265625,1.02
2026-03-20 18:06:17.298,6.2931237,-12.643675,-0.5240282,-0.01809687,0.9007965,-4.4092984,-42.487503,2.53125,19.44375,0.014587683,-0.7255866,0.30933386,1000.08905, , , , 
2026-03-20 18:06:17.318,5.6685967,-11.662618,-0.75613195,0.25251624,0.29604036,-4.3488226,-41.568752,-0.5625,14.7375,0.042149533,-0.72000635,0.28508604,1000.0805, , , , 
2026-03-20 18:06:17.338,4.610969,-11.140983,-1.6175481,0.29588762,-0.0026725335,-4.252917,-42.862503,-4.5750003,17.41875,0.07185916,-0.7159916,0.2620062,1000.0805, , , , 
2026-03-20 18:06:17.358,2.8163524,-10.983056,-1.7874385,0.21036656,-0.13217586,-3.967643,-44.006252,-7.425,16.78125,0.1079621,-0.7117745,0.23360442,1000.08344, , , , 
2026-03-20 18:06:17.379,1.3615161,-10.928021,-1.7898313,0.1627191,-0.12789981,-3.5553093,-42.15,-12.6,17.79375,0.12758428,-0.7092445,0.21755871,1000.08344, , , , 
2026-03-20 18:06:17.398,0.021535404,-10.853844,-2.0315065,0.08452842,-0.09185879,-2.8442628,-41.268753,-16.237501,17.60625,0.15492554,-0.7050256,0.19447684,1000.0871, , , , 
2026-03-20 18:06:17.418,-0.89491564,-10.322637,-2.5411777,-0.03581195,0.00160352,-1.9627849,-41.625,-20.25,17.1,0.17078395,-0.70212567,0.18039992,1000.0871, , , , 
2026-03-20 18:06:17.438,-0.62931234,-9.896714,-2.6368906,-0.2691623,0.20685409,-1.2236385,-41.25,-21.09375,18.956251,0.18014716,-0.69984555,0.17044173,1000.07733, , , , 
2026-03-20 18:06:17.458,0.014356935,-10.052248,-2.2827528,-0.5122865,0.4481457,-0.68424493,-41.0625,-20.962502,18.7875,0.18299027,-0.69755,0.1635625,1000.07733, , , , 
2026-03-20 18:06:17.478,0.086141616,-10.578669,-2.0027926,-0.6717222,0.5617665,-0.3079522,-38.7,-21.806252,15.95625,0.18075064,-0.6950294,0.15873565,1000.0732, , , , 
2026-03-20 18:06:17.498,-1.7252251,-10.298709,-1.9118652,-0.7883974,0.5501601,0.27053675,-40.425003,-21.618752,16.59375,0.17261562,-0.69244945,0.15544684,1000.0732, , , , 
2026-03-20 18:06:17.518,-2.120041,-10.124033,-2.009971,-0.9050725,0.43776098,1.0035745,-39.35625,-22.237501,14.512501,0.16081762,-0.692026,0.15635945,1000.07294, , , , 
2026-03-20 18:06:17.540,-1.3710874,-10.009177,-1.4117653,-1.011363,0.2606102,1.6706388,-39.99375,-21.806252,13.781251,0.14819372,-0.6931494,0.15958981,1000.07294, , , , 
2026-03-20 18:06:17.558,0.8925229,-10.60499,-0.5240282,-1.0235803,-0.027107125,2.3865724,-39.693752,-21.88125,12.825001,0.120757245,-0.6977749,0.16986425,1000.07806, , , , 
2026-03-20 18:06:17.578,3.0149565,-11.727223,0.24885355,-0.84948385,-0.35758498,2.8648794,-41.30625,-17.456251,13.81875,0.09521493,-0.703482,0.18217717,1000.07806, , , , 
