Time,Accel_X,Accel_Y,Accel_Z,Gyro_X,Gyro_Y,Gyro_Z,Mag_X,Mag_Y,Mag_Z,Orient_X,Orient_Y,Orient_Z,Pressure,Lat,Lng,Alt,Speed
2026-03-20 18:12:06.459,-0.74416786,6.3720865,6.498906,-0.2154062,-0.154167,-0.047112945,-21.91875,-13.293751,-38.79375,0.15230884,0.27630472,0.74510807,1000.04095,37.88749198,127.73737891,174.111572265625,0.0
2026-03-20 18:12:06.477,-0.526421,6.0011992,6.9391856,-0.7761801,-0.36125016,-0.27924156,-20.475,-11.15625,-37.987503,0.15052159,0.26676658,0.74485844,1000.01483, , , , 
2026-03-20 18:12:06.496,-0.83030945,5.790631,7.6953177,-1.0718386,-0.22319472,-0.34216064,-22.143751,-12.20625,-37.7625,0.14652762,0.25884375,0.7449851,1000.01483, , , , 
2026-03-20 18:12:06.516,-1.3591232,5.9748783,9.078369,-1.2208896,-0.19204062,-0.336052,-22.21875,-11.1,-37.350002,0.14020924,0.24993336,0.7456369,1000.0009, , , , 
2026-03-20 18:12:06.536,-1.105484,5.1852465,9.49472,-1.1457533,-0.37957612,-0.34032804,-20.90625,-10.44375,-38.90625,0.13433598,0.24022494,0.74610037,1000.0009, , , , 
2026-03-20 18:12:06.557,-1.9381863,5.022535,9.537791,-1.0370194,-0.52312934,-0.223042,-22.237501,-8.981251,-37.0125,0.13028929,0.23001204,0.7462133,999.9787, , , , 
2026-03-20 18:12:06.576,-1.3304094,5.5202417,9.236296,-1.0150282,-0.7735839,-0.0019089525,-19.5375,-7.4437504,-39.84375,0.1280429,0.21940412,0.74698776,999.9787, , , , 
2026-03-20 18:12:06.596,0.16749759,5.611169,9.700503,-1.0779473,-1.0051017,-0.33910632,-20.71875,-7.4437504,-39.2625,0.12844305,0.20336582,0.74719936,999.9899, , , , 
2026-03-20 18:12:06.616,1.0336994,5.1613183,10.109675,-1.1628574,-0.8462768,-0.70318174,-21.6,-7.4062505,-39.018753,0.12775908,0.19020088,0.74491704,999.9899, , , , 
2026-03-20 18:12:06.636,0.40438703,4.84068,10.827522,-1.3027455,-0.85421807,-0.99578595,-22.10625,-6.1125,-36.881252,0.1247175,0.17728825,0.74084634,1000.06366, , , , 
2026-03-20 18:12:06.656,-0.2321038,5.3479586,12.466606,-1.1402555,-0.56894416,-1.1802671,-21.28125,-5.025,-37.48125,0.12043787,0.1651709,0.7352359,1000.06366, , , , 
2026-03-20 18:12:06.676,-0.1268196,5.0249276,11.5621195,-0.7920625,0.28015786,-1.2523491,-22.2,-5.86875,-37.331253,0.114518546,0.1579467,0.7286318,1000.20746, , , , 
2026-03-20 18:12:06.696,-2.7589245,4.8502517,10.212567,-0.58559024,1.697975,-0.8925498,-21.09375,-4.7625003,-37.36875,0.10267487,0.15957491,0.72330976,1000.20746, , , , 
2026-03-20 18:12:06.716,-1.0648061,3.8261235,10.540383,-0.49396053,2.5990005,0.02008218,-20.175001,-5.2875004,-37.125,0.077207185,0.17463797,0.7232628,1000.2829, , , , 
2026-03-20 18:12:06.736,1.0504491,2.3832514,11.830115,-0.5519927,1.3968186,0.29741478,-16.425001,-4.4812503,-41.568752,0.060003188,0.1834611,0.7271012,1000.2829, , , , 
2026-03-20 18:12:06.756,-1.5601203,2.8881369,9.7196455,-0.55626875,0.65461797,0.43669197,-16.800001,-3.3000002,-39.9,0.05155503,0.18388882,0.73090464,1000.29974, , , , 
2026-03-20 18:12:06.776,-1.5457634,2.210968,9.18126,-0.44875655,0.86353374,0.67065316,-15.8625,-1.575,-40.40625,0.043348935,0.18504699,0.73586106,1000.29974, , , , 
2026-03-20 18:12:06.796,-1.7228323,1.835295,10.509277,0.11018474,-0.21342088,0.67126405,-15.88125,-2.5687501,-42.35625,0.040920086,0.18541184,0.74058545,1000.29974, , , , 
2026-03-20 18:12:06.816,-3.0987053,1.7395821,9.489935,0.99227345,-1.184085,0.7268527,-17.550001,-2.7562501,-40.631252,0.051202025,0.18372062,0.74347275,1000.2619, , , , 
2026-03-20 18:12:06.836,-2.4047868,1.0815558,7.1952176,1.4601959,-1.1645373,0.7305179,-17.493752,-3.1125002,-39.84375,0.068676345,0.1844845,0.74499106,1000.215, , , , 
2026-03-20 18:12:06.856,-0.99302137,1.9477576,7.003792,1.2952625,0.09750929,0.48311767,-19.143751,-4.78125,-40.65,0.084412426,0.19255492,0.7462947,1000.215, , , , 
2026-03-20 18:12:06.877,-0.02871387,3.76391,7.4584284,1.2494476,-0.5316814,-0.20593779,-17.85,-3.4125001,-40.10625,0.09344904,0.20066415,0.7445713,1000.1479, , , , 
2026-03-20 18:12:06.897,-2.2205393,3.7304106,5.7667027,0.9690606,-1.2134066,-0.7911462,-16.050001,-4.0687504,-41.643753,0.106318645,0.20311041,0.73780006,1000.1479, , , , 
2026-03-20 18:12:06.917,-2.8283165,4.7377887,6.096912,0.65446526,-1.5218933,-0.6298779,-19.087502,-5.8875003,-39.825,0.1186172,0.20188268,0.7301519,1000.09247, , , , 
2026-03-20 18:12:06.936,-1.7491534,5.111069,8.420342,0.5964331,-1.9330052,-0.2474766,-20.025002,-6.8625,-38.90625,0.13402961,0.19593532,0.7239472,1000.09247, , , , 
2026-03-20 18:12:06.956,-0.04546363,4.2424746,8.166703,0.7216604,-2.706971,0.018249584,-21.431252,-8.64375,-37.575,0.15446053,0.18608776,0.71882784,1000.09247, , , , 
2026-03-20 18:12:06.976,0.37806597,4.1754756,6.6759753,0.4174497,-2.4504077,-0.24808747,-23.79375,-9.39375,-36.506252,0.17683598,0.17337649,0.7128954,1000.08075, , , , 
2026-03-20 18:12:06.996,-0.93559366,4.402794,6.8506513,0.108963005,-1.4449242,-0.16989677,-24.375002,-8.475,-34.5,0.19494385,0.16104642,0.70584786,1000.03754, , , , 
2026-03-20 18:12:07.017,-1.3208381,4.409972,7.6594253,-0.1476002,-0.9489021,0.3835467,-25.462502,-8.83125,-35.4375,0.20244798,0.15351366,0.7044685,1000.03754, , , , 
2026-03-20 18:12:07.037,1.4859428,4.644469,8.547162,-0.21601705,-0.015500694,0.6975312,-24.300001,-8.85,-34.331253,0.20389335,0.14851089,0.70801723,1000.0275, , , , 
2026-03-20 18:12:07.057,3.4672,5.276174,7.618747,-0.3436878,0.42248935,0.5460368,-24.4125,-8.71875,-35.550003,0.20186067,0.14710964,0.71278274,1000.0275, , , , 
2026-03-20 18:12:07.077,1.052842,5.0512486,7.7623167,-0.60452706,1.6039019,0.870406,-25.10625,-7.8,-34.912502,0.19359328,0.14865218,0.7190698,1000.04803, , , , 
2026-03-20 18:12:07.098,-0.22492532,3.912265,9.276974,-0.9026291,1.5244894,1.4702752,-24.6,-6.6375003,-34.425003,0.17482066,0.15253717,0.73367834,1000.04803, , , , 
2026-03-20 18:12:07.118,1.1365907,4.479364,10.109675,-0.7297543,0.56665343,1.484325,-24.056252,-5.45625,-34.85625,0.16678175,0.15097639,0.7429589,1000.02875, , , , 
2026-03-20 18:12:07.138,2.2372892,4.5726843,10.226924,-0.16714787,-0.15050182,0.8832341,-25.3875,-6.2250004,-34.050003,0.16460115,0.14491785,0.7532071,1000.02875, , , , 
2026-03-20 18:12:07.157,1.6414764,4.4817567,10.021141,0.27145302,-0.046043932,0.46662432,-23.118752,-3.73125,-34.893753,0.16622072,0.1439749,0.75596845,1000.02875, , , , 
2026-03-20 18:12:07.177,0.63170516,4.5487556,7.456035,0.22624904,-0.3777435,0.32917976,-25.0125,-3.5625002,-34.0875,0.17128812,0.14440776,0.75777346,1000.0236, , , , 
2026-03-20 18:12:07.197,1.2083755,4.546363,7.4416785,-0.23739733,-0.0796415,0.2937496,-21.768751,-3.3750002,-32.8875,0.17345178,0.14236224,0.75930744,999.9882, , , , 
2026-03-20 18:12:07.217,1.6199409,3.9457645,10.157532,-0.3174206,0.4701368,0.10682498,-21.35625,-2.71875,-31.893751,0.17051412,0.1407647,0.7612113,999.9882, , , , 
2026-03-20 18:12:07.237,1.0839486,4.017549,9.820144,0.013668099,0.3296379,-0.011682789,-22.03125,-2.6437502,-34.143753,0.1662881,0.14209026,0.7624228,999.9643, , , , 
2026-03-20 18:12:07.257,1.3495519,4.254439,8.745767,0.1297324,-0.09674571,-0.15401429,-20.25,-2.5687501,-34.800003,0.16560562,0.14349651,0.7621704,999.9643, , , , 
2026-03-20 18:12:07.277,-0.6029913,2.7278178,8.750552,0.13400847,-0.37224573,-0.21754421,-22.29375,-4.5375004,-32.775,0.16876015,0.14326532,0.75975114,999.92303, , , , 
2026-03-20 18:12:07.297,1.5840486,4.5798626,8.750552,0.19692753,-0.2928333,0.14042254,-20.15625,-4.0687504,-32.568752,0.17222041,0.14256771,0.7593373,999.92303, , , , 
2026-03-20 18:12:07.316,1.8520447,4.9172506,8.183454,0.08697187,-0.4730384,0.040240716,-20.2875,-3.9750001,-32.081253,0.17506313,0.14136636,0.75894547,999.92303, , , , 
2026-03-20 18:12:07.336,2.861816,4.4195433,8.262417,-0.045585785,-0.7100539,-0.42096218,-21.393751,-5.08125,-32.0625,0.18064025,0.137904,0.7566604,999.8962, , , , 
2026-03-20 18:12:07.358,0.71306115,4.1276193,9.2075815,-0.06269,-0.6288089,-0.50587237,-20.643751,-4.36875,-33.2625,0.18495242,0.1339724,0.7524381,999.8962, , , , 
2026-03-20 18:12:07.376,0.18185452,3.7567315,9.678967,-0.040088,-0.48464483,-0.2749655,-21.4125,-5.3250003,-33.131252,0.18715875,0.13173376,0.74993926,999.8903, , , , 
2026-03-20 18:12:07.397,0.95712906,3.952943,9.24826,0.09735657,-0.37102398,-0.026954409,-20.475,-5.1000004,-34.162502,0.19052427,0.12920488,0.7479805,999.8903, , , , 
2026-03-20 18:12:07.416,1.282553,4.8526444,8.2456665,-0.0064904382,-0.29894194,-0.09720386,-23.25,-6.2625003,-31.331251,0.19329561,0.12785959,0.74693525,999.894, , , , 
2026-03-20 18:12:07.436,2.4598217,4.369294,8.41795,-0.04497492,-0.45104727,-0.17295109,-23.643751,-5.4187503,-32.737503,0.19684981,0.124452904,0.74509674,999.9074, , , , 
2026-03-20 18:12:07.456,1.7898313,4.362116,7.52782,-0.35651594,0.099341884,-0.21693335,-23.56875,-5.7937503,-33.1875,0.19721612,0.12221287,0.74362814,999.9074,37.8875029,127.73738174,172.42315673828125,0.0
2026-03-20 18:12:07.476,1.0983056,4.2161536,7.9657063,-0.63812464,0.51961684,-0.057497647,-23.1375,-5.2312503,-34.350002,0.1912574,0.12094018,0.7441228,999.9145, , , , 
2026-03-20 18:12:07.496,1.3926228,3.8691943,9.432507,-0.5342776,0.41149378,-0.019013166,-22.725,-5.4375,-35.1375,0.18373007,0.11984646,0.7456484,999.9145, , , , 
2026-03-20 18:12:07.517,1.3782659,3.912265,9.420543,-0.05535962,-0.34353507,-0.14118612,-20.925001,-4.6125,-36.768753,0.18122394,0.11822559,0.74573743,999.9362, , , , 
2026-03-20 18:12:07.536,1.1700903,3.8213377,8.812766,0.17004949,-0.8071815,-0.20044,-23.41875,-5.25,-35.4,0.18580249,0.11514485,0.74345064,999.9362, , , , 
2026-03-20 18:12:07.557,1.2227324,3.8476589,7.6259255,0.06131555,-0.49991646,-0.13202316,-23.19375,-4.9875,-36.35625,0.19162627,0.1122472,0.7409247,999.9301, , , , 
2026-03-20 18:12:07.576,1.1318051,3.8261235,7.7742805,-0.1683696,-0.20181446,-0.030008731,-25.25625,-6.43125,-35.756252,0.19363026,0.110168554,0.73985237,999.9301, , , , 
2026-03-20 18:12:07.596,1.3615161,3.6059837,9.257831,-0.21723878,-0.43088874,-0.03367392,-25.237501,-4.93125,-36.91875,0.19421898,0.10704043,0.7393811,999.9301, , , , 
2026-03-20 18:12:07.616,1.875973,3.6394832,9.188439,-0.033368487,-0.5622247,-0.051999863,-24.975,-5.15625,-37.706253,0.19802947,0.101750046,0.7379482,999.91425, , , , 
2026-03-20 18:12:07.636,1.8233309,3.7830527,8.037491,-0.13965896,-0.37224573,-0.05261073,-26.550001,-5.5687504,-36.131252,0.20079142,0.09842935,0.736829,999.9035, , , , 
2026-03-20 18:12:07.657,1.7108682,3.8333018,8.12124,-0.302149,-0.3502546,-0.084375694,-27.975,-5.4750004,-36.600002,0.20161808,0.09491567,0.73601675,999.9035, , , , 
2026-03-20 18:12:07.677,1.6965113,3.8237305,8.504091,-0.28687736,-0.78091425,-0.1295797,-26.79375,-6.20625,-37.4625,0.20329688,0.08982104,0.7346464,999.8776, , , , 
2026-03-20 18:12:07.696,1.7850457,3.4217365,8.403593,-0.1494328,-1.143768,-0.11247548,-27.937502,-4.2375,-33.581253,0.20863378,0.082482256,0.7321058,999.8776, , , , 
2026-03-20 18:12:07.716,1.8329022,3.2303107,7.183254,-0.082848534,-1.3386338,-0.015958842,-28.425001,-3.9,-35.25,0.2165836,0.074151605,0.72918427,999.8398, , , , 
2026-03-20 18:12:07.736,3.196811,3.0843484,5.7810597,-0.11950042,-1.6801072,0.059177525,-28.875002,-6.1875005,-36.15,0.22897358,0.061660614,0.7255733,999.8398, , , , 
2026-03-20 18:12:07.757,1.079163,2.6943183,4.7042894,-0.05780308,-2.1993423,0.08544471,-30.750002,-4.51875,-34.350002,0.24256799,0.048549447,0.72128415,999.8061, , , , 
2026-03-20 18:12:07.776,2.225325,2.2875385,3.4432719,-0.1268308,-2.3777149,0.31329727,-31.800001,-5.15625,-31.893751,0.2582504,0.03304299,0.71709,999.8061, , , , 
2026-03-20 18:12:07.799,2.4191437,0.6269195,1.5409778,-0.30825764,-2.4650683,0.5264891,-34.875,-4.3500004,-30.69375,0.27408212,0.015420057,0.71345717,999.789, , , , 
2026-03-20 18:12:07.816,0.5240282,1.2514462,0.93559366,-0.681496,-2.892063,0.8679625,-34.575,-3.35625,-28.1625,0.28918302,-0.0056434264,0.7104285,999.789, , , , 
2026-03-20 18:12:07.838,1.2370893,-0.2440679,1.5984055,-0.9386701,-3.6495352,1.3554326,-35.98125,-2.15625,-25.143751,0.30610862,-0.03403741,0.7077121,999.78925, , , , 
2026-03-20 18:12:07.856,3.5030923,-0.6221339,3.1322048,-1.0052544,-4.3758535,1.7085124,-37.78125,-2.11875,-22.48125,0.32645974,-0.069992065,0.7043872,999.78925, , , , 
2026-03-20 18:12:07.876,6.5946193,-1.4045869,3.3403804,-1.1091014,-4.134562,1.8581743,-39.09375,-0.28125,-18.13125,0.3534399,-0.1195882,0.69899285,999.78925, , , , 
2026-03-20 18:12:07.896,7.3292155,-2.0075781,3.4576287,-1.3619994,-3.1565673,1.7170645,-40.818752,3.2062502,-11.962501,0.36806446,-0.15626787,0.6952103,999.82465, , , , 
2026-03-20 18:12:07.916,4.87418,-2.3928227,3.2446675,-1.562363,-2.8034875,1.8856633,-42.581253,5.5125003,-10.368751,0.37571338,-0.18995921,0.69265085,999.86224, , , , 
2026-03-20 18:12:07.936,5.3623157,-3.010171,3.3906298,-1.6197844,-3.4253478,2.4000113,-41.8875,7.05,-6.675,0.3828869,-0.22680926,0.69017714,999.86224, , , , 
2026-03-20 18:12:07.957,8.295917,-4.2831526,4.981857,-1.6093997,-3.9054875,2.6944482,-40.66875,9.75,-3.3937502,0.3919292,-0.2682794,0.6865134,999.8996, , , , 
2026-03-20 18:12:07.976,9.399008,-3.5030923,6.3792653,-1.3057998,-3.6574764,2.979722,-40.875,10.44375,0.3,0.40148148,-0.3104892,0.6822738,999.8996, , , , 
2026-03-20 18:12:07.997,11.1936245,-4.4554358,4.752146,-0.9539417,-3.0667703,2.8477752,-38.7,14.3625,5.25,0.407944,-0.34661984,0.6805012,999.9687, , , , 
2026-03-20 18:12:08.016,11.042876,-4.3334017,2.3808584,-0.94783306,-2.914665,2.7744715,-37.85625,16.556252,7.0312505,0.4128927,-0.3783446,0.6789308,999.9687, , , , 
2026-03-20 18:12:08.036,11.404193,-5.1876397,2.37368,-1.2300526,-2.8028767,2.826395,-36.61875,17.775002,10.087501,0.4167725,-0.41812298,0.67465633,999.98676, , , , 
2026-03-20 18:12:08.056,11.653047,-5.558527,3.1680973,-1.2526546,-2.250655,2.8520513,-33.675003,20.175001,11.962501,0.41570303,-0.4487561,0.671141,999.98676, , , , 
2026-03-20 18:12:08.076,11.265409,-6.1974106,2.845066,-1.268537,-1.4546981,2.9387941,-33.412502,20.2875,15.31875,0.40921682,-0.4759023,0.66981983,1000.019, , , , 
2026-03-20 18:12:08.096,12.624533,-6.570691,2.57707,-1.3516147,-1.1083378,2.8056257,-30.35625,22.35,14.887501,0.39825448,-0.50047207,0.66982406,1000.019, , , , 
2026-03-20 18:12:08.116,12.789637,-6.9726853,3.2877383,-1.322904,-1.1175008,2.6565745,-28.48125,25.368752,18.525002,0.38671002,-0.5236289,0.66884506,1000.04, , , , 
2026-03-20 18:12:08.136,12.459428,-7.2693954,3.4648073,-1.1341468,-1.3331361,2.4934738,-27.281252,25.612501,19.612501,0.3767141,-0.5450899,0.6669302,1000.04, , , , 
2026-03-20 18:12:08.157,12.301501,-7.456035,3.6059837,-0.94416785,-1.4675263,2.3896267,-23.34375,27.000002,20.0625,0.36908498,-0.56477165,0.6644145,1000.04, , , , 
2026-03-20 18:12:08.176,12.480963,-7.6139617,3.141776,-0.6075814,-1.5744276,2.2833362,-21.31875,26.962502,21.243752,0.36203483,-0.5862626,0.66158766,1000.05756, , , , 
2026-03-20 18:12:08.196,13.399807,-7.314859,2.4885356,-0.36690065,-1.6929353,2.0524292,-21.6375,28.518751,24.2625,0.3587892,-0.6007913,0.65948963,1000.08344, , , , 
2026-03-20 18:12:08.216,12.985848,-7.0803623,1.7587247,-0.22640176,-1.644677,1.7634903,-18.16875,29.868752,25.06875,0.35800162,-0.61278933,0.6570661,1000.08344, , , , 
2026-03-20 18:12:08.236,11.882757,-6.95115,1.39023,-0.1995237,-1.3600141,1.6034437,-17.456251,29.681252,24.69375,0.35732067,-0.62280816,0.65479684,1000.08344, , , , 
2026-03-20 18:12:08.256,11.298908,-6.8243303,1.0193424,-0.21113014,-1.1046726,1.5124248,-13.837501,30.187502,24.13125,0.35550067,-0.6316244,0.652927,1000.1108, , , , 
2026-03-20 18:12:08.276,10.8682,-6.5659056,0.41635114,-0.28137958,-0.55733776,1.3737586,-12.168751,29.737501,23.98125,0.35181984,-0.63929754,0.6517067,1000.1137, , , , 
2026-03-20 18:12:08.296,10.468599,-6.4606214,0.23688944,-0.43531752,-0.099800035,1.2705224,-13.51875,31.2,26.6625,0.34552234,-0.6462097,0.6510101,1000.1137, , , , 
2026-03-20 18:12:08.317,10.155139,-6.735796,0.80159557,-0.48601928,0.28993168,1.2082142,-10.837501,29.85,25.5375,0.3364976,-0.6526155,0.6508486,1000.1137, , , , 
2026-03-20 18:12:08.336,10.119247,-6.6759753,0.49052864,-0.37911797,0.18547381,0.9229403,-9.993751,32.04375,27.31875,0.32546142,-0.65893036,0.6512397,1000.1132, , , , 
2026-03-20 18:12:08.356,9.243474,-6.218946,0.25124636,-0.36934412,0.22273657,0.7402918,-8.175,32.98125,26.625002,0.31851798,-0.6630046,0.6511251,1000.12054, , , , 
2026-03-20 18:12:08.376,7.542177,-6.1854467,-0.11964113,-0.37056586,0.10789399,0.55458885,-9.9375,31.66875,28.575,0.31344336,-0.66655713,0.650419,1000.12054, , , , 
2026-03-20 18:12:08.396,6.407979,-6.506085,-0.39481574,-0.4163807,0.16898046,0.6388882,-9.900001,31.931252,28.556252,0.3082674,-0.67024654,0.6494312,1000.1081, , , , 
2026-03-20 18:12:08.416,6.991828,-6.4414787,0.14356937,-0.36995497,0.081015944,0.7286853,-10.9875,30.937502,29.812502,0.30231413,-0.674465,0.64844525,1000.1081, , , , 
2026-03-20 18:12:08.436,7.4273214,-6.541977,0.26799613,-0.19708025,-0.0051159924,0.6798161,-9.262501,30.750002,28.706251,0.29708445,-0.67805165,0.64798933,1000.10736, , , , 
2026-03-20 18:12:08.457,7.042077,-6.977471,-0.45942193,-0.22273657,0.3345248,0.71891147,-7.93125,32.25,29.250002,0.29018041,-0.6813576,0.6485279,1000.10736,37.8875029,127.73738174,172.42315673828125,0.0
2026-03-20 18:12:08.476,7.082755,-7.066005,-0.33738798,-0.38461575,0.85131645,0.83069974,-7.6312504,32.268753,29.23125,0.28085497,-0.6842952,0.64947575,1000.10004, , , , 
2026-03-20 18:12:08.497,7.338787,-7.2789664,0.8327023,-0.46280643,1.5397611,0.96509,-7.0125003,32.456253,29.306252,0.26634637,-0.68726355,0.6513092,1000.10004, , , , 
2026-03-20 18:12:08.517,7.5517483,-7.322037,1.1294123,-0.15248711,1.5666391,1.0157918,-9.95625,32.4,29.775002,0.24928607,-0.68863904,0.6550798,1000.10223, , , , 
2026-03-20 18:12:08.537,7.989635,-7.283752,0.73459655,0.12179117,1.2459351,0.942488,-10.293751,32.98125,30.075,0.23386106,-0.6881174,0.66022116,1000.10223, , , , 
2026-03-20 18:12:08.560,7.879565,-7.3268228,-0.56470615,0.31299183,0.6619483,0.6840922,-9.675,33.05625,29.23125,0.21990617,-0.6856976,0.6670163,1000.0871, , , , 
2026-03-20 18:12:08.576,7.5254273,-7.4919276,-0.9834501,0.25740314,0.3265836,0.5594758,-10.837501,33.075,28.743752,0.21506117,-0.6844816,0.67003626,1000.0871, , , , 
2026-03-20 18:12:08.596,7.4943204,-7.3028946,-0.9906286,0.09674571,-0.005726857,0.40004006,-10.012501,32.025,28.725,0.21164107,-0.68395966,0.6722936,1000.0871, , , , 
2026-03-20 18:12:08.616,7.420143,-7.5182486,-0.1698904,0.019165883,-0.05337431,0.20822853,-9.7875,33.16875,29.1,0.21023378,-0.6844142,0.67297584,1000.06, , , , 
2026-03-20 18:12:08.636,6.960721,-7.6953177,-0.31106696,0.05093085,-0.0240528,0.08972076,-8.7375,34.03125,28.312502,0.21010381,-0.6843749,0.67331475,1000.0456, , , , 
2026-03-20 18:12:08.656,6.908079,-7.52782,-0.9212367,-0.0064904382,0.055970486,-7.63581E-5,-6.9750004,33.225002,27.243752,0.21010624,-0.6841849,0.67348874,1000.0456, , , , 
2026-03-20 18:12:08.676,6.943971,-7.554141,-1.1676974,-0.15859577,0.11033745,-0.17661628,-8.38125,35.0625,29.1375,0.21032757,-0.6844113,0.6727809,1000.0246, , , , 
2026-03-20 18:12:08.696,5.9748783,-7.9944205,-0.74895346,-0.22762349,0.13477205,-0.31039566,-9.4125,34.331253,29.1375,0.2111282,-0.6850266,0.6710556,1000.0246, , , , 
2026-03-20 18:12:08.716,5.474778,-8.379665,-0.124426775,-0.17936517,0.009544762,-0.35743225,-9.46875,34.706253,28.500002,0.2124229,-0.68558705,0.6691311,1000.0092, , , , 
2026-03-20 18:12:08.736,4.5535417,-8.236095,-0.22253251,0.1627191,-0.20364705,-0.24869832,-11.325001,32.25,31.0125,0.21551633,-0.68522173,0.66813236,1000.0092, , , , 
2026-03-20 18:12:08.757,4.0941195,-8.535198,-0.9619147,0.04421134,-0.17004949,-0.18150319,-10.931251,33.300003,28.593752,0.21900864,-0.68435675,0.66798633,999.99384, , , , 
2026-03-20 18:12:08.776,3.5700915,-8.784052,-0.9906286,-0.06940951,-0.1297324,0.033521205,-10.03125,34.256252,30.6,0.21999708,-0.68479395,0.66741794,999.99384, , , , 
2026-03-20 18:12:08.796,4.321438,-8.52802,-0.22253251,-0.093233235,-0.2042579,0.20639594,-10.012501,32.025,28.725,0.21962777,-0.6862157,0.6666814,999.99384, , , , 
2026-03-20 18:12:08.816,5.7188463,-8.350951,0.05503492,0.018555017,-0.27267477,0.16546799,-8.56875,33.54375,29.868752,0.21968472,-0.68732333,0.66636795,999.9799, , , , 
2026-03-20 18:12:08.836,5.706882,-8.420342,-0.526421,0.107741274,-0.19326234,0.028023422,-11.1,32.662502,30.487501,0.22092484,-0.68739855,0.666545,999.9787, , , , 
2026-03-20 18:12:08.856,5.144569,-8.159525,-1.3256238,0.016722424,0.010766491,0.04329504,-9.225,33.09375,29.493752,0.22158827,-0.68713236,0.6668816,999.9787, , , , 
2026-03-20 18:12:08.876,5.5800624,-7.874779,-1.4117653,-0.21051927,0.16226095,0.07811433,-9.900001,32.662502,29.75625,0.2200301,-0.68818325,0.6661721,999.976, , , , 
2026-03-20 18:12:08.896,6.020342,-8.066205,-0.5192425,-0.34063348,0.21479532,0.0054214248,-9.056251,33.24375,29.325,0.21796487,-0.6899784,0.6644919,999.976, , , , 
2026-03-20 18:12:08.916,5.343173,-8.149954,0.016749758,-0.28199047,0.16287182,-0.0410043,-8.231251,32.9625,29.400002,0.2164272,-0.6915349,0.6627447,999.97504, , , , 
2026-03-20 18:12:08.937,4.9292145,-8.319844,-0.16749759,-0.20441063,0.005268709,0.017027855,-9.356251,33.206253,29.6625,0.21549381,-0.69277024,0.66141135,999.97504, , , , 
2026-03-20 18:12:08.956,5.0512486,-8.353344,0.33499518,-0.1579849,-0.102854356,0.10071633,-9.731251,32.79375,30.0375,0.21497229,-0.69415617,0.6602257,999.97797, , , , 
2026-03-20 18:12:08.976,5.515456,-8.288737,0.7465607,0.0112246405,-0.1333976,0.15263984,-7.8562503,31.650002,26.19375,0.21460067,-0.6950693,0.65979284,999.97797, , , , 
2026-03-20 18:12:08.996,6.0323057,-8.116454,0.29910284,0.17615813,-0.1211803,0.13736822,-7.6312504,32.268753,28.9125,0.21454646,-0.6948211,0.66061836,1000.0024, , , , 
2026-03-20 18:12:09.016,5.9557357,-8.0614195,-0.7369894,0.21586435,-0.05948296,0.074449144,-9.056251,33.24375,29.625002,0.21502286,-0.69342846,0.66247976,1000.0024, , , , 
2026-03-20 18:12:09.036,6.017949,-8.142776,-1.2155539,0.09552398,-0.020387612,0.031077746,-8.981251,33.61875,29.60625,0.21528982,-0.692627,0.6634456,1000.00775, , , , 
2026-03-20 18:12:09.056,6.0753765,-8.073383,-0.5312066,0.017944153,-0.060704686,-0.030008731,-9.543751,32.4375,31.575,0.21580563,-0.69249463,0.66349024,1000.00775, , , , 
2026-03-20 18:12:09.077,5.4053864,-8.161918,-0.6149554,0.08147409,0.0040469794,-0.09842559,-9.88125,32.8875,31.275002,0.21675004,-0.6920558,0.66358453,1000.02167, , , , 
2026-03-20 18:12:09.096,4.290331,-8.298309,-1.4955142,0.025885396,0.087124586,-0.036728244,-9.375,34.575,30.206251,0.21715777,-0.6914276,0.6639321,1000.02167, , , , 
2026-03-20 18:12:09.119,3.562913,-8.279166,-1.3423735,-0.11950042,0.11766783,0.14592032,-9.13125,32.98125,30.73125,0.21557216,-0.69200677,0.66374594,1000.0224, , , , 
2026-03-20 18:12:09.136,3.4169507,-8.097312,-0.61734825,-0.12377647,0.05108357,0.28947353,-7.0312505,32.23125,27.618752,0.21363711,-0.6930186,0.66347116,1000.0224, , , , 
2026-03-20 18:12:09.157,3.5126636,-8.348558,-0.6963114,-0.008933897,-0.1107956,0.42264208,-7.2375,32.0625,28.893751,0.21040265,-0.6946692,0.6636748,1000.0241, , , , 
2026-03-20 18:12:09.176,2.9168508,-8.666803,-0.7680961,0.0570395,-0.1523344,0.6511055,-7.8750005,33.99375,29.156252,0.20745173,-0.6959294,0.6645508,1000.0241, , , , 
2026-03-20 18:12:09.196,3.845266,-8.9013,-0.8350951,0.08025236,-0.16882776,0.89606225,-7.425,33.393753,30.525002,0.20288734,-0.6974628,0.6660791,1000.0278, , , , 
2026-03-20 18:12:09.216,5.2570314,-8.650054,-0.9164511,0.10957387,-0.3239874,0.9351576,-7.51875,33.65625,29.75625,0.19817059,-0.6991277,0.66773105,1000.0278, , , , 
2026-03-20 18:12:09.237,5.613562,-8.429914,-1.2394822,0.074143715,-0.48647743,0.8368084,-6.675,34.21875,30.712502,0.19525439,-0.7008548,0.66883475,1000.0234, , , , 
2026-03-20 18:12:09.256,5.5130634,-7.6809607,-1.0576276,0.014278964,-0.3759109,0.7885501,-3.2062502,33.84375,28.66875,0.19301653,-0.702761,0.6693309,1000.0234, , , , 
2026-03-20 18:12:09.277,5.7140603,-7.223932,-0.8781659,-0.040088,-0.17371467,0.76594806,-5.3625,34.125,29.04375,0.18981726,-0.70467186,0.6696444,1000.02264, , , , 
2026-03-20 18:12:09.298,6.135197,-6.977471,-0.6963114,-0.020540329,-0.19081889,0.7415135,-1.9312501,33.73125,29.625002,0.18510287,-0.70680594,0.6701061,1000.02264, , , , 
2026-03-20 18:12:09.316,7.1018977,-6.884151,-0.39960137,-0.0077121677,-0.53717923,0.7103594,-1.40625,34.03125,28.462502,0.18297882,-0.7084977,0.670181,1000.03436, , , , 
2026-03-20 18:12:09.336,8.518449,-6.352944,1.2179468,0.14683662,-1.0521382,0.59307337,-0.16875,33.43125,26.212502,0.18469316,-0.7099041,0.6698881,1000.03436, , , , 
2026-03-20 18:12:09.356,9.925428,-5.8672013,2.225325,0.5237402,-1.3966659,0.36888596,2.0625,35.15625,26.812502,0.19099961,-0.7091903,0.6707396,1000.0378, , , , 
2026-03-20 18:12:09.376,10.466207,-6.34098,0.8063812,0.88353956,-1.4534764,0.07383828,0.3,35.325,29.1375,0.20084633,-0.70536286,0.67357296,1000.0378, , , , 
2026-03-20 18:12:09.396,10.8251295,-6.690332,-0.45942193,0.8010728,-1.3765074,-0.09964732,-0.0,34.537502,29.38125,0.21210417,-0.70023495,0.6767634,1000.0544, , , , 
2026-03-20 18:12:09.416,12.626925,-6.661618,0.22731815,0.63369584,-1.4986804,-0.3201695,2.25,36.28125,29.19375,0.22449274,-0.6956778,0.67844707,1000.0544, , , , 
2026-03-20 18:12:09.436,14.940784,-6.8578296,1.1222339,0.6428588,-1.6843833,-0.75449437,2.41875,37.162502,29.587502,0.24032442,-0.6907648,0.678801,1000.0544, , , , 
2026-03-20 18:12:09.457,15.878771,-7.7001033,0.15792629,0.5585595,-1.383227,-1.3879611,1.4625001,35.943752,28.687502,0.26501676,-0.68223125,0.67860967,1000.071,37.8875029,127.73738174,172.42315673828125,0.0
2026-03-20 18:12:09.476,15.371492,-7.9513497,-0.18903299,0.1645517,-0.65813047,-1.8137339,1.35,36.80625,28.650002,0.28436273,-0.675267,0.6772749,1000.08636, , , , 
2026-03-20 18:12:09.497,14.763716,-7.312466,1.7060826,-0.1494328,0.2948186,-2.17842,1.0125,36.525,27.618752,0.29991487,-0.6690354,0.6752695,1000.08636, , , , 
2026-03-20 18:12:09.517,14.191831,-7.082755,3.2279177,0.013668099,0.74991286,-2.5571563,-1.6125001,37.36875,28.462502,0.31258327,-0.661192,0.6744965,1000.10394, , , , 
2026-03-20 18:12:09.538,12.583855,-7.487142,3.0197423,0.41011935,0.7083741,-2.8778603,-4.65,36.9375,29.41875,0.32587823,-0.64958787,0.6756004,1000.10394, , , , 
2026-03-20 18:12:09.556,11.3778715,-7.743174,2.062613,0.7723622,0.33696827,-3.024468,-4.96875,37.29375,27.112501,0.34179482,-0.63460517,0.67760456,1000.1479, , , , 
2026-03-20 18:12:09.576,11.502298,-7.8197446,1.1102697,0.99105173,-0.124234624,-3.1112106,-9.168751,36.862503,27.112501,0.36113507,-0.6176302,0.6790325,1000.1479, , , , 
2026-03-20 18:12:09.597,12.19861,-7.982456,-0.031106694,1.016708,-0.43394306,-3.299357,-10.5,35.98125,26.062502,0.38967088,-0.594889,0.6784781,1000.16595, , , , 
2026-03-20 18:12:09.616,12.040684,-8.099705,-1.0911272,0.7106648,-0.21769693,-3.47101,-9.7875,35.8125,24.91875,0.4130172,-0.57653576,0.67563415,1000.16595, , , , 
2026-03-20 18:12:09.636,11.387443,-8.642876,-0.715454,0.3050506,0.13293944,-3.59807,-13.06875,34.631252,23.175001,0.43367645,-0.55909985,0.67073447,1000.165, , , , 
2026-03-20 18:12:09.656,10.2317095,-9.08794,1.1389836,0.2079231,0.29054257,-3.6102872,-16.575,34.0125,23.56875,0.45158973,-0.5419777,0.6647535,1000.165, , , , 
2026-03-20 18:12:09.677,8.997013,-8.941978,1.3782659,0.43272135,0.23373213,-3.5131598,-21.0,32.4375,24.6,0.4683745,-0.52378684,0.6589823,1000.1794, , , , 
2026-03-20 18:12:09.697,8.030313,-8.420342,0.1363909,0.54206616,0.16042836,-3.3433392,-23.1,31.462502,25.031252,0.4847346,-0.5047172,0.6535917,1000.1794, , , , 
2026-03-20 18:12:09.716,7.0372915,-7.795816,-0.39720857,0.50907946,0.10728313,-3.191845,-24.843752,30.056252,24.35625,0.50044245,-0.48617962,0.6476306,1000.1794, , , , 
2026-03-20 18:12:09.736,5.831309,-7.0372915,-0.5599205,0.4400517,0.06146827,-2.8809147,-26.400002,27.525002,24.975,0.51817137,-0.46468866,0.6395763,1000.184, , , , 
2026-03-20 18:12:09.756,5.1900325,-6.762117,-0.9906286,0.41561714,0.045585785,-2.666501,-29.118752,26.268751,23.325,0.5277327,-0.4527439,0.6347331,1000.184, , , , 
2026-03-20 18:12:09.776,3.7591243,-6.814759,-1.8520447,0.29588762,0.014431681,-2.2908192,-28.181252,23.625,23.681252,0.54173636,-0.43503702,0.62675756,1000.18427, , , , 
2026-03-20 18:12:09.796,3.0436704,-6.9152575,-2.3138595,0.11323906,-0.0112246405,-1.8412228,-30.525002,22.25625,24.31875,0.5504116,-0.42427194,0.6206908,1000.18427, , , , 
2026-03-20 18:12:09.816,2.7756743,-7.0085773,-2.658426,-0.102396205,-0.12056944,-1.2993858,-32.15625,22.087502,23.41875,0.5567348,-0.41734368,0.6149771,1000.18134, , , , 
2026-03-20 18:12:09.837,2.3952155,-6.9798636,-2.696711,-0.29054257,-0.23113596,-0.8082505,-32.025,20.60625,23.643751,0.5610401,-0.41456276,0.60952306,1000.16644, , , , 
2026-03-20 18:12:09.856,1.7611175,-6.8099732,-2.5148566,-0.47746718,-0.25251624,-0.290848,-31.35,20.306252,23.587502,0.5631099,-0.41583294,0.6046766,1000.16644, , , , 
2026-03-20 18:12:09.876,1.3615161,-6.6329045,-2.009971,-0.64117897,-0.07353285,0.3493383,-32.4375,18.581251,24.112501,0.56119287,-0.42264408,0.6009333,1000.1579, , , , 
2026-03-20 18:12:09.897,0.93559366,-6.5922265,-1.8831514,-0.80061466,0.26794055,0.8899536,-32.04375,19.10625,24.806252,0.55460167,-0.43122277,0.60123116,1000.1579, , , , 
2026-03-20 18:12:09.917,0.5623133,-6.7645097,-1.4045869,-0.92706364,0.50434524,1.4501166,-31.706251,18.6375,24.806252,0.54330856,-0.44241107,0.6044297,1000.1645, , , , 
2026-03-20 18:12:09.938,1.524228,-7.283752,-0.715454,-0.94783306,0.532445,1.9876777,-30.993752,18.993752,21.768751,0.52843165,-0.4562237,0.6097947,1000.1645, , , , 
2026-03-20 18:12:09.956,1.9980069,-7.3603225,-0.1363909,-0.8726967,0.4145481,2.2900558,-30.88125,20.475,24.468752,0.5118198,-0.47182417,0.616277,1000.1645, , , , 
2026-03-20 18:12:09.976,2.498107,-7.4512496,0.42831525,-0.6900481,0.13477205,2.5820491,-29.493752,22.35,25.29375,0.495043,-0.4884519,0.62309635,1000.16425, , , , 
2026-03-20 18:12:09.996,3.237489,-8.183454,0.37088752,-0.4652499,-0.23052509,2.799517,-28.25625,23.118752,22.181252,0.47922328,-0.50561273,0.6298185,1000.16425, , , , 
2026-03-20 18:12:10.016,4.510471,-9.533006,-0.25842485,-0.234343,-0.7100539,2.966283,-27.300001,24.562502,26.00625,0.46534732,-0.5232788,0.63586164,1000.16425, , , , 
2026-03-20 18:12:10.036,5.948557,-11.085947,-1.3686945,-0.12255475,-1.1193334,3.0347,-24.750002,26.212502,24.4125,0.45391512,-0.5414548,0.6404361,1000.16425, , , , 
2026-03-20 18:12:10.056,6.0729837,-12.71546,-2.2851455,-0.20929754,-1.2708278,3.196579,-25.125002,28.893751,26.625002,0.44087017,-0.5650133,0.6437999,1000.14764, , , , 
2026-03-20 18:12:10.076,5.9174504,-13.730017,-2.3258235,-0.43104145,-1.157207,3.5624871,-19.95,29.04375,26.062502,0.42778522,-0.58554465,0.6452798,1000.1203, , , , 
2026-03-20 18:12:10.096,6.4151573,-13.859229,-1.4069797,-0.65461797,-0.7784708,4.040183,-17.118752,29.962502,25.725,0.40935016,-0.60773546,0.64668125,1000.1203, , , , 
2026-03-20 18:12:10.116,7.503892,-13.344772,-0.2105684,-0.76457363,-0.2616792,4.429304,-14.55,32.7,27.45,0.3912825,-0.62473047,0.64821404,1000.1203, , , , 
2026-03-20 18:12:10.136,9.193225,-12.21536,0.3684947,-0.7841213,0.49212793,4.579577,-9.806251,32.943752,26.94375,0.35380408,-0.6512551,0.6523335,1000.0959, , , , 
2026-03-20 18:12:10.156,10.533205,-12.315858,-0.23688944,-0.98081976,1.0816125,4.5575857,-8.7375,34.03125,28.312502,0.3181739,-0.6702119,0.6563054,1000.0959, , , , 
2026-03-20 18:12:10.176,10.911271,-11.540584,1.1102697,-0.98265237,1.2318852,4.3468375,-6.2250004,34.162502,28.66875,0.28038707,-0.6876996,0.65882987,1000.09686, , , , 
2026-03-20 18:12:10.196,11.207981,-11.473584,0.8422736,-0.8390991,0.9905936,4.0670614,-5.4750004,35.737503,29.118752,0.2354254,-0.7056713,0.6608017,1000.0976, , , , 
2026-03-20 18:12:10.217,11.459228,-11.014163,0.9810573,-0.6955459,0.59047717,3.743303,-3.6375,34.66875,29.437502,0.20363931,-0.71743375,0.6610245,1000.0976, , , , 
2026-03-20 18:12:10.238,11.997613,-10.437492,1.1126626,-0.55565786,0.26122105,3.35968,0.4875,34.10625,29.5125,0.17658642,-0.72695786,0.660359,1000.09393, , , , 
2026-03-20 18:12:10.256,11.968899,-9.822537,0.9762716,-0.4823541,0.1060614,2.962007,3.525,34.425003,27.468752,0.15435904,-0.7343945,0.65913635,1000.09393, , , , 
2026-03-20 18:12:10.276,11.10509,-8.843872,0.57906306,-0.5147299,0.19830199,2.5918229,4.0875,34.59375,30.337502,0.13544087,-0.74058765,0.6572782,1000.0954, , , , 
2026-03-20 18:12:10.296,11.447264,-8.118847,0.4426722,-0.7083741,0.6601158,2.2711189,5.26875,33.956253,30.712502,0.11669861,-0.7465898,0.6545472,1000.0954, , , , 
2026-03-20 18:12:10.316,11.207981,-7.661818,1.6773686,-0.70287627,0.83176875,1.940641,6.6562505,33.600002,31.050001,0.09357514,-0.75406563,0.6498854,1000.09393, , , , 
2026-03-20 18:12:10.337,10.923235,-7.298109,2.3234308,-0.44325876,0.6576723,1.6590323,5.64375,32.23125,32.15625,0.07760548,-0.758258,0.6471838,1000.09393, , , , 
2026-03-20 18:12:10.357,11.538191,-6.943971,1.9334008,-0.100563616,0.44631308,1.3871976,6.9187503,32.756252,31.837502,0.065007545,-0.7600287,0.64655787,1000.10956, , , , 
2026-03-20 18:12:10.377,12.224931,-7.2263246,0.62452674,0.15477787,0.26794055,1.0121266,7.5750003,31.800001,33.825,0.0560284,-0.75976616,0.6477437,1000.10956, , , , 
2026-03-20 18:12:10.396,12.973885,-7.389036,-0.18664017,0.22747077,0.13416117,0.70363986,8.231251,32.86875,33.54375,0.05048413,-0.7585448,0.64964616,1000.12933, , , , 
2026-03-20 18:12:10.416,14.079369,-8.183454,-0.7106683,0.21403174,0.03581195,0.31879506,10.125,31.95,31.556252,0.04833502,-0.7570544,0.6515497,1000.12933, , , , 
2026-03-20 18:12:10.436,15.1657095,-8.58784,-0.89013004,0.1523344,-0.05337431,-0.13691007,9.225,31.743752,30.73125,0.050024282,-0.7556431,0.6530487,1000.12225, , , , 
2026-03-20 18:12:10.456,15.5748825,-7.987242,-0.011964113,0.02527453,-0.14744748,-0.8094722,9.8625,32.175003,32.9625,0.058468018,-0.7542704,0.6538612,1000.12225,37.8875029,127.73738174,172.42315673828125,0.0
2026-03-20 18:12:10.476,14.883357,-7.5326056,1.4859428,0.028328855,-0.18165591,-1.4484367,10.087501,33.412502,34.706253,0.06744758,-0.7533369,0.65393585,1000.12225, , , , 
2026-03-20 18:12:10.496,12.662817,-8.389236,2.8809586,0.303218,-0.28000516,-2.1906374,8.118751,32.98125,32.625,0.08889428,-0.7495458,0.6551386,1000.1247, , , , 
2026-03-20 18:12:10.517,10.676775,-9.769895,2.658426,0.7601449,-0.66912603,-2.5687628,5.8125,33.131252,32.081253,0.1111468,-0.74302465,0.65836155,1000.12836, , , , 
2026-03-20 18:12:10.536,10.782059,-10.360922,1.6701902,0.9886083,-1.0325905,-2.7911174,6.0,34.65,30.750002,0.13733439,-0.7337187,0.6629495,1000.12836, , , , 
2026-03-20 18:12:10.556,11.614761,-11.167303,1.160519,0.9696715,-1.0961205,-3.124039,3.73125,33.54375,30.73125,0.16676374,-0.7229123,0.66701806,1000.1484, , , , 
2026-03-20 18:12:10.576,11.349157,-12.191431,1.0863415,0.87620914,-0.98433226,-3.479562,3.3375,35.025,28.06875,0.19810593,-0.71112907,0.6695887,1000.1484, , , , 
2026-03-20 18:12:10.596,10.829915,-12.947563,0.96430755,0.7546471,-0.84505504,-3.7715554,-2.15625,35.456253,28.462502,0.23020847,-0.6984322,0.67049986,1000.1484, , , , 
2026-03-20 18:12:10.617,10.717453,-13.344772,1.160519,0.6068178,-0.6593522,-4.0794315,-2.79375,35.25,29.775002,0.27024773,-0.68137586,0.6691369,1000.1596, , , , 
2026-03-20 18:12:10.636,10.009177,-13.871193,1.6677973,0.55550516,-0.64957833,-4.373868,-5.6062503,33.600002,28.931252,0.30285057,-0.66632485,0.66597134,1000.1613, , , , 
2026-03-20 18:12:10.656,8.9826565,-14.455042,1.4356936,0.58910275,-0.58543754,-4.551019,-6.39375,34.0125,29.156252,0.33575436,-0.64943457,0.66150856,1000.1613, , , , 
2026-03-20 18:12:10.676,6.735796,-14.421542,0.68195444,0.6049852,-0.23113596,-4.3830314,-9.75,33.206253,26.456251,0.3667725,-0.63107914,0.65647286,1000.16644, , , , 
2026-03-20 18:12:10.696,6.4462643,-13.488341,-0.44745782,0.4473821,0.3675115,-3.9517605,-12.95625,33.131252,24.956251,0.3917038,-0.6125685,0.652275,1000.16644, , , , 
2026-03-20 18:12:10.716,8.145168,-12.368501,-0.41156548,0.27939427,0.86658806,-3.750786,-15.431251,31.125002,25.931252,0.4098998,-0.5947476,0.64880544,1000.1579, , , , 
2026-03-20 18:12:10.736,8.516056,-12.023933,-0.14596218,0.28977898,0.73158693,-3.967643,-16.425001,30.4125,24.393751,0.4256997,-0.57613707,0.6449104,1000.1579, , , , 
2026-03-20 18:12:10.756,6.6999035,-11.985648,-0.5096712,0.32337654,0.28993168,-4.0782094,-20.737501,28.725,25.087502,0.44869962,-0.5516803,0.6366524,1000.1503, , , , 
2026-03-20 18:12:10.776,4.912465,-11.935399,-0.24885355,0.28489205,0.02481638,-3.9969647,-21.956251,26.362501,25.66875,0.46891868,-0.53267324,0.62713295,1000.1503, , , , 
2026-03-20 18:12:10.798,2.8426733,-11.298908,0.3062813,0.3520872,-0.003894263,-3.6591563,-22.650002,25.66875,24.375002,0.48805043,-0.51432455,0.6170443,1000.14545, , , , 
2026-03-20 18:12:10.818,1.753939,-10.73181,-0.15792629,0.4455495,0.06391173,-3.2419357,-27.243752,23.962502,24.0375,0.50483257,-0.49652687,0.608155,1000.14545, , , , 
2026-03-20 18:12:10.838,0.77766734,-10.3681,-0.89730847,0.4730384,0.14026983,-2.7898958,-27.243752,21.09375,23.8875,0.51898706,-0.4798439,0.60080135,1000.14886, , , , 
2026-03-20 18:12:10.857,-0.48095736,-10.207782,-1.7730815,0.39668033,0.15554145,-2.1649811,-28.143751,20.25,24.487501,0.53261256,-0.4621472,0.59370583,1000.14886, , , , 
2026-03-20 18:12:10.879,-1.0887343,-10.289138,-2.2061825,0.26045746,0.12255475,-1.4930298,-28.1625,18.525002,22.425001,0.5399701,-0.45224333,0.5896558,1000.14984, , , , 
2026-03-20 18:12:10.896,-0.85902333,-10.291531,-1.7682959,0.16332997,0.065744326,-0.8216895,-27.187502,18.375,23.118752,0.5439583,-0.44675228,0.5873685,1000.14984, , , , 
2026-03-20 18:12:10.916,-0.53599226,-10.413564,-1.9046868,0.17066035,-0.09430225,-0.24075708,-30.525002,17.15625,24.618752,0.54574096,-0.44510525,0.5867619,1000.14813, , , , 
2026-03-20 18:12:10.936,-0.6580262,-10.1288185,-2.804388,0.06864593,-0.22075126,0.36216646,-30.806252,17.362501,26.493752,0.54585963,-0.44739988,0.5873289,1000.14813, , , , 
2026-03-20 18:12:10.957,-0.03589234,-9.702896,-2.7900312,-0.18180864,-0.12789981,1.1007019,-31.5375,18.0375,25.125002,0.5426796,-0.45415378,0.5893286,1000.14984, , , , 
2026-03-20 18:12:10.976,1.038485,-9.549755,-2.2492533,-0.3595703,-0.006948587,1.6730822,-31.66875,18.150002,25.44375,0.53517413,-0.46478206,0.5932816,1000.14984, , , , 
2026-03-20 18:12:10.997,2.4789643,-9.169296,-1.4691931,-0.44692394,0.021762058,2.1367285,-31.2,19.050001,26.737501,0.52402335,-0.47837535,0.598856,1000.1484, , , , 
2026-03-20 18:12:11.016,4.0941195,-9.461221,-0.55513483,-0.34613127,-0.15599959,2.4439936,-29.1,20.025002,26.625002,0.50769114,-0.49767092,0.60687,1000.1484, , , , 
2026-03-20 18:12:11.037,5.302495,-9.961321,-0.5623133,-0.10545053,-0.5438987,2.6022077,-29.268751,22.125,26.362501,0.4955671,-0.51364326,0.6131858,1000.15106, , , , 
2026-03-20 18:12:11.057,6.302695,-10.578669,-1.3304094,0.09185879,-0.9372957,2.6968915,-25.95,21.84375,25.725,0.48577255,-0.5297614,0.6185224,1000.15106, , , , 
2026-03-20 18:12:11.077,6.3864436,-11.363515,-2.1415763,0.08269582,-0.9831105,2.8661013,-24.562502,25.837502,26.118752,0.4767305,-0.54608995,0.6229537,1000.1479, , , , 
2026-03-20 18:12:11.096,6.5611196,-11.387443,-1.7563318,-0.015653409,-0.7748056,3.1391578,-24.243752,25.237501,27.0375,0.46532518,-0.56309,0.6274127,1000.1479, , , , 
2026-03-20 18:12:11.118,7.1449685,-10.851451,-1.0959128,-0.06207913,-0.45226902,3.3859472,-21.150002,27.656252,28.275002,0.4501858,-0.58026356,0.6327415,1000.144, , , , 
2026-03-20 18:12:11.138,7.6953177,-10.143175,-0.8327023,-0.10178535,-0.10102176,3.4983463,-18.75,28.650002,28.125002,0.43145382,-0.5966968,0.6390908,1000.144, , , , 
2026-03-20 18:12:11.157,7.5996046,-9.597611,-0.54317075,-0.15676318,0.19463679,3.5606544,-16.78125,30.975,26.550001,0.40412602,-0.615795,0.6475749,1000.1408, , , , 
2026-03-20 18:12:11.177,7.9034934,-9.482756,-0.4235296,-0.1702022,0.42065677,3.6357908,-14.531251,31.331251,27.525002,0.37980294,-0.6300555,0.6543789,1000.1408, , , , 
2026-03-20 18:12:11.196,8.415557,-9.590433,-0.76570326,-0.25450155,0.7248674,3.712149,-11.08125,33.075,25.687502,0.3528891,-0.64349234,0.66115856,1000.1418, , , , 
2026-03-20 18:12:11.218,9.346365,-9.870394,-0.46660042,-0.32169667,0.88430315,3.711538,-9.806251,32.943752,26.475,0.32373485,-0.6562773,0.66736686,1000.1418, , , , 
2026-03-20 18:12:11.237,10.236495,-9.911072,-0.6197411,-0.34124434,0.8445969,3.603415,-9.637501,33.825,27.956251,0.294366,-0.6680458,0.672551,1000.1335, , , , 
2026-03-20 18:12:11.257,10.188639,-9.817751,-0.20817557,-0.33941174,0.48846275,3.3602908,-7.6875005,35.625,28.893751,0.2672164,-0.67867786,0.67602843,1000.1335, , , , 
2026-03-20 18:12:11.278,10.346565,-9.559326,0.02871387,-0.30459246,0.12927426,3.1397686,-4.55625,34.443752,29.400002,0.24400556,-0.68813556,0.67774963,1000.1159, , , , 
2026-03-20 18:12:11.297,10.377672,-9.329616,0.37567315,-0.20196716,-0.18593197,2.889925,-1.575,35.268753,27.0375,0.2200737,-0.69805425,0.67838204,1000.1159, , , , 
2026-03-20 18:12:11.316,10.547563,-9.114262,0.19381863,-0.13232858,-0.26656613,2.6620724,-0.056250002,34.6875,25.968752,0.20400694,-0.7043006,0.67842925,1000.1174, , , , 
2026-03-20 18:12:11.336,10.466207,-8.906086,-0.16031912,-0.12805253,-0.15477787,2.4733152,1.0125,35.79375,27.0375,0.18932721,-0.7094877,0.67820114,1000.1174, , , , 
2026-03-20 18:12:11.357,10.595419,-8.793623,-0.33020952,-0.17264566,0.060857404,2.3205988,5.2875004,34.36875,26.5125,0.1745751,-0.71421015,0.6776577,1000.1198, , , , 
2026-03-20 18:12:11.376,11.040483,-8.836694,-0.57906306,-0.21235187,0.28076872,2.185598,8.1,35.68125,22.743752,0.15935217,-0.71862775,0.6768853,1000.1198, , , , 
2026-03-20 18:12:11.397,11.906686,-8.874979,-0.59581286,-0.26305366,0.3852266,2.0102797,7.2375,33.9375,27.112501,-0.14419496,0.7228819,-0.67572546,1000.12274, , , , 
2026-03-20 18:12:11.416,13.045669,-8.353344,-0.6053841,-0.2618319,0.39438957,1.7579925,8.64375,35.081253,26.268751,-0.13030346,0.7267139,-0.6743157,1000.12274, , , , 
2026-03-20 18:12:11.436,13.667803,-7.733603,-0.42831525,-0.3003164,0.49396053,1.3884193,8.625,32.943752,28.406252,-0.11849799,0.73008096,-0.6727289,1000.12274, , , , 
2026-03-20 18:12:11.456,14.29233,-8.015956,-0.06460621,-0.234343,0.4615847,1.0231222,10.51875,33.525,27.4125,-0.10910873,0.73291856,-0.67117023,1000.1213,37.88751515,127.73740548,173.6201171875,2.24
2026-03-20 18:12:11.477,15.359529,-7.8460655,0.08853444,-0.011988222,0.12866339,0.66759884,10.368751,32.8875,28.237501,-0.10327806,0.7342908,-0.67056555,1000.1213, , , , 
2026-03-20 18:12:11.496,17.79303,-6.2380886,0.06699903,0.20486878,-0.40462157,-0.09109521,12.7875,32.4,27.075,-0.10519041,0.7330537,-0.6715895,1000.11566, , , , 
2026-03-20 18:12:11.517,17.441284,-6.0490556,0.18424734,0.25251624,-0.6379719,-1.1136829,12.243751,32.7,27.88125,-0.11658878,0.7300474,-0.673077,1000.11566, , , , 
2026-03-20 18:12:11.536,14.861821,-7.8317084,0.37806597,0.3184896,-0.80351627,-2.0415864,10.275001,32.268753,26.118752,-0.13558112,0.72543097,-0.6746943,1000.1242, , , , 
2026-03-20 18:12:11.556,12.758531,-9.257831,0.2536392,0.35941756,-0.8206205,-2.5461607,9.75,34.818752,27.093752,-0.15923388,0.7191686,-0.67634183,1000.12225, , , , 
2026-03-20 18:12:11.576,11.710474,-10.449456,0.27996024,0.32459828,-0.7210495,-2.8503714,8.212501,33.037502,27.825,0.1846988,-0.7118017,0.6775618,1000.12225, , , , 
2026-03-20 18:12:11.596,11.693725,-11.243874,0.57188463,0.2757291,-0.6953932,-3.118541,7.70625,34.85625,27.618752,0.21099937,-0.7036348,0.6779733,1000.12225, , , , 
2026-03-20 18:12:11.616,12.12204,-11.667403,1.0193424,0.24396412,-0.70211273,-3.4649014,4.9125004,36.300003,27.825,0.23886476,-0.6943745,0.6773709,1000.13055, , , , 
2026-03-20 18:12:11.636,11.904293,-12.239287,1.1270195,0.18471023,-0.6227003,-3.935878,2.2875001,36.300003,27.018751,0.2763184,-0.6805903,0.6749983,1000.14105, , , , 
2026-03-20 18:12:11.656,11.550155,-13.27538,1.6390835,0.092469655,-0.5933788,-4.438009,1.0125,36.54375,27.150002,0.3079918,-0.66769636,0.6713058,1000.14105, , , , 
2026-03-20 18:12:11.680,10.454242,-14.031512,2.37368,0.18532111,-0.62025684,-4.8191886,-1.6875001,35.4,26.41875,0.3415244,-0.65241593,0.66598094,1000.1435, , , , 
2026-03-20 18:12:11.696,8.7577305,-14.5818615,1.8592232,0.30443972,-0.44310603,-4.9462485,-3.35625,34.987503,24.45,0.37516925,-0.6342356,0.66005194,1000.1435, , , , 
2026-03-20 18:12:11.716,6.3481584,-14.08894,0.93320084,0.35514152,-0.04848739,-4.717174,-8.08125,36.24375,24.4125,0.4061236,-0.6141859,0.6540758,1000.1435, , , , 
2026-03-20 18:12:11.736,5.9724855,-12.607782,-0.7465607,0.19631667,0.9227876,-4.116694,-8.94375,34.050003,24.018751,0.43400362,-0.5890809,0.6490356,1000.16205, , , , 
2026-03-20 18:12:11.756,6.8171515,-11.710474,-0.80159557,0.022831071,1.5141047,-3.8411942,-15.806251,32.943752,26.493752,0.44701895,-0.569759,0.64694506,1000.1545, , , , 
2026-03-20 18:12:11.776,6.1639113,-11.286944,-0.14596218,0.09735657,1.2190571,-3.8112617,-17.56875,31.29375,24.91875,0.4580226,-0.55014896,0.64434075,1000.1545, , , , 
2026-03-20 18:12:11.796,4.962714,-11.006984,0.09092726,0.28550294,0.49701485,-3.756284,-19.10625,31.5375,22.29375,0.4721166,-0.5306104,0.6392578,1000.1545, , , , 
2026-03-20 18:12:11.816,3.4887354,-10.602597,-0.2416751,0.40950847,-0.023441937,-3.5461464,-22.10625,28.35,24.16875,0.48930895,-0.5119989,0.6317302,1000.13153, , , , 
2026-03-20 18:12:11.837,2.565106,-10.865808,0.38524446,0.4229475,-0.33559385,-3.2284968,-24.075,26.531252,23.25,0.5068817,-0.49512723,0.6229614,1000.13153, , , , 
2026-03-20 18:12:11.856,2.0578275,-10.557134,-1.282553,0.44432777,-0.26534438,-2.6921575,-24.54375,26.362501,23.15625,0.52307737,-0.47988287,0.6147243,1000.1232, , , , 
2026-03-20 18:12:11.876,1.1724831,-10.025927,-0.96430755,0.30627233,-0.17921245,-2.2211807,-27.50625,24.806252,23.25,0.53611106,-0.46729118,0.60731363,1000.1232, , , , 
2026-03-20 18:12:11.896,0.8135597,-9.906285,-1.4380864,0.1627191,0.0834594,-1.6848414,-28.650002,22.06875,24.300001,0.5470787,-0.45495465,0.600608,1000.12177, , , , 
2026-03-20 18:12:11.917,0.3469593,-9.932607,-1.7754744,0.0026725335,0.2618319,-1.271286,-30.750002,21.112501,24.093752,0.55062,-0.44942418,0.59811467,1000.12177, , , , 
2026-03-20 18:12:11.936,0.16271193,-10.899307,-1.5577276,-0.13660464,0.16103923,-0.6909644,-33.0,20.25,25.462502,0.552573,-0.44450042,0.5955969,1000.1174, , , , 
2026-03-20 18:12:11.956,-0.6125626,-10.743773,-1.4189439,-0.14271328,-0.15538873,-0.030619597,-32.550003,19.331251,22.6875,0.55251217,-0.44519797,0.59430856,1000.1025, , , , 
2026-03-20 18:12:11.976,-0.9092726,-10.241281,-1.8831514,-0.18486296,-0.15661046,0.6749292,-32.34375,19.81875,24.956251,0.550715,-0.44999084,0.5943658,1000.1025, , , , 
2026-03-20 18:12:11.998,-0.014356935,-9.712467,-2.0841484,-0.39866564,0.044364054,1.3713151,-32.737503,18.54375,23.831251,0.5425121,-0.4616552,0.5979307,1000.10834, , , , 
2026-03-20 18:12:12.016,1.4811572,-9.525827,-1.0624132,-0.532445,0.11827869,1.8936045,-28.275002,21.0,24.0,0.5342609,-0.47136456,0.60151196,1000.10834, , , , 
2026-03-20 18:12:12.036,3.3499517,-10.140782,-0.2727818,-0.40660688,-0.11995857,2.2454627,-30.843752,22.95,25.556252,0.5184417,-0.48985922,0.60856473,1000.10834, , , , 
2026-03-20 18:12:12.056,4.5272202,-10.777273,-0.5168497,-0.16103923,-0.5157989,2.4531567,-29.85,22.06875,25.35,0.50693893,-0.5056168,0.6140463,1000.11053, , , , 
2026-03-20 18:12:12.076,5.2331033,-11.648261,-1.3304094,-0.035201084,-0.80168366,2.64619,-26.56875,25.25625,25.893751,0.49688926,-0.5219679,0.6188866,1000.12225, , , , 
2026-03-20 18:12:12.096,5.4173503,-11.96172,-1.4045869,-0.03459022,-0.83467036,2.956509,-25.237501,25.3875,26.531252,0.48638433,-0.5392158,0.6233273,1000.12225, , , , 
2026-03-20 18:12:12.116,5.828916,-11.643475,-1.2059826,-0.07918335,-0.6446914,3.2375069,-22.85625,27.750002,26.2875,0.4731742,-0.55715543,0.62831664,1000.12225, , , , 
2026-03-20 18:12:12.136,6.8075805,-10.858629,-0.9595219,-0.14637847,-0.28489205,3.5032332,-21.4125,28.500002,27.7875,0.45614567,-0.57515025,0.63430506,1000.1291, , , , 
2026-03-20 18:12:12.156,7.735996,-9.911072,-0.4546363,-0.16714787,-0.07047852,3.5740936,-17.38125,30.16875,26.5125,0.4307852,-0.5966431,0.64243215,1000.1247, , , , 
2026-03-20 18:12:12.176,7.836494,-9.798609,-0.19621146,-0.13843723,-0.023441937,3.5331655,-15.7875,31.462502,25.181252,0.40946284,-0.6123671,0.64856327,1000.1247, , , , 
2026-03-20 18:12:12.196,7.4392858,-9.966106,-0.35413775,-0.09078978,0.077961616,3.597917,-15.975,32.287502,28.706251,0.38736168,-0.62678236,0.65449554,1000.1225, , , , 
2026-03-20 18:12:12.216,7.920243,-10.246066,-0.4761717,-0.1146135,0.22945608,3.7445247,-11.118751,34.3125,25.612501,0.36337426,-0.64061624,0.6602233,1000.1225, , , , 
2026-03-20 18:12:12.236,9.140582,-10.406385,-0.61016977,-0.12377647,0.28321218,3.8300457,-10.9875,35.8125,26.75625,0.3375261,-0.6537704,0.66559803,1000.12103, , , , 
2026-03-20 18:12:12.256,10.212567,-10.114461,-0.24885355,-0.1268308,0.064522594,3.6681666,-9.618751,36.693752,26.250002,0.3121693,-0.666011,0.6696403,1000.12103, , , , 
2026-03-20 18:12:12.276,10.277173,-9.68136,0.19381863,-0.007101303,-0.2787834,3.495292,-6.0937505,36.693752,25.406252,0.289987,-0.676622,0.67211074,1000.12054, , , , 
2026-03-20 18:12:12.296,10.741381,-9.0233345,-0.3469593,0.09491312,-0.35453063,3.3040912,-2.49375,37.18125,26.250002,0.26582235,-0.6871531,0.67428285,1000.12054, , , , 
2026-03-20 18:12:12.318,10.904093,-8.79123,-0.57427746,0.06436988,-0.28550294,3.1868052,-2.49375,37.18125,26.250002,0.25666013,-0.6907728,0.6748698,1000.12054, , , , 
2026-03-20 18:12:12.336,11.100305,-8.293523,-0.782453,-0.08651373,0.04253146,2.7854671,2.8875,34.85625,27.206251,0.22972013,-0.7006165,0.67546564,1000.1125, , , , 
2026-03-20 18:12:12.356,11.152946,-8.207381,-0.57188463,-0.18852814,0.25938845,2.5539494,8.53125,37.3125,25.237501,-0.21204491,0.70676124,-0.67491496,1000.1176, , , , 
2026-03-20 18:12:12.376,11.270195,-7.5828547,0.12921242,-0.08651373,0.23922992,2.3303728,8.0625,36.412502,24.712502,-0.19514987,0.71209294,-0.67422616,1000.1176, , , , 
2026-03-20 18:12:12.396,12.646068,-7.9130645,-0.60059845,0.17676899,0.039477136,2.1446698,8.043751,36.393753,26.118752,-0.18031447,0.71538496,-0.67447615,1000.12836, , , , 
2026-03-20 18:12:12.416,14.337793,-8.216953,-2.3401806,0.2683987,-0.05337431,1.8893284,9.88125,36.075,26.400002,-0.16851267,0.71671927,-0.67551214,1000.12836, , , , 
2026-03-20 18:12:12.436,16.151552,-8.037491,-3.8931224,0.032604907,0.016264275,1.4024692,11.1,34.95,26.94375,-0.15975994,0.7178751,-0.67580414,1000.1164, , , , 
2026-03-20 18:12:12.456,17.127825,-8.374879,-3.5006995,-0.32841617,0.21846052,0.8258128,12.4875,35.86875,25.050001,-0.15419027,0.72040063,-0.6740994,1000.1164,37.88752419,127.73742371,174.33154296875,1.81
2026-03-20 18:12:12.477,17.206787,-8.286345,-1.8161523,-0.50190175,0.47868893,0.26320636,14.75625,35.475002,25.312502,-0.1512871,0.7239159,-0.67112917,1000.1164, , , , 
2026-03-20 18:12:12.496,17.381464,-7.628319,-0.30388847,-0.42126763,0.5257255,-0.45639235,14.437501,35.41875,26.41875,-0.15181184,0.727298,-0.668009,1000.12396, , , , 
2026-03-20 18:12:12.516,16.476976,-7.4656067,0.27996024,-0.1702022,0.35101816,-1.2560143,10.6875,35.268753,28.987501,-0.15835962,0.7271292,-0.66731524,1000.12396, , , , 
2026-03-20 18:12:12.536,14.194224,-8.453842,-0.09571291,0.063759014,0.0816268,-2.0263147,10.762501,34.912502,28.837502,-0.17117852,0.7240029,-0.66804856,1000.1269, , , , 
2026-03-20 18:12:12.556,12.452249,-9.399008,-0.3062813,0.1957058,-0.24396412,-2.445368,10.9875,37.2,25.44375,0.1891089,-0.7185898,0.6692281,1000.13544, , , , 
2026-03-20 18:12:12.576,12.205789,-10.19821,0.0,0.2738965,-0.45532334,-2.7459135,5.3250003,36.09375,27.806252,0.21084344,-0.71149933,0.6701193,1000.13544, , , , 
2026-03-20 18:12:12.596,12.449856,-11.272588,0.0526421,0.27817255,-0.46387544,-3.124039,5.9437504,36.91875,26.75625,0.24146602,-0.7004865,0.670579,1000.14667, , , , 
2026-03-20 18:12:12.616,12.315858,-11.679367,0.20817557,0.22563818,-0.37835437,-3.4264169,2.71875,35.5875,27.7875,0.260949,-0.69290775,0.67023027,1000.14667, , , , 
2026-03-20 18:12:12.637,11.765509,-12.098111,0.8422736,0.1663843,-0.27267477,-3.8601308,0.375,36.956253,27.656252,0.29481176,-0.67855966,0.6682512,1000.1596, , , , 
2026-03-20 18:12:12.656,9.693324,-12.526426,2.062613,0.30932665,-0.53656834,-4.2859035,-0.3,36.9375,23.400002,0.32450014,-0.66447216,0.66542286,1000.1596, , , , 
2026-03-20 18:12:12.676,7.8149586,-13.016955,1.1916257,0.38201955,-0.3832413,-4.274297,-4.2375,35.643753,24.206251,0.35510278,-0.6480925,0.6619921,1000.1596, , , , 
2026-03-20 18:12:12.696,7.312466,-12.547962,0.8805587,0.32276568,0.11094832,-4.139907,-6.7875004,34.125,26.868752,0.38173294,-0.6309677,0.6586614,1000.17645, , , , 
2026-03-20 18:12:12.716,6.680761,-11.68176,-0.083748795,0.29222244,0.6259073,-3.9242716,-10.25625,33.525,26.19375,0.40378487,-0.61316806,0.65593195,1000.17645, , , , 
2026-03-20 18:12:12.736,7.649854,-11.083554,-1.1988041,0.061926417,1.1182643,-3.742234,-11.981251,34.350002,25.3875,0.42016733,-0.5954876,0.6539097,1000.18744, , , , 
2026-03-20 18:12:12.757,8.477771,-11.050055,-0.77766734,-0.05169443,1.0987166,-3.8607419,-15.806251,31.462502,26.56875,0.43672487,-0.57363665,0.6499705,1000.1828, , , , 
2026-03-20 18:12:12.776,7.2215385,-11.320444,-0.16749759,0.0778089,0.43287405,-4.0507207,-16.6875,30.525002,23.79375,0.45301706,-0.5553347,0.6437022,1000.1828, , , , 
2026-03-20 18:12:12.798,5.7810597,-11.818151,-0.29910284,0.19020802,-0.23846634,-4.0336165,-23.19375,27.468752,25.25625,0.47870854,-0.53244185,0.63149244,1000.18646, , , , 
2026-03-20 18:12:12.816,4.3740797,-11.724831,-0.37088752,0.20242532,-0.3502546,-3.864407,-19.743752,26.118752,21.2625,0.4946918,-0.5192243,0.62287456,1000.18646, , , , 
2026-03-20 18:12:12.836,3.4241292,-11.253445,-0.7298109,0.099800035,-0.19509494,-3.498499,-23.94375,25.1625,25.0125,0.5138268,-0.5026065,0.6114621,1000.18207, , , , 
2026-03-20 18:12:12.856,2.5004997,-10.906486,-0.9068798,0.0020616686,0.05169443,-3.182071,-27.468752,23.04375,26.268751,0.5293464,-0.4870837,0.60096645,1000.18207, , , , 
2026-03-20 18:12:12.876,0.5407779,-10.762917,-1.1102697,-0.052305296,0.22701262,-2.7245333,-27.50625,22.050001,25.406252,0.5437358,-0.46931604,0.58986735,1000.1796, , , , 
2026-03-20 18:12:12.896,-0.9667004,-10.803595,-1.1988041,-0.06879865,0.17631085,-2.088623,-30.69375,19.987501,25.237501,0.5517992,-0.45799407,0.5828188,1000.1796, , , , 
2026-03-20 18:12:12.916,-1.5840486,-10.683953,-0.79441714,-0.027259842,0.049861837,-1.438052,-30.50625,17.38125,25.987501,0.5560924,-0.45212176,0.57876414,1000.1796, , , , 
2026-03-20 18:12:12.936,-1.5002998,-10.176675,-0.5096712,0.1419497,-0.07047852,-0.65247995,-30.6375,18.768751,23.90625,0.56054884,-0.44698516,0.5751098,1000.1816, , , , 
2026-03-20 18:12:12.959,-1.4859428,-10.131211,-1.6199409,0.26778784,-0.18898629,0.042073313,-34.3125,16.518751,24.281252,0.5622666,-0.44623405,0.57504386,1000.1833, , , , 
2026-03-20 18:12:12.976,-1.2346965,-9.343972,-2.3856442,0.20486878,-0.2616792,0.6944769,-31.593752,16.800001,22.893751,0.5621109,-0.44924846,0.57675326,1000.1833, , , , 
2026-03-20 18:12:12.996,0.63888365,-9.549755,-2.9192436,0.021609342,-0.17432554,1.2344813,-28.85625,18.300001,25.9125,0.5589517,-0.4562297,0.580027,1000.1711, , , , 
2026-03-20 18:12:13.016,1.605584,-10.243673,-3.1202407,-0.25266895,-0.06620247,1.674304,-29.962502,18.5625,25.237501,0.55210286,-0.46664095,0.58450836,1000.1711, , , , 
2026-03-20 18:12:13.036,2.5196424,-10.844273,-2.1104696,-0.44448048,-0.17310381,2.1691046,-27.13125,19.368752,23.212502,0.5389572,-0.48463592,0.5907198,1000.1635, , , , 
2026-03-20 18:12:13.056,3.5700915,-11.480763,-0.79920274,-0.39561132,-0.43944085,2.546619,-28.968752,19.9125,25.687502,0.5267096,-0.5021267,0.59568614,1000.1635, , , , 
2026-03-20 18:12:13.077,4.369294,-11.935399,-0.4426722,-0.25938845,-0.58788097,2.8557165,-25.781252,21.225,26.5125,0.5171753,-0.51616496,0.599604,1000.1635, , , , 
2026-03-20 18:12:13.096,5.0368915,-12.47857,-0.6125626,-0.15065452,-0.52251846,3.2900414,-24.750002,23.34375,24.88125,0.49935955,-0.5402577,0.60728854,1000.16327, , , , 
2026-03-20 18:12:13.116,5.532206,-12.574283,-0.4139583,-0.09873102,-0.40462157,3.6144106,-23.8875,23.53125,27.88125,0.4819338,-0.559905,0.6147472,1000.16327, , , , 
2026-03-20 18:12:13.136,6.664011,-12.265609,-0.22492532,0.024663666,-0.3398699,3.9632144,-21.393751,26.175001,25.143751,0.46160817,-0.57937074,0.62326473,1000.1711, , , , 
2026-03-20 18:12:13.156,7.9011,-11.880364,-0.031106694,0.17188208,-0.53779006,4.103102,-17.79375,28.893751,26.00625,0.44014955,-0.598055,0.63177556,1000.1718, , , , 
2026-03-20 18:12:13.176,9.016156,-11.341979,0.047856454,0.36491534,-0.73326683,4.0878305,-17.23125,30.31875,27.2625,0.41965494,-0.6151345,0.6393375,1000.1718, , , , 
2026-03-20 18:12:13.196,9.530613,-10.959127,-1.2610176,0.41195193,-0.42539096,3.9968119,-12.750001,30.54375,25.06875,0.39429754,-0.6331226,0.648228,1000.16376, , , , 
2026-03-20 18:12:13.216,9.169296,-11.08834,-1.8568304,0.17432554,0.06940951,4.033464,-12.075001,33.318752,27.468752,0.37079257,-0.64635175,0.654872,1000.16376, , , , 
2026-03-20 18:12:13.236,9.82493,-10.870593,-1.9142581,-0.09262237,0.5568796,4.198397,-9.5625,33.46875,27.0375,0.34275493,-0.660066,0.66065264,1000.16376, , , , 
2026-03-20 18:12:13.256,11.205588,-10.526027,-1.3495519,-0.42248935,1.0889429,4.1281476,-4.55625,35.60625,25.312502,0.31049198,-0.6741172,0.66518676,1000.1457, , , , 
2026-03-20 18:12:13.277,11.60519,-10.040284,-0.7393822,-0.55260354,1.1573597,3.874639,-3.2812502,34.725002,26.475,0.27707556,-0.6874826,0.6680518,1000.13763, , , , 
2026-03-20 18:12:13.297,11.52862,-9.659825,-0.4235296,-0.57703817,0.92706364,3.5600436,3.54375,34.95,23.56875,0.24590303,-0.6994477,0.6690967,1000.13763, , , , 
2026-03-20 18:12:13.316,11.344372,-9.142975,-0.39481574,-0.60147274,0.70531976,3.29615,1.5375,33.24375,26.362501,0.21827914,-0.71000797,0.6684879,1000.13763, , , , 
2026-03-20 18:12:13.336,11.564512,-8.453842,0.22253251,-0.57154036,0.57215124,3.02065,3.1125002,34.518753,26.587502,0.18740183,-0.7215953,0.6661631,1000.123, , , , 
2026-03-20 18:12:13.356,11.408978,-8.176275,0.8422736,-0.42065677,0.37178758,2.7549238,5.1937504,34.0875,28.3875,0.16585852,-0.72892654,0.664155,1000.1154, , , , 
2026-03-20 18:12:13.377,11.775081,-8.597412,1.3423735,-0.07551816,0.065744326,2.5307364,4.93125,34.068752,26.8875,-0.14758305,0.7338956,-0.6630096,1000.1154, , , , 
2026-03-20 18:12:13.396,12.131611,-9.02812,0.33499518,0.32276568,0.030314164,2.4702609,8.3625,33.9,29.625002,-0.1315501,0.7357851,-0.6640104,1000.11395, , , , 
2026-03-20 18:12:13.416,13.978869,-8.953942,-1.18684,0.4021781,0.33024877,2.3676355,8.2875,33.412502,28.25625,-0.11524877,0.7356962,-0.6665981,1000.11395, , , , 
2026-03-20 18:12:13.436,16.632511,-7.5661054,-1.4452649,0.24579671,0.645455,1.7567707,11.868751,33.15,30.056252,-0.09565751,0.735543,-0.66928756,1000.10077, , , , 
2026-03-20 18:12:13.456,17.089539,-7.649854,-1.4380864,0.083306685,0.69860023,1.0243438,13.725,31.987501,26.7,-0.08720009,0.7356979,-0.6701992,1000.10077,37.88753104,127.73744059,174.582275390625,1.77
2026-03-20 18:12:13.476,15.883556,-7.9154572,-0.2943172,0.1297324,0.4560869,0.32246023,12.58125,33.73125,29.025002,-0.08046048,0.735674,-0.6712905,1000.101, , , , 
2026-03-20 18:12:13.496,16.00559,-7.367501,-0.2847459,0.35819584,-0.047876526,-0.19066617,9.675,33.05625,27.975,-0.08182546,0.7336635,-0.6735218,1000.101, , , , 
2026-03-20 18:12:13.516,16.015162,-6.5371914,-0.17228323,0.48831004,-0.6092613,-0.89743674,10.762501,32.550003,27.581251,-0.09106936,0.72978985,-0.67671734,1000.101, , , , 
2026-03-20 18:12:13.536,15.031712,-6.8817577,-0.5766702,0.4437169,-1.1010075,-1.8357251,10.462501,32.756252,29.775002,-0.109184854,0.7244956,-0.67994916,1000.1125, , , , 
2026-03-20 18:12:13.556,13.430914,-8.930014,0.011964113,0.30199626,-1.3948333,-2.4924047,10.1625,34.725002,27.993752,-0.13478959,0.7187135,-0.68176264,1000.11884, , , , 
2026-03-20 18:12:13.577,12.30868,-11.085947,1.1581261,0.2928333,-1.5805362,-2.9346707,10.3125,34.0125,27.393751,-0.17320184,0.7101563,-0.6823243,1000.11884, , , , 
2026-03-20 18:12:13.597,12.35175,-12.514462,1.5194423,0.32337654,-1.5780928,-3.2394922,10.856251,35.7,24.150002,-0.20641442,0.70147365,-0.6821494,1000.13617, , , , 
2026-03-20 18:12:13.617,12.476177,-13.25863,1.3495519,0.27817255,-1.4467568,-3.561418,9.09375,35.006252,25.312502,0.24061877,-0.6912669,0.6812384,1000.13617, , , , 
2026-03-20 18:12:13.636,12.524034,-13.067204,1.1940185,0.15661046,-1.2891538,-3.9047241,8.887501,37.5,23.643751,0.2754282,-0.67992306,0.67896724,1000.14716, , , , 
2026-03-20 18:12:13.656,12.643675,-13.184453,1.3399807,-0.030314164,-1.0619121,-4.4086876,4.78125,36.1875,25.5375,0.31077242,-0.66742563,0.6749331,1000.14716, , , , 
2026-03-20 18:12:13.676,11.693725,-13.890335,1.8568304,-0.13965896,-0.97761273,-4.9114294,3.4687502,36.075,23.5125,0.34735256,-0.65302885,0.66889006,1000.14716, , , , 
2026-03-20 18:12:13.696,8.750552,-14.864214,2.251646,-0.11766783,-0.6453023,-5.097132,-0.91875005,36.225002,25.050001,0.38386613,-0.6362452,0.66141146,1000.1586, , , , 
2026-03-20 18:12:13.716,7.2646093,-14.423935,1.9262222,-0.053527027,-0.28916812,-4.942583,-4.425,35.49375,24.843752,0.4163235,-0.6176991,0.6542311,1000.1586, , , , 
2026-03-20 18:12:13.736,6.7836523,-13.146168,-0.34217364,-0.1146135,0.70104367,-4.4703846,-6.7312503,34.162502,23.625,0.44723305,-0.59349805,0.6475676,1000.1833, , , , 
2026-03-20 18:12:13.756,7.1186476,-12.2991085,-0.6197411,-0.23739733,1.2605958,-4.171061,-11.08125,33.80625,26.41875,0.46349362,-0.5745947,0.6438887,1000.1816, , , , 
2026-03-20 18:12:13.776,7.4344997,-12.0430765,-0.124426775,-0.15493058,1.0883319,-4.1612873,-13.875001,30.806252,25.031252,0.47702464,-0.55520415,0.6400743,1000.1816, , , , 
2026-03-20 18:12:13.796,6.7764735,-12.268002,-0.3278167,0.003894263,0.4701368,-4.1967173,-17.85,30.6375,24.525002,0.49318868,-0.53505737,0.63377523,1000.18036, , , , 
2026-03-20 18:12:13.818,4.8502517,-12.100504,-0.52163535,0.09918917,-0.08880447,-4.130744,-18.9375,29.550001,23.456251,0.51235193,-0.5150918,0.624364,1000.18036, , , , 
2026-03-20 18:12:13.836,2.8139594,-11.796616,-0.8111669,0.063759014,-0.2720639,-3.8430266,-22.612501,25.931252,24.35625,0.53210306,-0.49618202,0.61297625,1000.18134, , , , 
2026-03-20 18:12:13.856,1.1964114,-11.581262,-0.86859465,0.016111558,-0.30810493,-3.398928,-24.0375,23.79375,23.25,0.549915,-0.4792808,0.60114044,1000.18134, , , , 
2026-03-20 18:12:13.877,-0.124426775,-11.272588,-1.2011969,-0.02481638,-0.22441645,-2.920621,-27.525002,21.300001,26.062502,0.5646707,-0.46481276,0.5902173,1000.18134, , , , 
2026-03-20 18:12:13.896,-1.8807586,-11.02852,-1.9286151,-0.118889555,0.0193186,-2.0922883,-28.143751,18.768751,23.493752,0.57732886,-0.4508404,0.579633,1000.1877, , , , 
2026-03-20 18:12:13.917,-2.0386848,-11.9019,-2.3521447,-0.22090398,0.11155918,-1.5083015,-29.6625,17.868752,24.487501,0.5816472,-0.4452387,0.5752102,1000.1877, , , , 
2026-03-20 18:12:13.936,-2.0075781,-13.131811,-2.349752,-0.3180315,0.09873102,-0.76548994,-28.63125,16.48125,24.768751,0.5843618,-0.44129333,0.57041687,1000.1818, , , , 
2026-03-20 18:12:13.956,-2.8666015,-13.318451,-2.3425734,-0.40905032,0.06146827,-0.11614066,-29.625002,17.362501,24.975,0.5831684,-0.44303542,0.56866205,1000.1818, , , , 
2026-03-20 18:12:13.976,-3.3403804,-12.966706,-1.7730815,-0.5238929,0.13110685,0.8190933,-31.837502,16.518751,25.25625,0.5782629,-0.4494985,0.5692222,1000.16595, , , , 
2026-03-20 18:12:13.996,-2.1391835,-12.253645,-0.782453,-0.52022773,0.23128867,1.6859105,-29.550001,16.25625,24.712502,0.5687365,-0.46070626,0.57306904,1000.1706, , , , 
2026-03-20 18:12:14.016,0.67477596,-12.1148615,-0.38285163,-0.37911797,0.31497714,2.3377032,-28.575,17.475,24.843752,0.555037,-0.47512686,0.5804891,1000.1706, , , , 
2026-03-20 18:12:14.036,3.2638102,-12.380465,-0.8853444,-0.17631085,0.19708025,2.6895614,-29.23125,18.6375,25.781252,0.539197,-0.49086395,0.5901896,1000.1706, , , , 
2026-03-20 18:12:14.056,4.8933225,-12.459428,-1.8257236,-0.026648976,-0.13095413,2.899088,-28.406252,21.112501,24.16875,0.5197527,-0.5113749,0.6022876,1000.17377, , , , 
2026-03-20 18:12:14.078,5.556134,-12.9643135,-2.4191437,-0.03642281,-0.5298488,3.1165557,-23.0625,22.1625,23.550001,0.50526327,-0.52894133,0.6102708,1000.16693, , , , 
2026-03-20 18:12:14.096,6.1447687,-13.153346,-1.8376877,-0.10545053,-0.7259364,3.3474627,-23.212502,22.78125,22.143751,0.490782,-0.5482631,0.61639154,1000.16693, , , , 
2026-03-20 18:12:14.116,7.015756,-12.634104,-0.7920243,-0.09445497,-0.6611848,3.6113563,-22.275002,25.35,23.737501,0.47461095,-0.56830245,0.62203777,1000.16693, , , , 
2026-03-20 18:12:14.136,7.7742805,-11.810972,-0.29671,-0.031535894,-0.42050403,3.815385,-19.5,26.868752,24.750002,0.45576045,-0.5874328,0.62851363,1000.16205, , , , 
2026-03-20 18:12:14.156,8.9348,-11.413764,0.5407779,0.041157015,-0.34414595,3.9546623,-19.03125,27.150002,26.38125,0.4293192,-0.60973597,0.6370484,1000.16595, , , , 
2026-03-20 18:12:14.177,9.798609,-11.219945,0.68195444,0.17982332,-0.21036656,3.9809294,-16.050001,30.825,24.6375,0.4125608,-0.6217467,0.6423875,1000.16595, , , , 
2026-03-20 18:12:14.196,10.102497,-10.980663,-0.44027936,0.21403174,0.11033745,4.023079,-13.293751,31.593752,26.775002,0.38256392,-0.63908756,0.65193677,1000.1674, , , , 
2026-03-20 18:12:14.216,10.686346,-10.736595,-0.60777694,0.108963005,0.42737627,4.218556,-10.14375,31.181252,25.687502,0.35516044,-0.65220875,0.6593234,1000.1674, , , , 
2026-03-20 18:12:14.237,13.153346,-10.30828,-0.96430755,-0.12866339,0.84215343,4.1257043,-6.4500003,33.43125,24.243752,0.33234495,-0.6619471,0.66428703,1000.1674, , , , 
2026-03-20 18:12:14.256,12.686746,-9.600004,0.44506502,-0.2966512,0.9997566,3.711538,-4.275,33.28125,24.187502,0.29399553,-0.67689645,0.6701967,1000.15594, , , , 
2026-03-20 18:12:14.276,12.18186,-8.99462,0.8327023,-0.24594943,0.9722676,3.4213772,-2.0625,34.0125,23.60625,0.26495162,-0.6868516,0.6737419,1000.14813, , , , 
2026-03-20 18:12:14.296,11.62194,-8.219346,0.46660042,-0.22945608,0.9576069,3.123886,0.15,34.85625,23.625,0.2311353,-0.6969122,0.67720705,1000.14813, , , , 
2026-03-20 18:12:14.316,11.12184,-7.652247,0.31345975,-0.26549712,0.9240093,2.9430702,1.0875001,34.350002,22.48125,0.21214898,-0.702192,0.67852616,1000.14813, , , , 
2026-03-20 18:12:14.336,10.992627,-6.9559355,0.6867401,-0.25999933,0.84948385,2.681009,3.3375,33.825,22.575,0.18249692,-0.70999604,0.67965263,1000.1425, , , , 
2026-03-20 18:12:14.356,10.882557,-6.8602223,0.66999036,-0.15431972,0.66805696,2.4409392,2.90625,34.125,25.706251,0.1616299,-0.7147727,0.6802296,1000.14496, , , , 
2026-03-20 18:12:14.376,11.327622,-6.991828,0.2009971,-0.008323032,0.3815614,2.2546256,3.73125,32.362503,24.468752,0.14366858,-0.71813715,0.68088245,1000.14496, , , , 
2026-03-20 18:12:14.397,12.591033,-7.1569324,-0.5455636,0.07841977,0.33085963,2.1190135,8.34375,34.0875,23.737501,-0.12807944,0.7202979,-0.68172425,1000.1445, , , , 
2026-03-20 18:12:14.417,14.483755,-7.2765737,-1.282553,0.13217586,0.23861906,1.8978806,7.70625,33.881252,23.962502,-0.11428903,0.7216162,-0.6826562,1000.1445, , , , 
2026-03-20 18:12:14.436,16.223337,-7.2526455,-2.2420747,0.1419497,-0.09735657,1.3829215,9.900001,33.0,22.40625,-0.10497952,0.7221454,-0.683377,1000.1408, , , , 
2026-03-20 18:12:14.456,17.422142,-7.54457,-2.6632116,0.0063377223,-0.33498296,0.8019891,7.4812503,33.487503,23.868752,-0.101183645,0.7225927,-0.6831802,1000.1408,37.88753959,127.73745554,174.623291015625,1.65
2026-03-20 18:12:14.476,18.814764,-7.3746796,-1.9597218,-0.11155918,-0.44249517,0.2680933,9.0375,34.0125,24.900002,-0.102769606,0.723096,-0.6822897,1000.1408, , , , 
2026-03-20 18:12:14.496,19.470398,-6.3960147,-0.28713873,-0.18486296,-0.4143954,-0.75082916,10.6125,33.05625,24.337502,-0.11282423,0.7234685,-0.68039024,1000.13666, , , , 
2026-03-20 18:12:14.516,17.094324,-7.1617184,0.66759753,-0.12866339,-0.28000516,-1.7624213,10.368751,33.28125,24.806252,-0.12783532,0.7221762,-0.6794714,1000.13666, , , , 
2026-03-20 18:12:14.536,13.797015,-9.298509,1.3926228,0.077198036,-0.33498296,-2.4539201,8.400001,33.693752,24.993752,-0.14741792,0.7187517,-0.6794297,1000.15155, , , , 
2026-03-20 18:12:14.557,12.279965,-10.34178,1.2107682,0.34597853,-0.5011382,-2.7825654,9.4125,34.2,22.5375,0.17010276,-0.712587,0.68058246,1000.18036, , , , 
2026-03-20 18:12:14.576,11.818151,-11.117054,0.67477596,0.47426015,-0.63491756,-3.0702827,4.275,35.025,23.962502,0.19528212,-0.7040588,0.6822812,1000.18036, , , , 
2026-03-20 18:12:14.596,11.688938,-11.9019,0.33499518,0.48586658,-0.83650297,-3.4221408,4.425,33.43125,22.650002,0.23042998,-0.6911938,0.6833676,1000.1967, , , , 
2026-03-20 18:12:14.617,11.241481,-12.375679,-0.0047856453,0.34353507,-0.9818888,-3.6933649,1.7625,33.412502,23.7,0.25350258,-0.68274075,0.6826815,1000.1967, , , , 
2026-03-20 18:12:14.636,10.353744,-13.143775,2.28036,0.22197299,-1.5298345,-4.153957,-0.63750005,34.537502,22.650002,0.2959345,-0.6680716,0.67776203,1000.2111, , , , 
2026-03-20 18:12:14.656,8.987442,-14.0291195,3.603591,0.32337654,-1.838932,-4.26941,-2.3812501,33.0,21.225,0.33495098,-0.65427136,0.670982,1000.2111, , , , 
2026-03-20 18:12:14.676,8.683554,-13.887942,3.1633115,0.47120583,-1.1901937,-4.298121,-3.8625002,34.350002,20.98125,0.3716293,-0.63801384,0.66471744,1000.237, , , , 
2026-03-20 18:12:14.696,7.62114,-13.328022,0.59342,0.34048074,-0.1786016,-4.127079,-6.61875,32.325,21.393751,0.4020594,-0.61991847,0.6603067,1000.237, , , , 
2026-03-20 18:12:14.717,7.5110703,-11.983255,-0.89730847,-0.00160352,0.88919,-3.7904923,-8.00625,31.931252,20.79375,0.42319894,-0.60260355,0.6574136,1000.237, , , , 
2026-03-20 18:12:14.736,9.229117,-10.928021,-1.6845472,-0.39622217,1.6387211,-3.7049713,-8.0625,30.187502,20.268751,0.43544188,-0.58659,0.6556528,1000.237, , , , 
2026-03-20 18:12:14.756,9.298509,-11.279766,-0.09810573,-0.52694726,1.391321,-4.1863327,-16.650002,29.062502,20.775002,0.44756058,-0.566257,0.6509907,1000.2238, , , , 
2026-03-20 18:12:14.776,6.647261,-12.201003,1.2299109,-0.25938845,0.62163126,-4.384253,-17.268751,28.85625,21.16875,0.46239325,-0.54801226,0.6432909,1000.2238, , , , 
2026-03-20 18:12:14.796,4.3357944,-12.425928,1.5314065,0.06620247,-0.105908684,-4.2504735,-19.29375,28.1625,20.025002,0.48232388,-0.5291029,0.63268375,1000.2231, , , , 
2026-03-20 18:12:14.816,2.7589245,-11.880364,1.3184453,0.28733552,-0.23663375,-3.9022806,-20.550001,24.937502,20.025002,0.5030722,-0.51031214,0.621596,1000.2231, , , , 
2026-03-20 18:12:14.836,1.2227324,-11.263016,0.15792629,0.3759109,-0.047876526,-3.344561,-21.581251,24.31875,21.88125,0.5210856,-0.4919569,0.6121661,1000.23724, , , , 
2026-03-20 18:12:14.856,0.45702913,-10.796415,0.0071784677,0.33864817,-0.013057235,-2.8186064,-24.6375,23.625,21.300001,0.53552365,-0.47552913,0.60431314,1000.23724, , , , 
2026-03-20 18:12:14.878,0.09092726,-10.188639,-0.04546363,0.5622247,-0.118125975,-2.1692572,-26.250002,22.087502,21.112501,0.5502309,-0.4581949,0.5966809,1000.237, , , , 
2026-03-20 18:12:14.896,0.09571291,-9.755538,-2.172683,0.65202177,-0.14622575,-1.6060399,-25.66875,19.800001,19.78125,0.5579602,-0.4492461,0.5937566,1000.237, , , , 
2026-03-20 18:12:14.916,0.14596218,-9.628718,-3.993621,0.35330892,-0.17371467,-1.1564434,-24.562502,20.175001,19.331251,0.5662628,-0.44046664,0.59063715,1000.237, , , , 
2026-03-20 18:12:14.936,0.19621146,-10.827522,-3.3020952,-0.07185297,-0.12606722,-0.5816196,-25.2,20.71875,20.456251,0.5717888,-0.4367598,0.58656496,1000.2177, , , , 
2026-03-20 18:12:14.956,-0.82313097,-11.19841,-3.5389848,-0.27893612,-0.06620247,0.07383828,-27.993752,20.175001,22.48125,0.5717552,-0.43892002,0.58494884,1000.2177, , , , 
2026-03-20 18:12:14.976,-0.5886344,-10.102497,-2.7828526,-0.5623774,0.011377357,0.83436495,-24.937502,19.875,20.775002,0.5673585,-0.44637457,0.5851446,1000.2033, , , , 
2026-03-20 18:12:14.996,1.7252251,-9.846465,-1.2370893,-0.7065415,0.1787543,1.4195734,-24.975,21.862501,20.681252,0.55845743,-0.45785904,0.5874404,1000.20844, , , , 
2026-03-20 18:12:15.016,2.8929226,-10.112068,-0.5192425,-0.59108806,0.18730642,1.706069,-25.48125,21.675001,22.44375,0.54689705,-0.47082266,0.5916259,1000.20844, , , , 
2026-03-20 18:12:15.037,3.3547373,-11.181661,-0.8111669,-0.37362018,-0.07536544,2.004782,-23.8125,22.59375,21.28125,0.5320441,-0.48787114,0.59818745,1000.20966, , , , 
2026-03-20 18:12:15.056,3.7471602,-11.964113,-0.9906286,-0.24961463,-0.38812822,2.3291512,-22.725,21.975,18.88125,0.5207574,-0.5031299,0.6033985,1000.20966, , , , 
2026-03-20 18:12:15.077,4.022335,-12.526426,-0.66041905,-0.1494328,-0.53962266,2.6541312,-22.96875,23.925001,21.581251,0.51212543,-0.5156417,0.6073261,1000.20966, , , , 
2026-03-20 18:12:15.096,4.6971107,-12.844672,-0.2416751,0.09918917,-0.6923389,3.205131,-22.35,24.225,23.04375,0.4960531,-0.5377104,0.6151121,1000.2077, , , , 
2026-03-20 18:12:15.117,5.7020965,-12.521641,-0.2727818,0.2720639,-0.7735839,3.544772,-21.65625,24.7875,24.16875,0.4815735,-0.55577534,0.6225829,1000.2077, , , , 
2026-03-20 18:12:15.136,7.183254,-11.559726,0.1794617,0.47792533,-0.9195806,3.7720137,-17.625,28.06875,23.56875,0.46620655,-0.57337165,0.63034964,1000.22064, , , , 
2026-03-20 18:12:15.156,8.262417,-11.026127,0.050249275,0.70272356,-1.0368665,3.8355436,-15.88125,29.475,23.75625,0.44718817,-0.5929483,0.6398691,1000.2077, , , , 
2026-03-20 18:12:15.176,10.076176,-10.71506,0.25842485,0.84566593,-1.1908045,3.8581455,-12.937501,32.4,22.987501,0.436199,-0.60331756,0.64513,1000.2077, , , , 
2026-03-20 18:12:15.196,12.890136,-9.896714,0.78723866,1.0209842,-1.1895828,3.6137996,-10.387501,31.9125,22.893751,0.42260823,-0.6148743,0.65154886,1000.2077, , , , 
2026-03-20 18:12:15.217,12.064611,-8.9013,-0.078963146,1.0619121,-0.58482665,3.2075746,-3.0937502,34.425003,19.81875,0.4063731,-0.62397736,0.6601239,1000.1982, , , , 
2026-03-20 18:12:15.236,10.241281,-8.286345,-1.2658032,0.8890373,0.18547381,3.2277331,-4.14375,34.331253,19.63125,0.38938504,-0.6296189,0.6681761,1000.1982, , , , 
2026-03-20 18:12:15.256,10.2723875,-7.905886,-2.158326,0.42172578,0.9508874,3.3199737,0.71250004,35.8125,19.5,0.366259,-0.6366615,0.6763981,1000.19135, , , , 
2026-03-20 18:12:15.276,10.944771,-7.456035,-1.6151553,0.07658717,1.2624284,3.2985935,0.26250002,34.518753,21.6375,0.33941945,-0.6455305,0.6830207,1000.17377, , , , 
2026-03-20 18:12:15.296,11.971292,-7.003792,-0.5766702,-0.14026983,1.4383575,3.0554693,4.0875,34.3125,18.0,0.31137425,-0.6549948,0.68792963,1000.17377, , , , 
2026-03-20 18:12:15.318,11.432906,-6.8913293,0.3469593,-0.14088069,1.2880847,2.6913939,5.71875,35.9625,19.125,0.28501272,-0.6633987,0.69159055,1000.17377, , , , 
2026-03-20 18:12:15.336,10.310673,-6.948757,0.0023928226,-0.06269,1.1536945,2.4812565,6.8437505,35.5875,17.79375,0.2559854,-0.67153674,0.69528687,1000.16815, , , , 
2026-03-20 18:12:15.356,10.217353,-7.2622166,-1.0289137,-0.15187626,1.2825869,2.4403284,8.025001,34.85625,17.081251,0.23310576,-0.6774685,0.69763416,1000.17206, , , , 
2026-03-20 18:12:15.376,11.112268,-7.2095747,-1.0815558,-0.24045165,1.3174063,2.4275002,10.35,34.8375,17.925001,-0.21560134,0.68220556,-0.6986453,1000.17206, , , , 
2026-03-20 18:12:15.396,13.361522,-7.4392858,-1.2753744,-0.2948186,1.3033564,2.2802818,8.400001,33.46875,22.06875,-0.18704855,0.68990296,-0.69926167,1000.17206, , , , 
2026-03-20 18:12:15.416,15.94577,-7.0372915,-1.3734802,-0.22334744,0.8427643,1.8288528,8.775001,33.787502,20.306252,-0.16790293,0.6949945,-0.69901216,1000.16327, , , , 
2026-03-20 18:12:15.436,16.465014,-6.948757,-1.7156538,-0.16103923,0.34429866,1.254029,10.3125,32.8125,21.28125,-0.15611818,0.6984039,-0.698259,1000.1547, , , , 
2026-03-20 18:12:15.456,16.321444,-6.8889365,-1.7491534,-0.14882194,0.090178914,0.8117629,9.58125,32.23125,22.95,-0.15049954,0.70069873,-0.69711494,1000.1547,37.887546,127.73747033,174.23724365234375,1.59
2026-03-20 18:12:15.477,17.187645,-6.597012,-1.3351951,-0.0193186,-0.17066035,0.37804893,11.606251,32.68125,21.768751,-0.14929749,0.7018992,-0.6961121,1000.1547, , , , 
2026-03-20 18:12:15.496,18.403198,-6.3792653,-1.3208381,0.15172353,-0.60193086,-0.3757582,11.400001,33.9,22.650002,-0.15616517,0.7006087,-0.6958967,1000.15326, , , , 
2026-03-20 18:12:15.517,18.16631,-7.2693954,-2.0075781,0.154167,-0.86948967,-1.2639556,13.762501,33.16875,20.90625,-0.17059264,0.6973524,-0.6958709,1000.15326, , , , 
2026-03-20 18:12:15.536,16.503298,-8.946764,-2.4933212,-0.0834594,-0.7974076,-1.9670609,15.712501,33.2625,19.3125,-0.1906766,0.693602,-0.6945767,1000.1496, , , , 
2026-03-20 18:12:15.556,14.519648,-9.949356,-1.6654046,-0.42798713,-0.3759109,-2.4844635,13.556251,33.6375,21.525002,0.2122257,-0.6905168,0.6914768,1000.1457, , , , 
2026-03-20 18:12:15.576,13.234702,-10.593026,0.148355,-0.6020836,-0.13278674,-2.825326,12.95625,34.95,20.587502,0.23324263,-0.68785703,0.68701863,1000.1457, , , , 
2026-03-20 18:12:15.596,12.540784,-11.136196,2.2205393,-0.48663014,-0.42416924,-3.1784058,7.8562503,33.787502,23.04375,0.2555303,-0.68395853,0.6819919,1000.1457, , , , 
2026-03-20 18:12:15.616,11.923435,-11.406586,4.1491547,-0.15493058,-1.1730895,-3.576079,6.675,36.65625,23.15625,0.28309783,-0.67696935,0.6766044,1000.17035, , , , 
2026-03-20 18:12:15.636,10.8251295,-11.672189,5.0440702,0.38018698,-1.8810817,-4.134409,5.925,35.943752,23.8875,0.3273264,-0.6616322,0.66973484,1000.2043, , , , 
2026-03-20 18:12:15.656,9.456435,-12.038291,2.8570302,0.4901426,-1.2231804,-4.24803,2.41875,35.2125,23.831251,0.3650809,-0.64474225,0.66464716,1000.2043, , , , 
2026-03-20 18:12:15.677,8.212168,-12.277573,0.9834501,0.26290092,-0.09185879,-4.122192,-0.65625,34.518753,24.0375,0.39549252,-0.62697816,0.660854,1000.21893, , , , 
2026-03-20 18:12:15.696,7.8556366,-11.942577,-0.21535404,0.0075594517,0.7297543,-3.868072,-1.66875,35.8125,21.300001,0.41715977,-0.6098332,0.65838104,1000.21893, , , , 
2026-03-20 18:12:15.716,8.863015,-11.688938,-0.7393822,-0.34124434,1.2703696,-3.7428448,-7.4062505,36.581253,23.400002,0.43193677,-0.59393996,0.6561663,1000.21893, , , , 
2026-03-20 18:12:15.736,9.537791,-11.686545,0.6412765,-0.4163807,1.1781291,-3.9432085,-11.043751,33.825,24.243752,0.44377056,-0.57849795,0.6526544,1000.21185, , , , 
2026-03-20 18:12:15.756,8.413164,-12.172289,1.8927227,-0.18425208,0.6350703,-4.2003827,-14.587501,33.206253,26.5125,0.46248809,-0.5566309,0.6451223,1000.21185, , , , 
2026-03-20 18:12:15.778,6.530013,-12.849458,1.5984055,0.15477787,0.045585785,-4.2620797,-18.018751,32.100002,26.00625,0.48222992,-0.53700256,0.63661903,1000.20306, , , , 
2026-03-20 18:12:15.796,4.6229334,-13.143775,0.7680961,0.2323577,-0.18165591,-4.0879836,-17.94375,30.768751,23.2875,0.5031932,-0.5170782,0.62673837,1000.205, , , , 
2026-03-20 18:12:15.816,2.9336007,-12.8111725,1.0719845,0.23785548,-0.23480114,-3.719632,-22.03125,28.10625,24.6375,0.52263695,-0.49841848,0.6163307,1000.205, , , , 
2026-03-20 18:12:15.838,2.2660031,-12.248859,1.4715859,0.4577668,-0.3832413,-3.2517095,-24.4125,27.225,25.25625,0.54006547,-0.48092213,0.6067525,1000.2116, , , , 
2026-03-20 18:12:15.856,1.68694,-12.325429,0.31106696,0.659963,-0.6807324,-2.88458,-22.650002,24.937502,23.8125,0.5574375,-0.46446535,0.5976365,1000.2116, , , , 
2026-03-20 18:12:15.876,0.35413775,-12.3708935,-1.4548361,0.5994874,-0.6446914,-2.5040112,-27.075,23.362501,24.35625,0.57405925,-0.45002073,0.5887538,1000.2116, , , , 
2026-03-20 18:12:15.896,-2.5818555,-11.25823,-2.8283165,0.13217586,0.009544762,-1.7043891,-27.206251,22.087502,25.368752,0.58772755,-0.43671033,0.5804712,1000.2065, , , , 
2026-03-20 18:12:15.916,-4.1611185,-10.660025,-2.4071796,-0.22090398,0.4805215,-1.0281618,-27.31875,20.71875,24.54375,0.59012455,-0.43188077,0.5782699,1000.2065, , , , 
2026-03-20 18:12:15.936,-3.9026937,-10.607383,-1.2490535,-0.24533857,0.51778424,-0.05261073,-28.66875,21.31875,24.956251,0.5867647,-0.42994726,0.579138,1000.1906, , , , 
2026-03-20 18:12:15.956,-2.7421749,-9.71486,-1.7898313,-0.0058795735,0.1579849,0.73418313,-27.54375,20.325,24.431252,0.581816,-0.43342835,0.58271605,1000.1906, , , , 
2026-03-20 18:12:15.976,0.1794617,-9.147761,-3.4097722,0.04848739,-0.1957058,1.4085778,-29.493752,20.98125,26.1375,0.5768548,-0.44121763,0.5869939,1000.1828, , , , 
2026-03-20 18:12:15.996,2.009971,-9.140582,-3.9433718,-0.22334744,-0.17554727,1.805029,-27.6375,21.9375,23.41875,0.5703738,-0.45282272,0.59124225,1000.16547, , , , 
2026-03-20 18:12:16.016,3.3930225,-10.030712,-3.1896327,-0.50739956,-0.047265664,2.1330636,-25.3875,22.9125,22.5,0.5606314,-0.46765977,0.59558403,1000.16547, , , , 
2026-03-20 18:12:16.037,4.1467614,-11.155339,-1.5936198,-0.5984184,-0.07658717,2.5301256,-26.681252,24.6375,24.862501,0.54401195,-0.48959336,0.6016771,1000.15546, , , , 
2026-03-20 18:12:16.056,5.139783,-11.724831,-0.60059845,-0.4408153,-0.39118254,2.8917575,-24.900002,25.556252,26.175001,0.52938056,-0.5090439,0.606829,1000.15546, , , , 
2026-03-20 18:12:16.079,6.317052,-12.086147,-0.19860429,-0.1494328,-0.7094431,3.2594981,-23.34375,27.581251,26.812502,0.5151278,-0.5292185,0.61193496,1000.15424, , , , 
2026-03-20 18:12:16.096,7.4033933,-12.162718,-0.3924229,8.3993905E-4,-0.74609494,3.5026224,-22.6875,27.900002,26.41875,0.5003329,-0.5492291,0.61755764,1000.15424, , , , 
2026-03-20 18:12:16.117,8.068598,-11.837294,-0.043070808,0.13278674,-0.6831759,3.6919904,-19.35,30.6,26.23125,0.4840571,-0.5684721,0.6237501,1000.15424, , , , 
2026-03-20 18:12:16.136,8.437093,-11.277373,0.35653058,0.36369362,-0.65629786,3.852037,-16.237501,31.5375,26.456251,0.46645942,-0.586245,0.63056886,1000.15717, , , , 
2026-03-20 18:12:16.156,8.968299,-10.815558,-0.33499518,0.5432879,-0.5671116,3.9503863,-13.725,33.15,27.337502,0.44793928,-0.6020761,0.63799256,1000.1611, , , , 
2026-03-20 18:12:16.176,9.475577,-10.411171,-2.0075781,0.45287988,-0.18959716,3.9943686,-7.51875,33.300003,25.7625,0.4275442,-0.61630106,0.6457146,1000.1611, , , , 
2026-03-20 18:12:16.197,9.430114,-10.234102,-1.9310079,0.03199404,0.44203702,4.046292,-6.4500003,35.662502,25.35,0.39654055,-0.63433605,0.65423715,1000.14716, , , , 
2026-03-20 18:12:16.216,10.052248,-9.985249,-1.0624132,-0.20563236,0.8061124,4.1159306,-4.33125,35.8875,24.0375,0.36711034,-0.64944553,0.65983844,1000.14716, , , , 
2026-03-20 18:12:16.237,11.157732,-9.5665045,-0.5407779,-0.30947936,0.9490548,4.0163593,-3.24375,34.7625,24.300001,0.34358156,-0.66042626,0.663372,1000.14716, , , , 
2026-03-20 18:12:16.256,12.110075,-8.295917,-0.72502524,-0.45914125,1.3619994,3.6137996,1.03125,35.79375,25.95,0.30492064,-0.67672247,0.66778165,1000.1379, , , , 
2026-03-20 18:12:16.277,12.14836,-8.243274,-0.89491564,-0.8403209,1.9661447,3.318752,3.0937502,35.756252,25.743752,0.2718856,-0.6890651,0.6700792,1000.1379, , , , 
2026-03-20 18:12:16.296,12.669996,-8.221739,1.0289137,-0.8549816,1.5513675,2.9595635,2.90625,36.35625,26.343752,0.23963292,-0.70116246,0.6701515,1000.14154, , , , 
2026-03-20 18:12:16.321,12.751352,-7.4249287,0.7800602,-0.63812464,0.943557,2.3169336,5.7937503,34.55625,24.750002,0.2085726,-0.712683,0.6688131,1000.1423, , , , 
2026-03-20 18:12:16.336,11.344372,-7.1210403,0.37806597,-0.70104367,1.0180825,2.004171,5.4,34.256252,26.362501,0.18899792,-0.71998894,0.6670185,1000.1423, , , , 
2026-03-20 18:12:16.356,10.260424,-6.903293,1.2921243,-0.71203923,1.1659118,1.8746676,8.00625,36.15,25.35,0.16973251,-0.7269973,0.66467345,1000.1464, , , , 
2026-03-20 18:12:16.376,11.016556,-6.896115,1.7754744,-0.41760245,1.0138065,1.8532873,6.0937505,34.29375,29.831251,0.15078428,-0.73246765,0.66331375,1000.1464, , , , 
2026-03-20 18:12:16.396,13.72523,-7.135397,-0.14117654,-0.040088,0.41393724,1.6669736,6.2812505,33.7125,28.462502,0.13508496,-0.73533,0.66368854,1000.154, , , , 
2026-03-20 18:12:16.416,15.2781725,-6.8913293,-1.4285151,0.038713556,-0.17371467,1.3645955,7.3875003,33.43125,29.906252,0.12579994,-0.73660654,0.6643061,1000.154, , , , 
2026-03-20 18:12:16.436,16.965113,-7.1186476,-1.2251252,0.022220206,-0.68500847,0.8368084,9.356251,32.381252,30.375002,0.12362284,-0.73745376,0.66392905,1000.15106, , , , 
2026-03-20 18:12:16.456,18.55634,-7.1808605,-0.6987042,0.18287764,-0.81267923,0.30169085,10.5375,33.768753,29.250002,0.12843485,-0.73694444,0.66363925,1000.15106,37.8875525,127.73748539,174.4512939453125,1.65
2026-03-20 18:12:16.477,19.917856,-6.4343,-1.0073783,0.25068364,-0.7448732,-0.2871828,10.668751,33.65625,29.081251,-0.13450164,0.7353614,-0.66419107,1000.15106, , , , 
2026-03-20 18:12:16.496,20.200209,-6.02752,-0.701097,0.20914483,-0.58482665,-1.3262638,12.843751,33.393753,26.550001,0.1473384,-0.73215085,0.66501546,1000.15106, , , , 
2026-03-20 18:12:16.516,17.19961,-8.305488,-0.16749759,0.16943862,-0.5145772,-2.458807,13.387501,31.593752,25.2,0.17260301,-0.7259922,0.6655196,1000.154, , , , 
2026-03-20 18:12:16.536,14.443077,-10.796415,0.4642076,0.2531271,-0.6398045,-3.041572,9.75,34.068752,27.6,0.19835271,-0.7188626,0.66552764,1000.154, , , , 
2026-03-20 18:12:16.556,12.430714,-11.882757,0.9882358,0.36858055,-0.6153699,-3.304244,9.39375,34.518753,28.237501,0.22626394,-0.70964897,0.6655042,1000.17084, , , , 
2026-03-20 18:12:16.576,12.239287,-12.289537,1.0983056,0.43211046,-0.40828675,-3.493612,4.5750003,35.5125,29.60625,0.25385702,-0.69870305,0.6655578,1000.17084, , , , 
2026-03-20 18:12:16.596,11.729616,-12.586247,1.2969099,0.48281226,-0.39668033,-3.8045423,3.16875,36.2625,27.093752,0.2884798,-0.6825112,0.66518,1000.18964, , , , 
2026-03-20 18:12:16.617,11.574083,-12.803994,2.4502504,0.62514377,-0.7906881,-4.185111,0.26250002,36.45,28.0125,0.3111681,-0.6712037,0.6640866,1000.18964, , , , 
2026-03-20 18:12:16.636,9.188439,-12.976277,2.507678,0.9507347,-1.6061926,-4.4612217,-1.5,35.53125,26.23125,0.3471621,-0.6530802,0.6610817,1000.18964, , , , 
2026-03-20 18:12:16.656,8.551949,-12.51207,1.4979069,0.9849431,-1.5829797,-4.464887,-4.96875,34.95,24.937502,0.39557585,-0.62746584,0.6549419,1000.2043, , , , 
2026-03-20 18:12:16.676,7.5469627,-11.923435,0.22971097,0.7754165,-0.908585,-4.334773,-7.5375004,36.16875,26.681252,0.42198858,-0.61148894,0.65078163,1000.2043, , , , 
2026-03-20 18:12:16.696,6.7932234,-11.002198,-1.6199409,0.1749364,0.71203923,-3.7904923,-10.950001,34.443752,25.743752,0.45326778,-0.58638066,0.64576006,1000.2216, , , , 
2026-03-20 18:12:16.716,7.7240314,-10.57149,-1.1270195,-0.18119776,1.4236968,-3.5247662,-11.962501,34.36875,24.0,0.46590853,-0.5688552,0.64383423,1000.2216, , , , 
2026-03-20 18:12:16.736,8.82473,-10.803595,0.7393822,-0.12744166,1.1372012,-3.610898,-15.76875,32.98125,24.31875,0.47498307,-0.5516438,0.6417111,1000.20844, , , , 
2026-03-20 18:12:16.756,7.867601,-11.176874,0.8063812,0.20670137,0.33757916,-3.8179812,-19.125,30.243752,26.23125,0.49263406,-0.5280651,0.635328,1000.20844, , , , 
2026-03-20 18:12:16.776,5.465207,-11.277373,-0.2536392,0.23480114,0.19158247,-3.7636142,-22.650002,30.150002,25.66875,0.5100305,-0.50848126,0.6277191,1000.1989, , , , 
2026-03-20 18:12:16.796,3.696911,-11.279766,-0.49052864,0.055817768,0.5825359,-3.4642906,-25.050001,28.406252,25.406252,0.5242337,-0.48972192,0.6203577,1000.19794, , , , 
2026-03-20 18:12:16.816,2.1870399,-10.990234,-0.011964113,0.014278964,0.8232167,-3.091052,-25.800001,26.081251,25.143751,0.5337182,-0.47205618,0.6146453,1000.19794, , , , 
2026-03-20 18:12:16.837,0.9092726,-10.7844515,-0.20578274,0.08086322,0.7792344,-2.6958227,-28.050001,24.993752,23.75625,0.539001,-0.45964706,0.61134094,1000.19794, , , , 
2026-03-20 18:12:16.856,-0.3278167,-10.365707,-0.8997013,0.16516256,0.5293907,-2.0354779,-28.612501,21.581251,24.150002,0.54611516,-0.44200262,0.6069225,1000.19354, , , , 
2026-03-20 18:12:16.876,-0.2440679,-10.703095,-1.4548361,0.13889538,0.2935969,-1.5211296,-30.150002,21.056252,22.650002,0.5506905,-0.43167758,0.60400456,1000.19354, , , , 
2026-03-20 18:12:16.896,-0.72263247,-10.60499,-1.3543376,0.1211803,0.04925097,-1.0550399,-31.687502,20.1375,24.2625,0.5544688,-0.42504826,0.60129863,1000.19037, , , , 
2026-03-20 18:12:16.917,-1.5744773,-10.212567,-1.7778672,0.13278674,-0.060093824,-0.52175486,-33.206253,19.85625,24.900002,0.5573475,-0.42169127,0.5993565,1000.19037, , , , 
2026-03-20 18:12:16.936,-1.7970098,-10.49492,-3.0795627,-0.0040469794,-0.11262819,0.20578507,-33.1875,19.875,23.04375,0.55804557,-0.42275083,0.59913266,1000.18256, , , , 
2026-03-20 18:12:16.957,-1.0504491,-9.942178,-2.8713872,-0.2673297,-0.15661046,1.0652719,-31.218752,19.462502,23.325,0.55491817,-0.42949724,0.6006111,1000.17255, , , , 
2026-03-20 18:12:16.977,1.026521,-10.112068,-2.5220351,-0.44692394,-0.06498074,1.6614759,-31.63125,18.16875,23.587502,0.5479048,-0.4410296,0.6038213,1000.17255, , , , 
2026-03-20 18:12:16.996,2.806781,-10.193424,-1.9932213,-0.60391617,0.043142326,2.0927463,-30.900002,20.98125,22.743752,0.5370661,-0.45572764,0.6086454,1000.1679, , , , 
2026-03-20 18:12:17.016,4.0941195,-10.865808,-1.4524434,-0.6387355,-0.041157015,2.3639703,-31.893751,21.88125,23.1,0.52375674,-0.47243324,0.6141459,1000.1679, , , , 
2026-03-20 18:12:17.036,4.5008993,-11.581262,-1.2299109,-0.5599339,-0.26229006,2.6687918,-29.1,22.78125,24.150002,0.50976515,-0.4905661,0.61955005,1000.1679, , , , 
2026-03-20 18:12:17.056,5.601598,-12.236895,-1.402194,-0.5086213,-0.47792533,3.0499716,-30.16875,24.018751,24.956251,0.49156645,-0.51529926,0.6261316,1000.16034, , , , 
2026-03-20 18:12:17.079,6.5204415,-12.428321,-0.4642076,-0.46219558,-0.65507615,3.3468518,-26.5125,26.250002,25.987501,0.475923,-0.53639746,0.63098013,1000.1623, , , , 
2026-03-20 18:12:17.096,7.125826,-12.007184,0.552742,-0.27710354,-0.82978344,3.5380526,-25.35,27.000002,25.81875,0.45993647,-0.55740476,0.6356427,1000.1623, , , , 
2026-03-20 18:12:17.117,7.664211,-11.320444,0.44027936,-0.0064904382,-0.804738,3.7280314,-23.23125,28.837502,26.587502,0.44359645,-0.5768479,0.6410412,1000.1623, , , , 
2026-03-20 18:12:17.136,8.350951,-10.624132,-0.40917268,0.1107956,-0.5237402,3.8514261,-18.150002,30.6,24.862501,0.42555794,-0.5942653,0.6475214,1000.15985, , , , 
2026-03-20 18:12:17.156,8.678768,-10.444671,-0.9595219,0.04054615,-0.26595524,3.8862453,-14.493751,33.46875,24.31875,0.40527317,-0.6103142,0.6541501,1000.16425, , , , 
2026-03-20 18:12:17.176,8.489735,-10.413564,-0.82313097,-0.08956805,-0.074143715,3.9595492,-13.275001,34.6875,27.35625,0.38270327,-0.62576604,0.66009057,1000.16425, , , , 
2026-03-20 18:12:17.196,9.851251,-10.286744,0.124426775,-0.14271328,0.029092435,4.0750027,-10.6875,34.237503,24.6375,0.3513007,-0.6447026,0.66632295,1000.1496, , , , 
2026-03-20 18:12:17.216,11.322837,-10.102497,0.32303107,0.050319985,-0.16332997,3.987649,-8.55,35.4375,25.893751,0.3266078,-0.65787184,0.6705863,1000.1496, , , , 
2026-03-20 18:12:17.237,12.045469,-9.688539,0.31345975,0.29344416,-0.6740129,3.5704284,-5.30625,36.2625,25.81875,0.30567113,-0.66805303,0.674003,1000.1447, , , , 
2026-03-20 18:12:17.256,11.940185,-9.171689,-0.63888365,0.43211046,-0.9574542,3.3382998,-0.82500005,36.506252,23.325,0.29003093,-0.675331,0.6762981,1000.1447, , , , 
2026-03-20 18:12:17.279,12.212967,-8.513663,-1.8161523,0.14011711,-0.58543754,3.0603561,5.64375,35.925003,23.1375,0.27237704,-0.68329847,0.677221,1000.1447, , , , 
2026-03-20 18:12:17.296,12.330215,-7.987242,-1.2155539,-0.20502149,-0.0026725335,2.8160102,5.1375003,36.99375,23.1375,0.26040012,-0.68883383,0.67653173,1000.1447, , , , 
2026-03-20 18:12:17.316,11.767901,-7.1042905,0.35174492,-0.39316785,0.5605448,2.5832708,3.9375002,36.975002,24.806252,-0.24223466,0.6969041,-0.6749176,1000.12665, , , , 
2026-03-20 18:12:17.336,11.82533,-6.4797635,0.8350951,-0.2239583,0.91545725,2.3621378,7.05,36.54375,25.893751,-0.21717119,0.7056173,-0.674125,1000.12665, , , , 
2026-03-20 18:12:17.356,12.394821,-6.558727,-0.6197411,0.0026725335,0.8415426,2.185598,9.31875,36.2625,27.056252,-0.19760115,0.7102073,-0.67507046,1000.133, , , , 
2026-03-20 18:12:17.376,13.543376,-7.1018977,-2.1559331,0.07658717,0.5953641,2.007836,10.275001,36.506252,24.6375,-0.18480359,0.7126283,-0.6758969,1000.133, , , , 
2026-03-20 18:12:17.396,15.859629,-7.2550383,-3.6394832,-0.07918335,0.3730093,1.6547563,11.08125,34.706253,25.893751,-0.16779095,0.71616805,-0.67610455,1000.13275, , , , 
2026-03-20 18:12:17.416,17.70928,-7.173682,-3.548556,-0.4481457,0.3589594,1.0909282,13.125001,35.550003,26.550001,-0.15865433,0.7199401,-0.67403555,1000.13275, , , , 
2026-03-20 18:12:17.436,18.43909,-7.7001033,-1.8161523,-0.73341954,0.55626875,0.33284494,12.337501,35.2125,26.6625,-0.15318917,0.7261485,-0.66881657,1000.11444, , , , 
2026-03-20 18:12:17.456,18.534803,-7.460821,0.2632105,-0.64789844,0.63262683,-0.2609156,13.89375,34.237503,27.16875,-0.15265395,0.729314,-0.6658558,1000.11444,37.88755836,127.73750048,174.9766845703125,1.64
2026-03-20 18:12:17.476,18.209381,-6.9224358,1.672583,-0.31009024,0.5135082,-1.202869,13.125001,34.912502,27.825,-0.1582948,0.7309312,-0.6634628,1000.12054, , , , 
2026-03-20 18:12:17.496,16.039091,-8.035098,1.672583,0.08575014,0.26610798,-2.0849578,11.45625,33.975002,28.968752,-0.17076506,0.727675,-0.66430056,1000.12054, , , , 
2026-03-20 18:12:17.516,13.526627,-9.827323,1.1318051,0.42539096,-0.09430225,-2.6500077,10.6875,33.675003,27.225,0.18948837,-0.7205922,0.66685396,1000.12054, , , , 
2026-03-20 18:12:17.536,12.0023985,-11.040483,0.59342,0.7198278,-0.58482665,-2.9658248,7.9500003,34.631252,27.618752,0.21292081,-0.7104929,0.67011404,1000.1379, , , , 
2026-03-20 18:12:17.556,11.724831,-11.619547,0.24646074,0.7741948,-0.8371138,-3.1942883,7.0875,36.15,27.768751,0.23990095,-0.6984064,0.672922,1000.15326, , , , 
2026-03-20 18:12:17.576,11.542976,-11.822937,0.49052864,0.7405972,-0.8865939,-3.4166431,5.7000003,36.412502,25.575,0.2689082,-0.68514806,0.67447114,1000.15326, , , , 
2026-03-20 18:12:17.597,10.4566345,-11.712867,0.3062813,0.6660717,-0.8749874,-3.697641,2.9250002,37.125,25.368752,0.29907718,-0.6706522,0.67474693,1000.1606, , , , 
2026-03-20 18:12:17.617,9.801002,-11.868401,1.4452649,0.5304597,-1.0105994,-3.9987972,2.1375,36.16875,25.500002,0.3299633,-0.65552634,0.67302555,1000.1606, , , , 
2026-03-20 18:12:17.636,7.7647095,-12.6987095,2.455036,0.5842158,-1.3655119,-4.009793,-2.1000001,38.23125,23.831251,0.37217128,-0.63494384,0.6675756,1000.17206, , , , 
2026-03-20 18:12:17.656,8.236095,-12.222538,2.5028925,0.7161626,-1.093677,-3.87357,-4.36875,36.506252,24.468752,0.40380856,-0.6171045,0.66319776,1000.17206, , , , 
2026-03-20 18:12:17.676,8.58784,-11.167303,0.18424734,0.60437435,-0.3331504,-3.797212,-7.0687504,36.09375,24.31875,0.43131286,-0.5979776,0.65992945,1000.18915, , , , 
2026-03-20 18:12:17.696,8.748159,-10.430314,-2.201397,0.11384992,0.7786235,-3.6322784,-9.225,36.375,24.675001,0.45165876,-0.5793795,0.65765214,1000.18915, , , , 
2026-03-20 18:12:17.717,9.985249,-10.262816,-1.6414764,-0.39500043,1.3815471,-3.6548803,-12.993751,35.006252,23.60625,0.46398044,-0.5628548,0.65540856,1000.1767, , , , 
2026-03-20 18:12:17.736,10.298709,-10.844273,0.567099,-0.38461575,0.94966567,-4.021399,-14.531251,35.456253,24.525002,0.4748711,-0.54633504,0.6511432,1000.1767, , , , 
2026-03-20 18:12:17.757,8.298309,-11.868401,1.3806586,0.06436988,-0.21464261,-4.392805,-18.862501,32.90625,24.956251,0.49761736,-0.5224472,0.6402904,1000.1711, , , , 
2026-03-20 18:12:17.776,6.235696,-11.949757,0.552742,0.32032222,-0.7754165,-4.374479,-19.800001,29.7,24.618752,0.5222926,-0.50179666,0.62766874,1000.1711, , , , 
2026-03-20 18:12:17.796,4.8598228,-11.739188,-0.68195444,0.2757291,-0.7247147,-4.1612873,-21.393751,28.931252,22.987501,0.54689556,-0.48134935,0.6137405,1000.18744, , , , 
2026-03-20 18:12:17.817,3.2015967,-11.676974,-1.2035898,0.074143715,-0.40401068,-3.7947683,-24.937502,26.79375,25.63125,0.56746745,-0.4621791,0.60029984,1000.18744, , , , 
2026-03-20 18:12:17.837,1.6941184,-11.442478,-1.119841,-0.112780906,-0.083306685,-3.19551,-27.075,24.31875,27.093752,0.5829662,-0.4452884,0.5884059,1000.18353, , , , 
2026-03-20 18:12:17.856,0.44745782,-10.750952,-0.7585248,-0.18669555,0.23739733,-2.5962517,-28.143751,23.23125,24.937502,0.59348166,-0.4310154,0.5789977,1000.18353, , , , 
2026-03-20 18:12:17.876,-0.67477596,-10.466207,-0.74416786,-0.16165009,0.5086213,-2.0195954,-29.250002,20.53125,23.6625,0.59918237,-0.41902786,0.5732005,1000.18353, , , , 
2026-03-20 18:12:17.896,-1.579263,-10.155139,-1.1294123,-0.1146135,0.63568115,-1.2211951,-29.550001,19.125,24.54375,0.60081893,-0.4098951,0.5711453,1000.1862, , , , 
2026-03-20 18:12:17.917,-1.7682959,-9.968499,-1.1700903,-0.027259842,0.34552038,-0.49060076,-32.1375,18.6,24.54375,0.5999258,-0.40401256,0.57151383,1000.1938, , , , 
2026-03-20 18:12:17.936,-1.8807586,-9.413364,-1.3351951,0.07536544,-0.04176788,0.1532507,-33.487503,17.71875,23.8125,0.59902865,-0.4043612,0.5725447,1000.1938, , , , 
2026-03-20 18:12:17.956,-1.026521,-9.018549,-1.8424734,0.116293386,-0.19998185,0.9052252,-34.0875,17.6625,24.656252,0.59735197,-0.40904084,0.5747268,1000.1928, , , , 
2026-03-20 18:12:17.976,-0.059820566,-9.288938,-2.6081767,0.023441937,-0.14439316,1.4354559,-33.506252,18.45,25.781252,0.59326357,-0.41766727,0.5787833,1000.1928, , , , 
2026-03-20 18:12:17.996,1.7036897,-9.789038,-2.7014968,-0.2618319,-0.01244637,2.0414338,-32.2125,18.975,24.69375,0.5853554,-0.43029553,0.5845721,1000.18524, , , , 
2026-03-20 18:12:18.016,3.414558,-10.547563,-1.835295,-0.41149378,-0.08452842,2.464763,-33.1875,20.85,26.062502,0.57406676,-0.44663826,0.59110284,1000.18524, , , , 
2026-03-20 18:12:18.036,4.338187,-11.181661,-1.0001999,-0.36690065,-0.32887432,2.8612142,-31.406252,21.65625,25.837502,0.55769604,-0.47059846,0.59927714,1000.1755, , , , 
2026-03-20 18:12:18.056,5.005785,-11.607583,-0.26799613,-0.21113014,-0.70455617,3.2265115,-28.63125,23.04375,26.550001,0.5443762,-0.49178895,0.6052984,1000.1755, , , , 
2026-03-20 18:12:18.076,5.8672013,-11.767901,0.28713873,0.060093824,-0.9379065,3.590587,-25.3875,25.25625,25.1625,0.53117496,-0.51376927,0.61118305,1000.1755, , , , 
2026-03-20 18:12:18.096,6.687939,-11.839686,0.04546363,0.30627233,-0.8413899,3.9381688,-24.112501,27.2625,25.518751,0.51649636,-0.5351304,0.6183088,1000.1755, , , , 
2026-03-20 18:12:18.116,7.52782,-11.873186,-0.5766702,0.4418843,-0.633085,4.233217,-21.806252,27.862501,26.493752,0.49883845,-0.55547845,0.6269803,1000.1755, , , , 
2026-03-20 18:12:18.137,8.252846,-11.803794,-0.47138608,0.4993056,-0.5487856,4.3993716,-16.6875,32.006252,24.468752,0.48376152,-0.57014483,0.63380224,1000.1818, , , , 
2026-03-20 18:12:18.156,9.360723,-11.897114,-0.047856454,0.71799517,-0.5915462,4.512993,-13.575001,33.05625,26.1,0.45700726,-0.5926803,0.6447637,1000.1818, , , , 
2026-03-20 18:12:18.176,10.289138,-11.566905,-0.81834537,0.84505504,-0.44310603,4.476341,-11.587501,35.4,22.96875,0.43482047,-0.607919,0.6533755,1000.1818, , , , 
2026-03-20 18:12:18.196,10.980663,-11.100305,-1.2466606,0.76381004,0.08590286,4.4738975,-7.55625,35.925003,24.525002,0.40395936,-0.6242745,0.6639554,1000.1801, , , , 
2026-03-20 18:12:18.216,11.619547,-10.5690975,-1.6366907,0.6172025,0.6430115,4.371272,-3.91875,37.18125,23.306252,0.37533247,-0.6359409,0.67239964,1000.1801, , , , 
2026-03-20 18:12:18.237,12.256038,-10.193424,-1.8520447,0.35514152,1.137812,4.1788497,1.03125,38.2125,20.25,0.35172695,-0.6443248,0.67825526,1000.1801, , , , 
2026-03-20 18:12:18.256,12.289537,-9.497113,-1.2562319,0.13706279,1.2532655,3.7316966,4.1625004,38.53125,21.0,0.3119263,-0.6574206,0.6858472,1000.1694, , , , 
2026-03-20 18:12:18.276,12.162718,-8.963513,-1.1988041,-0.07063124,1.2807543,3.4054947,5.1000004,37.3875,20.493752,-0.2822126,0.6669843,-0.6895482,1000.1694, , , , 
2026-03-20 18:12:18.296,11.650654,-8.877372,-0.35413775,-0.24533857,0.9667699,2.9045856,5.86875,37.6875,22.556252,-0.2558419,0.67592484,-0.6909754,1000.1608, , , , 
2026-03-20 18:12:18.317,10.985449,-9.032906,0.7178468,-0.12744166,0.532445,2.6199226,7.8,37.143753,22.6875,-0.22892597,0.6851142,-0.69090414,1000.1535, , , , 
2026-03-20 18:12:18.336,11.217552,-9.02812,0.61016977,0.11018474,0.38095054,2.5386777,10.650001,37.95,19.875,-0.21513744,0.68887836,-0.6911096,1000.1535, , , , 
2026-03-20 18:12:18.356,12.289537,-8.5112705,-1.0001999,0.22624904,0.5477166,2.415283,11.625,37.275,23.5125,-0.19266056,0.6928566,-0.69270855,1000.1528, , , , 
2026-03-20 18:12:18.376,13.708481,-8.56152,-2.132005,0.06131555,0.66744614,2.1794891,12.337501,37.10625,23.15625,-0.17939718,0.69507676,-0.69341284,1000.1528, , , , 
2026-03-20 18:12:18.397,14.976677,-8.207381,-1.698904,-0.21846052,0.5929206,1.701182,14.1,37.912502,22.9125,-0.16023405,0.6998223,-0.6925065,1000.15106, , , , 
2026-03-20 18:12:18.416,16.02234,-8.140383,-0.4881358,-0.30459246,0.31558803,1.1495712,16.800001,35.831253,21.206251,-0.14996825,0.7037811,-0.690393,1000.15106, , , , 
2026-03-20 18:12:18.436,16.264015,-8.410771,0.782453,-0.14149155,-0.029550584,0.5558106,16.706251,35.568752,22.78125,-0.14602795,0.70622516,-0.6885305,1000.14764, , , , 
2026-03-20 18:12:18.456,16.520048,-8.013563,0.70348984,0.14500403,-0.29100072,-0.021456625,16.275002,35.643753,24.056252,-0.1478135,0.7057951,-0.6885279,1000.14764,37.8875648,127.73751419,175.38458251953125,1.58
2026-03-20 18:12:18.476,16.189838,-7.0325055,0.22971097,0.28733552,-0.4730384,-0.7227294,14.55,35.081253,24.112501,-0.1552679,0.7027706,-0.6901734,1000.14764, , , , 
2026-03-20 18:12:18.496,15.034104,-7.5326056,-0.4354937,0.29588762,-0.6257546,-1.623144,16.35,35.268753,23.90625,-0.17306037,0.69650364,-0.6930777,1000.164, , , , 
2026-03-20 18:12:18.518,13.473985,-9.008977,-0.552742,0.21097742,-0.7393755,-2.314032,15.6,37.3125,22.63125,-0.19360511,0.69021803,-0.6948854,1000.1689, , , , 
2026-03-20 18:12:18.536,11.327622,-10.293923,0.0526421,0.14561489,-0.8065706,-2.775846,13.406251,37.237503,21.16875,-0.21774897,0.6830203,-0.6958316,1000.1689, , , , 
2026-03-20 18:12:18.557,10.662417,-11.10509,0.7752745,0.18593197,-0.93240875,-3.0091963,13.51875,38.475002,21.712502,-0.24375045,0.67466974,-0.6961183,1000.1833, , , , 
2026-03-20 18:12:18.576,10.782059,-11.586047,1.0001999,0.27267477,-1.0020473,-3.2376597,9.39375,37.6875,21.88125,-0.27149728,0.66451526,-0.69607747,1000.1833, , , , 
2026-03-20 18:12:18.596,10.865808,-11.519048,0.5982057,0.31421357,-0.9916626,-3.5944047,7.51875,38.60625,22.48125,0.30075532,-0.6523507,0.6956838,1000.1989, , , , 
2026-03-20 18:12:18.617,11.102697,-11.868401,0.7752745,0.2512945,-1.0295362,-4.1820564,4.0125003,38.737503,23.306252,0.33983094,-0.6346307,0.6935413,1000.1989, , , , 
2026-03-20 18:12:18.636,8.748159,-12.803994,0.74895346,0.2372446,-1.4363722,-4.5210867,1.29375,39.7125,22.3125,0.37569556,-0.617729,0.689128,1000.20795, , , , 
2026-03-20 18:12:18.656,8.018349,-13.1078825,1.026521,0.18837543,-1.278769,-4.4850454,0.01875,40.350002,19.0125,0.41102386,-0.5998794,0.6829163,1000.20795, , , , 
2026-03-20 18:12:18.676,7.7886376,-12.899707,0.38763726,0.10346522,-0.7302125,-4.3659267,-4.8562503,40.331253,21.375,0.44230562,-0.58152014,0.67660457,1000.20795, , , , 
2026-03-20 18:12:18.696,7.111469,-11.913864,-1.5002998,-0.16898046,0.43959355,-4.0861506,-9.243751,38.25,22.575,0.46634275,-0.56347287,0.67171705,1000.21063, , , , 
2026-03-20 18:12:18.718,7.30768,-11.255837,-2.4023938,-0.6155226,1.526322,-3.8442485,-11.90625,38.11875,21.91875,0.48040256,-0.54712486,0.6690444,1000.2209, , , , 
2026-03-20 18:12:18.736,7.82453,-10.882557,-1.9357935,-0.8555925,1.9637012,-3.8247008,-12.88125,36.037502,19.987501,0.48691258,-0.53203875,0.6673636,1000.2209, , , , 
2026-03-20 18:12:18.757,7.1617184,-10.884951,-1.282553,-0.80244726,1.4389683,-4.0104036,-16.21875,34.068752,20.75625,0.49473855,-0.5123708,0.6625063,1000.20844, , , , 
2026-03-20 18:12:18.776,6.4008007,-11.062019,-1.2658032,-0.7297543,0.90812683,-4.1008115,-20.925001,32.475002,19.800001,0.5021007,-0.50010926,0.6568656,1000.20844, , , , 
2026-03-20 18:12:18.796,4.735396,-11.08834,-1.3686945,-0.70715237,0.5605448,-4.034838,-24.337502,30.243752,22.59375,0.51729125,-0.4798835,0.6436053,1000.19696, , , , 
2026-03-20 18:12:18.816,2.955136,-11.066805,-1.4189439,-0.73158693,0.58925545,-3.751397,-27.956251,26.025002,20.90625,0.5283559,-0.4644929,0.63192564,1000.19696, , , , 
2026-03-20 18:12:18.836,1.3471591,-11.023734,-1.5122639,-0.74685854,0.5758164,-3.2113924,-29.718752,25.35,21.75,0.5366312,-0.45066792,0.620892,1000.19696, , , , 
2026-03-20 18:12:18.856,0.3924229,-10.877771,-1.1581261,-0.7321978,0.39805475,-2.653673,-31.35,23.79375,22.63125,0.5426735,-0.43967414,0.61052334,1000.20306, , , , 
2026-03-20 18:12:18.877,-0.21535404,-10.69831,-0.8350951,-0.6460659,0.2709949,-2.1350489,-31.593752,21.16875,22.48125,0.54711026,-0.43168804,0.60122764,1000.20306, , , , 
2026-03-20 18:12:18.896,-1.0289137,-10.372886,-1.0408778,-0.53794277,0.28015786,-1.461265,-32.175003,18.768751,19.29375,0.5496515,-0.42631757,0.59403646,1000.1967, , , , 
2026-03-20 18:12:18.920,-1.3686945,-11.16491,-1.9310079,-0.50068,0.26610798,-0.7123447,-32.625,17.34375,20.6625,0.54927975,-0.42354226,0.58888733,1000.1967, , , , 
2026-03-20 18:12:18.936,-1.698904,-11.60519,-2.7062824,-0.5923098,0.0834594,0.081779525,-31.500002,17.831251,20.5125,0.5461352,-0.42649528,0.58722425,1000.1967, , , , 
2026-03-20 18:12:18.956,-0.56470615,-11.655439,-3.0245278,-0.86597717,-0.15355614,1.0475568,-34.5,16.893751,21.6375,0.54003555,-0.43593517,0.5870211,1000.1928, , , , 
2026-03-20 18:12:18.976,0.93559366,-11.363515,-2.1343977,-1.1182643,-0.19387321,1.6559781,-36.9375,16.3875,21.9375,0.5301446,-0.45150027,0.58789384,1000.1928, , , , 
2026-03-20 18:12:18.996,3.022135,-11.459228,-0.64606214,-1.2941934,-0.14011711,2.256458,-34.875,17.34375,23.212502,0.51619864,-0.47111404,0.59009445,1000.174, , , , 
2026-03-20 18:12:19.016,4.359723,-11.873186,0.65084773,-1.232496,-0.14011711,2.5991533,-34.162502,19.40625,23.79375,0.4992114,-0.49251884,0.5937002,1000.174, , , , 
2026-03-20 18:12:19.037,5.0919266,-12.098111,1.2203395,-1.0223585,-0.2769508,2.835558,-32.625,19.800001,23.60625,0.4812001,-0.5141188,0.59849596,1000.174, , , , 
2026-03-20 18:12:19.056,5.663811,-12.330215,1.2801601,-0.6460659,-0.49319696,3.1458774,-29.625002,20.868752,23.38125,0.4591494,-0.54041743,0.605825,1000.1735, , , , 
2026-03-20 18:12:19.076,5.7954164,-12.382857,0.7680961,-0.4475348,-0.57138765,3.4030514,-30.487501,23.25,25.181252,0.44588983,-0.5556923,0.6110334,1000.1735, , , , 
2026-03-20 18:12:19.096,6.094519,-12.023933,0.4139583,-0.28199047,-0.6709586,3.8331,-25.556252,24.375002,24.6,0.4223505,-0.58087164,0.62069774,1000.1767, , , , 
2026-03-20 18:12:19.117,6.518049,-11.705688,0.44745782,-0.16592614,-0.78457946,4.166632,-25.3875,26.643751,24.0,0.40198272,-0.60093623,0.6287402,1000.1767, , , , 
2026-03-20 18:12:19.136,7.056434,-11.511869,0.28953153,-0.115835235,-0.7448732,4.440911,-24.243752,27.375002,25.3875,0.37992358,-0.62054867,0.6367981,1000.1733, , , , 
2026-03-20 18:12:19.157,7.664211,-11.564512,0.040677983,-0.22823435,-0.29161158,4.773221,-20.53125,30.6,26.962502,0.35416698,-0.63940746,0.6449283,1000.17377, , , , 
2026-03-20 18:12:19.176,9.104691,-11.569298,0.5599205,-0.36140287,0.6075814,5.1293554,-18.337502,31.312502,27.000002,0.32157335,-0.6573417,0.65357274,1000.17377, , , , 
2026-03-20 18:12:19.197,10.526027,-11.260623,1.0193424,-0.46708247,1.4786745,5.137296,-13.462501,33.5625,25.593752,0.2811294,-0.6729699,0.66314465,1000.17377, , , , 
2026-03-20 18:12:19.216,11.717652,-10.612168,1.7228323,-0.4634173,1.8073198,4.7622256,-7.9125004,34.893753,24.468752,0.22593483,-0.68821394,0.6741493,1000.15814, , , , 
2026-03-20 18:12:19.236,11.408978,-10.167104,1.6438692,-0.30581418,1.3583342,4.2142797,-7.74375,34.275,25.25625,0.18613201,-0.6967161,0.68091524,1000.15814, , , , 
2026-03-20 18:12:19.256,11.004591,-10.1599245,0.59581286,-0.22456917,0.78351045,3.7225337,-5.4187503,36.393753,24.581251,0.15336359,-0.70298606,0.685689,1000.1557, , , , 
2026-03-20 18:12:19.276,10.746166,-10.162318,0.28235307,-0.27282748,0.47258025,3.4152687,-3.05625,37.36875,27.056252,0.12607497,-0.7083606,0.6883608,1000.1557, , , , 
2026-03-20 18:12:19.296,10.794023,-9.875179,0.19381863,-0.4249328,0.50923216,3.1312165,0.01875,36.675003,27.712502,0.101929255,-0.7134722,0.6891645,1000.15814, , , , 
2026-03-20 18:12:19.316,11.191232,-9.698111,0.47377887,-0.6869938,0.91667897,2.8777077,1.8000001,36.73125,27.206251,0.077880606,-0.71890956,0.6879985,1000.1447, , , , 
2026-03-20 18:12:19.336,11.794223,-9.659825,1.8448663,-0.83237964,1.4646246,2.5679991,3.6562502,35.8125,27.525002,0.04595699,-0.72610253,0.68405885,1000.1447, , , , 
2026-03-20 18:12:19.356,11.7463665,-10.080962,2.8402805,-0.6631701,1.8030437,2.2808926,4.4437504,35.4,27.31875,0.019615494,-0.7304593,0.6807971,1000.14105, , , , 
2026-03-20 18:12:19.376,12.7082815,-10.0163555,2.7852457,-0.24350597,1.7144684,2.0890813,6.80625,35.4,25.987501,-0.0054565785,-0.7319696,0.6794213,1000.14105, , , , 
2026-03-20 18:12:19.396,14.593825,-8.915657,1.3447664,0.092469655,1.5428153,1.773875,4.78125,35.04375,29.625002,-0.027141301,-0.7306738,0.68023014,1000.14105, , , , 
2026-03-20 18:12:19.416,16.354942,-7.6163545,0.5024927,0.24762931,1.3729949,1.0945933,5.925,36.16875,27.431252,-0.044090174,-0.72808963,0.6818621,1000.1547, , , , 
2026-03-20 18:12:19.436,16.06541,-7.219146,0.35413775,0.3985129,1.2471569,0.42264208,5.2875004,35.34375,29.550001,-0.054649543,-0.724978,0.6838037,1000.1547, , , , 
2026-03-20 18:12:19.456,14.706288,-7.173682,-0.65084773,0.68195415,1.133536,-0.22059855,5.0625,34.93125,29.437502,-0.059634797,-0.7207515,0.68680066,1000.1496,37.88757066,127.73752837,176.35577392578125,1.6
2026-03-20 18:12:19.478,14.297115,-7.6977105,-2.5674987,0.87865263,0.9258419,-0.6805797,6.0937505,37.050003,27.675001,-0.060092703,-0.71393627,0.691942,1000.1369, , , , 
2026-03-20 18:12:19.496,14.75893,-7.2670026,-4.421936,0.7613666,0.5965858,-1.1888192,4.36875,34.893753,26.587502,-0.055059124,-0.70889676,0.6955791,1000.1369, , , , 
2026-03-20 18:12:19.516,14.991034,-7.771888,-5.271388,0.24335326,0.30153814,-1.9695044,3.9375002,36.975002,24.187502,-0.04359203,-0.7069455,0.6958055,1000.1247, , , , 
2026-03-20 18:12:19.536,14.47897,-9.722038,-4.031906,-0.2850448,0.13965896,-2.785009,2.8875,37.612503,24.73125,-0.025642835,-0.70905554,0.69090134,1000.1247, , , , 
2026-03-20 18:12:19.556,13.569697,-12.059826,-2.4646072,-0.47746718,0.18913901,-3.4526842,-3.3187501,37.6875,29.7,-0.0030703512,-0.71272,0.68236357,1000.1247, , , , 
2026-03-20 18:12:19.576,12.969099,-13.976477,-1.9932213,-0.46586075,0.4652499,-4.0189557,-5.71875,34.4625,28.593752,0.021804672,-0.71527797,0.67200667,1000.10834, , , , 
2026-03-20 18:12:19.596,12.440285,-14.938392,-2.2157538,-0.4475348,0.7291435,-4.529639,-8.38125,35.8125,28.63125,0.054396097,-0.7156404,0.6567397,1000.12054, , , , 
2026-03-20 18:12:19.616,11.997613,-15.409778,-2.4885356,-0.42554367,0.7462477,-4.86989,-12.431251,35.268753,28.1625,0.07511713,-0.71433944,0.6460475,1000.12054, , , , 
2026-03-20 18:12:19.636,11.794223,-15.548561,-2.7565317,-0.30642503,0.48357582,-5.2785587,-13.668751,33.412502,27.31875,0.11309675,-0.70962596,0.6258229,1000.1418, , , , 
2026-03-20 18:12:19.656,10.339387,-16.194624,-3.0723844,-0.20624322,0.28870997,-5.615145,-19.931252,30.88125,29.6625,0.14742807,-0.7035627,0.6072659,1000.1418, , , , 
2026-03-20 18:12:19.677,7.5469627,-16.19223,-3.4313076,-0.1805869,0.25816673,-5.5503936,-23.2875,27.825,27.2625,0.18237951,-0.6954635,0.58709985,1000.1418, , , , 
2026-03-20 18:12:19.696,6.216553,-14.644074,-4.974678,-0.29726207,0.61857694,-5.005502,-23.212502,25.35,26.925001,0.21343967,-0.68594486,0.5668384,1000.1513, , , , 
2026-03-20 18:12:19.717,6.721439,-12.789637,-5.8743796,-0.7218131,1.132925,-4.6145487,-27.69375,22.5375,24.7875,0.23738769,-0.675861,0.54621035,1000.1491, , , , 
2026-03-20 18:12:19.736,6.728617,-11.576476,-4.7712884,-1.1127665,1.4475205,-4.4703846,-30.69375,16.5,26.5125,0.25490147,-0.6655187,0.5236463,1000.1491, , , , 
2026-03-20 18:12:19.756,5.7858453,-11.2343025,-3.333202,-1.1543053,1.2288308,-4.384253,-33.112503,14.64375,25.800001,0.26974884,-0.65479374,0.49930385,1000.1491, , , , 
2026-03-20 18:12:19.777,4.462614,-11.002198,-2.115255,-0.96127206,0.62040955,-4.162509,-34.875,11.71875,25.5375,0.28928027,-0.6422255,0.46804693,1000.15546, , , , 
2026-03-20 18:12:19.797,4.048656,-10.3848505,-1.6677973,-0.6753874,-0.020998476,-3.9108326,-36.9,7.2937503,24.0,0.30716142,-0.63396007,0.44359002,1000.1608, , , , 
2026-03-20 18:12:19.816,3.2542388,-9.915857,-2.2085752,-0.5287798,-0.49258608,-3.6622107,-36.693752,5.0437503,27.806252,0.32679772,-0.62749803,0.41950467,1000.1608, , , , 
2026-03-20 18:12:19.837,2.1894326,-10.049855,-2.6632116,-0.5623774,-0.6636282,-3.3066874,-37.050003,0.91875005,25.612501,0.34587082,-0.6226129,0.3958052,1000.1711, , , , 
2026-03-20 18:12:19.856,0.7369894,-10.0163555,-2.78046,-0.6460659,-0.75098187,-2.7227006,-33.84375,-2.2125,24.056252,0.36206138,-0.6196988,0.37348577,1000.1711, , , , 
2026-03-20 18:12:19.876,0.31345975,-9.437292,-2.6871397,-0.7431934,-0.727769,-2.0947316,-35.943752,-4.96875,29.062502,0.37370354,-0.6192611,0.35398296,1000.1711, , , , 
2026-03-20 18:12:19.896,0.38763726,-8.784052,-2.3401806,-0.9551634,-0.35514152,-1.293888,-36.825,-6.525,27.093752,0.38048205,-0.62095016,0.33454528,1000.1774, , , , 
2026-03-20 18:12:19.917,0.4139583,-9.217153,-1.8711873,-1.0535127,-0.030772313,-0.7868702,-37.2,-8.962501,29.737501,0.3795064,-0.6226952,0.32332346,1000.1774, , , , 
2026-03-20 18:12:19.936,0.15553348,-10.451849,-1.9812572,-1.0626756,0.12194388,-0.117362395,-36.112503,-10.087501,29.23125,0.37384686,-0.6253249,0.31620204,1000.1811, , , , 
2026-03-20 18:12:19.956,-0.74895346,-10.162318,-1.9501505,-1.0816125,0.020540329,0.6608793,-36.300003,-9.712501,28.143751,0.3638713,-0.6305429,0.31313404,1000.18695, , , , 
2026-03-20 18:12:19.976,0.18424734,-9.726824,-1.7443677,-1.1756856,-0.11446079,1.4714969,-37.03125,-10.293751,28.875002,0.34892148,-0.639493,0.31393924,1000.18695, , , , 
2026-03-20 18:12:19.996,1.3734802,-9.461221,-1.2251252,-1.2654828,-0.13095413,2.049375,-35.1375,-11.212501,27.6375,0.33438984,-0.6481167,0.31669557,1000.18695, , , , 
2026-03-20 18:12:20.016,4.0295134,-10.12164,-0.22253251,-1.3302344,-0.028328855,2.5588362,-33.24375,-7.2562504,23.19375,0.30480748,-0.6639305,0.32455063,1000.1916, , , , 
2026-03-20 18:12:20.036,4.685147,-10.9017,0.36131623,-1.2465459,-0.016111558,2.8001277,-36.75,-7.65,27.150002,0.27828175,-0.6763439,0.33300468,1000.1916, , , , 
2026-03-20 18:12:20.056,4.7712884,-11.375479,0.7968099,-1.0229695,-0.15050182,3.1550403,-37.36875,-7.2000003,25.800001,0.2435458,-0.6915795,0.3465486,1000.206, , , , 
2026-03-20 18:12:20.076,5.0751767,-11.808579,0.5168497,-0.83543396,-0.28122687,3.4959028,-36.018753,-4.2000003,25.1625,0.22201422,-0.70073897,0.35675675,1000.206, , , , 
2026-03-20 18:12:20.096,5.5776696,-12.126825,0.5240282,-0.681496,-0.42722356,3.9815402,-36.3375,-2.625,27.431252,0.18410169,-0.71606624,0.37703884,1000.2082, , , , 
2026-03-20 18:12:20.118,6.5635123,-12.064611,1.0432707,-0.4719694,-0.48097965,4.425639,-36.825,0.5625,26.062502,0.15165286,-0.7276804,0.3960485,1000.20795, , , , 
2026-03-20 18:12:20.136,7.446464,-11.887543,1.3208381,-0.20929754,-0.39057165,4.697474,-34.18125,3.4687502,25.1625,0.117875405,-0.73714346,0.41756153,1000.20795, , , , 
2026-03-20 18:12:20.156,8.32463,-11.956935,0.7848458,0.020998476,-0.23174682,4.848968,-33.675003,8.231251,26.531252,0.083491445,-0.7434529,0.4411038,1000.20355, , , , 
2026-03-20 18:12:20.178,8.944371,-12.270394,-0.2536392,0.030161448,0.10911572,4.9241047,-33.61875,12.95625,27.187502,0.03941086,-0.7469259,0.47095126,1000.20355, , , , 
2026-03-20 18:12:20.196,9.171689,-12.7393875,-0.33499518,-0.13293944,0.48846275,5.0572734,-33.318752,15.1125,26.1,0.0014452852,-0.74663854,0.49313498,1000.205, , , , 
2026-03-20 18:12:20.217,10.535598,-13.093526,0.10049855,-0.3278053,0.94661134,5.185555,-30.7875,19.706251,27.431252,-0.04003273,-0.74352425,0.51335704,1000.205, , , , 
2026-03-20 18:12:20.236,11.684153,-13.088739,0.60777694,-0.38095054,1.1207078,5.0914817,-29.04375,21.768751,26.19375,-0.08321828,-0.7377875,0.53109723,1000.205, , , , 
2026-03-20 18:12:20.256,11.97847,-12.64846,0.8255238,-0.35346162,0.9765437,4.7836056,-29.04375,24.0,26.7,-0.1241329,-0.73042643,0.54633373,1000.205, , , , 
2026-03-20 18:12:20.276,12.260823,-11.973684,0.6771688,-0.32841617,0.73341954,4.42625,-24.656252,24.581251,25.743752,-0.1608662,-0.72260356,0.5594876,1000.205, , , , 
2026-03-20 18:12:20.296,12.447463,-10.990234,0.5072784,-0.37056586,0.528169,3.973599,-25.556252,26.718752,26.475,-0.19303735,-0.71516615,0.5704382,1000.19696, , , , 
2026-03-20 18:12:20.318,12.500106,-10.179068,0.8135597,-0.47991064,0.5831468,3.5014005,-21.806252,29.98125,25.44375,-0.22839561,-0.7066018,0.5803025,1000.20404, , , , 
2026-03-20 18:12:20.336,12.480963,-9.949356,1.5074782,-0.5067887,0.7755692,3.1348817,-18.618752,31.181252,24.4125,-0.2478853,-0.70160955,0.5840659,1000.20404, , , , 
2026-03-20 18:12:20.356,12.062219,-9.848858,2.359323,-0.31864235,1.0028108,2.7921865,-15.281251,33.15,23.643751,-0.27808762,-0.6921901,0.5883745,1000.2153, , , , 
2026-03-20 18:12:20.376,12.823136,-10.990234,2.053042,0.028939718,1.0779473,2.6211443,-15.69375,33.24375,23.53125,-0.30015522,-0.682552,0.592236,1000.2153, , , , 
2026-03-20 18:12:20.396,15.326029,-10.430314,1.0863415,0.497473,1.0040326,2.432387,-15.468751,34.36875,23.90625,-0.31974584,-0.6708158,0.59778666,1000.2099, , , , 
2026-03-20 18:12:20.416,18.218952,-9.030513,-1.0695918,0.678289,0.9722676,1.7567707,-13.031251,35.625,23.737501,-0.334859,-0.6586084,0.60394746,1000.2099, , , , 
2026-03-20 18:12:20.436,18.690338,-8.054241,-2.0841484,0.5487856,1.1536945,0.9687552,-12.225,34.350002,22.181252,-0.34265456,-0.6511921,0.6066005,1000.2099, , , , 
2026-03-20 18:12:20.456,17.546568,-7.3100734,-2.5052853,0.31238097,1.589852,0.07933606,-11.400001,36.91875,21.6375,-0.35191587,-0.6427564,0.60458523,1000.1901,37.88757353,127.73753996,176.36163330078125,1.3
2026-03-20 18:12:20.476,16.079767,-6.4295144,-2.0697916,0.21769693,1.6643775,-0.69951653,-12.4875,37.3125,21.2625,-0.35733432,-0.6381285,0.59597445,1000.1596, , , , 
2026-03-20 18:12:20.496,14.821143,-6.431907,-2.1487548,0.24213153,1.2831979,-1.4459933,-14.906251,36.09375,19.575,-0.3557978,-0.6374646,0.5869633,1000.1596, , , , 
2026-03-20 18:12:20.516,13.438092,-7.84128,-2.4598217,0.29344416,0.68393946,-2.1582615,-17.400002,36.825,19.95,-0.3466375,-0.6405114,0.57732165,1000.1452, , , , 
2026-03-20 18:12:20.536,12.155539,-9.399008,-3.6227336,0.26045746,0.16348268,-2.6799402,-15.712501,35.756252,19.21875,-0.3304997,-0.64696807,0.5673792,1000.1452, , , , 
2026-03-20 18:12:20.556,11.511869,-10.372886,-4.019942,-0.04253146,-0.108963005,-3.0831108,-20.362501,33.675003,18.28125,-0.3102716,-0.6567795,0.55537975,1000.1452, , , , 
2026-03-20 18:12:20.576,11.68176,-11.373086,-2.6703901,-0.37545276,-0.22380558,-3.4520733,-23.38125,33.99375,18.2625,-0.28802568,-0.66938376,0.53980476,1000.13934, , , , 
2026-03-20 18:12:20.596,12.461821,-12.8518505,-0.5240282,-0.37117672,-0.40156722,-3.8894525,-24.956251,30.581251,19.25625,-0.2629094,-0.68332654,0.52161694,1000.13934, , , , 
2026-03-20 18:12:20.616,13.033705,-13.473985,-0.29671,-0.037644543,-0.66668254,-4.451448,-30.206251,27.16875,21.075,-0.22473037,-0.7000562,0.4981896,1000.15155, , , , 
2026-03-20 18:12:20.637,13.119846,-13.777873,-0.9882358,0.030161448,-0.71494085,-4.7703195,-30.000002,25.331251,20.7,-0.19790697,-0.7095416,0.48335594,1000.15155, , , , 
2026-03-20 18:12:20.656,12.7393875,-14.620147,-1.5457634,-0.06269,-0.75525796,-5.458764,-32.90625,23.175001,19.893751,-0.14832719,-0.7248213,0.45421132,1000.16693, , , , 
2026-03-20 18:12:20.676,11.413764,-15.689738,-1.9716859,-0.11827869,-0.5860484,-5.8320026,-32.568752,17.7,22.0125,-0.10574744,-0.7354324,0.42661288,1000.16693, , , , 
2026-03-20 18:12:20.696,8.322237,-15.524633,-3.1920254,-0.292986,-0.0051159924,-5.6774535,-35.362503,14.700001,21.243752,-0.06441017,-0.742703,0.3965647,1000.1789, , , , 
2026-03-20 18:12:20.716,6.611369,-14.476577,-4.091727,-0.69860023,0.9539417,-5.10996,-36.018753,10.762501,21.375,-0.030520288,-0.7448432,0.36519244,1000.18695, , , , 
2026-03-20 18:12:20.736,6.398408,-13.01217,-2.9718857,-1.0449606,1.7077489,-4.563847,-39.768753,5.2875004,21.7875,-0.006558165,-0.74169546,0.33290568,1000.18695, , , , 
2026-03-20 18:12:20.757,7.173682,-11.676974,-0.9236295,-0.920955,1.7266856,-4.301786,-40.125,1.2750001,20.34375,0.016522363,-0.73262733,0.29347795,1000.19037, , , , 
