Time,Accel_X,Accel_Y,Accel_Z,Gyro_X,Gyro_Y,Gyro_Z,Mag_X,Mag_Y,Mag_Z,Orient_X,Orient_Y,Orient_Z,Pressure,Lat,Lng,Alt,Speed
2025-09-28 19:05:52.838,0.8111669,5.6327047,7.568498,0.06391173,-0.3919461,-0.05108357,-13.743751,-45.862503,-20.34375,0.22524135,0.19150452,0.6615297,995.06757,37.88837498,127.73984651,148.99212646484375,0.0
2025-09-28 19:05:52.858,0.37567315,5.4149575,8.891729,-0.018555017,-0.035201084,-0.0834594,-14.56875,-45.581253,-20.4375,0.2276471,0.18944608,0.6601725,995.06, , , , 
2025-09-28 19:05:52.878,0.14596218,5.503492,8.523234,0.010155627,0.23907721,-0.055970486,-12.900001,-45.28125,-19.706251,0.2268262,0.18974133,0.6598625,995.06, , , , 
2025-09-28 19:05:52.898,0.076570325,5.7667027,8.020741,-8.3993905E-4,0.26595524,-0.043142326,-10.78125,-45.05625,-21.018751,0.22433525,0.19229808,0.660206,995.05853, , , , 
2025-09-28 19:05:52.918,-0.016749758,5.7810597,8.348558,0.016264275,0.006948587,-0.046807513,-13.481251,-47.456253,-19.66875,0.22340623,0.19344822,0.6602413,995.05853, , , , 
2025-09-28 19:05:52.938,0.2009971,5.759524,7.8484583,0.056581352,-0.25694498,-0.037033677,-10.481251,-46.40625,-20.19375,0.22455503,0.19313212,0.65932655,995.04755, , , , 
2025-09-28 19:05:52.958,0.33020952,5.575277,7.752745,-0.03932442,-0.029092435,-0.031535894,-12.825001,-44.90625,-20.04375,0.22596648,0.19220206,0.6585663,995.04755, , , , 
2025-09-28 19:05:52.978,0.3684947,5.692525,8.410771,-0.037491824,0.18104506,-0.0040469794,-12.4125,-47.325,-21.6375,0.22461513,0.19284786,0.65887797,995.04266, , , , 
2025-09-28 19:05:52.998,0.16271193,5.6039906,8.896515,0.08590286,-0.15187626,-0.013820816,-11.475,-46.48125,-23.025002,0.2241298,0.19322401,0.6590117,995.04266, , , , 
2025-09-28 19:05:53.018,0.23928227,5.5226345,8.5112705,0.19708025,-0.50801045,-0.015042545,-12.13125,-46.575,-20.475,0.22659348,0.19208784,0.6580693,995.0551, , , , 
2025-09-28 19:05:53.038,0.37088752,5.319245,7.513463,0.044364054,-0.34246606,0.030161448,-11.64375,-46.3875,-20.7,0.23168048,0.18935019,0.6563069,995.0551, , , , 
2025-09-28 19:05:53.058,0.30867413,5.642276,7.893922,-0.050319985,-0.12866339,0.060704686,-11.587501,-46.125,-21.018751,0.23346247,0.18751913,0.65598863,995.06415, , , , 
2025-09-28 19:05:53.078,0.3397808,5.7116675,8.01117,-0.032604907,0.05337431,0.09308052,-12.750001,-45.375,-20.94375,0.23356022,0.18701494,0.65630513,995.06415, , , , 
2025-09-28 19:05:53.098,0.59342,5.7427745,7.9226356,0.0028252497,-0.16714787,0.09491312,-12.525001,-45.61875,-19.556252,0.23361288,0.18709113,0.65722823,995.07733, , , , 
2025-09-28 19:05:53.118,0.57427746,5.2666025,7.8484583,-0.07903063,-0.14515674,0.10407609,-11.925,-45.65625,-21.6375,0.23483741,0.18550164,0.6575061,995.07733, , , , 
2025-09-28 19:05:53.138,0.33260235,5.4699926,7.7216387,-0.13828452,0.26534438,0.20303617,-14.437501,-47.68125,-18.618752,0.23425657,0.18400441,0.65882355,995.081, , , , 
2025-09-28 19:05:53.158,0.5312066,5.802595,7.908279,-0.18043418,0.67218035,0.18409938,-14.00625,-47.362503,-22.3875,0.23082925,0.18567003,0.661483,995.081, , , , 
2025-09-28 19:05:53.178,0.37328035,5.2977095,8.827123,-0.12301289,0.610483,0.10713041,-14.925,-45.112503,-19.5,0.22560962,0.18888189,0.66437846,995.0937, , , , 
2025-09-28 19:05:53.198,0.38524446,5.73081,8.88455,-0.030161448,0.33498296,0.11140647,-12.50625,-44.86875,-20.85,0.22175737,0.19130954,0.6664171,995.0937, , , , 
2025-09-28 19:05:53.218,0.37806597,5.759524,8.068598,-0.07108939,0.20975569,0.10529782,-14.512501,-43.8375,-20.081251,0.22046767,0.19225137,0.6674212,995.09296, , , , 
2025-09-28 19:05:53.238,0.2105684,5.7762737,7.867601,-0.15355614,0.24824017,0.12240203,-14.606251,-44.850002,-17.681252,0.21870597,0.19292143,0.66878307,995.09296, , , , 
2025-09-28 19:05:53.259,0.2656033,5.601598,7.989635,-0.2079231,0.21464261,0.1297324,-13.9875,-45.6375,-20.643751,0.21606739,0.19359495,0.6707124,995.07367, , , , 
2025-09-28 19:05:53.278,0.32542387,5.4173503,8.425129,-0.14622575,-0.037644543,0.047876526,-15.431251,-46.275,-20.75625,0.21391903,0.1928647,0.6723839,995.07367, , , , 
2025-09-28 19:05:53.299,0.32063824,5.3742795,8.073383,-0.11568252,-0.049861837,0.0020616686,-11.418751,-44.737503,-23.118752,0.21354711,0.1917144,0.67271066,995.04535, , , , 
2025-09-28 19:05:53.318,0.3397808,5.3718867,7.958528,-0.13461933,0.19326234,-0.02481638,-12.075001,-45.5625,-20.23125,0.21287836,0.19097124,0.6729076,995.04535, , , , 
2025-09-28 19:05:53.338,0.27517462,5.3359947,8.4347,-0.09674571,0.2690096,-0.05291616,-13.63125,-43.85625,-20.475,0.2106636,0.19179793,0.67338234,995.04535, , , , 
2025-09-28 19:05:53.358,0.15553348,5.300102,8.946764,0.03092503,0.04848739,-0.09445497,-14.64375,-46.068752,-21.46875,0.20927837,0.19243747,0.67341495,995.0278, , , , 
2025-09-28 19:05:53.378,0.15314065,5.491528,8.475378,0.16531529,-0.39255697,-0.09506583,-12.543751,-44.475002,-23.175001,0.21023098,0.19198836,0.6718708,995.0119, , , , 
2025-09-28 19:05:53.398,0.35413775,5.3718867,8.219346,0.14698933,-0.37911797,-0.074907295,-13.6125,-45.3375,-21.7875,0.21469924,0.19008322,0.66969323,995.0119, , , , 
2025-09-28 19:05:53.418,0.37088752,5.343173,7.8628154,0.043753188,-0.0730747,-0.05169443,-12.843751,-46.631252,-22.10625,0.21705356,0.18924798,0.668529,995.00507, , , , 
2025-09-28 19:05:53.438,0.35653058,5.4436717,7.905886,-0.034437504,0.07536544,-0.040088,-12.975,-44.4,-22.21875,0.21726944,0.18931793,0.6683224,995.00507, , , , 
2025-09-28 19:05:53.458,0.5240282,5.477171,8.303095,-0.07108939,0.20242532,-0.056581352,-12.750001,-45.375,-20.94375,0.21552965,0.1900453,0.66860604,995.0153, , , , 
2025-09-28 19:05:53.478,0.27756742,5.4460645,8.145168,-0.017333288,0.08513928,-0.07857248,-12.993751,-44.4,-21.6,0.21427855,0.19070652,0.66867197,995.0153, , , , 
2025-09-28 19:05:53.498,0.023928227,5.4221363,8.642876,0.022372922,0.0063377223,-0.053527027,-12.01875,-44.79375,-23.0625,0.21379203,0.1912413,0.6683266,995.0285, , , , 
2025-09-28 19:05:53.518,0.009571291,5.355137,8.52802,0.06330086,0.020998476,-0.037033677,-13.593751,-44.362503,-20.1375,0.2135875,0.19144806,0.66805285,995.0285, , , , 
2025-09-28 19:05:53.538,0.1268196,5.2809596,7.094719,-0.16943862,0.63369584,0.030772313,-14.887501,-45.09375,-21.35625,0.21209696,0.19353746,0.66825664,995.0373, , , , 
2025-09-28 19:05:53.558,0.27756742,5.6470613,8.575876,-0.1333976,0.47120583,0.0240528,-14.043751,-43.143753,-21.712502,0.2082547,0.1961789,0.669685,995.0373, , , , 
2025-09-28 19:05:53.578,0.23688944,5.601598,8.645268,-0.044822205,0.15477787,-0.020540329,-12.187501,-46.2,-20.962502,0.20589249,0.19745871,0.67056745,995.0373, , , , 
2025-09-28 19:05:53.598,-0.27996024,5.453243,8.60459,-0.010002911,0.024663666,-0.039477136,-12.918751,-44.775,-20.962502,0.20443144,0.1978392,0.6705567,995.0402, , , , 
2025-09-28 19:05:53.619,-0.31106696,5.503492,8.413164,0.0077121677,0.039935283,0.003894263,-12.88125,-45.2625,-21.09375,0.20400359,0.19827886,0.67032236,995.04486, , , , 
2025-09-28 19:05:53.638,-0.17706887,5.4819565,8.834301,0.027259842,-0.010155627,0.046043932,-13.725,-45.862503,-20.962502,0.2034497,0.19884504,0.67046344,995.04486, , , , 
2025-09-28 19:05:53.658,-0.08853444,5.5250273,8.712267,0.11950042,-0.19891284,0.053985175,-12.6,-44.737503,-22.85625,0.20400034,0.19861542,0.67052394,995.0534, , , , 
2025-09-28 19:05:53.678,0.059820566,5.556134,8.303095,0.15493058,-0.3314705,0.036880963,-12.8625,-45.2625,-21.5625,0.20662263,0.19766904,0.67000633,995.0534, , , , 
2025-09-28 19:05:53.698,0.05742774,5.6781683,8.054241,0.124998204,-0.3265836,0.029550584,-13.6125,-44.5875,-21.975,0.20911185,0.19682312,0.6694239,995.0534, , , , 
2025-09-28 19:05:53.718,0.17467605,5.656633,7.867601,-0.043600474,0.030161448,0.07841977,-13.9875,-44.8875,-20.0625,0.21164054,0.19613397,0.6690941,995.0612, , , , 
2025-09-28 19:05:53.738,0.32063824,5.5800624,7.91785,-0.1871537,0.3759109,0.08513928,-12.993751,-44.41875,-21.13125,0.20993832,0.19723712,0.6705673,995.08417, , , , 
2025-09-28 19:05:53.758,0.13399807,5.4556355,8.60459,-0.22075126,0.3673588,0.107741274,-13.63125,-45.35625,-20.7,0.20676242,0.19825824,0.6722944,995.08417, , , , 
2025-09-28 19:05:53.778,0.20578274,5.4317074,8.611769,-0.1645517,0.3087158,0.09674571,-13.6125,-45.975002,-20.8125,0.20416406,0.19860755,0.6737128,995.1069, , , , 
2025-09-28 19:05:53.798,-0.39481574,5.3383875,8.616554,-0.124234624,0.12484549,0.06498074,-13.275001,-45.80625,-21.7875,0.20085481,0.19904482,0.67544734,995.1069, , , , 
2025-09-28 19:05:53.818,-0.5383851,5.1876397,8.583055,-0.011835505,-0.08590286,0.18593197,-13.2375,-44.287502,-23.118752,0.19887826,0.19881274,0.6765905,995.1374, , , , 
2025-09-28 19:05:53.838,-0.050249275,5.2426744,8.338987,0.060857404,-0.2948186,0.1834885,-12.843751,-44.5125,-22.368752,0.1999019,0.19772132,0.67737234,995.1374,37.88837498,127.73984651,148.99212646484375,0.0
2025-09-28 19:05:53.858,0.069391854,5.3886366,8.257631,0.13965896,-0.4267654,0.12179117,-13.481251,-44.7,-21.825,0.2022366,0.19592181,0.6775925,995.17914, , , , 
2025-09-28 19:05:53.878,0.31106696,5.3072805,7.920243,0.058413945,-0.1805869,0.09124792,-14.437501,-42.825,-20.456251,0.20566723,0.19394304,0.6774769,995.17914, , , , 
2025-09-28 19:05:53.898,1.0289137,5.2570314,8.669196,0.027259842,0.10529782,0.05093085,-11.700001,-43.78125,-20.831251,0.20652284,0.1934347,0.6778705,995.17914, , , , 
2025-09-28 19:05:53.918,0.64845496,5.4628143,8.298309,0.011988222,0.15599959,0.0026725335,-14.625001,-44.456253,-20.493752,0.20641725,0.19349098,0.6784068,995.22845, , , , 
2025-09-28 19:05:53.938,0.35413775,5.5872407,8.472985,0.0058795735,-0.13782637,-0.04497492,-13.368751,-44.8125,-21.675001,0.2066876,0.19361678,0.6784045,995.2641, , , , 
2025-09-28 19:05:53.958,0.4235296,5.505885,8.336594,0.013209951,-0.0816268,-0.07246383,-14.418751,-44.925003,-21.09375,0.20776723,0.19277434,0.67782843,995.2641, , , , 
2025-09-28 19:05:53.978,0.033499517,5.436493,7.867601,-0.08025236,0.037491824,-0.06696605,-14.512501,-45.206253,-18.91875,0.20802513,0.1928426,0.6771326,995.28217, , , , 
2025-09-28 19:05:53.998,0.031106694,5.4891353,8.128419,-0.10713041,0.05093085,-0.057192214,-12.8625,-44.5125,-22.06875,0.20758899,0.1930038,0.6769971,995.28217, , , , 
2025-09-28 19:05:54.018,0.10767702,5.3982077,8.496913,-0.058261227,-0.016264275,-0.046807513,-11.4375,-45.487503,-22.1625,0.20643038,0.19285446,0.67679787,995.2858, , , , 
2025-09-28 19:05:54.038,0.17467605,5.3742795,8.327023,0.0193186,-0.09812015,-0.04619665,-12.39375,-46.575,-21.84375,0.20653528,0.19218835,0.6763277,995.2858, , , , 
2025-09-28 19:05:54.058,0.25842485,5.3718867,8.298309,0.02481638,-0.10911572,-0.04130973,-13.218751,-46.29375,-21.91875,0.20738377,0.19172597,0.67576444,995.2839, , , , 
2025-09-28 19:05:54.078,0.37328035,5.261817,8.382058,0.04925097,-0.04497492,-0.03886627,-12.731251,-46.74375,-21.16875,0.20794551,0.19143339,0.67542464,995.2839, , , , 
2025-09-28 19:05:54.098,0.10767702,5.316852,7.7886376,-0.015500694,0.13400847,-0.03459022,-11.118751,-48.43125,-24.0375,0.2080966,0.1919347,0.6751383,995.2895, , , , 
2025-09-28 19:05:54.118,0.043070808,5.302495,8.001599,-0.07108939,0.14683662,-0.022983788,-12.937501,-46.275,-21.1875,0.20700058,0.19301313,0.67522836,995.2895, , , , 
2025-09-28 19:05:54.138,0.17467605,5.259424,8.228917,-0.049098257,0.07231112,-0.030314164,-13.25625,-45.5625,-19.95,0.20599337,0.19349049,0.67536074,995.2895, , , , 
2025-09-28 19:05:54.159,0.0741775,5.2331033,8.013563,-0.04054615,-0.021762058,-0.045585785,-12.13125,-47.53125,-23.362501,0.2055154,0.19351707,0.6753254,995.28265, , , , 
2025-09-28 19:05:54.178,0.019142581,5.168497,8.257631,-0.09430225,-0.020540329,0.022831071,-10.462501,-46.612503,-23.8875,0.20474668,0.19289282,0.67507696,995.27606, , , , 
2025-09-28 19:05:54.198,0.2416751,5.1349974,8.568698,-0.07353285,-0.011988222,0.016111558,-12.13125,-45.1875,-20.868752,0.20441352,0.19248666,0.67522126,995.27606, , , , 
2025-09-28 19:05:54.218,0.24646074,5.0919266,8.389236,0.013209951,-0.11094832,-0.019929463,-13.462501,-46.706253,-20.643751,0.20410039,0.19108829,0.6754259,995.2585, , , , 
2025-09-28 19:05:54.238,0.33020952,5.2259245,8.142776,-0.0045051277,-0.09262237,-0.043142326,-11.75625,-44.79375,-20.625,0.20480056,0.19015168,0.6750923,995.2585, , , , 
2025-09-28 19:05:54.258,0.23449662,5.2498527,8.090134,-0.066813335,-0.02481638,-0.07429643,-12.450001,-46.8375,-21.825,0.20525977,0.18948415,0.67467946,995.2502, , , , 
2025-09-28 19:05:54.279,0.014356935,5.2666025,8.343773,-0.13828452,0.07841977,-0.084070265,-10.6125,-45.768753,-22.837502,0.20441726,0.18909003,0.67423916,995.2502, , , , 
2025-09-28 19:05:54.298,-0.11246266,5.2666025,8.71466,-0.12606722,0.116904244,-0.05780308,-12.075001,-46.3125,-20.8125,0.20242712,0.1891967,0.6741398,995.2402, , , , 
2025-09-28 19:05:54.318,0.13160525,5.3383875,8.949157,-0.049709123,0.020387612,-0.07429643,-10.556251,-46.256252,-22.96875,0.20108598,0.18918659,0.6741231,995.2402, , , , 
2025-09-28 19:05:54.338,-0.19142582,5.4221363,8.439486,9.926553E-4,-0.013209951,-0.085292,-13.425,-47.193752,-20.775002,0.2005405,0.18905994,0.6734426,995.2316, , , , 
2025-09-28 19:05:54.358,-0.26799613,5.419743,8.451449,-0.050319985,0.049709123,-0.06146827,-12.150001,-46.800003,-21.84375,0.20004752,0.18966171,0.6728405,995.2316, , , , 
2025-09-28 19:05:54.378,-0.25842485,5.369494,8.724232,-0.05337431,0.09124792,-0.037033677,-10.51875,-46.0125,-22.5375,0.19874847,0.19035831,0.6726238,995.2226, , , , 
2025-09-28 19:05:54.398,-0.34456646,5.278567,8.618947,-0.015500694,0.042989608,-0.012599086,-12.0375,-46.29375,-22.96875,0.19749442,0.19100179,0.6725546,995.2226, , , , 
2025-09-28 19:05:54.418,-0.2105684,5.206782,8.599805,0.0077121677,0.0240528,0.025885396,-10.78125,-47.4,-23.5125,0.19662662,0.19157562,0.6725565,995.22626, , , , 
2025-09-28 19:05:54.438,0.13160525,5.2809596,8.535198,0.0064904382,0.011835505,0.0112246405,-13.35,-44.8125,-21.993752,0.19638628,0.19176465,0.67273027,995.22626, , , , 
2025-09-28 19:05:54.458,0.021535404,5.2737813,8.195417,-0.019165883,0.02527453,-0.027870705,-12.731251,-45.768753,-18.300001,0.1964037,0.19176982,0.672741,995.21356, , , , 
2025-09-28 19:05:54.478,-0.18903299,5.1924253,8.475378,-0.08452842,0.1107956,-0.011377357,-11.025001,-46.95,-21.0375,0.19579852,0.19198287,0.67271733,995.21356, , , , 
2025-09-28 19:05:54.498,-0.3684947,5.123033,8.745767,-0.05948296,0.15172353,0.034437504,-10.89375,-47.0625,-21.1875,0.19407937,0.19245116,0.67310554,995.20746, , , , 
2025-09-28 19:05:54.518,-0.30867413,5.0847483,8.592627,0.020540329,0.10468695,0.1004109,-12.656251,-45.73125,-22.1625,0.19244826,0.19318008,0.6737766,995.20746, , , , 
2025-09-28 19:05:54.538,-0.078963146,5.178068,8.250452,0.01687514,0.14133884,0.099800035,-11.175,-46.331253,-22.44375,0.19167957,0.19400151,0.6746128,995.195, , , , 
2025-09-28 19:05:54.558,-0.22253251,5.1996036,8.190632,0.0040469794,0.15844305,0.072921984,-10.05,-45.956253,-23.04375,0.19082792,0.19524744,0.6756194,995.195, , , , 
2025-09-28 19:05:54.578,-0.44985065,5.1493545,8.006385,-0.027107125,0.1523344,0.072921984,-12.075001,-46.537502,-23.268751,0.18987754,0.19652127,0.67626196,995.1784, , , , 
2025-09-28 19:05:54.598,-0.34456646,5.15414,8.087741,-0.0692568,0.19387321,0.09796744,-11.475,-46.48125,-23.325,0.18844002,0.19773623,0.6770462,995.1784, , , , 
2025-09-28 19:05:54.618,-0.10289137,5.156533,8.360522,-0.10102176,0.18593197,0.083306685,-12.656251,-45.73125,-22.1625,0.18673739,0.19861838,0.67814213,995.1811, , , , 
2025-09-28 19:05:54.638,-0.18185452,5.111069,8.707481,-0.07353285,0.07658717,0.055817768,-12.4125,-45.3375,-23.1375,0.1853284,0.19872701,0.67913014,995.1811, , , , 
2025-09-28 19:05:54.658,-0.32542387,5.0536413,8.927621,-0.035048366,0.0075594517,0.075976305,-10.21875,-45.24375,-22.44375,0.18441981,0.19830985,0.67978483,995.17645, , , , 
2025-09-28 19:05:54.678,-0.014356935,5.099105,9.066405,0.008323032,0.045433067,0.08575014,-14.08125,-46.875,-21.487501,0.1839064,0.19775723,0.68046755,995.17645, , , , 
2025-09-28 19:05:54.698,-0.124426775,5.111069,8.812766,0.048029244,0.09063706,0.09063706,-12.712501,-45.99375,-22.612501,0.1835729,0.19760035,0.6812484,995.1694, , , , 
2025-09-28 19:05:54.718,-0.18185452,5.168497,8.752945,0.076739885,0.0051159924,0.11873684,-11.981251,-45.300003,-22.425001,0.18353687,0.1980437,0.6821484,995.1694, , , , 
2025-09-28 19:05:54.738,0.13878371,5.163711,8.626125,0.11827869,-0.04864011,0.11873684,-11.418751,-45.46875,-23.23125,0.18451121,0.19805232,0.68278635,995.1662, , , , 
2025-09-28 19:05:54.759,0.19142582,5.197211,8.449057,0.15004367,-0.10789399,0.074143715,-12.13125,-46.162502,-23.90625,0.1864161,0.19773532,0.68320274,995.1662, , , , 
2025-09-28 19:05:54.778,0.076570325,5.2498527,7.9704924,0.11400264,-0.043142326,0.08086322,-12.95625,-45.018753,-22.03125,0.18846142,0.19773507,0.6833192,995.16327, , , , 
2025-09-28 19:05:54.798,0.25603202,5.3096733,7.9776707,0.03825541,0.010002911,0.066813335,-12.13125,-46.162502,-24.525002,0.18986851,0.19813728,0.6836134,995.16327, , , , 
2025-09-28 19:05:54.818,0.29192436,5.288138,8.047063,-0.030161448,-0.004657844,0.0112246405,-13.762501,-46.10625,-21.712502,0.19079572,0.19810463,0.68396306,995.1611, , , , 
2025-09-28 19:05:54.838,0.0047856453,5.2019963,8.374879,-0.0570395,0.0032833982,-0.0022143847,-11.3625,-44.475002,-23.15625,0.1910913,0.1974947,0.68413883,995.1611,37.88836659,127.7398573,148.91436767578125,0.0
2025-09-28 19:05:54.858,0.16510476,5.288138,8.62134,-0.033215772,0.028328855,0.0032833982,-9.7875,-45.43125,-24.337502,0.19079885,0.19712701,0.68431175,995.1567, , , , 
2025-09-28 19:05:54.878,0.15074782,5.328816,8.482556,0.024205517,0.04176788,-0.021762058,-11.6625,-45.881252,-22.725,0.19071487,0.19701155,0.6844324,995.1567, , , , 
2025-09-28 19:05:54.898,-0.06699903,5.2905307,8.123632,0.03459022,0.0112246405,-0.018707734,-12.675,-45.75,-21.075,0.19093956,0.19745821,0.6842788,995.1486, , , , 
2025-09-28 19:05:54.918,0.148355,5.278567,8.087741,3.8179048E-4,-0.041920595,-0.010766491,-10.556251,-47.006252,-23.081251,0.19130461,0.19783145,0.68411314,995.1486, , , , 
2025-09-28 19:05:54.938,0.29671,5.24746,8.260024,-0.023441937,-0.065744326,-0.04497492,-13.087501,-46.40625,-22.556252,0.19211122,0.19733585,0.68390965,995.1401, , , , 
2025-09-28 19:05:54.958,-0.0526421,5.2426744,8.243274,-0.053985175,0.036880963,-0.037644543,-13.181251,-46.912502,-22.5,0.19234845,0.1967748,0.6836023,995.1401, , , , 
2025-09-28 19:05:54.978,0.069391854,5.1996036,8.549556,-0.06314815,0.045433067,-0.025427246,-12.712501,-45.99375,-22.143751,0.19161911,0.1967382,0.6836209,995.1318, , , , 
2025-09-28 19:05:54.998,0.0741775,5.1852465,8.544769,-0.02527453,0.01244637,-0.025427246,-12.843751,-46.631252,-22.10625,0.1911424,0.1965394,0.68366164,995.1318, , , , 
2025-09-28 19:05:55.018,0.2105684,5.355137,8.504091,0.0077121677,-0.026038112,-0.045585785,-12.13125,-46.800003,-22.931252,0.19113056,0.19620699,0.6835116,995.12933, , , , 
2025-09-28 19:05:55.038,0.15553348,5.4484572,8.336594,-0.0032833982,-0.043142326,-0.06818778,-12.01875,-45.54375,-22.85625,0.19172893,0.19600034,0.68311524,995.12933, , , , 
2025-09-28 19:05:55.058,0.06460621,5.367101,8.322237,-0.04421134,-0.00160352,-0.07429643,-11.981251,-45.300003,-22.425001,0.19215012,0.1958688,0.68260306,995.1325, , , , 
2025-09-28 19:05:55.078,0.10289137,5.3336015,8.535198,-0.051541716,0.018555017,-0.07979421,-11.90625,-46.40625,-23.1375,0.1918652,0.19576262,0.68223566,995.1325, , , , 
2025-09-28 19:05:55.098,-0.10767702,5.2666025,8.456235,-0.0112246405,-0.025427246,-0.07735075,-12.337501,-47.0625,-22.275002,0.19152756,0.19555727,0.6816887,995.13666, , , , 
2025-09-28 19:05:55.118,-0.05503492,5.288138,8.154739,-0.020998476,-0.02481638,-0.0712421,-12.50625,-47.2125,-23.175001,0.19161329,0.1955975,0.6811224,995.13666, , , , 
2025-09-28 19:05:55.138,-0.0047856453,5.24746,8.19781,-0.086361006,0.09185879,-0.082848534,-13.031251,-45.393753,-22.29375,0.19124313,0.19580552,0.68070066,995.1313, , , , 
2025-09-28 19:05:55.158,-0.18664017,5.168497,8.432307,-0.12606722,0.13889538,-0.09995275,-13.837501,-46.48125,-21.69375,0.18966465,0.19620413,0.6805111,995.1313, , , , 
2025-09-28 19:05:55.178,-0.39481574,5.123033,8.71466,-0.09369139,0.037491824,-0.09262237,-12.0375,-47.04375,-22.78125,0.18771528,0.19640847,0.6802519,995.13007, , , , 
2025-09-28 19:05:55.198,-0.51445687,5.0847483,8.640483,-0.046043932,-0.026038112,-0.07185297,-12.168751,-45.43125,-22.237501,0.18648054,0.19626853,0.6797916,995.13007, , , , 
2025-09-28 19:05:55.218,-0.35174492,4.9866424,8.60459,-0.015500694,-0.022372922,-0.04130973,-11.3625,-45.84375,-22.7625,0.18579029,0.19615602,0.6793486,995.1191, , , , 
2025-09-28 19:05:55.238,-0.3469593,4.991428,8.506484,0.021762058,8.3993905E-4,-0.035201084,-11.681251,-46.631252,-22.06875,0.18529028,0.19610508,0.67908305,995.1191, , , , 
2025-09-28 19:05:55.258,-0.39481574,5.0823555,8.2145605,0.017486004,-0.06024654,-0.022372922,-11.90625,-46.40625,-22.81875,0.18513733,0.1963478,0.67877316,995.113, , , , 
2025-09-28 19:05:55.278,-0.17467605,5.0943193,8.195417,-0.027717989,-0.108504854,-0.021151192,-10.856251,-44.79375,-22.556252,0.18564236,0.19606481,0.67832834,995.113, , , , 
2025-09-28 19:05:55.298,-0.083748795,5.063213,8.374879,-0.066813335,-0.06207913,-0.037644543,-10.44375,-45.6375,-21.9375,0.18599918,0.19522575,0.67803603,995.10345, , , , 
2025-09-28 19:05:55.318,-0.32063824,5.032106,8.504091,-0.10713041,0.075976305,-0.022372922,-13.837501,-47.2125,-22.893751,0.18529992,0.19467282,0.67798287,995.10345, , , , 
2025-09-28 19:05:55.338,-0.20578274,5.056034,8.843872,-0.08880447,0.07231112,0.003894263,-10.21875,-45.46875,-24.6,0.18361276,0.19462176,0.67829216,995.0998, , , , 
2025-09-28 19:05:55.358,-0.35413775,5.0751767,8.740981,-0.0020616686,-0.06940951,0.0051159924,-10.9875,-45.43125,-22.518751,0.1827061,0.19420862,0.6785085,995.0998, , , , 
2025-09-28 19:05:55.378,-0.32542387,5.1254263,8.386844,0.008933897,-0.09506583,0.039935283,-11.475,-45.73125,-23.53125,0.18308166,0.19374809,0.67839175,995.10077, , , , 
2025-09-28 19:05:55.399,-0.20338993,5.127819,8.2145605,-0.034437504,-0.037644543,0.06253728,-11.512501,-45.75,-21.056252,0.18360005,0.19345191,0.6785068,995.10077, , , , 
2025-09-28 19:05:55.418,0.2632105,5.056034,8.585447,-0.07108939,-0.05535962,0.020387612,-9.7875,-46.162502,-24.45,0.18392174,0.19271816,0.67896336,995.0922, , , , 
2025-09-28 19:05:55.439,-0.02871387,5.029713,8.922835,-0.028939718,0.008170316,-0.013820816,-11.19375,-45.075,-23.1375,0.18399203,0.19159257,0.6791198,995.0922, , , , 
2025-09-28 19:05:55.458,-0.33499518,5.0679984,8.848659,-0.0032833982,0.058872093,0.015500694,-10.856251,-45.54375,-23.1375,0.18355305,0.19145381,0.6792035,995.09393, , , , 
2025-09-28 19:05:55.478,-0.23449662,5.13739,8.590233,0.053527027,-0.08040508,0.051541716,-12.01875,-45.54375,-23.475,0.18305047,0.19186029,0.6794701,995.09393, , , , 
2025-09-28 19:05:55.498,-0.04546363,5.156533,8.353344,0.05535962,-0.15859577,0.034437504,-12.262501,-46.6875,-22.78125,0.1843101,0.1914874,0.6794275,995.0881, , , , 
2025-09-28 19:05:55.518,-0.05742774,5.1589255,8.145168,-0.014278964,-0.087124586,0.030161448,-12.13125,-45.825,-19.893751,0.18574786,0.19092546,0.67928576,995.0881, , , , 
2025-09-28 19:05:55.538,0.11006984,5.0679984,8.4705925,-0.057650365,-0.0297033,0.008170316,-13.087501,-46.068752,-18.243752,0.18631306,0.19037254,0.6793664,995.0844, , , , 
2025-09-28 19:05:55.558,0.009571291,5.0368915,8.504091,-0.022220206,0.014278964,-0.03459022,-13.9875,-45.6375,-20.962502,0.18629359,0.18957433,0.6794589,995.0844, , , , 
2025-09-28 19:05:55.578,-0.25124636,5.072784,8.391629,-0.027107125,0.01244637,-0.011377357,-13.106251,-44.925003,-20.475,0.1858902,0.18971895,0.6793375,995.0859, , , , 
2025-09-28 19:05:55.599,-0.0023928226,5.123033,8.489735,-0.028328855,-0.100563616,-0.004657844,-13.875001,-43.631252,-20.456251,0.18586999,0.18953231,0.6792451,995.0859, , , , 
2025-09-28 19:05:55.619,0.0071784677,5.0751767,8.444271,-0.032604907,-0.11400264,-0.012599086,-13.9125,-43.875,-21.525002,0.18661708,0.1885459,0.6790215,995.08246, , , , 
2025-09-28 19:05:55.639,-0.014356935,5.0799623,8.403593,-0.05337431,-0.03092503,8.3993905E-4,-14.26875,-45.65625,-21.393751,0.18697925,0.18778306,0.67887604,995.08246, , , , 
2025-09-28 19:05:55.659,0.08135597,5.151747,8.444271,-0.041157015,-0.041920595,-0.005268709,-13.462501,-44.456253,-20.456251,0.18692267,0.18730061,0.67891425,995.0771, , , , 
2025-09-28 19:05:55.678,0.17467605,5.1876397,8.305488,-0.056428634,-0.057192214,-0.031535894,-13.368751,-44.831253,-21.225,0.18724298,0.18674625,0.6788216,995.0771, , , , 
2025-09-28 19:05:55.700,0.069391854,5.0823555,8.403593,-0.10346522,-3.8179048E-4,-0.048029244,-14.531251,-44.8125,-21.712502,0.18732205,0.18593377,0.6785944,995.08, , , , 
2025-09-28 19:05:55.720,-0.021535404,4.9770713,8.796016,-0.098578304,-0.021762058,-0.046807513,-13.087501,-44.90625,-21.862501,0.18665591,0.1852472,0.6784651,995.08, , , , 
2025-09-28 19:05:55.738,0.1052842,4.912465,9.056833,-0.033215772,0.006948587,-0.03886627,-12.69375,-44.381252,-21.618752,0.18592761,0.18448718,0.67834896,995.08344, , , , 
2025-09-28 19:05:55.759,-0.11006984,4.9674997,8.683554,-0.017944153,0.08452842,-0.040088,-14.587501,-45.075,-21.69375,0.18522385,0.18431677,0.67828315,995.08344, , , , 
2025-09-28 19:05:55.780,-0.062213387,4.974678,8.872586,-0.033215772,0.042989608,-0.023594651,-14.38125,-43.93125,-20.7,0.18428464,0.18465962,0.67824405,995.0837, , , , 
2025-09-28 19:05:55.799,-0.076570325,5.020142,8.989835,0.027259842,-0.013820816,-0.033368487,-13.5375,-44.325,-22.78125,0.18371542,0.18455449,0.6781835,995.0837, , , , 
2025-09-28 19:05:55.819,-0.22492532,5.0799623,8.611769,0.05902481,-0.004657844,-0.037033677,-14.38125,-46.18125,-20.56875,0.18382618,0.18469737,0.6778553,995.08514, , , , 
2025-09-28 19:05:55.839,-0.3900301,5.0368915,8.279166,0.010155627,0.034437504,-0.015653409,-12.918751,-44.775,-20.962502,0.18385084,0.18571976,0.6773984,995.08514,37.88836659,127.7398573,148.91436767578125,0.0
2025-09-28 19:05:55.859,-0.10289137,4.9579287,8.525627,-0.039935283,0.053985175,-0.00160352,-13.500001,-45.45,-21.16875,0.1833256,0.18635911,0.6773455,995.0754, , , , 
2025-09-28 19:05:55.879,-0.05742774,4.9172506,8.7577305,-0.020387612,0.058872093,-0.021151192,-13.743751,-44.475002,-21.50625,0.18265022,0.18637227,0.67748886,995.0754, , , , 
2025-09-28 19:05:55.899,-0.16749759,4.922036,8.685946,0.0040469794,0.020998476,-0.01687514,-14.043751,-45.15,-20.04375,0.18203522,0.18649295,0.6774949,995.07245, , , , 
2025-09-28 19:05:55.919,-0.2105684,4.898108,8.690732,0.046807513,0.006948587,2.290743E-4,-13.837501,-44.756252,-18.862501,0.18185829,0.1866264,0.6774125,995.07245, , , , 
2025-09-28 19:05:55.939,-0.083748795,4.9722853,8.403593,0.064522594,-0.0040469794,0.016722424,-14.437501,-44.943752,-19.706251,0.18200916,0.18696608,0.6773696,995.0712, , , , 
2025-09-28 19:05:55.959,-0.08853444,5.070391,8.154739,0.0077121677,0.036880963,0.013057235,-14.587501,-45.075,-21.69375,0.18255593,0.18752752,0.67740494,995.0712, , , , 
2025-09-28 19:05:55.980,-0.18664017,5.058427,8.334201,-0.04054615,0.011835505,0.01244637,-13.425,-45.075,-21.206251,0.18249543,0.18794328,0.6774999,995.0627, , , , 
2025-09-28 19:05:56.000,-0.033499517,4.991428,8.535198,-0.034437504,-0.039477136,0.013668099,-12.356251,-44.737503,-19.1625,0.18238185,0.18782745,0.677604,995.0627, , , , 
2025-09-28 19:05:56.020,-0.059820566,4.922036,8.743374,0.008933897,-0.020540329,0.0051159924,-13.556251,-45.7125,-21.150002,0.18256167,0.18720159,0.6776607,995.05927, , , , 
2025-09-28 19:05:56.038,-0.040677983,5.0440702,8.492127,0.011988222,-9.926553E-4,0.019776747,-14.812501,-44.60625,-20.306252,0.18260542,0.18706961,0.67771816,995.05927, , , , 
2025-09-28 19:05:56.058,0.033499517,5.1062837,8.405986,-0.014278964,-0.026648976,0.0032833982,-13.89375,-44.4,-19.48125,0.18292388,0.1870505,0.6777883,995.06244, , , , 
2025-09-28 19:05:56.078,0.0526421,5.103891,8.5112705,-0.047265664,0.008781182,-0.013209951,-14.325001,-44.41875,-20.831251,0.18322513,0.18677384,0.6777879,995.06244, , , , 
2025-09-28 19:05:56.098,-0.23449662,5.087141,8.559127,-0.043600474,0.056428634,-0.00160352,-13.35,-44.5875,-19.06875,0.18268766,0.18676007,0.67786354,995.0639, , , , 
2025-09-28 19:05:56.118,-0.07178468,5.0679984,8.729017,-0.0045051277,-0.005268709,0.0063377223,-13.293751,-44.325,-20.175001,0.1822678,0.18689035,0.677963,995.0639, , , , 
2025-09-28 19:05:56.139,-0.023928227,5.130212,8.458628,0.012599086,-0.05780308,-0.015042545,-14.700001,-45.46875,-19.5,0.18265617,0.18678959,0.67789036,995.0561, , , , 
2025-09-28 19:05:56.158,-0.050249275,5.0105705,8.513663,-0.028328855,8.3993905E-4,-0.031535894,-12.731251,-44.625,-21.91875,0.18314135,0.18658999,0.6776592,995.0561, , , , 
2025-09-28 19:05:56.178,-0.11485548,4.9722853,8.709874,-0.05337431,0.0570395,-0.032757625,-12.562501,-44.49375,-21.7875,0.18269551,0.18656087,0.677564,995.0534, , , , 
2025-09-28 19:05:56.199,-0.28713873,4.912465,8.908479,0.007101303,0.041157015,-0.0064904382,-12.468751,-43.875,-19.66875,0.18172108,0.18667805,0.67758673,995.0534, , , , 
2025-09-28 19:05:56.218,-0.13878371,4.9340005,8.573483,0.03886627,-0.024205517,0.017944153,-12.525001,-44.23125,-21.337502,0.1813542,0.1869155,0.677596,995.05536, , , , 
2025-09-28 19:05:56.238,0.083748795,4.9435716,8.595019,0.01687514,-0.0193186,-0.0028252497,-12.76875,-44.643753,-20.0625,0.18189764,0.18672143,0.67758954,995.05536, , , , 
2025-09-28 19:05:56.258,-0.09810573,4.948357,8.52802,0.004657844,0.02527453,-0.020540329,-13.368751,-44.081253,-20.79375,0.1820171,0.18661171,0.67755014,995.0507, , , , 
2025-09-28 19:05:56.278,-0.22253251,4.8885365,8.472985,0.0040469794,0.0014508038,-0.011988222,-13.387501,-44.081253,-20.025002,0.18182607,0.1868334,0.67744,995.0507, , , , 
2025-09-28 19:05:56.298,-0.18903299,4.843073,8.348558,0.0022143847,-0.03642281,0.0075594517,-13.687501,-45.600002,-20.98125,0.1817639,0.18691526,0.6773685,995.0461, , , , 
2025-09-28 19:05:56.318,-0.09571291,4.8502517,8.458628,-0.017944153,-0.020540329,-9.926553E-4,-13.44375,-44.456253,-20.775002,0.18191506,0.18662485,0.6773538,995.0461, , , , 
2025-09-28 19:05:56.338,-0.3684947,4.9028935,8.482556,-0.04421134,0.027717989,0.010613776,-14.531251,-43.3125,-21.806252,0.18159214,0.1864751,0.6773879,995.04535, , , , 
2025-09-28 19:05:56.359,-0.47377887,4.9842496,8.602198,-0.021609342,0.011835505,0.053985175,-12.0,-44.550003,-21.225,0.1805685,0.18677503,0.67766297,995.04535, , , , 
2025-09-28 19:05:56.378,-0.2440679,5.0775695,8.475378,0.013209951,-0.084070265,0.06498074,-11.981251,-44.550003,-21.993752,0.18049192,0.18683198,0.6778819,995.04486, , , , 
2025-09-28 19:05:56.398,-0.21296121,5.0775695,8.269595,0.008323032,-0.16042836,0.069867656,-13.63125,-45.35625,-21.0,0.18148622,0.18643011,0.6780018,995.04486, , , , 
2025-09-28 19:05:56.418,-0.02632105,5.096712,8.355737,-0.043600474,-0.12072215,0.07231112,-11.75625,-44.15625,-22.2,0.18303996,0.18534714,0.6781692,995.05096, , , , 
2025-09-28 19:05:56.438,0.033499517,5.048856,8.525627,-0.06620247,-0.048029244,0.051541716,-14.531251,-44.8125,-21.4125,0.18351594,0.18461025,0.67842203,995.05096, , , , 
2025-09-28 19:05:56.459,-0.17706887,4.991428,8.595019,-0.058261227,-0.054748755,0.037491824,-13.425,-45.075,-20.8875,0.18351968,0.1837063,0.67883945,995.0439, , , , 
2025-09-28 19:05:56.478,-0.148355,4.955536,8.611769,-0.04054615,-0.09262237,0.049709123,-15.262501,-44.775,-21.018751,0.18350726,0.18304516,0.6790307,995.0439, , , , 
2025-09-28 19:05:56.498,0.18424734,4.9674997,8.6548395,-0.04421134,-0.045585785,0.017944153,-12.525001,-44.456253,-23.962502,0.18383934,0.18213989,0.67922395,995.04364, , , , 
2025-09-28 19:05:56.519,0.03589234,4.9172506,8.573483,-0.06620247,0.03565923,-0.014431681,-12.806251,-43.518753,-21.975,0.18380164,0.18150866,0.6793654,995.04364, , , , 
2025-09-28 19:05:56.539,-0.15314065,4.7880383,8.73141,-0.0778089,0.03810269,-0.017486004,-13.931251,-44.643753,-20.081251,0.18271564,0.18119267,0.67950016,995.0522, , , , 
2025-09-28 19:05:56.559,-0.19621146,4.685147,8.973084,-0.052763447,-0.014431681,0.0014508038,-14.062501,-44.53125,-20.400002,0.18168779,0.18070681,0.6795996,995.0522, , , , 
2025-09-28 19:05:56.579,-0.13399807,4.723432,8.9348,-0.008170316,0.013668099,0.029550584,-14.19375,-43.78125,-21.1875,0.18091877,0.18014766,0.67979044,995.0495, , , , 
2025-09-28 19:05:56.598,-0.1268196,4.831109,8.796016,0.016264275,0.011835505,0.041157015,-13.106251,-44.925003,-21.09375,0.18045147,0.1799941,0.68008095,995.0495, , , , 
2025-09-28 19:05:56.619,0.011964113,4.9459643,8.616554,0.031535894,-0.043753188,0.068035066,-14.250001,-44.04375,-20.550001,0.18045232,0.18002616,0.6803743,995.05, , , , 
2025-09-28 19:05:56.638,0.38763726,5.0081778,8.413164,0.015653409,-0.10728313,0.050319985,-13.63125,-44.60625,-20.587502,0.18174472,0.17954347,0.68071216,995.05, , , , 
2025-09-28 19:05:56.658,0.19142582,4.955536,8.803194,-0.008170316,-0.10728313,0.0240528,-14.962501,-44.737503,-21.056252,0.18309401,0.17851987,0.68077314,995.04315, , , , 
2025-09-28 19:05:56.678,0.19142582,4.8502517,9.071191,0.026038112,-0.06146827,0.02649626,-15.543751,-43.93125,-21.0375,0.18376577,0.17757414,0.6808761,995.04315, , , , 
2025-09-28 19:05:56.698,0.050249275,4.8454657,9.169296,0.06635518,-0.040088,0.039935283,-15.6,-44.925003,-20.831251,0.18411098,0.17713296,0.6809776,995.0466, , , , 
2025-09-28 19:05:56.718,-0.04546363,4.84068,8.965906,0.11827869,-0.035201084,0.086361006,-15.900001,-44.2125,-20.681252,0.18470986,0.17709184,0.6812694,995.0466, , , , 
2025-09-28 19:05:56.739,0.11246266,4.991428,8.676374,0.13843723,-0.06513346,0.10957387,-15.50625,-43.6875,-19.66875,0.18568344,0.17740196,0.6816145,995.05023, , , , 
2025-09-28 19:05:56.758,0.3469593,5.022535,8.458628,0.14088069,-0.074907295,0.0881936,-15.6,-44.943752,-20.212502,0.18737897,0.17765671,0.68194026,995.05023, , , , 
2025-09-28 19:05:56.778,0.28713873,5.0919266,8.178668,0.0938441,-0.008323032,0.053985175,-15.056251,-44.268753,-19.21875,0.18922338,0.17794351,0.6821262,995.0439, , , , 
2025-09-28 19:05:56.798,0.19621146,5.144569,8.085348,0.013209951,0.06864593,0.04054615,-14.94375,-43.7625,-19.25625,0.19010624,0.1786891,0.6823222,995.0439, , , , 
2025-09-28 19:05:56.819,0.2536392,5.1326046,8.523234,-0.008170316,0.033826638,0.021609342,-15.375001,-43.800003,-20.2875,0.19017608,0.17944553,0.68265754,995.03754, , , , 
2025-09-28 19:05:56.839,0.23449662,5.0679984,8.63809,0.027870705,-0.040698867,0.010613776,-15.975,-44.5875,-20.643751,0.19046353,0.17946717,0.68275565,995.03754,37.88836659,127.7398573,148.91436767578125,0.0
2025-09-28 19:05:56.859,0.33260235,5.0105705,8.664411,0.052305296,-0.054748755,0.017333288,-15.13125,-43.912502,-18.618752,0.19122835,0.17919056,0.68270814,995.0351, , , , 
2025-09-28 19:05:56.880,0.3900301,5.087141,8.456235,0.04497492,0.055817768,0.01244637,-16.29375,-43.275,-19.7625,0.19182745,0.17926237,0.6827984,995.0351, , , , 
2025-09-28 19:05:56.898,0.23928227,5.0751767,8.489735,0.028481571,0.06253728,0.005726857,-14.925,-44.475002,-21.075,0.19196048,0.17983493,0.682937,995.03827, , , , 
2025-09-28 19:05:56.921,0.040677983,5.0775695,8.391629,0.05780308,-0.005268709,0.010613776,-15.806251,-43.706253,-19.95,0.19206844,0.18052305,0.6829658,995.03827, , , , 
2025-09-28 19:05:56.940,0.1794617,5.1613183,8.19781,0.050472703,-0.046807513,0.016722424,-14.85,-44.850002,-20.2875,0.19263406,0.18099767,0.6828474,995.03436, , , , 
2025-09-28 19:05:56.960,0.29671,5.2307105,8.183454,-0.017333288,-0.008323032,-0.012599086,-14.75625,-43.8375,-22.66875,0.19348577,0.18116598,0.6827085,995.03436, , , , 
2025-09-28 19:05:56.980,0.2321038,5.1254263,8.585447,-0.05337431,0.030772313,-0.03092503,-14.043751,-45.15,-19.743752,0.19359696,0.18112932,0.6826226,995.03143, , , , 
2025-09-28 19:05:57.000,0.21535404,4.9986067,9.020942,-0.027717989,0.0075594517,-0.027259842,-15.056251,-44.268753,-19.21875,0.19299914,0.18090485,0.6825937,995.03143, , , , 
2025-09-28 19:05:57.018,0.2943172,4.965107,9.147761,0.043142326,-0.007101303,-0.0297033,-15.468751,-44.0625,-18.4125,0.19270802,0.18044145,0.6825157,995.0319, , , , 
2025-09-28 19:05:57.038,0.14117654,4.9363933,8.968299,0.09506583,0.022220206,-0.022372922,-16.650002,-44.30625,-19.81875,0.19277243,0.18040308,0.6823465,995.0319, , , , 
2025-09-28 19:05:57.059,0.0526421,4.912465,8.88455,0.11155918,0.030161448,0.008781182,-15.562501,-44.68125,-19.7625,0.19280663,0.1809733,0.68219584,995.0422, , , , 
2025-09-28 19:05:57.078,0.1363909,4.910072,8.863015,0.12560907,0.04054615,0.017333288,-17.38125,-44.25,-19.59375,0.19294582,0.18168518,0.6821998,995.0422, , , , 
2025-09-28 19:05:57.098,0.0047856453,4.965107,7.3100734,-0.021609342,-0.14821106,-0.043753188,-15.000001,-44.756252,-19.66875,0.19557992,0.18245235,0.68167514,995.0378, , , , 
2025-09-28 19:05:57.118,-0.19142582,5.0177493,7.4512496,-0.07841977,-0.073685564,0.008170316,-14.7375,-44.23125,-19.556252,0.19609557,0.18236442,0.6813033,995.0378, , , , 
2025-09-28 19:05:57.138,-0.033499517,4.8502517,7.989635,-0.1297324,-0.16898046,0.03138318,-14.6625,-44.7,-21.5625,0.19614401,0.18193652,0.681199,995.0566, , , , 
2025-09-28 19:05:57.159,0.12921242,4.9459643,9.293723,-0.10529782,-0.06696605,0.0240528,-14.062501,-44.53125,-20.400002,0.19586486,0.17961721,0.68131346,995.0566, , , , 
2025-09-28 19:05:57.178,0.12921242,4.9938207,9.815358,-0.063759014,0.21525347,0.018555017,-13.9875,-44.8875,-20.53125,0.1942905,0.17865339,0.68184936,995.0888, , , , 
2025-09-28 19:05:57.198,0.26799613,5.2402816,9.226724,0.01687514,0.23174682,0.009392046,-15.543751,-44.68125,-20.53125,0.1919035,0.17956148,0.682635,995.0888, , , , 
2025-09-28 19:05:57.218,0.2440679,5.3096733,8.487342,0.029092435,0.07047852,-0.0040469794,-15.056251,-44.268753,-18.45,0.19116887,0.18047918,0.682911,995.1005, , , , 
2025-09-28 19:05:57.238,0.17467605,5.103891,8.310273,0.011988222,-0.1146135,-0.015042545,-13.9125,-43.875,-21.525002,0.19189517,0.18086961,0.6826868,995.1005, , , , 
2025-09-28 19:05:57.258,0.2105684,4.996214,8.1738825,-0.03199404,-0.08223767,-0.017486004,-14.325001,-44.41875,-20.831251,0.19278145,0.18033662,0.6823411,995.11884, , , , 
2025-09-28 19:05:57.278,0.32303107,5.0799623,8.432307,-0.09918917,0.083306685,-0.023594651,-15.39375,-45.28125,-19.893751,0.19256425,0.1798362,0.682285,995.11884, , , , 
2025-09-28 19:05:57.298,0.22971097,5.1469617,8.745767,-0.08269582,0.12484549,-0.03459022,-14.38125,-44.90625,-22.96875,0.19168517,0.1798565,0.68244153,995.1413, , , , 
2025-09-28 19:05:57.318,0.1698904,5.1589255,8.853444,-0.016111558,0.0900262,-0.030314164,-13.6125,-44.5875,-21.975,0.19050568,0.18022884,0.68254995,995.1413, , , , 
2025-09-28 19:05:57.338,0.15314065,5.204389,8.796016,0.0028252497,0.0655916,-0.030314164,-13.6125,-44.5875,-21.975,0.19032212,0.18034858,0.68254846,995.1413, , , , 
2025-09-28 19:05:57.359,0.22013968,5.2809596,8.188239,0.017486004,-0.01687514,-0.053527027,-12.39375,-44.568752,-24.431252,0.19063023,0.18132925,0.68201405,995.1523, , , , 
2025-09-28 19:05:57.378,0.32063824,5.1613183,8.056634,-0.05948296,-0.004657844,-0.073685564,-11.7375,-45.75,-25.050001,0.19118829,0.18160197,0.6815191,995.1694, , , , 
2025-09-28 19:05:57.398,0.3278167,4.991428,8.547162,-0.10529782,0.046043932,-0.091400646,-13.14375,-45.28125,-23.23125,0.19100091,0.18137437,0.6811348,995.1694, , , , 
2025-09-28 19:05:57.418,0.10289137,4.9866424,8.841479,-0.09552398,0.056428634,-0.08834632,-10.387501,-43.48125,-25.781252,0.18990223,0.18100923,0.6808632,995.1857, , , , 
2025-09-28 19:05:57.438,-0.0071784677,4.8622155,8.848659,-0.018555017,0.0026725335,-0.07735075,-14.700001,-44.2125,-21.73125,0.18858129,0.18069296,0.68046534,995.1857, , , , 
2025-09-28 19:05:57.458,-0.13160525,4.7377887,8.956335,0.03642281,-0.07735075,-0.05535962,-13.575001,-44.34375,-21.225,0.18833624,0.18043742,0.67995965,995.2126, , , , 
2025-09-28 19:05:57.478,-0.124426775,4.725825,8.822337,0.10117448,-0.035201084,-0.011988222,-13.293751,-44.550003,-23.1,0.1883456,0.18026187,0.6795398,995.2126, , , , 
2025-09-28 19:05:57.498,-0.0047856453,4.833502,8.248059,0.07551816,-0.06635518,-3.8179048E-4,-12.375001,-43.59375,-21.862501,0.18878317,0.18054718,0.6792547,995.2321, , , , 
2025-09-28 19:05:57.518,0.08853444,4.941179,8.240881,0.0028252497,0.042378742,-0.011377357,-12.76875,-45.61875,-23.081251,0.18934442,0.18066376,0.6790361,995.2321, , , , 
2025-09-28 19:05:57.538,-0.016749758,5.056034,8.49452,-0.058872093,0.11873684,-0.03886627,-12.656251,-45.0,-22.050001,0.18883443,0.18117197,0.67906594,995.2436, , , , 
2025-09-28 19:05:57.558,-0.19860429,5.0440702,8.853444,-0.044822205,0.099800035,-0.037033677,-13.9875,-45.6375,-20.962502,0.1874744,0.1818494,0.6790888,995.2436, , , , 
2025-09-28 19:05:57.578,-0.12921242,5.003392,8.937193,0.049861837,-3.8179048E-4,-0.015042545,-12.093751,-45.16875,-22.725,0.18632215,0.18241112,0.67897767,995.2375, , , , 
2025-09-28 19:05:57.600,-0.0023928226,5.103891,8.149954,0.081015944,-0.06207913,-3.8179048E-4,-12.731251,-45.35625,-22.800001,0.18656963,0.18269949,0.6787983,995.2375, , , , 
2025-09-28 19:05:57.618,-0.0023928226,5.103891,8.149954,0.081015944,-0.06207913,-3.8179048E-4,-12.731251,-45.35625,-22.800001,0.18656963,0.18269949,0.6787983,995.2375, , , , 
2025-09-28 19:05:57.638,0.12203395,5.0249276,8.128419,-0.09796744,0.051541716,-0.026038112,-12.356251,-44.9625,-22.087502,0.18820642,0.18333255,0.6782834,995.22504, , , , 
2025-09-28 19:05:57.658,-0.014356935,4.9172506,8.678768,-0.10407609,0.033215772,-0.03642281,-11.606251,-43.5,-23.643751,0.18732189,0.18311267,0.67832434,995.2221, , , , 
2025-09-28 19:05:57.678,-0.12203395,4.8263235,9.104691,-0.014889829,-0.0058795735,-0.009544762,-13.293751,-43.818752,-22.21875,0.18632501,0.18253908,0.6783396,995.2221, , , , 
2025-09-28 19:05:57.698,-0.0741775,4.914858,8.678768,0.06940951,-0.044364054,0.029550584,-14.587501,-45.075,-21.69375,0.18597905,0.1822354,0.6783537,995.21014, , , , 
2025-09-28 19:05:57.718,0.14356937,5.005785,8.295917,0.07063124,-0.05780308,0.036270097,-12.8625,-44.5125,-21.75,0.18707408,0.1823529,0.6783528,995.21014, , , , 
2025-09-28 19:05:57.738,0.16510476,5.0416775,8.334201,0.04925097,-0.033979353,0.028328855,-13.087501,-44.90625,-21.862501,0.18762662,0.1823792,0.67836016,995.21014, , , , 
2025-09-28 19:05:57.758,-0.011964113,4.9938207,8.611769,0.013209951,0.015500694,0.006948587,-12.76875,-44.86875,-23.2875,0.1881795,0.18248075,0.6784428,995.18646, , , , 
2025-09-28 19:05:57.778,-0.021535404,4.9579287,8.422736,0.010155627,2.290743E-4,0.01244637,-12.6,-45.46875,-22.96875,0.18808006,0.18267672,0.6784836,995.16205, , , , 
2025-09-28 19:05:57.798,0.03589234,4.991428,8.30788,-0.011835505,-0.027870705,0.014889829,-12.7875,-45.61875,-22.3125,0.18822233,0.18271673,0.6785139,995.16205, , , , 
2025-09-28 19:05:57.818,0.02632105,5.015356,8.389236,-0.024663666,-0.08834632,0.006948587,-12.69375,-46.725002,-23.34375,0.18873495,0.1822522,0.6784743,995.1381, , , , 
2025-09-28 19:05:57.838,0.03589234,4.9674997,8.499306,-0.032604907,-0.050472703,0.010613776,-12.243751,-43.706253,-22.800001,0.18902117,0.18176837,0.67842454,995.1381,37.88836659,127.7398573,148.91436767578125,0.0
2025-09-28 19:05:57.858,-0.031106694,5.0512486,8.784052,-0.0692568,0.12240203,8.3993905E-4,-12.76875,-44.86875,-23.2875,0.18834543,0.18153715,0.67868555,995.1115, , , , 
2025-09-28 19:05:57.878,-0.062213387,5.015356,8.930014,-0.03932442,0.019776747,8.3993905E-4,-15.1125,-44.86875,-22.425001,0.18672134,0.18185705,0.6790351,995.1115, , , , 
2025-09-28 19:05:57.898,-0.0741775,5.0440702,8.949157,-0.0020616686,-0.053527027,0.0051159924,-13.89375,-44.625,-22.25625,0.18646808,0.18160547,0.67905647,995.10565, , , , 
2025-09-28 19:05:57.918,0.038285162,5.099105,8.633304,0.020540329,0.014889829,0.035048366,-14.75625,-44.5875,-22.78125,0.18670712,0.18137197,0.67912173,995.10565, , , , 
2025-09-28 19:05:57.938,0.19381863,5.144569,8.549556,0.029092435,0.03138318,0.036270097,-14.19375,-43.050003,-20.456251,0.18693173,0.18171464,0.6793662,995.0959, , , , 
2025-09-28 19:05:57.958,0.26081768,5.0775695,8.535198,0.043753188,0.027717989,0.006948587,-13.031251,-44.662502,-21.88125,0.18738788,0.18202552,0.6795443,995.0959, , , , 
2025-09-28 19:05:57.979,0.16749759,5.096712,8.508878,0.011377357,0.022831071,0.0014508038,-12.95625,-45.768753,-22.125,0.18764357,0.18224342,0.67956805,995.09467, , , , 
2025-09-28 19:05:57.998,0.20578274,5.0512486,8.56152,-0.03199404,0.046043932,-0.008933897,-14.45625,-43.575,-20.56875,0.18767713,0.18238384,0.67963785,995.09467, , , , 
2025-09-28 19:05:58.018,-0.031106694,4.9603214,8.968299,0.00160352,0.08391755,-0.010766491,-13.368751,-44.831253,-21.225,0.18682645,0.18253782,0.6797706,995.07416, , , , 
2025-09-28 19:05:58.038,0.0047856453,4.8933225,9.071191,0.07918335,0.11384992,0.005726857,-13.556251,-45.9375,-24.075,0.18600115,0.18325405,0.6799312,995.07416, , , , 
2025-09-28 19:05:58.058,0.1363909,5.178068,8.310273,0.14271328,-0.004657844,-0.009544762,-13.44375,-43.95,-23.41875,0.18607791,0.18422404,0.67996633,995.04364, , , , 
2025-09-28 19:05:58.078,0.25842485,5.0919266,7.676175,0.12988512,-0.07918335,-0.02481638,-13.181251,-43.93125,-22.06875,0.18731368,0.18489182,0.6796495,995.04364, , , , 
2025-09-28 19:05:58.098,0.58624154,5.058427,7.3435726,-0.019165883,-0.13965896,-0.05413789,-11.71875,-43.78125,-20.362501,0.19009048,0.1851805,0.6788639,995.00116, , , , 
2025-09-28 19:05:58.119,0.6843473,4.9435716,7.798209,-0.08513928,-0.14149155,-0.10178535,-12.337501,-44.71875,-20.71875,0.19221097,0.1835867,0.678116,995.00116, , , , 
2025-09-28 19:05:58.139,0.485743,4.8382874,7.759924,-0.10529782,-0.13782637,-0.12133302,-15.39375,-44.025,-21.675001,0.19313447,0.18191883,0.67738897,994.9638, , , , 
2025-09-28 19:05:58.158,0.37088752,4.843073,7.664211,-0.124234624,-0.15676318,-0.12255475,-14.137501,-45.018753,-22.050001,0.19371627,0.18030372,0.67655885,994.9638, , , , 
2025-09-28 19:05:58.179,0.24646074,4.759324,7.585248,-0.12789981,-0.2709949,-0.115835235,-14.118751,-44.79375,-19.59375,0.19457012,0.17838094,0.67555803,994.94183, , , , 
2025-09-28 19:05:58.199,0.11006984,4.776074,7.422536,-0.07841977,-0.53794277,-0.06635518,-15.843751,-45.3375,-19.5375,0.1961808,0.17579257,0.67437255,994.94183, , , , 
2025-09-28 19:05:58.219,0.5192425,4.8119664,7.2023964,0.044364054,-1.1023818,0.022831071,-15.20625,-45.131252,-20.550001,0.20066397,0.17147069,0.67270756,994.9345, , , , 
2025-09-28 19:05:58.240,1.3328022,4.735396,6.2309103,0.3333031,-1.9649229,0.086361006,-15.000001,-44.006252,-19.237501,0.21485616,0.16093312,0.6692044,994.9345, , , , 
2025-09-28 19:05:58.258,1.3232309,4.316652,4.496114,0.55321443,-2.6887977,0.17066035,-14.868751,-43.36875,-19.29375,0.22921097,0.15172558,0.6656553,994.92084, , , , 
2025-09-28 19:05:58.278,0.552742,3.8739798,1.98365,0.61491174,-3.4212246,0.3746892,-16.96875,-44.34375,-19.1625,0.25825033,0.13149859,0.6578919,994.92084, , , , 
2025-09-28 19:05:58.298,-0.36370903,3.0987053,0.22971097,0.4841867,-4.277657,0.7558688,-17.1375,-44.25,-16.837502,0.28699318,0.1086856,0.6506087,994.8942, , , , 
2025-09-28 19:05:58.318,-0.39960137,1.9046868,-0.9451649,0.26610798,-5.090718,1.2616649,-20.456251,-44.71875,-16.1625,0.31984904,0.07777655,0.64296937,994.8942, , , , 
2025-09-28 19:05:58.338,2.4646072,0.81595254,0.11964113,0.14454588,-5.52321,1.568319,-23.1375,-43.893753,-12.843751,0.35533834,0.03881398,0.6347688,994.86615, , , , 
2025-09-28 19:05:58.358,2.6081767,-0.0526421,-0.7537391,0.013820816,-5.550699,1.7057636,-23.38125,-42.9375,-12.243751,0.39037168,-0.0028896956,0.6253865,994.86615, , , , 
2025-09-28 19:05:58.378,2.7972097,-1.0456635,-1.8664017,-0.5445096,-5.4089785,2.0912192,-27.35625,-43.3875,-7.4812503,0.4298417,-0.058595464,0.6129662,994.8527, , , , 
2025-09-28 19:05:58.398,3.4432719,-2.6703901,-0.9906286,-1.016708,-5.438911,2.5731916,-32.831253,-42.206253,-7.275,0.45540133,-0.107961684,0.60366607,994.8527, , , , 
2025-09-28 19:05:58.421,6.7525454,-3.9816568,1.564906,-1.2225695,-5.162189,3.1248024,-35.90625,-40.331253,-1.81875,0.47586328,-0.16130191,0.5955396,994.8459, , , , 
2025-09-28 19:05:58.438,8.99462,-4.5272202,2.792424,-1.2671627,-4.430984,3.333718,-36.45,-36.393753,-1.5187501,0.49034512,-0.2142458,0.5899608,994.8459, , , , 
2025-09-28 19:05:58.458,9.410972,-5.0273204,3.2973096,-1.1187224,-3.7730827,3.4284022,-39.375,-34.85625,-0.056250002,0.4980544,-0.26234207,0.5876941,994.85785, , , , 
2025-09-28 19:05:58.479,10.387243,-5.6446686,2.4909284,-0.91469365,-3.7095528,3.583562,-41.025,-34.162502,1.9312501,0.50332004,-0.30730724,0.58646804,994.85785, , , , 
2025-09-28 19:05:58.498,12.071791,-6.3864436,1.5601203,-0.9482912,-3.3436446,3.7313912,-43.143753,-31.312502,6.3,0.5066737,-0.35040945,0.5856551,994.87103, , , , 
2025-09-28 19:05:58.518,13.488341,-6.6041903,2.6392834,-1.0692425,-2.727282,3.7692647,-46.275,-26.925001,9.31875,0.5053784,-0.3914945,0.5858274,994.87103, , , , 
2025-09-28 19:05:58.538,13.194024,-6.9678993,3.2685957,-1.075962,-1.9301037,3.790034,-44.68125,-24.150002,9.0,0.49864966,-0.42865467,0.58780485,994.90204, , , , 
2025-09-28 19:05:58.559,14.134403,-7.4033933,2.7852457,-1.0606903,-0.9863175,3.8297403,-46.55625,-21.73125,10.125,0.4813048,-0.46779284,0.5953357,994.90204, , , , 
2025-09-28 19:05:58.578,15.000606,-7.34118,2.8426733,-1.1168898,-1.106047,3.6898522,-47.04375,-17.56875,11.025001,0.46415347,-0.49613178,0.60199463,994.9328, , , , 
2025-09-28 19:05:58.598,13.703695,-7.4679995,3.0077782,-1.0826814,-1.2978586,3.578675,-46.59375,-15.281251,11.306251,0.44836557,-0.5235656,0.6060516,994.9328, , , , 
2025-09-28 19:05:58.618,13.004992,-7.908279,2.7876384,-1.0674099,-1.0394628,3.6483135,-46.85625,-10.837501,11.25,0.43191916,-0.5494991,0.6095787,994.96234, , , , 
2025-09-28 19:05:58.638,13.3639145,-8.185846,1.2969099,-1.4980695,-1.7260748,3.7924776,-48.225002,-7.4812503,10.725,0.41432127,-0.5760716,0.61154616,994.96234, , , , 
2025-09-28 19:05:58.658,13.524234,-8.898908,1.8879371,-1.5396084,-1.6741513,3.515756,-48.843754,-5.3250003,12.525001,0.39838877,-0.6056235,0.60795414,994.97577, , , , 
2025-09-28 19:05:58.678,12.77528,-8.810373,2.955136,-0.9849431,-1.0889429,3.4271805,-48.225002,-2.15625,14.437501,0.3815829,-0.63091147,0.60525334,994.97577, , , , 
2025-09-28 19:05:58.698,13.155739,-8.396415,2.2325034,-0.4247801,-0.5568796,3.3599854,-50.812504,1.1625,16.5375,0.36318076,-0.6498296,0.60727257,995.0068, , , , 
2025-09-28 19:05:58.719,13.167703,-8.240881,0.9738788,-0.12728895,-0.099341884,3.118083,-50.062504,3.4875002,16.63125,0.338791,-0.66597366,0.61469394,995.0068, , , , 
2025-09-28 19:05:58.740,12.693924,-8.520842,0.99302137,-0.10346522,0.11934771,2.9256606,-48.600002,7.1062503,17.362501,0.31923196,-0.67564243,0.62135834,995.01263, , , , 
2025-09-28 19:05:58.759,12.401999,-8.453842,1.2466606,-0.07475458,0.4577668,2.9042802,-48.35625,9.0,17.0625,0.2986697,-0.68367577,0.62820953,995.01263, , , , 
2025-09-28 19:05:58.778,13.282558,-7.884351,0.7609176,-0.045433067,0.19081889,2.7686682,-47.11875,11.26875,13.725,0.2774086,-0.69049656,0.6351701,994.9992, , , , 
2025-09-28 19:05:58.798,13.938192,-7.216753,0.46899325,-0.030772313,-0.13965896,2.3832126,-47.4,13.70625,15.918751,0.26004988,-0.6967749,0.64023006,994.9992, , , , 
2025-09-28 19:05:58.820,12.160325,-6.795616,0.19621146,0.08040508,-0.17386739,1.7069852,-46.36875,15.806251,15.075001,0.24569891,-0.7025122,0.6442573,994.98895, , , , 
2025-09-28 19:05:58.838,10.585847,-6.364908,0.9236295,0.2948186,0.021609342,1.7558545,-44.71875,17.362501,14.043751,0.23838447,-0.70451814,0.6467943,994.98895,37.88836659,127.7398573,148.91436767578125,0.0
2025-09-28 19:05:58.858,11.899507,-6.836294,-1.6630118,0.067576915,0.6324741,1.2671627,-44.71875,17.362501,14.043751,0.22350593,-0.70547044,0.653292,994.977, , , , 
2025-09-28 19:05:58.878,10.258031,-6.1040907,-0.57188463,-0.39545858,0.6068178,0.91286105,-46.125,19.81875,14.043751,0.21327692,-0.7077408,0.65458196,994.977, , , , 
2025-09-28 19:05:58.898,10.394422,-6.0107703,0.4019942,-0.34658942,0.70150185,0.77908164,-45.300003,20.2875,13.781251,0.20344643,-0.7104923,0.6544861,994.95233, , , , 
2025-09-28 19:05:58.918,10.262816,-6.029913,0.5599205,-0.25679228,0.49808386,0.47120583,-44.11875,21.768751,13.725,0.19562332,-0.7122647,0.65451497,994.95233, , , , 
2025-09-28 19:05:58.938,8.133204,-6.1974106,0.078963146,-0.32337654,1.1040617,0.60132,-45.300003,21.0375,13.89375,0.18986863,-0.7132576,0.65456015,994.95966, , , , 
2025-09-28 19:05:58.960,9.585648,-5.1613183,0.42831525,-0.29833108,0.8713223,0.51946414,-46.93125,20.118752,13.200001,0.17559543,-0.7146207,0.6553282,994.95966, , , , 
2025-09-28 19:05:58.980,9.915857,-5.5226345,0.28235307,-0.14744748,0.57322025,0.21097742,-43.0125,21.393751,12.712501,0.16929843,-0.7149568,0.6555769,994.9731, , , , 
2025-09-28 19:05:58.998,9.647861,-5.393422,0.39481574,-0.11262819,0.17127122,0.010002911,-44.34375,20.53125,11.962501,0.1664298,-0.7149041,0.65539795,994.9731, , , , 
2025-09-28 19:05:59.018,9.982856,-5.1493545,-0.047856454,-0.074143715,0.14805835,-0.124998204,-45.393753,20.41875,11.775001,0.16706575,-0.71477693,0.65475976,994.9936, , , , 
2025-09-28 19:05:59.038,9.590433,-4.948357,-0.18903299,-0.13523018,0.44616038,-0.31314456,-45.0,22.21875,10.556251,0.16769962,-0.71419823,0.65401584,994.9936, , , , 
2025-09-28 19:05:59.058,9.0544405,-4.8454657,0.14596218,-0.19142975,0.6263655,-0.36506808,-45.24375,21.806252,11.53125,0.16737835,-0.7133832,0.6529527,994.99994, , , , 
2025-09-28 19:05:59.078,9.241081,-5.1014977,0.8422736,-0.11568252,0.46021026,-0.45181087,-45.487503,22.78125,11.34375,0.16706836,-0.71236116,0.651828,994.99994, , , , 
2025-09-28 19:05:59.099,9.24826,-5.869594,1.7060826,0.05413789,0.393626,-0.35162905,-45.9,20.75625,10.725,0.16812699,-0.71078116,0.65116984,994.9838, , , , 
2025-09-28 19:05:59.119,9.317652,-5.4867425,1.7012969,0.47258025,0.16699515,-0.36873326,-44.943752,21.09375,10.6125,0.16940743,-0.70782423,0.6523878,994.9838, , , , 
2025-09-28 19:05:59.139,9.262616,-4.9986067,1.0576276,0.78717566,-0.16226095,-0.39805475,-45.506252,21.806252,8.625,0.17493959,-0.7013761,0.656777,994.9628, , , , 
2025-09-28 19:05:59.158,10.10489,-5.649454,0.53599226,0.8861357,-0.4389827,-0.40843946,-46.21875,21.225,9.356251,0.18218991,-0.69541776,0.66104215,994.9628, , , , 
2025-09-28 19:05:59.178,12.507284,-6.1639113,0.8446664,0.83971,-0.9704351,-0.42004588,-45.45,22.800001,9.1875,0.1917051,-0.68996954,0.6647864,994.9526, , , , 
2025-09-28 19:05:59.198,17.111074,-7.0325055,1.550549,0.6967676,-1.2031746,-0.9747111,-44.34375,21.7875,9.1125,0.20591229,-0.6855636,0.6663689,994.9526, , , , 
2025-09-28 19:05:59.218,17.324036,-7.7647095,1.5840486,0.6289616,-0.7077632,-1.6796491,-45.45,21.65625,12.4875,0.22375488,-0.6799743,0.6659964,994.95355, , , , 
2025-09-28 19:05:59.239,16.137196,-8.370093,1.3734802,0.5067887,-0.27893612,-2.1323,-46.7625,18.150002,13.743751,0.24189842,-0.6722727,0.66472626,994.95355, , , , 
2025-09-28 19:05:59.258,15.527026,-8.030313,2.361716,0.44875655,-0.17814344,-2.488434,-47.287502,17.71875,14.2875,0.26012057,-0.6635979,0.6621984,994.95917, , , , 
2025-09-28 19:05:59.278,15.125031,-8.015956,2.3282163,0.58864456,0.09063706,-2.890383,-47.925003,13.05,13.2375,0.2840576,-0.6500589,0.6583878,994.95917, , , , 
2025-09-28 19:05:59.299,14.098511,-8.396415,1.5481563,0.68516123,0.22197299,-3.2617888,-49.350002,11.681251,11.45625,0.3042436,-0.63624924,0.65514094,994.9687, , , , 
2025-09-28 19:05:59.318,11.976077,-8.650054,0.64845496,0.6717222,0.04176788,-3.4456592,-48.91875,8.118751,12.543751,0.3256971,-0.62085795,0.65074944,994.9687, , , , 
2025-09-28 19:05:59.338,10.463814,-8.441878,0.46181476,0.5361102,-0.3333031,-3.5061347,-50.568752,4.33125,13.087501,0.3487191,-0.6059307,0.6440253,994.9809, , , , 
2025-09-28 19:05:59.359,10.363315,-8.669196,0.71306115,0.46036297,-0.40538514,-3.5061347,-49.537502,2.1937501,13.875001,0.37276658,-0.5919269,0.6349279,994.9809, , , , 
2025-09-28 19:05:59.378,10.459028,-8.635697,0.29910284,0.3418552,8.3993905E-4,-3.5244608,-50.906254,-2.325,14.887501,0.3953352,-0.5774292,0.6251384,994.9899, , , , 
2025-09-28 19:05:59.398,9.643075,-8.879765,-0.019142581,0.21113014,0.3917934,-3.5916557,-49.4625,-4.5375004,15.4875,0.41451105,-0.5616049,0.61545074,994.9899, , , , 
2025-09-28 19:05:59.420,7.152147,-9.276974,0.26799613,0.03825541,0.17066035,-3.4804785,-49.406254,-8.962501,10.78125,0.43551436,-0.54140717,0.60231936,994.9941, , , , 
2025-09-28 19:05:59.438,5.5872407,-7.0205417,2.2588246,0.035201084,-0.18180864,-3.1952045,-48.91875,-12.168751,12.918751,0.4522546,-0.52811426,0.5896315,994.9941, , , , 
2025-09-28 19:05:59.458,5.5968122,-7.5493555,1.6007984,0.5086213,-0.5049561,-2.9013786,-49.350002,-14.962501,13.743751,0.4694074,-0.51469463,0.5781431,995.00775, , , , 
2025-09-28 19:05:59.478,4.996214,-6.4845495,0.35413775,0.6088031,-0.31131196,-2.614272,-47.34375,-17.493752,13.06875,0.4871167,-0.50140274,0.5679534,995.00775, , , , 
2025-09-28 19:05:59.498,2.9766715,-5.326423,-0.72502524,0.48174325,0.3417025,-2.1524584,-47.193752,-19.59375,13.781251,0.50103116,-0.48752043,0.560521,994.99603, , , , 
2025-09-28 19:05:59.518,2.5435705,-4.9172506,-0.30149564,0.3644572,0.6636282,-1.6790382,-45.84375,-22.95,14.925,0.5088759,-0.47398078,0.5568051,994.99603, , , , 
2025-09-28 19:05:59.538,2.914458,-5.35753,0.44985065,0.4597521,0.32337654,-1.3381757,-44.7,-23.19375,13.89375,0.5140526,-0.46240312,0.5548595,994.96356, , , , 
2025-09-28 19:05:59.558,1.3950156,-3.9457645,-0.16510476,0.6301834,-0.05108357,-1.0357976,-44.23125,-23.025002,13.200001,0.5201787,-0.45301434,0.55306053,994.96356, , , , 
2025-09-28 19:05:59.579,0.6843473,-5.0943193,-2.4861426,0.4322632,-0.600251,-0.56848603,-44.175003,-25.743752,12.431251,0.5297723,-0.44627726,0.54988056,994.95306, , , , 
2025-09-28 19:05:59.598,1.8065811,-4.54397,-1.942972,0.102396205,-0.7749583,-0.05780308,-44.49375,-25.781252,14.00625,0.5358295,-0.44717622,0.5463296,994.95306, , , , 
2025-09-28 19:05:59.618,1.9621146,-4.7449675,-1.3974084,-0.09124792,-0.42981973,0.2690096,-42.9,-24.375002,13.762501,0.5387532,-0.45141682,0.5435231,994.9443, , , , 
2025-09-28 19:05:59.638,0.863809,-5.881558,-2.0745773,-0.37102398,0.056428634,0.83344865,-42.975002,-25.500002,13.687501,0.53660756,-0.45664507,0.5440453,994.9443, , , , 
2025-09-28 19:05:59.658,1.7994026,-7.530213,-1.4069797,-0.6135373,0.020387612,1.4449242,-43.93125,-24.2625,16.331251,0.5290937,-0.46516722,0.54735184,994.9345, , , , 
2025-09-28 19:05:59.678,3.0460632,-8.4347,-0.86859465,-0.6788998,-0.14026983,1.9055163,-44.53125,-23.79375,13.89375,0.5184916,-0.47802743,0.5518362,994.9345, , , , 
2025-09-28 19:05:59.698,3.644269,-8.26481,-0.009571291,-0.6905063,-0.41760245,2.267759,-45.15,-22.5,14.043751,0.5062017,-0.49382257,0.55697143,994.95013, , , , 
2025-09-28 19:05:59.720,4.505685,-9.365508,1.1365907,-0.58727014,-0.3888918,2.7100253,-47.23125,-20.362501,15.375001,0.48963726,-0.5166235,0.56386936,994.95013, , , , 
2025-09-28 19:05:59.740,5.099105,-8.896515,1.3878372,-0.41561714,-0.2135736,2.9806383,-46.518753,-17.550001,15.3,0.47353953,-0.53461003,0.5722887,994.9792, , , , 
2025-09-28 19:05:59.759,5.5226345,-8.843872,1.4931214,-0.2042579,-0.48296496,3.2390342,-48.73125,-15.525001,14.325001,0.45651096,-0.5521177,0.581864,994.9792, , , , 
2025-09-28 19:05:59.779,6.5443697,-9.29133,0.83748794,-0.03199404,-0.5086213,3.4265697,-49.912502,-12.431251,16.9125,0.43986943,-0.569585,0.591739,995.0158, , , , 
2025-09-28 19:05:59.799,7.594819,-11.062019,-0.6556334,0.040698867,-0.5141191,3.5310276,-48.2625,-9.39375,16.556252,0.42245096,-0.5863251,0.60214126,995.0158, , , , 
2025-09-28 19:05:59.818,8.429914,-11.949757,-2.120041,-0.13828452,-0.50190175,3.7008479,-48.750004,-5.9625,16.575,0.4039606,-0.6030152,0.61188745,995.0256, , , , 
2025-09-28 19:05:59.841,9.171689,-13.246666,-3.266203,-0.8749874,0.020998476,3.808971,-46.725002,0.975,14.718751,0.37092665,-0.6303198,0.62264556,995.0256,37.88836659,127.7398573,148.91436767578125,0.0
2025-09-28 19:05:59.858,8.800801,-13.433307,-2.5842485,-1.3404664,0.55611604,4.022163,-50.156254,2.23125,16.25625,0.34929526,-0.64543796,0.6259526,995.0256, , , , 
2025-09-28 19:05:59.878,9.29133,-13.454842,-1.1222339,-1.7876195,1.3068688,4.3257627,-48.43125,6.2812505,14.606251,0.32268527,-0.6612808,0.6285744,995.0256, , , , 
2025-09-28 19:05:59.898,9.932607,-12.990634,1.0313065,-1.9617159,1.6898811,4.48642,-49.18125,10.03125,17.1,0.26904988,-0.68696874,0.63204646,995.0373, , , , 
2025-09-28 19:05:59.920,9.942178,-12.614961,2.2492533,-1.7320307,1.4320961,4.4399943,-47.006252,14.75625,13.968751,0.22463308,-0.70518214,0.6336785,995.0373, , , , 
2025-09-28 19:05:59.938,10.100104,-12.143575,2.7397819,-1.3691771,1.0234276,4.44427,-47.8125,15.58125,10.762501,0.1824781,-0.7204012,0.6351078,995.0568, , , , 
2025-09-28 19:05:59.958,11.126625,-11.219945,2.4933212,-1.0075451,0.5445096,4.2487936,-46.29375,18.956251,13.031251,0.14411278,-0.73243856,0.63695097,995.0568, , , , 
2025-09-28 19:05:59.980,11.566905,-10.624132,1.6414764,-0.6764564,0.27267477,3.7533822,-44.456253,22.125,11.7375,0.10396005,-0.7432283,0.6392892,995.0778, , , , 
2025-09-28 19:05:59.999,10.978271,-10.284351,1.0600204,-0.5958222,0.074143715,3.4363434,-42.3375,26.831251,12.168751,0.07686923,-0.7493192,0.64068186,995.0778, , , , 
2025-09-28 19:06:00.018,11.8588295,-9.547362,0.6891329,-0.47059494,-0.17386739,3.127246,-39.3375,28.743752,12.825001,0.05357791,-0.75424737,0.64135504,995.07806, , , , 
2025-09-28 19:06:00.038,13.7324095,-7.9106717,-0.17467605,-0.24885105,-0.4909062,2.6275585,-38.5875,31.575,11.043751,0.03543726,-0.7577957,0.64192224,995.07806, , , , 
2025-09-28 19:06:00.058,13.347165,-6.4414787,-1.7682959,-0.27450737,-0.7896191,1.9513311,-34.912502,31.06875,12.843751,0.02356378,-0.7601445,0.64231944,995.0893, , , , 
2025-09-28 19:06:00.079,12.827922,-5.582455,-0.17706887,-0.32887432,-1.2453243,1.6349032,-34.4625,33.45,15.13125,0.017810505,-0.76321167,0.64104825,995.0893, , , , 
2025-09-28 19:06:00.100,14.366508,-5.881558,0.63888365,-0.11751511,-0.96188295,1.283045,-32.193752,35.175003,14.64375,0.015375454,-0.7660862,0.6398019,995.0861, , , , 
2025-09-28 19:06:00.118,14.141582,-5.912665,1.2610176,0.07063124,-0.52083856,1.0283145,-32.98125,33.7125,17.2875,0.014205851,-0.7665248,0.6399868,995.0861, , , , 
2025-09-28 19:06:00.138,15.093925,-5.8360944,1.3423735,0.45364347,-0.18974987,0.83100516,-30.54375,36.3375,16.725,0.011827977,-0.7652229,0.6420706,995.1086, , , , 
2025-09-28 19:06:00.159,16.364513,-6.3601227,0.6867401,0.8390991,-0.1995237,0.35758498,-30.468752,34.987503,13.856251,0.010503283,-0.76010793,0.6483484,995.1086, , , , 
2025-09-28 19:06:00.178,16.859829,-6.754938,-0.27038896,1.0461823,-0.383394,-0.19708025,-31.425001,36.131252,14.83125,0.014435047,-0.7539738,0.65538675,995.12885, , , , 
2025-09-28 19:06:00.198,16.867006,-8.003992,-1.6199409,1.0260237,-0.5183951,-0.8207732,-30.2625,36.131252,14.85,0.023950826,-0.74721026,0.6626359,995.12885, , , , 
2025-09-28 19:06:00.218,15.864414,-9.013762,-2.0817556,0.9221767,-0.4475348,-1.3742167,-30.2625,35.15625,12.6,0.038160738,-0.74081635,0.6687204,995.1254, , , , 
2025-09-28 19:06:00.238,15.41217,-8.415557,-2.8378878,0.73647386,-0.20868668,-1.7773874,-30.975,36.80625,13.968751,0.05417839,-0.73467666,0.6736053,995.1254, , , , 
2025-09-28 19:06:00.258,15.000606,-8.829515,-2.524428,0.37728536,0.0051159924,-2.366261,-33.15,34.725002,12.76875,0.07174403,-0.72962606,0.67607445,995.1198, , , , 
2025-09-28 19:06:00.278,13.143775,-10.437492,-1.5696917,0.10728313,0.14500403,-2.9838455,-35.268753,33.018753,13.856251,0.097077504,-0.7247197,0.675079,995.1198, , , , 
2025-09-28 19:06:00.299,11.650654,-12.476177,-0.12921242,0.008323032,-0.012599086,-3.2892778,-36.581253,32.268753,13.106251,0.11994637,-0.72086096,0.67186415,995.12103, , , , 
2025-09-28 19:06:00.319,10.983056,-13.890335,1.4189439,0.22273657,-0.3852266,-3.4004552,-40.162502,28.9125,11.6625,0.14535138,-0.7158144,0.66803616,995.12103, , , , 
2025-09-28 19:06:00.338,11.30848,-14.8785715,1.2203395,0.4304306,-0.74502593,-3.4975827,-41.737503,28.500002,13.406251,0.17359295,-0.7086298,0.6647077,995.1364, , , , 
2025-09-28 19:06:00.358,11.387443,-15.192031,0.9451649,0.47624546,-0.9337832,-3.5440085,-42.225002,25.218752,12.4125,0.20405044,-0.7001182,0.6608737,995.1364, , , , 
2025-09-28 19:06:00.378,11.887543,-14.756537,1.18684,0.4322632,-0.7883974,-3.5824928,-44.756252,22.21875,13.462501,0.23457809,-0.6908509,0.65605366,995.1457, , , , 
2025-09-28 19:06:00.398,12.535997,-14.409578,1.0743774,0.36995497,-0.47258025,-3.8268387,-45.768753,20.868752,13.8,0.26384908,-0.6803618,0.65043706,995.1457, , , , 
2025-09-28 19:06:00.420,11.952149,-14.364115,0.8662018,0.26549712,-0.109726585,-4.2660503,-44.1375,18.2625,16.40625,0.29949197,-0.664637,0.64171994,995.1501, , , , 
2025-09-28 19:06:00.438,10.626525,-14.651253,1.1437693,0.24167338,0.10407609,-4.5391073,-47.100002,14.3625,15.075001,0.3274021,-0.6496673,0.6331653,995.1501, , , , 
2025-09-28 19:06:00.458,9.77468,-15.077175,1.3016955,0.2935969,0.041157015,-4.683882,-47.8875,8.212501,13.500001,0.34822914,-0.6371304,0.6259619,995.1491, , , , 
2025-09-28 19:06:00.478,8.367701,-15.14896,0.9284152,0.34063348,0.14561489,-4.6960993,-47.362503,4.275,13.9875,0.38293046,-0.6141942,0.61265904,995.1491, , , , 
2025-09-28 19:06:00.499,8.185846,-15.098711,0.92602235,0.34124434,0.17921245,-4.6863256,-47.362503,4.275,13.9875,0.38293046,-0.6141942,0.61265904,995.1491, , , , 
2025-09-28 19:06:00.518,5.7451673,-13.435699,0.57906306,0.4231002,0.42172578,-4.3778386,-48.43125,-5.925,16.06875,0.43081024,-0.5731794,0.591504,995.14325, , , , 
2025-09-28 19:06:00.538,5.3336015,-12.569497,0.6364908,0.43592837,0.3172679,-4.2355075,-47.381252,-6.7875004,12.618751,0.44686052,-0.5573723,0.5834932,995.14325, , , , 
2025-09-28 19:06:00.559,4.6971107,-11.4903345,0.9451649,0.5257255,0.0570395,-4.128606,-46.78125,-12.450001,13.33125,0.46802965,-0.53649473,0.572044,995.14325, , , , 
2025-09-28 19:06:00.578,1.9884356,-10.851451,0.24646074,0.6387355,-0.35346162,-3.8641014,-46.800003,-16.087502,14.94375,0.49581796,-0.5109961,0.5558961,995.12885, , , , 
2025-09-28 19:06:00.598,-0.43070808,-9.942178,-0.40438703,0.5513818,-0.28321218,-3.247739,-44.25,-20.400002,11.6625,0.5217459,-0.4879914,0.5396236,995.12885, , , , 
2025-09-28 19:06:00.618,-0.67477596,-9.29133,-0.6436693,0.43470666,-0.23067781,-2.6936846,-42.862503,-22.125,13.1625,0.5341884,-0.47616696,0.53131074,995.11835, , , , 
2025-09-28 19:06:00.638,-1.3926228,-8.410771,-0.7680961,0.33819002,-0.5104539,-2.0070727,-42.525,-26.831251,14.793751,0.55096006,-0.4610904,0.5191672,995.11835, , , , 
2025-09-28 19:06:00.658,-1.3878372,-7.826923,-0.9092726,0.15859577,-0.5135082,-1.3876557,-41.41875,-26.475,13.875001,0.5618413,-0.45425192,0.51035136,995.1147, , , , 
2025-09-28 19:06:00.678,-1.0839486,-7.611569,-0.6197411,-0.049709123,-0.0938441,-0.8201623,-42.787502,-27.993752,16.575,0.5681976,-0.4503173,0.50437593,995.1147, , , , 
2025-09-28 19:06:00.698,-1.6103697,-7.786245,-0.5838487,-0.12484549,0.019165883,-0.52083856,-38.850002,-28.2,15.093751,0.57000434,-0.44859713,0.50202394,995.1147, , , , 
2025-09-28 19:06:00.718,-2.3306093,-8.784052,-1.3280165,-0.39057165,0.036270097,0.22502731,-40.36875,-28.48125,15.13125,0.5686471,-0.44992828,0.5009337,995.10614, , , , 
2025-09-28 19:06:00.738,-2.050649,-9.195618,-0.98584294,-0.7216604,0.14622575,1.0698533,-38.081253,-28.125002,13.931251,0.5607071,-0.45866665,0.503102,995.0949, , , , 
2025-09-28 19:06:00.758,-1.7419748,-8.925228,-0.17467605,-0.8255074,0.14500403,1.4846305,-41.25,-29.19375,14.475,0.5554848,-0.46407932,0.505037,995.0949, , , , 
2025-09-28 19:06:00.778,-0.12203395,-8.95155,1.3806586,-0.7607557,0.115071654,2.0979388,-44.1375,-26.643751,16.800001,0.5388176,-0.48145443,0.5123696,995.09955, , , , 
2025-09-28 19:06:00.798,0.85902333,-10.255638,1.5672989,-0.4803688,0.20914483,2.6800928,-43.55625,-23.212502,14.700001,0.51834625,-0.5008311,0.5245327,995.09955, , , , 
2025-09-28 19:06:00.818,1.7754744,-11.736795,0.81595254,-0.3172679,-0.06330086,3.1547348,-45.112503,-22.237501,14.025001,0.504864,-0.5134142,0.5338592,995.1088, , , , 
2025-09-28 19:06:00.838,4.402794,-13.296915,0.19621146,-0.14683662,-0.5128973,3.821799,-44.34375,-20.04375,12.58125,0.48147175,-0.5382396,0.55039245,995.1088,37.88835659,127.73985172,147.51788330078125,0.73
2025-09-28 19:06:00.858,6.8865438,-14.328222,-0.7609176,-0.19876012,-0.43104145,4.140671,-46.350002,-15.281251,14.85,0.46100315,-0.5604103,0.56410843,995.11273, , , , 
2025-09-28 19:06:00.878,7.609176,-14.452649,-1.2729816,-0.37530005,-0.0730747,4.306215,-48.656254,-12.168751,15.825001,0.4433192,-0.5771018,0.57450473,995.11273, , , , 
2025-09-28 19:06:00.898,8.020741,-14.096118,-0.36131623,-0.6886737,0.58665925,4.5603347,-48.093754,-7.89375,16.143751,0.39842346,-0.6090094,0.59567046,995.10126, , , , 
2025-09-28 19:06:00.918,8.109276,-13.8353,0.27756742,-0.73387766,0.642248,4.6464667,-48.562504,-1.8000001,12.6,0.37242323,-0.6239755,0.6059205,995.10126, , , , 
2025-09-28 19:06:00.938,8.322237,-13.701303,0.42831525,-0.71860605,0.57444197,4.699001,-49.537502,-0.675,13.575001,0.3457385,-0.63823545,0.61546737,995.10834, , , , 
2025-09-28 19:06:00.960,9.353543,-13.823337,0.79920274,-0.7631992,0.39118254,4.76192,-48.43125,7.0125003,15.01875,0.29176804,-0.6649764,0.63164234,995.10834, , , , 
2025-09-28 19:06:00.978,10.112068,-13.818551,1.0983056,-0.71738434,0.21281002,4.724046,-47.006252,10.931251,11.1,0.26518756,-0.67731863,0.6380942,995.1103, , , , 
2025-09-28 19:06:00.998,10.578669,-14.108083,0.9236295,-0.5457313,-0.0034361144,4.623254,-46.36875,14.512501,7.74375,0.22360519,-0.69538367,0.6469116,995.1103, , , , 
2025-09-28 19:06:01.018,12.083755,-13.72523,1.4476577,-0.3569741,-0.19769111,4.5639997,-44.268753,17.925001,10.875,0.19185105,-0.70746106,0.652877,995.1164, , , , 
2025-09-28 19:06:01.038,13.215559,-12.957134,1.294517,-0.1786016,-0.26305366,4.374021,-44.662502,21.0,10.425,0.16961884,-0.7146603,0.6571286,995.1164, , , , 
2025-09-28 19:06:01.058,13.950156,-11.315659,0.6580262,-0.08758274,0.10346522,3.82241,-41.381252,24.206251,10.6875,0.1292043,-0.72409856,0.6648318,995.12054, , , , 
2025-09-28 19:06:01.078,13.349558,-9.65504,1.1102697,-0.1523344,0.47609273,3.4937646,-39.09375,27.656252,11.475,0.10963145,-0.7271506,0.66777015,995.12054, , , , 
2025-09-28 19:06:01.098,12.303894,-9.224331,2.5124638,-0.047265664,0.5805506,3.1907759,-38.362503,26.868752,10.9875,0.09027422,-0.7293695,0.6702,995.12054, , , , 
2025-09-28 19:06:01.118,11.590833,-9.499506,2.6201408,0.44020444,0.1419497,3.08082,-36.91875,30.487501,12.168751,0.06119509,-0.7296991,0.6758149,995.1269, , , , 
2025-09-28 19:06:01.138,15.136996,-8.913264,-0.96909314,1.1359794,-0.23556472,2.8071527,-33.65625,32.081253,11.118751,0.03507951,-0.7230675,0.6876751,995.1359, , , , 
2025-09-28 19:06:01.158,16.024733,-8.126026,-4.3764725,0.9783763,0.2635118,2.512105,-28.275002,36.018753,8.00625,0.023669355,-0.71814317,0.6941644,995.1359, , , , 
2025-09-28 19:06:01.178,16.867006,-7.513463,-5.4843497,0.41393724,0.39606944,2.141921,-29.400002,36.2625,8.7375,0.007763839,-0.7138515,0.6995187,995.1254, , , , 
2025-09-28 19:06:01.198,18.30988,-7.7503524,-3.3044882,-0.13889538,-0.40843946,1.4174354,-27.69375,37.425003,8.94375,-0.004251073,-0.7138826,0.6999513,995.1254, , , , 
2025-09-28 19:06:01.218,18.8363,-8.003992,-2.7469604,-0.30443972,-0.3907244,1.0105994,-25.95,38.756252,7.3125005,-0.005620203,-0.71480566,0.6991107,995.1254, , , , 
2025-09-28 19:06:01.238,19.810179,-9.370294,-0.7848458,-0.43638653,0.083306685,0.24335326,-25.44375,40.0125,9.95625,-0.005818671,-0.7185091,0.69537735,995.09735, , , , 
2025-09-28 19:06:01.258,20.872591,-9.705289,-0.3589234,-0.11995857,0.12606722,-0.7896191,-26.23125,37.350002,7.7250004,-8.916478E-4,-0.7211075,0.69252795,995.11127, , , , 
2025-09-28 19:06:01.278,19.93939,-9.164511,-1.5696917,-0.04421134,-0.19402592,-1.9942445,-24.300001,38.287502,8.400001,0.011454106,-0.72147787,0.6915928,995.11127, , , , 
2025-09-28 19:06:01.298,16.261623,-10.399207,-1.2490535,-0.16149737,-0.4322632,-2.9258132,-27.825,36.91875,10.387501,0.03261658,-0.7217273,0.68966043,995.12787, , , , 
2025-09-28 19:06:01.318,12.528819,-12.30868,-0.043070808,-0.12851068,-0.6424007,-3.388238,-29.437502,36.018753,8.2875,0.059987415,-0.72161555,0.68625146,995.12787, , , , 
2025-09-28 19:06:01.338,11.346765,-13.103097,0.22971097,-0.018555017,-0.622853,-3.4841437,-32.60625,32.925003,11.118751,0.08975675,-0.7198981,0.6825251,995.13763, , , , 
2025-09-28 19:06:01.358,12.401999,-13.545769,-0.90448695,-0.07536544,-0.3595703,-3.6783986,-33.99375,31.050001,10.293751,0.12616645,-0.7155728,0.6773508,995.13763, , , , 
2025-09-28 19:06:01.378,13.050455,-13.878371,-1.0241281,-0.23419029,-0.33574656,-3.9374053,-38.71875,28.706251,10.762501,0.14813167,-0.7126319,0.672735,995.1486, , , , 
2025-09-28 19:06:01.398,12.268002,-14.629718,0.66999036,-0.4437169,-0.58864456,-4.3979974,-38.86875,27.187502,10.40625,0.18765341,-0.7073912,0.6612856,995.1486, , , , 
2025-09-28 19:06:01.418,11.830115,-14.675181,1.8975084,-0.37652177,-0.57215124,-4.531166,-41.568752,23.306252,10.743751,0.22134271,-0.7017925,0.64989364,995.14764, , , , 
2025-09-28 19:06:01.438,11.810972,-14.46222,2.1008983,-0.3172679,-0.28321218,-4.7150364,-44.025,20.56875,11.325001,0.24630912,-0.69589764,0.64108175,995.14764, , , , 
2025-09-28 19:06:01.458,10.73181,-14.845072,2.6871397,-0.13767365,0.089415334,-4.9990883,-45.075,17.8125,14.212501,0.28611323,-0.68206173,0.6260961,995.1694, , , , 
2025-09-28 19:06:01.478,9.889536,-15.151353,2.6249263,0.06146827,0.1107956,-5.0882745,-45.975002,11.25,15.3,0.3095198,-0.6711126,0.61720014,995.1694, , , , 
2025-09-28 19:06:01.498,8.894122,-15.067604,2.7708886,0.3522399,0.077198036,-5.1084332,-47.1375,7.5375004,13.931251,0.34080496,-0.653765,0.6055439,995.1877, , , , 
2025-09-28 19:06:01.519,7.1473613,-14.266008,1.8233309,0.7065415,-0.12011129,-4.9838166,-48.2625,1.3125,14.55,0.37999994,-0.62817746,0.59161633,995.1877, , , , 
2025-09-28 19:06:01.538,5.838487,-13.296915,0.16749759,0.6937133,-0.23739733,-4.7675705,-46.55625,-2.60625,14.137501,0.4188392,-0.60088843,0.577044,995.1911, , , , 
2025-09-28 19:06:01.558,4.9866424,-12.485748,-0.18424734,0.5153408,-0.17569998,-4.5110073,-49.143753,-7.9875,16.25625,0.44738057,-0.5796018,0.56407726,995.1911, , , , 
2025-09-28 19:06:01.578,4.024728,-12.0430765,-0.05503492,0.4475348,-0.28687736,-4.3173633,-45.787502,-13.35,13.44375,0.46699083,-0.5641463,0.55375236,995.1789, , , , 
2025-09-28 19:06:01.598,3.1274192,-11.705688,-0.1268196,0.38461575,-0.4566978,-4.043696,-46.40625,-16.29375,15.375001,0.49170634,-0.5448799,0.5390963,995.1789, , , , 
2025-09-28 19:06:01.618,2.1248264,-11.997613,-0.11485548,0.29542947,-0.6955459,-3.5934885,-44.325,-19.6875,15.806251,0.52015203,-0.52363545,0.5198607,995.16473, , , , 
2025-09-28 19:06:01.638,0.6197411,-12.157932,-0.0023928226,0.17753258,-0.67233306,-2.9783475,-43.800003,-24.88125,18.525002,0.54493654,-0.50630784,0.50083035,995.16473, , , , 
2025-09-28 19:06:01.658,-1.8233309,-10.939985,-0.20338993,0.06879865,-0.26244277,-2.276464,-42.693752,-25.143751,19.35,0.5595865,-0.49498844,0.48864827,995.1469, , , , 
2025-09-28 19:06:01.678,-2.6656044,-10.423136,-0.10289137,0.024205517,0.04176788,-1.6307799,-38.831253,-26.475,16.85625,0.56667894,-0.48800886,0.4824856,995.1469, , , , 
2025-09-28 19:06:01.698,-3.3260236,-10.5284195,-0.2105684,0.013209951,0.1297324,-0.94416785,-38.831253,-28.593752,18.206251,0.57188725,-0.48111078,0.4780656,995.14667, , , , 
2025-09-28 19:06:01.718,-4.369294,-10.370493,-1.0097711,-0.058872093,0.014889829,-0.109726585,-38.100002,-29.268751,18.31875,0.5738891,-0.47816378,0.47656196,995.14667, , , , 
2025-09-28 19:06:01.738,-3.7471602,-10.097712,-0.9619147,-0.19876012,0.15538873,0.5665007,-38.34375,-29.04375,18.0375,0.57221776,-0.48011658,0.47762525,995.13885, , , , 
2025-09-28 19:06:01.758,-3.7806597,-9.982856,-0.930808,-0.3343721,0.38934994,1.3838378,-40.631252,-26.8875,14.587501,0.5631194,-0.48768806,0.48410285,995.13885, , , , 
2025-09-28 19:06:01.778,-3.333202,-10.217353,-1.0145568,-0.40278897,0.3001637,2.074115,-39.43125,-27.281252,16.800001,0.5511013,-0.49802744,0.49263364,995.14056, , , , 
2025-09-28 19:06:01.798,-0.65324056,-11.129018,-0.17706887,-0.43455392,0.066813335,2.9342127,-41.100002,-24.937502,13.762501,0.53089845,-0.51759577,0.5061766,995.14056, , , , 
2025-09-28 19:06:01.818,1.6319051,-11.739188,0.30149564,-0.35575238,-0.084070265,3.38442,-42.037502,-22.931252,15.281251,0.5166442,-0.5319534,0.5155158,995.12396, , , , 
2025-09-28 19:06:01.838,3.9026937,-12.674782,0.61016977,-0.10529782,-0.22823435,3.8382926,-44.362503,-22.181252,14.718751,0.49081334,-0.55766726,0.53260404,995.12396,37.88834659,127.73985702,147.67132568359375,1.62
2025-09-28 19:06:01.858,5.608776,-13.514663,0.17467605,0.06879865,-0.050472703,4.133951,-42.112503,-15.468751,13.781251,0.46835926,-0.57806385,0.547926,995.11664, , , , 
2025-09-28 19:06:01.878,6.71426,-14.306686,-0.9379865,0.07612903,0.34903285,4.3220973,-44.925003,-12.637501,13.6125,0.4494107,-0.5923751,0.5607236,995.11664, , , , 
2025-09-28 19:06:01.898,6.884151,-15.046069,-2.5914268,-0.48647743,1.2867103,4.7833004,-45.018753,-8.793751,14.025001,0.4007396,-0.6190406,0.58845025,995.10736, , , , 
2025-09-28 19:06:01.918,7.3172517,-15.050855,-1.9070797,-0.6501892,1.3606249,4.9079165,-45.91875,-5.90625,14.718751,0.39090714,-0.6236336,0.59290904,995.10736, , , , 
2025-09-28 19:06:01.938,9.035298,-14.699109,0.23688944,-0.7442624,0.8701005,5.038031,-46.518753,-1.21875,11.118751,0.3496866,-0.64254946,0.60897195,995.10736, , , , 
2025-09-28 19:06:01.958,10.265209,-14.076976,0.5096712,-0.4107302,-0.10911572,4.816287,-47.1375,5.8125,10.481251,0.28589454,-0.6735935,0.62957823,995.0878, , , , 
2025-09-28 19:06:01.978,9.934999,-14.16551,0.30867413,-0.3154353,-0.19524765,4.764974,-43.256252,10.462501,8.887501,0.2620551,-0.68500763,0.63642925,995.08905, , , , 
2025-09-28 19:06:01.998,10.595419,-14.366508,-0.4881358,-0.37713265,0.25007278,4.793685,-43.725002,13.89375,8.887501,0.22172333,-0.7014093,0.6466039,995.08905, , , , 
2025-09-28 19:06:02.018,11.7463665,-14.120047,-0.36370903,-0.52435106,0.7271582,4.779024,-41.362503,17.625,8.418751,0.18570644,-0.712551,0.653324,995.09344, , , , 
2025-09-28 19:06:02.038,12.294323,-13.859229,0.047856454,-0.5579486,0.8065706,4.6293626,-43.331253,20.400002,10.481251,0.15715507,-0.71977526,0.6572487,995.09344, , , , 
2025-09-28 19:06:02.058,12.014362,-12.966706,-0.56470615,-0.61964595,0.63491756,4.4516006,-41.175003,22.35,11.231251,0.120654784,-0.72801775,0.6608218,995.09344, , , , 
2025-09-28 19:06:02.078,12.552748,-10.693524,-0.1794617,-0.8847613,0.66973686,4.1095166,-38.925003,26.19375,10.3125,0.08637538,-0.73586273,0.6615549,995.0854, , , , 
2025-09-28 19:06:02.098,13.184453,-9.286545,2.024328,-0.8743766,0.5768854,3.6715264,-40.85625,27.843752,13.81875,0.054622967,-0.74319446,0.65964437,995.0854, , , , 
2025-09-28 19:06:02.118,13.294522,-9.427721,2.3952155,-0.086361006,-0.40416342,3.0606616,-33.9375,30.675001,11.700001,0.01896508,-0.74888724,0.6586039,995.08344, , , , 
2025-09-28 19:06:02.138,14.086547,-9.623933,0.040677983,0.302149,-0.58620113,2.8938956,-33.15,33.24375,12.843751,0.006807238,-0.7485621,0.66068727,995.10614, , , , 
2025-09-28 19:06:02.158,16.527225,-9.107083,-2.6225336,0.22579089,-0.1060614,2.4937792,-31.875002,35.23125,13.06875,-0.011620877,-0.7460788,0.6649477,995.10614, , , , 
2025-09-28 19:06:02.178,17.489141,-8.539984,-2.6105695,0.021762058,0.08697187,2.0851107,-28.593752,36.206253,12.056251,-0.025404088,-0.7451134,0.66612685,995.101, , , , 
2025-09-28 19:06:02.198,18.865013,-8.216953,-1.2993027,-0.14561489,0.13217586,1.1364375,-27.000002,36.75,10.931251,-0.036984053,-0.74559134,0.6652503,995.101, , , , 
2025-09-28 19:06:02.218,18.81955,-7.6570325,-0.29910284,-0.108963005,0.24274239,0.46998408,-25.087502,37.55625,11.75625,-0.040176045,-0.7461789,0.66442055,995.0937, , , , 
2025-09-28 19:06:02.238,18.58266,-8.523234,0.24885355,0.11155918,0.19998185,-0.2850448,-26.1,38.2125,10.59375,-0.040213298,-0.74646086,0.6640186,995.0937, , , , 
2025-09-28 19:06:02.258,17.812172,-9.6071825,-0.37328035,0.5238929,-0.23984079,-1.0205259,-22.81875,38.662502,11.775001,-0.031201724,-0.7445007,0.66640025,995.0993, , , , 
2025-09-28 19:06:02.278,17.264215,-9.430114,-2.565106,0.59964013,-0.5782599,-1.5324306,-25.181252,36.9375,10.425,-0.020546576,-0.7419964,0.66932285,995.0993, , , , 
2025-09-28 19:06:02.298,16.910078,-10.365707,-2.7756743,0.12621993,-0.7920625,-2.3864195,-26.831251,38.381252,11.7375,0.0051388624,-0.73924744,0.6719346,995.1054, , , , 
2025-09-28 19:06:02.318,16.08216,-12.062219,-0.9595219,-0.11934771,-0.7260891,-3.0137777,-29.00625,36.9,11.118751,0.031599507,-0.7391374,0.6702285,995.1054, , , , 
2025-09-28 19:06:02.338,14.433506,-13.873586,0.65324056,-0.14561489,-0.60330534,-3.473759,-31.556252,35.268753,12.4125,0.053733487,-0.7389631,0.66765636,995.1076, , , , 
2025-09-28 19:06:02.358,12.607782,-15.936199,1.375873,0.09506583,-0.74502593,-3.9135816,-31.425001,32.925003,10.837501,0.10138915,-0.7351824,0.6620705,995.1076, , , , 
2025-09-28 19:06:02.378,12.430714,-16.646868,0.8781659,0.14271328,-0.95149827,-4.093176,-37.40625,29.56875,12.58125,0.12736414,-0.73141444,0.65912193,995.13226, , , , 
2025-09-28 19:06:02.400,12.727424,-16.773687,1.3519448,0.12805253,-1.1023818,-4.3802824,-37.425003,28.181252,14.83125,0.17332862,-0.7235226,0.6522157,995.13226, , , , 
2025-09-28 19:06:02.418,12.244074,-16.484156,1.4979069,0.15676318,-0.98143065,-4.708317,-41.23125,25.312502,14.45625,0.21217352,-0.71508366,0.6449497,995.14764, , , , 
2025-09-28 19:06:02.438,11.23191,-16.261623,1.3782659,0.073685564,-0.4249328,-5.0015316,-41.11875,22.837502,13.668751,0.24097729,-0.707107,0.63863313,995.14764, , , , 
2025-09-28 19:06:02.458,9.454042,-16.357336,1.6486548,0.17936517,0.5946005,-5.1915107,-43.050003,18.6375,16.725,0.28365287,-0.6897684,0.6277979,995.1701, , , , 
2025-09-28 19:06:02.478,8.851051,-16.4028,0.8662018,0.40355253,0.73326683,-5.3130727,-47.4,10.837501,16.556252,0.31361187,-0.67134434,0.62024426,995.1701, , , , 
2025-09-28 19:06:02.498,7.676175,-16.390835,-0.02871387,0.5464949,0.46998408,-5.421196,-44.756252,8.512501,14.55,0.33643967,-0.6555126,0.6141802,995.1701, , , , 
2025-09-28 19:06:02.518,6.04427,-16.211374,-0.634098,0.44997826,0.016111558,-5.288638,-46.18125,0.7875,14.981251,0.37601253,-0.6281281,0.60108256,995.1845, , , , 
2025-09-28 19:06:02.538,5.2307105,-15.728024,0.1794617,0.40843946,-0.5000692,-5.132868,-47.5125,-3.4687502,16.612501,0.40773046,-0.60722816,0.5873222,995.1772, , , , 
2025-09-28 19:06:02.558,3.7998023,-14.464613,0.80877405,0.43715012,-1.0302998,-4.8811913,-46.275,-8.325001,15.825001,0.44870552,-0.5828012,0.566236,995.1772, , , , 
2025-09-28 19:06:02.578,2.9623144,-13.16531,0.3182454,0.383394,-0.8861357,-4.5885873,-46.6875,-13.968751,16.35,0.47268754,-0.5687566,0.5525876,995.175, , , , 
2025-09-28 19:06:02.598,1.1796615,-11.887543,-0.5168497,0.15920663,-0.13599378,-4.0858455,-47.86875,-18.84375,19.5375,0.5059357,-0.54494226,0.5317684,995.175, , , , 
2025-09-28 19:06:02.618,-0.10289137,-11.310873,-0.27038896,0.021151192,-0.17631085,-3.5446193,-44.006252,-19.425001,17.15625,0.5257983,-0.526599,0.5174318,995.17303, , , , 
2025-09-28 19:06:02.638,-0.35174492,-10.753345,0.72263247,0.0712421,-0.9728785,-3.0424883,-42.9,-24.675001,19.03125,0.5479422,-0.50879276,0.4989891,995.17303, , , , 
2025-09-28 19:06:02.658,-1.9046868,-9.911072,0.9523434,0.22273657,-1.3400083,-2.5672357,-39.787502,-25.331251,18.13125,0.56696445,-0.4992056,0.48232093,995.1667, , , , 
2025-09-28 19:06:02.678,-3.507878,-9.542577,-0.9236295,0.10300707,-0.70348716,-1.9624795,-37.987503,-27.2625,17.8875,0.5794474,-0.4933285,0.47150016,995.1667, , , , 
2025-09-28 19:06:02.698,-5.096712,-9.475577,-1.6175481,-0.29161158,0.37407833,-1.0480149,-38.0625,-29.6625,20.04375,0.58818364,-0.48670456,0.46312642,995.16425, , , , 
2025-09-28 19:06:02.718,-4.6899323,-9.485149,-0.23688944,-0.46937323,0.74792755,-0.10361794,-39.300003,-28.5375,20.56875,0.58693016,-0.48314974,0.462123,995.16425, , , , 
2025-09-28 19:06:02.738,-3.0125637,-10.119247,-0.09810573,-0.37224573,0.6379719,0.5316814,-40.0125,-29.868752,20.868752,0.58023477,-0.48401,0.46586198,995.16425, , , , 
2025-09-28 19:06:02.758,-2.993421,-9.777073,-1.0097711,-0.35269806,0.14866921,1.4223223,-39.393753,-29.156252,18.45,0.56940967,-0.49124935,0.47338903,995.1506, , , , 
2025-09-28 19:06:02.778,-1.3064811,-9.9015,0.22731815,-0.31360272,-0.13782637,2.1077125,-39.7125,-28.66875,16.44375,0.55881697,-0.50310516,0.48021653,995.14594, , , , 
2025-09-28 19:06:02.798,0.15553348,-10.676775,0.25603202,-0.14500403,0.027107125,2.6153412,-39.75,-25.312502,16.275002,0.5456494,-0.5182123,0.489671,995.14594, , , , 
2025-09-28 19:06:02.818,1.1844472,-12.1148615,-0.46899325,0.026038112,0.22991423,3.2824056,-42.5625,-23.868752,17.25,0.52871656,-0.5342734,0.5034463,995.13934, , , , 
2025-09-28 19:06:02.838,2.6201408,-12.997812,-1.012164,0.10483967,0.22075126,3.8053057,-43.631252,-21.88125,17.868752,0.50805503,-0.55194926,0.52037215,995.13934,37.88833384,127.73986544,147.409912109375,1.58
2025-09-28 19:06:02.858,6.1998034,-13.488341,-2.053042,0.124998204,0.34109163,4.210309,-47.100002,-18.0,18.7875,0.4777802,-0.575753,0.5435449,995.1269, , , , 
2025-09-28 19:06:02.878,6.4055862,-13.545769,-3.0077782,-0.043600474,0.5475639,4.3214865,-44.25,-14.325001,14.718751,0.45751488,-0.58973783,0.5574299,995.1269, , , , 
2025-09-28 19:06:02.898,6.3744793,-13.789837,-3.1944182,-0.3850739,0.809014,4.501081,-46.893753,-12.525001,19.837502,0.426748,-0.60852706,0.5749172,995.1269, , , , 
2025-09-28 19:06:02.918,6.9583282,-14.407186,-1.2801601,-0.62514377,0.5481748,4.6678467,-47.79375,-6.8812504,18.525002,0.3920039,-0.628191,0.5902392,995.11127, , , , 
2025-09-28 19:06:02.938,7.647461,-15.266209,2.1655045,-0.03932442,-1.2612067,4.7924633,-46.725002,-2.11875,12.750001,0.34505767,-0.65862435,0.6073559,995.0932, , , , 
2025-09-28 19:06:02.958,9.822537,-14.596218,1.1964114,0.69798934,-2.0229552,4.784522,-46.40625,5.08125,18.7875,0.32353237,-0.67636824,0.6171572,995.0932, , , , 
2025-09-28 19:06:02.978,11.057234,-13.53859,-0.8350951,0.9392809,-1.5348741,4.671512,-45.131252,9.1875,19.35,0.30484846,-0.6893791,0.62756556,995.1069, , , , 
2025-09-28 19:06:02.998,11.842079,-13.16531,-2.347359,0.7303652,-0.12927426,4.559724,-45.975002,11.475,18.056252,0.28155714,-0.69860613,0.63865674,995.1069, , , , 
2025-09-28 19:06:03.018,11.868401,-13.739588,-2.0817556,0.5000692,0.5182424,4.48642,-44.0625,17.15625,16.462502,0.25112033,-0.7059175,0.64954585,995.10614, , , , 
2025-09-28 19:06:03.038,12.581462,-13.722837,-0.6795616,0.5287798,0.25007278,4.4448814,-41.662502,20.5125,17.550001,0.22680159,-0.71079177,0.65664536,995.10614, , , , 
2025-09-28 19:06:03.058,14.153546,-12.4115715,-0.5910272,0.73464125,-0.032757625,4.301939,-43.443752,21.075,14.925,0.19730243,-0.7152484,0.6653012,995.10614, , , , 
2025-09-28 19:06:03.078,15.7184515,-9.250652,-1.3543376,0.4237111,0.8529963,3.5988336,-38.2125,26.7,18.075,0.15602723,-0.7183935,0.6762216,995.1032, , , , 
2025-09-28 19:06:03.098,15.897914,-8.504091,0.44745782,0.37178758,0.95806503,3.00996,-35.9625,28.837502,13.556251,0.12857069,-0.7198084,0.68127006,995.10443, , , , 
2025-09-28 19:06:03.118,16.106089,-7.728817,0.43070808,0.7725149,0.6098721,2.5475352,-32.943752,31.500002,14.475,0.111726165,-0.7191476,0.68530244,995.10443, , , , 
2025-09-28 19:06:03.138,16.015162,-7.1138616,-2.7158537,0.9105703,0.8584941,2.2158356,-31.425001,33.15,13.44375,0.09327836,-0.7153098,0.69235015,995.1047, , , , 
2025-09-28 19:06:03.159,16.19941,-6.4558353,-4.6755753,0.5342776,1.6098578,1.970268,-30.525002,35.1375,10.14375,0.07881431,-0.7126214,0.6969799,995.1047, , , , 
2025-09-28 19:06:03.178,17.749958,-5.54417,-2.4191437,-0.030161448,1.5341105,1.2482258,-31.500002,34.893753,12.58125,0.047514256,-0.7120248,0.7003152,995.0888, , , , 
2025-09-28 19:06:03.198,18.13281,-6.0418773,-1.2370893,-0.0075594517,1.0722967,0.8371138,-29.437502,36.24375,10.44375,0.0370168,-0.71244615,0.7004104,995.0888, , , , 
2025-09-28 19:06:03.218,18.135202,-7.6259255,-2.091327,0.11339177,0.33070692,0.14500403,-29.437502,36.99375,11.00625,0.03012467,-0.71192646,0.70106924,995.0839, , , , 
2025-09-28 19:06:03.238,18.69991,-9.159725,-2.981457,0.05902481,-0.024205517,-0.20441063,-29.550001,36.35625,10.293751,0.031000461,-0.71152306,0.70130324,995.0839, , , , 
2025-09-28 19:06:03.259,19.915462,-7.9633136,-3.0269206,-0.25679228,-0.4096612,-1.1958442,-28.893751,38.175003,10.125,0.04360207,-0.71227765,0.69948274,995.08417, , , , 
2025-09-28 19:06:03.278,18.774086,-9.157332,-1.5601203,-0.53962266,-0.33085963,-2.204382,-30.093752,35.8125,10.06875,0.059856948,-0.7142849,0.6955274,995.08417, , , , 
2025-09-28 19:06:03.298,17.453249,-10.631311,-0.55034924,-0.55550516,-0.37789622,-2.6484807,-29.7,35.49375,8.493751,0.070206,-0.71546084,0.6927202,995.08417, , , , 
2025-09-28 19:06:03.318,13.088739,-14.136796,-0.009571291,-0.3239874,-0.6973785,-3.3357034,-33.54375,33.45,12.262501,0.10901375,-0.71624017,0.68386525,995.0839, , , , 
2025-09-28 19:06:03.338,12.689138,-15.160924,-0.04546363,-0.2702313,-0.95149827,-3.496361,-37.21875,30.468752,12.20625,0.13103275,-0.7150302,0.67931527,995.10394, , , , 
2025-09-28 19:06:03.358,12.916456,-15.845271,0.3397808,-0.2201404,-1.5281546,-3.8555493,-37.143753,29.343752,11.793751,0.17239338,-0.7114549,0.6702918,995.10394, , , , 
2025-09-28 19:06:03.378,13.430914,-16.05584,1.0241281,-0.20547964,-1.7663919,-4.107226,-40.0875,25.050001,13.425,0.20973223,-0.70707476,0.6612041,995.13055, , , , 
2025-09-28 19:06:03.398,13.282558,-15.876378,1.8951155,-0.12179117,-1.8946735,-4.3387437,-41.53125,23.15625,15.225,0.24991807,-0.7007585,0.6505293,995.13055, , , , 
2025-09-28 19:06:03.418,12.531212,-15.273387,1.2442678,-0.07536544,-1.3711624,-4.6594477,-40.3875,21.525002,15.825001,0.30094203,-0.68888086,0.6361818,995.14886, , , , 
2025-09-28 19:06:03.438,11.880364,-15.153746,-0.047856454,-0.2635118,-0.5104539,-4.7944484,-42.131252,19.706251,18.431252,0.32863835,-0.67973804,0.62744707,995.14886, , , , 
2025-09-28 19:06:03.458,10.334601,-15.311672,0.5838487,-0.5897136,0.9098067,-4.896463,-44.71875,9.09375,19.9125,0.36469537,-0.6620556,0.6131833,995.154, , , , 
2025-09-28 19:06:03.479,9.82493,-15.2781725,2.105684,-0.32826346,0.65080005,-5.0357404,-45.768753,7.5000005,19.35,0.3882356,-0.6451339,0.60222924,995.154, , , , 
2025-09-28 19:06:03.498,8.482556,-14.986248,2.5316064,0.05108357,-0.082848534,-5.158524,-46.65,3.16875,20.15625,0.41522482,-0.6255788,0.5900307,995.1452, , , , 
2025-09-28 19:06:03.518,6.2644095,-14.282759,1.7060826,0.40477428,-0.64973104,-5.0931616,-47.4,-4.125,20.175001,0.44700566,-0.6043714,0.5758005,995.1452, , , , 
2025-09-28 19:06:03.538,4.9603214,-13.567305,1.0073783,0.4664716,-0.55504704,-4.8970737,-47.475002,-9.4875,21.581251,0.47906378,-0.58226454,0.56077003,995.14056, , , , 
2025-09-28 19:06:03.558,2.1678972,-12.040684,-0.51206404,0.35651594,0.033215772,-4.4835186,-46.03125,-13.200001,21.487501,0.50713336,-0.5593589,0.5468249,995.14056, , , , 
2025-09-28 19:06:03.578,0.485743,-10.054641,-1.6103697,-0.006948587,0.56588984,-3.853106,-45.1875,-16.21875,22.181252,0.5331674,-0.53146935,0.53207815,995.11273, , , , 
2025-09-28 19:06:03.598,0.30149564,-9.317652,-1.079163,-0.27267477,0.6672934,-3.4077854,-43.612503,-19.518751,18.806252,0.54734695,-0.5115342,0.5214497,995.11273, , , , 
2025-09-28 19:06:03.618,0.0071784677,-9.21476,0.05742774,-0.31787875,0.5298488,-3.0791402,-41.475002,-22.78125,18.300001,0.55808204,-0.49406186,0.51095176,995.0798, , , , 
2025-09-28 19:06:03.638,-1.6103697,-9.375079,0.49052864,-0.11995857,0.24762931,-2.5238643,-40.631252,-25.9125,17.15625,0.56975096,-0.47509995,0.49856624,995.0798, , , , 
2025-09-28 19:06:03.658,-3.022135,-9.267402,-0.10049855,-0.042378742,-0.03092503,-1.7987677,-39.787502,-27.468752,18.862501,0.57798576,-0.4638043,0.49031135,995.06903, , , , 
2025-09-28 19:06:03.678,-2.7876384,-8.575876,0.124426775,-0.04054615,-0.14088069,-1.1390338,-40.3125,-28.85625,16.06875,0.5826525,-0.45858338,0.48544264,995.06903, , , , 
2025-09-28 19:06:03.698,-2.3114667,-8.149954,0.3469593,0.021762058,-0.22945608,-0.58497936,-37.40625,-29.456251,18.2625,0.5866289,-0.4552948,0.48122516,995.06366, , , , 
2025-09-28 19:06:03.718,-2.091327,-8.496913,-0.2009971,0.108504854,-0.3107011,0.154167,-39.075,-31.125002,19.612501,0.5890091,-0.45597994,0.47946128,995.06366, , , , 
2025-09-28 19:06:03.738,-1.7443677,-9.77468,-0.74177504,0.12866339,-0.3265836,0.623922,-38.15625,-30.281252,18.225,0.5887498,-0.45904863,0.48042962,995.06366, , , , 
2025-09-28 19:06:03.758,-2.1774685,-10.423136,-1.227518,0.056581352,-0.34857473,1.3630683,-39.506252,-29.04375,18.300001,0.58571506,-0.46677268,0.4842595,995.06586, , , , 
2025-09-28 19:06:03.778,0.15314065,-9.750752,-0.078963146,-0.003894263,-0.57520556,2.4278057,-39.54375,-27.581251,20.38125,0.57671136,-0.4837877,0.49248287,995.059, , , , 
2025-09-28 19:06:03.798,1.713261,-9.71486,0.0071784677,0.050472703,-0.42615455,2.870072,-39.300003,-26.41875,19.987501,0.5659523,-0.5015696,0.5015156,995.059, , , , 
2025-09-28 19:06:03.818,3.1752756,-10.700703,-0.6029913,0.027870705,0.18165591,3.2604144,-40.612503,-23.56875,18.73125,0.55096215,-0.5197783,0.51396096,995.0656, , , , 
2025-09-28 19:06:03.838,3.3810585,-11.988042,-1.0313065,-0.0051159924,0.4767036,3.5572946,-43.125,-20.60625,20.5125,0.53092414,-0.5373752,0.5297794,995.0656,37.88832111,127.73987327,147.322998046875,1.65
2025-09-28 19:06:03.858,4.469793,-13.780266,-1.605584,0.029092435,0.13889538,4.0777516,-43.8375,-17.56875,21.1875,0.5017368,-0.5611285,0.5506742,995.0607, , , , 
2025-09-28 19:06:03.878,6.128019,-14.55554,-1.8711873,-0.013057235,-0.026648976,4.3941793,-45.35625,-15.20625,17.6625,0.48305774,-0.5769882,0.56253797,995.0607, , , , 
2025-09-28 19:06:03.898,8.518449,-15.029319,-1.564906,-0.11446079,-0.11766783,4.6788425,-46.237503,-9.95625,19.78125,0.44202262,-0.60978895,0.5844402,995.06366, , , , 
2025-09-28 19:06:03.920,9.52822,-14.61536,-0.76331043,-0.108963005,-0.27160576,4.793685,-45.581253,-5.2875004,19.743752,0.42044652,-0.62606245,0.5939172,995.06366, , , , 
2025-09-28 19:06:03.938,10.923235,-13.909478,-0.50009996,-0.15722132,0.06864593,4.781468,-45.881252,-2.5687501,18.393751,0.3828964,-0.6512751,0.60828215,995.0612, , , , 
2025-09-28 19:06:03.958,10.777273,-13.4022,-0.12921242,-0.2494619,0.49808386,4.6464667,-47.60625,3.80625,22.6875,0.35003594,-0.66854596,0.6190807,995.0612, , , , 
2025-09-28 19:06:03.978,10.509277,-13.304094,0.2440679,-0.26290092,0.67034775,4.582326,-44.23125,9.918751,17.34375,0.3242084,-0.68002105,0.6265323,995.0673, , , , 
2025-09-28 19:06:03.998,10.667203,-13.000205,-0.34456646,-0.20181446,1.0246493,4.580493,-44.98125,14.19375,17.493752,0.27916974,-0.6962447,0.6384071,995.0673, , , , 
2025-09-28 19:06:04.018,12.026326,-12.179467,-0.7322037,-0.35391977,1.0319797,4.446714,-43.7625,17.19375,16.125,0.24156418,-0.7072291,0.6466758,995.08026, , , , 
2025-09-28 19:06:04.038,12.97867,-11.511869,0.3804588,-0.44493863,0.86948967,4.169992,-41.68125,19.518751,15.918751,0.21465401,-0.71496356,0.6508333,995.08026, , , , 
2025-09-28 19:06:04.058,13.469198,-10.652846,1.3208381,-0.31299183,0.7314342,3.7698755,-40.893753,22.59375,14.418751,0.18178347,-0.72361726,0.65477896,995.08124, , , , 
2025-09-28 19:06:04.078,12.646068,-9.702896,1.2849457,-0.021609342,0.31421357,3.479104,-40.893753,26.325,15.6,0.1464059,-0.73061365,0.65941954,995.08124, , , , 
2025-09-28 19:06:04.098,13.440485,-8.989835,0.4977071,0.23556472,-0.058413945,3.3538768,-38.643753,25.687502,14.325001,0.1285421,-0.73302007,0.66248155,995.08124, , , , 
2025-09-28 19:06:04.118,15.912271,-8.190632,-1.0887343,0.47135854,0.2323577,2.7900486,-36.206253,30.018751,16.9125,0.10334674,-0.73414993,0.66823494,995.0878, , , , 
2025-09-28 19:06:04.138,15.381064,-7.470392,-2.6775684,0.31375542,0.7265473,2.281809,-35.100002,30.91875,13.35,0.08018921,-0.73290294,0.67393786,995.08417, , , , 
2025-09-28 19:06:04.158,16.407585,-6.721439,-2.1248264,0.112780906,0.79313153,1.9574398,-32.268753,31.837502,12.993751,0.062234696,-0.73261636,0.6765574,995.08417, , , , 
2025-09-28 19:06:04.178,17.718851,-7.056434,-1.9405792,0.13782637,0.53779006,1.5530473,-33.54375,33.45,12.731251,0.04744491,-0.7325815,0.6780208,995.07733, , , , 
2025-09-28 19:06:04.198,18.534803,-7.1042905,-2.8953154,0.15676318,0.08880447,0.86643535,-30.300001,34.912502,11.53125,0.03768193,-0.73181427,0.67964834,995.07733, , , , 
2025-09-28 19:06:04.218,18.580267,-6.8889365,-3.0843484,0.059635673,0.049098257,0.57016593,-31.0125,34.443752,13.012501,0.036376823,-0.7316482,0.6799291,995.07733, , , , 
2025-09-28 19:06:04.238,18.343378,-7.436893,-1.9860427,-0.22685991,0.15599959,-0.14332415,-27.768751,37.162502,10.05,0.0375684,-0.73273754,0.6785233,995.0827, , , , 
2025-09-28 19:06:04.258,17.185253,-9.064013,-0.29910284,-0.013057235,-0.05291616,-0.8543708,-27.2625,35.11875,7.8,0.044918757,-0.7336754,0.67650807,995.08563, , , , 
2025-09-28 19:06:04.278,16.488941,-8.4682,-0.5910272,0.20563236,-0.57520556,-1.354669,-31.368752,34.78125,13.05,0.056627065,-0.73236877,0.6764726,995.08563, , , , 
2025-09-28 19:06:04.298,16.673187,-8.539984,-0.5383851,0.22701262,-0.8555925,-1.7193552,-31.63125,35.756252,13.312501,0.069647275,-0.7307113,0.67658883,995.08563, , , , 
2025-09-28 19:06:04.318,16.060625,-10.770095,-0.42831525,0.18547381,-1.1775182,-2.7120106,-32.4,33.318752,12.468751,0.09991589,-0.72707134,0.6756194,995.1054, , , , 
2025-09-28 19:06:04.338,14.928821,-12.514462,-0.45224348,0.12011129,-1.2471569,-3.1353397,-35.268753,30.768751,13.51875,0.12235574,-0.72426105,0.6739376,995.1191, , , , 
2025-09-28 19:06:04.358,14.160725,-14.809179,-0.33499518,-0.069867656,-1.0449606,-3.5659995,-36.1875,28.425001,14.212501,0.1628833,-0.7187585,0.6688219,995.1191, , , , 
2025-09-28 19:06:04.378,13.42852,-15.615561,0.15792629,-0.19387321,-0.7236457,-3.8243954,-38.34375,27.225,13.89375,0.195189,-0.7135837,0.66271645,995.13324, , , , 
2025-09-28 19:06:04.398,12.423535,-15.634703,0.6029913,-0.24762931,-0.36384633,-4.018039,-39.91875,26.906252,16.85625,0.21842405,-0.70887256,0.6573793,995.13324, , , , 
2025-09-28 19:06:04.418,11.296515,-14.529219,0.89730847,-0.2323577,0.23785548,-4.2733808,-40.050003,20.831251,12.900001,0.26122108,-0.69627017,0.646028,995.1469, , , , 
2025-09-28 19:06:04.438,10.652846,-13.9166565,1.0049855,-0.17615813,0.42600182,-4.4389253,-41.60625,20.53125,14.625001,0.28103557,-0.68796253,0.64022213,995.1469, , , , 
2025-09-28 19:06:04.458,9.355937,-13.63191,1.1174482,0.022983788,0.34536767,-4.705873,-45.675003,15.8625,17.775002,0.31437588,-0.67088795,0.6298487,995.15106, , , , 
2025-09-28 19:06:04.478,8.425129,-13.904693,0.63888365,0.1720348,0.38629562,-4.7681813,-45.075,11.45625,16.125,0.3419495,-0.6544747,0.62084687,995.15106, , , , 
2025-09-28 19:06:04.498,6.9798636,-14.019547,0.69152576,0.30825764,-0.16531529,-4.843318,-46.2,7.1250005,14.325001,0.3769671,-0.63156354,0.608215,995.1635, , , , 
2025-09-28 19:06:04.518,5.3312087,-13.648661,0.73459655,0.42737627,-0.8879683,-4.7559643,-45.43125,0.8625,14.587501,0.40043348,-0.61775714,0.5985964,995.1635, , , , 
2025-09-28 19:06:04.538,4.8622155,-12.703495,0.39720857,0.45914125,-1.4609594,-4.457251,-46.2,-3.35625,18.31875,0.43409675,-0.60058606,0.58322185,995.15643, , , , 
2025-09-28 19:06:04.558,5.8504515,-11.873186,-0.12921242,0.3748419,-1.4517965,-4.2293987,-44.98125,-6.8437505,18.225,0.47555342,-0.5808821,0.5615339,995.15643, , , , 
2025-09-28 19:06:04.578,4.8933225,-11.196017,-1.2394822,0.21662793,-0.92706364,-4.078515,-43.350002,-11.775001,18.65625,0.49815658,-0.5687819,0.5484409,995.15936, , , , 
2025-09-28 19:06:04.598,3.6179478,-10.762917,-2.0075781,-0.1333976,-0.044364054,-3.825617,-43.443752,-13.5375,20.15625,0.5222065,-0.5518096,0.5328637,995.15936, , , , 
2025-09-28 19:06:04.618,2.0985055,-10.753345,-0.59342,-0.42416924,0.60376346,-3.346699,-43.725002,-19.181252,21.73125,0.54083276,-0.5303309,0.5175109,995.1435, , , , 
2025-09-28 19:06:04.638,0.19621146,-10.322637,0.27038896,-0.24518585,-0.0058795735,-2.9105415,-40.0875,-21.862501,16.10625,0.5551296,-0.51113784,0.50356096,995.1435, , , , 
2025-09-28 19:06:04.659,-0.6891329,-10.037891,-0.02632105,-0.15294527,-0.2154062,-2.6503131,-40.5,-22.2,20.175001,0.56128776,-0.5048558,0.49764863,995.1435, , , , 
2025-09-28 19:06:04.678,-1.6917256,-10.157532,-0.91405827,-0.27145302,0.08513928,-1.7395139,-41.2125,-26.493752,19.275002,0.57592505,-0.4905363,0.4828216,995.1391, , , , 
2025-09-28 19:06:04.698,-2.3425734,-10.267602,-0.55752766,-0.35514152,0.2775617,-1.322904,-39.09375,-26.8875,18.91875,0.5782828,-0.48708817,0.4796418,995.1391, , , , 
2025-09-28 19:06:04.718,-2.684747,-9.58804,1.0360922,-0.18104506,-0.14271328,-0.43104145,-40.518753,-29.531252,19.66875,0.58004063,-0.48206353,0.47463378,995.14105, , , , 
2025-09-28 19:06:04.738,-2.7589245,-9.690931,0.88295156,0.06940951,-0.5495492,0.10407609,-39.15,-28.63125,18.5625,0.58083683,-0.4832165,0.47321272,995.14935, , , , 
2025-09-28 19:06:04.758,-3.0412776,-10.406385,-1.3136597,0.15737404,-0.771904,1.0332015,-39.768753,-28.725,20.475,0.58160937,-0.49048024,0.4732969,995.14935, , , , 
2025-09-28 19:06:04.778,-2.5172493,-10.2723875,-1.713261,-0.010002911,-0.65217453,1.7876195,-38.362503,-27.581251,20.118752,0.5783873,-0.5020149,0.4761353,995.15155, , , , 
2025-09-28 19:06:04.798,-1.1437693,-10.573883,-1.4117653,-0.24824017,-0.24717116,2.512105,-40.3125,-28.406252,21.45,0.5716468,-0.51364124,0.48079476,995.15155, , , , 
2025-09-28 19:06:04.818,1.227518,-11.452049,0.10289137,-0.33192864,0.21219915,3.3172247,-40.48125,-22.706251,21.75,0.551163,-0.5366284,0.4940529,995.1379, , , , 
2025-09-28 19:06:04.838,3.1848469,-12.3708935,0.57188463,-0.09063706,0.30443972,3.8303514,-44.04375,-21.5625,20.362501,0.5230795,-0.5614038,0.51283914,995.1379,37.88830923,127.73988061,146.938720703125,1.4
2025-09-28 19:06:04.858,3.9050865,-12.9021,-0.08135597,0.07185297,0.37346745,4.044765,-43.256252,-19.125,20.2875,0.51072955,-0.5712135,0.5214975,995.1379, , , , 
2025-09-28 19:06:04.878,4.5894337,-14.206188,-2.3353949,0.1060614,0.62025684,4.5200176,-46.18125,-14.062501,19.3875,0.47662726,-0.5950001,0.5452306,995.1286, , , , 
2025-09-28 19:06:04.898,6.257231,-14.61536,-2.7732813,-0.20364705,0.6471349,4.88898,-47.193752,-8.08125,20.85,0.444515,-0.61487114,0.5643465,995.1086, , , , 
2025-09-28 19:06:04.918,8.020741,-14.423935,-1.3615161,-0.39668033,0.6587413,5.082013,-48.562504,-4.1062503,20.15625,0.3994799,-0.6411685,0.5850608,995.1086, , , , 
2025-09-28 19:06:04.938,9.296116,-13.897514,-0.031106694,-0.27511823,0.4736493,5.0545244,-46.893753,-0.31875002,17.75625,0.352088,-0.66522616,0.603235,995.0966, , , , 
2025-09-28 19:06:04.958,9.439685,-13.813766,-0.18664017,-0.035048366,-0.18486296,4.9628944,-46.162502,6.8625,17.737501,0.31708154,-0.6818844,0.61560184,995.0966, , , , 
2025-09-28 19:06:04.978,10.504492,-14.196617,-0.6125626,0.16714787,-0.6992111,4.9360166,-45.73125,11.137501,16.518751,0.28645846,-0.69675416,0.62568593,995.0954, , , , 
2025-09-28 19:06:04.998,12.335001,-14.663218,-0.96430755,0.2758818,-0.7413608,4.879206,-44.662502,13.481251,16.275002,0.2650075,-0.7064119,0.6323007,995.0954, , , , 
2025-09-28 19:06:05.018,14.806787,-13.945371,-2.0721843,0.3259727,-0.28015786,4.531624,-44.8875,18.9375,17.0625,0.22969754,-0.7186826,0.6424028,995.09125, , , , 
2025-09-28 19:06:05.038,14.598611,-12.500106,-3.5581272,-0.06131555,0.26778784,4.0465975,-42.112503,20.456251,18.225,0.20140488,-0.72607267,0.648628,995.09125, , , , 
2025-09-28 19:06:05.058,14.373686,-11.540584,-3.5820556,-0.3447568,0.57505286,3.8645597,-41.15625,21.65625,19.612501,0.17973481,-0.7317469,0.6510638,995.09125, , , , 
2025-09-28 19:06:05.078,13.959727,-9.18126,0.009571291,-0.73265594,1.1278855,3.3373833,-39.05625,25.593752,20.23125,0.14969043,-0.7402431,0.6509367,995.0837, , , , 
2025-09-28 19:06:05.098,12.519248,-7.9130645,2.5579274,-0.13217586,1.2305107,2.8932846,-35.71875,27.337502,17.00625,0.10639148,-0.74881226,0.6509658,995.0783, , , , 
2025-09-28 19:06:05.118,13.416556,-7.240681,0.51445687,0.39805475,1.1016183,2.6483278,-35.30625,30.750002,15.375001,0.080532506,-0.7490194,0.65508974,995.0783, , , , 
2025-09-28 19:06:05.138,14.5100765,-6.62094,-2.105684,0.48724103,0.8426116,2.2396593,-34.350002,31.837502,15.675,0.058273625,-0.74681264,0.66048926,995.1003, , , , 
2025-09-28 19:06:05.158,14.873786,-6.4701924,-2.5938199,0.32719445,0.23113596,1.7619631,-31.087502,33.206253,11.55,0.04134336,-0.7447661,0.6645114,995.1003, , , , 
2025-09-28 19:06:05.178,15.306887,-6.910472,-2.3162522,0.24228424,-0.35651594,1.346575,-28.706251,34.95,12.281251,0.03224678,-0.74358106,0.6668204,995.0898, , , , 
2025-09-28 19:06:05.198,15.732809,-7.042077,-1.9334008,0.19769111,-0.63751376,1.0020473,-31.125002,34.6875,13.950001,0.03014268,-0.742985,0.6679144,995.0898, , , , 
2025-09-28 19:06:05.218,15.64906,-7.207182,-2.0434706,0.11766783,-0.24778202,0.41561714,-29.081251,36.131252,14.26875,0.03141802,-0.74210405,0.66914284,995.07684, , , , 
2025-09-28 19:06:05.238,15.376278,-7.9968133,-2.3808584,-0.074143715,0.3832413,0.14928009,-26.85,36.24375,13.875001,0.031826183,-0.7419675,0.6692527,995.07684, , , , 
2025-09-28 19:06:05.258,16.120445,-9.075976,-1.1820544,-0.13767365,0.40950847,-0.27466008,-28.181252,36.84375,13.668751,0.031161003,-0.7430484,0.66773725,995.0822, , , , 
2025-09-28 19:06:05.278,17.058434,-8.848659,-0.6795616,0.081015944,-0.19158247,-0.7376956,-28.237501,36.487503,12.3,0.034380343,-0.74310726,0.66723204,995.0822, , , , 
2025-09-28 19:06:05.298,17.670996,-9.0951185,-0.8781659,0.11827869,-0.8390991,-1.6900338,-30.337502,34.893753,13.387501,0.05107207,-0.7415492,0.6673979,995.0961, , , , 
2025-09-28 19:06:05.318,16.701902,-10.521241,-0.13160525,0.090178914,-0.9710459,-2.4126868,-28.7625,33.9375,12.806251,0.07355594,-0.7397977,0.6665594,995.0961, , , , 
2025-09-28 19:06:05.338,14.376079,-12.679567,0.55752766,0.16226095,-1.0907754,-3.0198865,-32.68125,32.1375,15.806251,0.10178892,-0.73684317,0.6649708,995.11566, , , , 
2025-09-28 19:06:05.358,12.94517,-14.694324,0.66999036,0.3107011,-1.3045781,-3.3497534,-34.518753,30.956251,15.13125,0.13343485,-0.7320208,0.66318154,995.11566, , , , 
2025-09-28 19:06:05.378,12.9021,-16.211374,0.18424734,0.405996,-1.5312089,-3.6142578,-35.550003,29.60625,16.237501,0.17685011,-0.72332984,0.66035974,995.1342, , , , 
2025-09-28 19:06:05.398,12.892529,-16.249659,-0.0071784677,0.39011353,-1.697975,-3.911138,-38.5875,27.0375,17.643751,0.21450621,-0.71468955,0.65659845,995.1342, , , , 
2025-09-28 19:06:05.418,12.318251,-15.474384,-0.55034924,0.28870997,-1.5122721,-4.0980625,-39.9375,25.406252,18.337502,0.2435691,-0.7073175,0.6526396,995.13055, , , , 
2025-09-28 19:06:05.438,11.894721,-14.684752,-0.9810573,0.020540329,-0.6992111,-4.368065,-37.96875,22.518751,14.26875,0.28059122,-0.69659954,0.6458484,995.13055, , , , 
2025-09-28 19:06:05.458,11.143375,-14.344972,-1.18684,-0.20486878,0.09124792,-4.598361,-38.53125,22.087502,15.900001,0.3051014,-0.6876848,0.64009696,995.13055, , , , 
2025-09-28 19:06:05.478,8.898908,-14.5100765,-0.70348984,-0.39973465,1.0014365,-4.974043,-44.04375,16.237501,21.6,0.34562182,-0.66648686,0.6276393,995.1269, , , , 
2025-09-28 19:06:05.498,6.7429743,-14.79243,-0.5407779,-0.33253953,1.0246493,-5.0736136,-45.2625,10.556251,17.268751,0.3752557,-0.64477706,0.61606145,995.1247, , , , 
2025-09-28 19:06:05.518,5.855237,-14.813965,-0.038285162,-0.20242532,0.60070914,-5.066894,-44.53125,6.5062504,20.362501,0.39320254,-0.6306529,0.6080078,995.1247, , , , 
2025-09-28 19:06:05.538,4.2448673,-14.251652,0.27756742,0.033368487,-0.07429643,-4.9270062,-45.768753,-0.5625,17.962502,0.4261603,-0.6063733,0.5919232,995.13324, , , , 
2025-09-28 19:06:05.558,2.6249263,-13.268202,-0.08853444,0.12377647,-0.28687736,-4.615465,-46.10625,-6.4687505,19.875,0.45367822,-0.5870539,0.5774594,995.13324, , , , 
2025-09-28 19:06:05.578,1.8520447,-12.643675,-0.6125626,0.0816268,-0.19708025,-4.2208467,-45.506252,-10.125,18.16875,0.4727718,-0.57306,0.56660694,995.13446, , , , 
2025-09-28 19:06:05.598,1.3734802,-11.834901,-0.44027936,0.027870705,-0.11950042,-3.7840781,-46.912502,-14.137501,18.84375,0.49470472,-0.55551,0.5528442,995.13446, , , , 
2025-09-28 19:06:05.618,0.4354937,-11.327622,-0.5814559,0.024205517,-0.08895718,-3.369301,-44.006252,-16.44375,18.993752,0.51336074,-0.5392085,0.5400861,995.13007, , , , 
2025-09-28 19:06:05.638,-0.6412765,-10.882557,-0.8757731,-0.0796415,-0.0297033,-2.9142067,-43.256252,-20.831251,17.456251,0.52909327,-0.5245369,0.52840215,995.13007, , , , 
2025-09-28 19:06:05.658,-2.656033,-10.533205,-0.59342,-0.25923574,0.11018474,-2.2471426,-42.9,-21.1875,18.375,0.54346555,-0.5097508,0.51560384,995.13104, , , , 
2025-09-28 19:06:05.678,-3.574877,-9.717253,1.2203395,-0.18898629,-0.03642281,-1.2770892,-43.331253,-23.962502,18.4125,0.55107015,-0.5006243,0.50669825,995.13104, , , , 
2025-09-28 19:06:05.698,-2.4382863,-9.413364,1.5744773,0.23861906,-0.4267654,-0.5434406,-42.45,-24.750002,18.375,0.5553265,-0.497485,0.502799,995.13715, , , , 
2025-09-28 19:06:05.718,-2.065006,-9.439685,1.134198,0.3815614,-0.5300016,-0.30703592,-41.8875,-24.806252,18.150002,0.55755454,-0.4969291,0.5018301,995.13715, , , , 
2025-09-28 19:06:05.739,-2.2492533,-9.915857,-1.2729816,0.3888918,-0.473802,0.22991423,-42.99375,-25.931252,19.275002,0.5615179,-0.49753377,0.50149024,995.13715, , , , 
2025-09-28 19:06:05.758,-3.0173492,-10.872986,-2.6225336,0.07246383,-0.12988512,1.0289254,-40.2,-23.643751,19.143751,0.5607786,-0.50312054,0.5046994,995.1296, , , , 
2025-09-28 19:06:05.778,-2.28036,-10.107283,-1.753939,-0.46754062,0.15783219,2.160858,-42.600002,-23.15625,19.987501,0.54909265,-0.5165717,0.51262516,995.1132, , , , 
2025-09-28 19:06:05.798,0.29192436,-10.353744,-0.14356937,-0.5829941,0.25618142,2.6788712,-43.36875,-22.5,21.900002,0.5370582,-0.52839255,0.5191488,995.1132, , , , 
2025-09-28 19:06:05.818,3.0125637,-11.456835,1.1365907,-0.31787875,0.33925903,3.0307293,-42.112503,-20.85,19.03125,0.5072083,-0.553751,0.5359091,995.1149, , , , 
2025-09-28 19:06:05.839,2.5674987,-12.41875,-0.3182454,-0.1333976,0.10468695,3.2787404,-45.5625,-15.375001,19.556252,0.48659563,-0.56998694,0.5487804,995.1149,37.88829897,127.73988749,147.1529541015625,1.27
2025-09-28 19:06:05.858,3.2853456,-13.667803,-0.6652047,-0.1297324,-0.23128867,3.7790387,-44.925003,-14.306251,20.04375,0.46533203,-0.5879341,0.56128055,995.10785, , , , 
2025-09-28 19:06:05.879,3.5940197,-14.596218,-0.50009996,-0.07108939,-0.36934412,4.2035894,-45.300003,-9.731251,19.050001,0.44225526,-0.60788316,0.57340395,995.10785, , , , 
2025-09-28 19:06:05.898,4.6085763,-15.122639,-0.64845496,-0.06864593,-0.16959134,4.822396,-45.09375,-4.36875,19.650002,0.4083631,-0.6338084,0.58951557,995.1032, , , , 
2025-09-28 19:06:05.918,6.6687965,-15.244673,-0.44985065,-0.07841977,0.08086322,5.0746827,-45.54375,-0.91875005,17.493752,0.3844296,-0.6490175,0.59967035,995.1032, , , , 
2025-09-28 19:06:05.938,8.018349,-14.998212,-0.5168497,-0.09124792,0.2323577,5.09362,-47.662502,3.3187501,20.550001,0.34978154,-0.66762453,0.6128789,995.09174, , , , 
2025-09-28 19:06:05.958,8.322237,-14.768501,-0.7680961,-0.21342088,0.28550294,5.073461,-46.3125,8.4375,19.5,0.30461434,-0.68816555,0.6270657,995.09174, , , , 
2025-09-28 19:06:05.978,9.004191,-14.708681,-0.4211368,-0.24701844,0.2323577,5.0227594,-43.10625,12.3,14.325001,0.2772236,-0.69949996,0.6337476,995.08685, , , , 
2025-09-28 19:06:05.998,10.370493,-15.160924,-0.5312066,-0.13828452,0.09491312,4.8993645,-44.71875,17.587502,16.96875,0.23256552,-0.7156882,0.64275694,995.08685, , , , 
2025-09-28 19:06:06.018,11.842079,-15.713666,-0.8877372,-0.04054615,-0.037644543,4.738096,-41.90625,20.60625,16.650002,0.19904648,-0.72589254,0.648403,995.08075, , , , 
2025-09-28 19:06:06.038,14.0602255,-14.342579,-1.4285151,-0.003894263,0.36002842,4.454655,-39.91875,23.175001,16.29375,0.16671944,-0.7336459,0.6530524,995.08075, , , , 
2025-09-28 19:06:06.058,15.074782,-13.170095,-1.6342978,-0.07658717,0.7570905,4.1730466,-38.550003,24.300001,18.09375,0.14223629,-0.738039,0.65590554,995.07855, , , , 
2025-09-28 19:06:06.078,14.591433,-10.5690975,-1.0073783,-0.42966703,1.504789,3.3770895,-36.5625,29.737501,17.268751,0.10115782,-0.7441873,0.65819454,995.07855, , , , 
2025-09-28 19:06:06.098,13.406985,-9.274581,0.86859465,-0.44799295,1.4406482,2.8859544,-33.375,30.937502,16.25625,0.06264027,-0.74968004,0.657343,995.0893, , , , 
2025-09-28 19:06:06.118,13.624732,-8.915657,1.4237294,-0.058261227,0.94218254,2.5340962,-32.175003,31.706251,15.3,0.036877275,-0.7518369,0.6571979,995.0893, , , , 
2025-09-28 19:06:06.138,13.92862,-8.365308,0.29910284,0.33880088,0.53290313,2.2445462,-31.575,33.881252,14.19375,0.021546626,-0.7513161,0.65877026,995.10443, , , , 
2025-09-28 19:06:06.158,14.344972,-8.145168,-1.3615161,0.5464949,0.27084216,1.9733223,-29.925001,35.662502,15.3,0.0056095603,-0.748533,0.6626075,995.10443, , , , 
2025-09-28 19:06:06.178,15.388243,-7.499106,-3.2422748,0.5153408,-0.005268709,1.6074144,-28.7625,36.05625,11.925,-0.006202507,-0.7450215,0.66679776,995.0893, , , , 
2025-09-28 19:06:06.198,16.354942,-7.597212,-3.3762727,0.15370885,-0.29054257,1.0332015,-26.156252,37.443752,12.656251,-0.014578015,-0.7422827,0.6698774,995.0893, , , , 
2025-09-28 19:06:06.218,16.711473,-7.2622166,-1.713261,0.011988222,-0.46097383,0.5493965,-26.00625,38.081253,12.13125,-0.01581534,-0.7420224,0.670181,995.08295, , , , 
2025-09-28 19:06:06.238,17.89592,-9.466006,-0.8805587,0.17753258,-0.5984184,-0.022983788,-25.331251,37.893753,13.312501,-0.01095937,-0.74169916,0.6706431,995.08295, , , , 
2025-09-28 19:06:06.258,18.407984,-9.590433,-1.4955142,0.40355253,-0.7095958,-0.55504704,-24.375002,37.5,12.618751,-0.001654196,-0.73988587,0.6727303,995.09467, , , , 
2025-09-28 19:06:06.278,18.723837,-8.60459,-2.3234308,0.33941174,-0.64117897,-1.1995094,-27.300001,36.300003,15.468751,0.008198458,-0.73797244,0.6747749,995.09467, , , , 
2025-09-28 19:06:06.298,17.536997,-10.451849,-1.3016955,0.15431972,-0.63751376,-2.335107,-24.768751,36.84375,10.5375,0.03153578,-0.735791,0.67631626,995.09076, , , , 
2025-09-28 19:06:06.318,16.261623,-12.08854,-1.1844472,0.16470441,-0.7914517,-2.8299074,-25.425001,37.3875,13.05,0.050267085,-0.7342953,0.67648816,995.09076, , , , 
2025-09-28 19:06:06.338,13.663017,-14.656038,-1.550549,0.06391173,-1.1298708,-3.4151158,-30.54375,33.99375,14.55,0.08076003,-0.73146373,0.67581373,995.102, , , , 
2025-09-28 19:06:06.358,13.174882,-16.175482,-0.6628119,-0.22136213,-1.0773364,-3.8005717,-31.368752,33.412502,13.743751,0.12334152,-0.7278148,0.6716864,995.102, , , , 
2025-09-28 19:06:06.378,13.064812,-17.146967,0.32303107,-0.32459828,-0.956996,-4.1670904,-35.9625,29.79375,17.212502,0.15857813,-0.72441775,0.6657989,995.11346, , , , 
2025-09-28 19:06:06.398,12.674782,-17.417356,0.9284152,-0.31238097,-0.9044617,-4.426097,-36.54375,28.368752,17.04375,0.18570766,-0.7208296,0.66038877,995.11346, , , , 
2025-09-28 19:06:06.418,11.062019,-17.273787,0.9403793,-0.22441645,-0.66744614,-4.7810097,-39.46875,24.093752,17.90625,0.24115507,-0.70957494,0.6480277,995.1247, , , , 
2025-09-28 19:06:06.438,9.54497,-16.66601,0.567099,-0.18165591,-0.27710354,-4.9025717,-39.91875,20.325,16.462502,0.27674338,-0.69899,0.6390162,995.1247, , , , 
2025-09-28 19:06:06.459,8.729017,-15.838093,0.1363909,-0.17004949,0.05215258,-4.963047,-41.9625,19.087502,19.06875,0.30981836,-0.68616873,0.62960315,995.1342, , , , 
2025-09-28 19:06:06.478,7.776674,-15.146567,0.04546363,-0.1749364,0.33131778,-5.0070295,-43.912502,12.187501,17.6625,0.34025285,-0.67119485,0.619743,995.1342, , , , 
2025-09-28 19:06:06.498,6.73101,-14.347364,0.12203395,-0.10102176,0.62086767,-5.026577,-43.3875,8.26875,16.743752,0.36800638,-0.6539804,0.6096678,995.1359, , , , 
2025-09-28 19:06:06.518,5.3216376,-13.715659,-0.11724831,0.005268709,0.4767036,-4.968545,-43.95,2.60625,17.268751,0.39431038,-0.6347635,0.5991867,995.1359, , , , 
2025-09-28 19:06:06.538,3.8237305,-13.406985,-0.6412765,0.05108357,0.24457498,-4.855535,-46.74375,-0.93750006,19.3125,0.42053336,-0.61473566,0.5874555,995.12787, , , , 
2025-09-28 19:06:06.558,1.5026926,-12.562319,-1.0360922,-0.08269582,-0.017486004,-4.4419794,-47.04375,-7.4437504,20.025002,0.45208314,-0.5907812,0.5705227,995.12787, , , , 
2025-09-28 19:06:06.578,0.9667004,-12.062219,-0.4019942,-0.16821688,-0.19463679,-4.051637,-47.8125,-12.0,20.212502,0.46925706,-0.57802427,0.5594052,995.12103, , , , 
2025-09-28 19:06:06.598,0.73459655,-11.830115,0.41874397,-0.11568252,-0.40171996,-3.6790094,-45.412502,-14.718751,18.88125,0.4902282,-0.56282336,0.5443653,995.12103, , , , 
2025-09-28 19:06:06.618,0.4953143,-11.150554,0.45702913,0.087124586,-0.7725149,-3.139005,-42.80625,-17.0625,17.6625,0.5150807,-0.5463638,0.52610075,995.1269, , , , 
2025-09-28 19:06:06.638,-0.32063824,-10.741381,-0.53359944,0.065744326,-0.6625592,-2.7932556,-43.29375,-19.875,21.88125,0.5335657,-0.5348943,0.5124229,995.1269, , , , 
2025-09-28 19:06:06.658,-2.4382863,-10.755738,-0.6556334,-0.15661046,-0.24961463,-2.1939971,-42.73125,-22.29375,20.268751,0.5510446,-0.52236146,0.49792024,995.12933, , , , 
2025-09-28 19:06:06.678,-3.792624,-10.80838,-0.37567315,-0.22624904,-0.08590286,-1.6796491,-42.09375,-24.225,20.925001,0.55777013,-0.5166302,0.49130204,995.12933, , , , 
2025-09-28 19:06:06.698,-3.7758741,-10.892129,0.27517462,-0.1627191,0.053985175,-0.6961568,-39.975002,-24.750002,19.2,0.5629056,-0.5113051,0.48517781,995.13153, , , , 
2025-09-28 19:06:06.718,-2.981457,-10.396814,0.35653058,-0.027717989,0.0900262,-0.040088,-37.725002,-25.368752,16.518751,0.5629715,-0.5106882,0.4847046,995.13153, , , , 
2025-09-28 19:06:06.738,-2.5794628,-11.3778715,-0.6364908,0.046807513,0.22502731,0.46204284,-39.1875,-26.531252,19.81875,0.56114453,-0.5118117,0.48671085,995.1198, , , , 
2025-09-28 19:06:06.758,-3.7974095,-11.370693,-1.6175481,-0.14256057,0.33559385,1.3728422,-40.95,-26.718752,18.9375,0.5533915,-0.51741505,0.49406794,995.1198, , , , 
2025-09-28 19:06:06.778,-2.5172493,-10.856236,-0.6891329,-0.32887432,0.33192864,2.132147,-40.36875,-25.275002,18.806252,0.54139954,-0.5274412,0.5027276,995.1076, , , , 
2025-09-28 19:06:06.798,-1.0169497,-10.427921,0.9523434,-0.29894194,0.33376125,2.697197,-41.268753,-23.025002,20.456251,0.5291746,-0.53788275,0.5106844,995.1076, , , , 
2025-09-28 19:06:06.818,0.8853444,-11.126625,1.3782659,-0.09674571,0.497473,3.2005496,-45.393753,-22.44375,20.71875,0.5096854,-0.55311126,0.52405864,995.113, , , , 
2025-09-28 19:06:06.838,2.495714,-12.7082815,0.46899325,0.2606102,0.4730384,3.6336527,-45.112503,-17.4375,20.550001,0.48162952,-0.5718255,0.54513216,995.113,37.88829026,127.73989421,146.8349609375,1.05
2025-09-28 19:06:06.858,3.4719856,-14.045869,-0.9810573,0.3589594,0.14744748,3.9745154,-47.775,-13.35,18.431252,0.45811334,-0.58695817,0.5632641,995.0905, , , , 
2025-09-28 19:06:06.878,4.517649,-15.263816,-2.4741786,0.19891284,0.022831071,4.3709664,-46.706253,-9.39375,19.800001,0.4334522,-0.60376143,0.5803919,995.0905, , , , 
2025-09-28 19:06:06.898,5.6446686,-15.914663,-2.495714,-0.0692568,0.0796415,4.7008333,-46.800003,-8.400001,19.893751,0.40544876,-0.62263584,0.5957877,995.0783, , , , 
2025-09-28 19:06:06.918,7.542177,-16.266409,-1.0600204,-0.4473821,0.5646681,5.1156106,-47.4375,-0.975,16.462502,0.3635926,-0.647432,0.6129836,995.0783, , , , 
2025-09-28 19:06:06.938,8.298309,-16.364513,0.5814559,-0.5151881,0.63369584,5.304979,-46.875,3.4125001,18.300001,0.3345029,-0.6619071,0.62249637,995.0849, , , , 
2025-09-28 19:06:06.958,9.891929,-16.177874,1.3208381,-0.16882776,0.23785548,5.3782825,-45.54375,9.806251,15.637501,0.2945192,-0.67950577,0.6344115,995.0849, , , , 
2025-09-28 19:06:06.978,10.336994,-15.728024,-1.902294,0.092011504,-0.85070556,5.278101,-46.612503,13.181251,14.793751,0.2503532,-0.69721687,0.64746886,995.07733, , , , 
2025-09-28 19:06:06.998,11.980863,-15.21596,-4.615755,-0.26778784,-1.4035382,5.1351585,-45.1875,17.41875,16.10625,0.21517861,-0.7139843,0.65386504,995.07733, , , , 
2025-09-28 19:06:07.018,12.966706,-15.232709,-4.0534415,-0.52312934,-1.1005492,5.0203156,-44.9625,17.925001,17.587502,0.20197581,-0.72096777,0.6540708,995.07733, , , , 
2025-09-28 19:06:07.038,13.048062,-14.301901,-0.06460621,-0.795575,0.3661371,4.657462,-39.80625,24.675001,18.525002,0.15583467,-0.74051416,0.6509266,995.04315, , , , 
