Time,Accel_X,Accel_Y,Accel_Z,Gyro_X,Gyro_Y,Gyro_Z,Mag_X,Mag_Y,Mag_Z,Orient_X,Orient_Y,Orient_Z,Pressure,Lat,Lng,Alt,Speed
2026-03-19 21:12:19.330,4.1204405,4.9052863,5.7379885,0.03252855,-0.40133816,0.1432478,-36.45,-11.475,-39.506252,0.32063666,0.07882566,0.61868745,999.6952,37.88749226,127.73733409,174.629150390625,0.0
2026-03-19 21:12:19.350,3.7040894,5.508278,6.4271216,-0.36819875,0.048258316,-0.057115857,-37.0125,-11.700001,-38.98125,0.32159996,0.074627504,0.6181603,999.71136, , , , 
2026-03-19 21:12:19.370,3.5557344,5.178068,6.7094746,-0.48792824,0.29871288,-0.11331542,-37.3875,-11.53125,-38.60625,0.3178777,0.07328183,0.61842346,999.71136, , , , 
2026-03-19 21:12:19.390,3.5940197,5.15414,6.3122663,-0.64919657,0.4648681,-0.22571453,-37.74375,-11.4375,-38.30625,0.31190014,0.07296861,0.6188103,999.71136, , , , 
2026-03-19 21:12:19.410,3.3547373,5.0775695,6.0729837,-0.87399477,0.637132,-0.32223117,-37.987503,-11.34375,-38.362503,0.30357346,0.072919324,0.61906624,999.71136, , , , 
2026-03-19 21:12:19.429,1.8137596,5.5704913,7.647461,-0.9827287,1.1380411,-0.33322674,-38.006252,-11.175,-38.68125,0.2916641,0.07383706,0.6195673,999.7122, , , , 
2026-03-19 21:12:19.450,1.6558332,5.800202,9.858429,-0.787252,1.3836087,-0.07788526,-37.725002,-10.9125,-39.16875,0.27686113,0.078130774,0.6219569,999.7122, , , , 
2026-03-19 21:12:19.470,2.062613,4.4410787,9.394221,-0.68707013,1.084285,0.050396346,-37.3125,-10.6875,-39.9375,0.26341584,0.08316164,0.6259362,999.7122, , , , 
2026-03-19 21:12:19.489,2.4598217,5.355137,8.930014,-0.87277305,0.76907873,0.051618073,-36.5625,-10.368751,-40.8375,0.2518446,0.08560404,0.62948805,999.7122, , , , 
2026-03-19 21:12:19.510,1.7802601,5.474778,8.690732,-0.963181,0.7629701,0.15790854,-35.643753,-9.8625,-41.756252,0.24063869,0.08508314,0.6326278,999.71326, , , , 
2026-03-19 21:12:19.530,1.8711873,3.2303107,7.5517483,-1.0315979,1.1184934,0.24587308,-34.818752,-9.243751,-42.54375,0.2282785,0.08475574,0.6369821,999.71326, , , , 
2026-03-19 21:12:19.549,2.7948167,3.3786657,8.441878,-1.0865757,1.5155555,-0.06444623,-34.162502,-8.3625,-43.3125,0.21300033,0.086451165,0.6419372,999.71326, , , , 
2026-03-19 21:12:19.570,1.4787644,4.7282176,10.19821,-0.97539836,1.9175045,-0.52748173,-33.7125,-7.4812503,-43.95,0.1946698,0.09170747,0.6447231,999.71326, , , , 
2026-03-19 21:12:19.590,1.3064811,6.15434,10.442278,-0.7139482,2.2693627,-0.7987057,-33.1875,-6.6937504,-44.737503,0.17462276,0.10180377,0.64479965,999.7152, , , , 
2026-03-19 21:12:19.609,-0.4977071,4.3118663,9.537791,-0.26068655,2.2962408,-1.14079,-32.41875,-6.01875,-45.675003,0.15466371,0.11684296,0.6422498,999.7152, , , , 
2026-03-19 21:12:19.630,-1.6414764,0.15314065,7.5756764,-0.041996952,1.7269148,-1.0039563,-31.3875,-5.4750004,-46.59375,0.13848282,0.13356952,0.6372374,999.7152, , , , 
2026-03-19 21:12:19.649,-0.70348984,1.1676974,8.087741,-0.28634286,0.98410314,-0.91965693,-29.56875,-5.11875,-47.86875,0.12637033,0.14552574,0.632163,999.7152, , , , 
2026-03-19 21:12:19.670,-1.6414764,4.091727,9.777073,-0.40607235,0.30482152,-1.0259475,-27.750002,-5.0062504,-49.143753,0.11746918,0.15023382,0.626448,999.7165, , , , 
2026-03-19 21:12:19.689,-4.091727,3.3020952,9.073584,-0.44394597,-0.3830122,-0.6850849,-26.1375,-4.96875,-50.23125,0.11233364,0.1494548,0.6196479,999.7165, , , , 
2026-03-19 21:12:19.710,-2.507678,2.9336007,9.174082,-0.5221367,-0.7165444,0.521984,-24.73125,-4.9125004,-51.000004,0.111983664,0.14217652,0.6174623,999.7165, , , , 
2026-03-19 21:12:19.729,1.7898313,4.197011,11.131411,-0.24358234,0.5222894,0.45601055,-24.31875,-4.6875,-51.15,0.11166491,0.13562791,0.6221859,999.7165, , , , 
2026-03-19 21:12:19.750,-0.148355,1.0624132,11.882757,0.0716239,0.5674934,-0.23548837,-24.31875,-4.275,-50.86875,0.106711596,0.13950844,0.62488437,999.7286, , , , 
2026-03-19 21:12:19.769,-0.8662018,0.971486,11.12184,0.39660397,-1.1636974,-0.45417798,-24.50625,-3.80625,-50.643753,0.10713204,0.1410923,0.6220878,999.7286, , , , 
2026-03-19 21:12:19.789,-0.79920274,3.4360933,7.881958,0.2780962,-2.2608106,-0.26603162,-24.750002,-3.5812502,-50.68125,0.12027384,0.13086843,0.61635196,999.7286, , , , 
2026-03-19 21:12:19.810,-1.0336994,5.0392847,8.953942,-0.22525638,-1.6255112,0.055283263,-24.993752,-3.6750002,-50.643753,0.13379104,0.11582562,0.61217207,999.7286, , , , 
2026-03-19 21:12:19.830,-1.2586247,4.3740797,10.222138,-0.16050471,-1.5118903,0.48044515,-25.3875,-3.8437502,-50.456253,0.14150766,0.10250972,0.6116246,999.73773, , , , 
2026-03-19 21:12:19.849,1.0145568,4.034299,7.8628154,0.07040217,-1.2394446,0.9166026,-26.156252,-3.9562502,-49.93125,0.15076889,0.08972172,0.6145411,999.73773, , , , 
2026-03-19 21:12:19.871,2.4598217,2.9766715,7.6331043,0.15225805,0.054366965,0.8347467,-27.150002,-3.8625002,-49.0875,0.15839072,0.081817865,0.6218654,999.73773, , , , 
2026-03-19 21:12:19.889,2.7038896,2.469393,8.882157,0.33551747,0.6701187,0.5085449,-28.331251,-3.45,-48.131252,0.15861148,0.08362469,0.6263389,999.73773, , , , 
2026-03-19 21:12:19.909,0.40677986,3.0197423,10.260424,0.617737,1.0195333,0.15546508,-29.400002,-3.0,-47.34375,0.15718022,0.09146438,0.6300513,999.73517, , , , 
2026-03-19 21:12:19.929,-0.08135597,2.900101,9.537791,0.8205441,0.7825178,0.28619015,-29.962502,-2.71875,-46.93125,0.1563936,0.103178605,0.6323113,999.73517, , , , 
2026-03-19 21:12:19.949,3.2829528,4.2831526,8.312666,0.5517636,-0.018936807,0.08704823,-30.093752,-2.5125,-46.875,0.15835644,0.11236672,0.63460857,999.73517, , , , 
2026-03-19 21:12:19.969,1.727618,2.7852457,8.489735,0.07284562,-0.7373138,-0.26480988,-29.7,-2.5875,-47.081253,0.1632764,0.11288494,0.6335103,999.73517, , , , 
2026-03-19 21:12:19.990,0.7800602,3.359523,9.509077,-0.06887501,-0.9902118,-0.5531381,-29.306252,-2.98125,-47.550003,0.16815951,0.10699933,0.62942153,999.73517, , , , 
2026-03-19 21:12:20.010,-0.7896315,4.685147,8.681161,0.10461059,-0.831387,-0.4896081,-29.268751,-3.45,-47.831253,0.17352752,0.10050385,0.62344134,999.72815, , , , 
2026-03-19 21:12:20.029,-0.61734825,5.111069,8.188239,0.26465717,-0.17898338,-0.14508039,-29.643751,-3.9562502,-47.568752,0.17837195,0.097210474,0.61909515,999.72815, , , , 
2026-03-19 21:12:20.050,0.18664017,4.469793,7.8436728,0.4271472,0.6017018,0.11759147,-30.35625,-4.3875003,-47.193752,0.18044424,0.09984368,0.6184033,999.72815, , , , 
2026-03-19 21:12:20.069,1.1485549,3.9242291,8.456235,0.51633346,1.3176353,0.15546508,-30.825,-4.74375,-46.78125,0.17885977,0.10886715,0.6206003,999.7148, , , , 
2026-03-19 21:12:20.089,0.82313097,3.4313076,8.963513,0.58108515,1.5179989,-0.07666353,-30.91875,-5.0437503,-46.631252,0.17418659,0.12302034,0.6231295,999.7148, , , , 
2026-03-19 21:12:20.109,-0.4881358,3.938586,8.394022,0.3037525,1.0806198,-0.33078328,-30.50625,-5.1937504,-47.0625,0.16906273,0.1366168,0.62362903,999.7148, , , , 
2026-03-19 21:12:20.129,-1.4787644,4.7425747,9.193225,0.0019853106,0.38423395,-0.14630212,-29.681252,-5.55,-47.71875,0.16462429,0.1451909,0.62266016,999.7148, , , , 
2026-03-19 21:12:20.150,-1.6654046,4.7569313,9.317652,-0.17394374,-0.40133816,0.100487255,-28.9125,-6.05625,-48.2625,0.16333678,0.14577101,0.6224073,999.6882, , , , 
2026-03-19 21:12:20.169,-0.9954142,4.7042894,8.676374,-0.2509127,-0.7055488,0.3338376,-28.237501,-6.5625005,-48.7125,0.16543305,0.1401922,0.6231533,999.6882, , , , 
2026-03-19 21:12:20.190,0.5886344,3.991228,8.427522,-0.26557347,-0.5112938,0.43401942,-27.806252,-6.9750004,-49.068752,0.16814676,0.13294116,0.62533754,999.6882, , , , 
2026-03-19 21:12:20.209,1.3878372,3.4504502,8.9348,-0.18493931,-0.14477496,0.26664248,-27.806252,-7.0312505,-49.18125,0.16931678,0.12775066,0.6279622,999.6882, , , , 
2026-03-19 21:12:20.230,0.89013004,3.5988052,9.633504,-0.031001387,0.09224058,0.049174614,-28.06875,-6.7125,-49.10625,0.16892943,0.12600295,0.62944615,999.6874, , , , 
2026-03-19 21:12:20.249,0.19142582,3.9960139,9.858429,0.1754709,0.0971275,-0.032681264,-28.575,-6.3,-48.787502,0.16837235,0.12711832,0.62973106,999.6874, , , , 
2026-03-19 21:12:20.270,0.17228323,4.1443686,9.188439,0.26832235,0.026267186,0.003970621,-29.19375,-6.1687503,-48.3375,0.16949503,0.12890565,0.62942034,999.6874, , , , 
2026-03-19 21:12:20.290,0.22492532,4.2975097,9.025727,0.25488332,0.115453444,0.029626941,-29.625002,-6.1687503,-48.206253,0.17119354,0.13092914,0.62923396,999.6874, , , , 
2026-03-19 21:12:20.310,0.6412765,4.1108694,9.030513,0.27565274,0.23151775,0.032070402,-29.85,-6.2625003,-48.318752,0.17214628,0.13373613,0.62944007,999.6931, , , , 
2026-03-19 21:12:20.330,0.4211368,4.058227,8.906086,0.29397866,0.20341797,-0.021685699,-29.962502,-6.525,-48.45,0.17289689,0.13714011,0.62954783,999.6931,37.88749226,127.73733409,174.629150390625,0.0
2026-03-19 21:12:20.350,-0.11006984,4.2975097,8.776874,0.30497423,0.06291907,-0.032681264,-29.962502,-6.7125,-48.581253,0.1739947,0.14030424,0.62923825,999.6931, , , , 
2026-03-19 21:12:20.369,-0.46899325,4.551149,8.274381,0.26343542,-0.03848448,0.049174614,-30.093752,-7.1062503,-48.675003,0.17605811,0.1423891,0.6287562,999.6931, , , , 
2026-03-19 21:12:20.390,-0.17228323,4.5798626,8.1020975,0.14004076,0.045814857,0.15546508,-30.018751,-7.6687503,-48.7125,0.17797452,0.14355586,0.629017,999.6931, , , , 
2026-03-19 21:12:20.409,0.4833502,4.1491547,8.609376,0.0716239,0.1594357,0.21777329,-29.5125,-8.212501,-48.862503,0.1784139,0.1447186,0.630438,999.69586, , , , 
2026-03-19 21:12:20.429,0.8662018,3.818945,8.800801,0.074067354,0.12400555,0.14691298,-28.706251,-8.681251,-49.031254,0.17827307,0.14588505,0.6321249,999.69586, , , , 
2026-03-19 21:12:20.450,0.79441714,3.790231,8.71466,0.07040217,-0.048258316,0.025961753,-27.675001,-8.887501,-48.99375,0.17853542,0.14660059,0.6329664,999.69586, , , , 
2026-03-19 21:12:20.470,0.15792629,4.240082,8.666803,0.056963142,-0.16676609,-0.014355322,-26.868752,-8.75625,-48.787502,0.1795718,0.14627175,0.6327085,999.69714, , , , 
2026-03-19 21:12:20.489,0.0526421,4.3070807,8.374879,0.039858926,-0.2290743,0.052839804,-26.437502,-8.3625,-48.468754,0.18121387,0.145137,0.632317,999.69714, , , , 
2026-03-19 21:12:20.510,0.51206404,4.2687955,8.671589,0.014202606,-0.0140498895,0.12125666,-26.343752,-8.043751,-48.187504,0.18262665,0.14389957,0.6325631,999.69714, , , , 
2026-03-19 21:12:20.529,0.8279166,3.9290147,9.092726,0.08261946,0.12767074,0.083383046,-26.587502,-7.8,-48.05625,0.18270662,0.14422688,0.6334489,999.69714, , , , 
2026-03-19 21:12:20.549,0.8853444,3.8476589,8.819944,0.13637556,0.049480047,-0.029016078,-26.906252,-7.6312504,-48.093754,0.18292403,0.14547542,0.63386756,999.69714, , , , 
2026-03-19 21:12:20.569,-0.033499517,4.173083,8.322237,0.03252855,-0.09468404,-0.0876591,-27.31875,-7.5937505,-48.187504,0.18367137,0.14622377,0.63324404,999.6952, , , , 
2026-03-19 21:12:20.590,0.16749759,4.2975097,8.504091,-0.07009673,-0.076358095,-0.02535089,-27.768751,-7.4062505,-48.187504,0.18418059,0.14561234,0.63252443,999.6952, , , , 
2026-03-19 21:12:20.609,0.71306115,4.0773697,8.652447,-0.06398808,0.04703659,-0.014355322,-28.125002,-7.05,-48.0,0.183844,0.14483935,0.6324927,999.6952, , , , 
2026-03-19 21:12:20.630,0.35413775,4.2257247,8.652447,0.03375028,0.1753182,-0.13530655,-28.44375,-6.76875,-47.9625,0.18292865,0.14536144,0.632354,999.6937, , , , 
2026-03-19 21:12:20.649,-0.2009971,4.479364,8.781659,0.09117157,0.1423315,-0.18906265,-28.66875,-6.6937504,-47.925003,0.18192293,0.14726917,0.63144153,999.6937, , , , 
2026-03-19 21:12:20.669,-0.27756742,4.479364,8.082955,0.09728022,-0.04092794,-0.19883649,-28.800001,-6.7312503,-47.925003,0.18180525,0.14887111,0.63005006,999.6937, , , , 
2026-03-19 21:12:20.689,-0.9667004,5.096712,6.8051877,-0.043218683,0.06658426,-0.10109812,-28.800001,-6.9750004,-48.075,0.18223935,0.14941229,0.628522,999.6937, , , , 
2026-03-19 21:12:20.709,-1.0959128,5.1828537,7.8197446,-0.26923865,0.42577276,0.22510368,-28.687502,-7.0875,-48.15,0.18009472,0.15027387,0.6290409,999.6937, , , , 
2026-03-19 21:12:20.729,0.31585258,4.063013,10.466207,-0.11041381,0.23273948,0.3130682,-28.687502,-7.0687504,-48.24375,0.1760303,0.15146375,0.6321528,999.69116, , , , 
2026-03-19 21:12:20.750,0.44506502,3.7615173,8.34138,0.10461059,-0.28893903,0.13347395,-28.725,-7.1062503,-48.45,0.17592257,0.15108863,0.6341738,999.69116, , , , 
2026-03-19 21:12:20.770,0.56470615,4.091727,7.2789664,-0.3376555,-0.29749113,-0.04978548,-28.706251,-7.05,-48.581253,0.1780739,0.14865673,0.6343013,999.69116, , , , 
2026-03-19 21:12:20.789,-1.0719845,4.6612186,9.762716,-0.48548478,-0.6725621,-0.10720677,-28.650002,-7.14375,-48.6375,0.17708494,0.14326146,0.6331529,999.69183, , , , 
2026-03-19 21:12:20.810,0.2440679,4.790431,9.293723,-0.39507678,-1.1954623,0.29107708,-28.593752,-7.18125,-48.61875,0.17899384,0.13412951,0.6325375,999.69183, , , , 
2026-03-19 21:12:20.829,0.7800602,4.369294,7.5230346,-0.38774642,-0.96822065,0.34727663,-28.63125,-7.0125003,-48.281254,0.18398646,0.12256374,0.63318056,999.69183, , , , 
2026-03-19 21:12:20.849,0.7465607,4.6899323,8.154739,-0.45860672,-0.09957096,0.41325003,-29.062502,-6.61875,-47.8125,0.18589543,0.113869734,0.6350719,999.69183, , , , 
2026-03-19 21:12:20.870,0.89491564,4.249653,10.30828,-0.046883874,0.695775,0.49266243,-29.812502,-6.05625,-47.381252,0.18230836,0.112398334,0.63918287,999.69183, , , , 
2026-03-19 21:12:20.890,1.4835501,3.9146578,10.657632,0.52977246,0.7654136,0.30573782,-30.50625,-5.5687504,-47.081253,0.17900378,0.11775905,0.64377064,999.695, , , , 
2026-03-19 21:12:20.910,0.148355,4.6085763,8.609376,0.6006328,0.68966633,0.14935644,-31.0125,-5.11875,-47.081253,0.17872386,0.12665921,0.6461549,999.695, , , , 
2026-03-19 21:12:20.929,0.4881358,3.5892339,8.020741,0.0594066,-0.07024945,0.25809038,-31.10625,-4.875,-47.41875,0.17888516,0.13293114,0.6478309,999.695, , , , 
2026-03-19 21:12:20.949,1.0576276,3.6801612,8.097312,-0.4158462,-0.85215634,-0.12064579,-30.862501,-4.8562503,-47.925003,0.1809176,0.12861805,0.6483127,999.7018, , , , 
2026-03-19 21:12:20.970,0.38763726,4.503292,8.63809,-0.45494154,-0.72509646,-0.08643737,-30.54375,-4.7625003,-48.187504,0.1830032,0.11957514,0.6464286,999.7018, , , , 
2026-03-19 21:12:20.990,0.94277215,3.952943,8.800801,-0.1348484,-0.12034036,0.046731155,-30.50625,-4.6875,-48.15,0.18388826,0.113245666,0.6455736,999.7018, , , , 
2026-03-19 21:12:21.010,1.713261,3.5653057,8.398808,0.1339321,0.42699447,-0.05222894,-30.750002,-4.6312504,-47.850002,0.18322368,0.113555625,0.64597005,999.7018, , , , 
2026-03-19 21:12:21.029,0.67477596,3.9433718,7.6713896,0.16203189,0.637132,-0.16707152,-31.1625,-4.425,-47.287502,0.18090436,0.11866326,0.64596003,999.7018, , , , 
2026-03-19 21:12:21.050,-0.2632105,4.465007,8.140383,-0.073761925,0.6359102,-0.06444623,-31.48125,-4.3125,-47.025,0.17724994,0.12419696,0.645965,999.70624, , , , 
2026-03-19 21:12:21.070,0.7322037,4.249653,10.624132,-0.105526894,0.32681265,0.043065965,-31.425001,-4.18125,-47.15625,0.1726701,0.12787865,0.6470023,999.70624, , , , 
2026-03-19 21:12:21.089,-0.22971097,4.2831526,9.221938,0.043524116,-0.19730933,0.043065965,-31.06875,-4.0687504,-47.568752,0.17147811,0.12849501,0.64745796,999.70624, , , , 
2026-03-19 21:12:21.110,0.8039884,4.034299,7.8484583,-0.049327333,-0.19975278,0.101708986,-30.54375,-4.125,-48.16875,0.17349787,0.12661311,0.64758265,999.7084, , , , 
2026-03-19 21:12:21.130,1.1724831,3.6801612,8.346166,-0.05177079,0.29749113,-0.01924224,-30.056252,-4.2000003,-48.6375,0.17365588,0.1255303,0.6480634,999.7084, , , , 
2026-03-19 21:12:21.150,0.8997013,3.8907297,9.250652,0.08384119,0.77763087,-0.17928882,-29.75625,-4.3500004,-48.768753,0.17044348,0.12895681,0.6484088,999.7084, , , , 
2026-03-19 21:12:21.169,0.44027936,3.885944,9.135797,0.1791361,0.89002997,-0.23793183,-29.531252,-4.4812503,-48.73125,0.16570966,0.13614719,0.6481377,999.7084, , , , 
2026-03-19 21:12:21.189,0.86141616,4.302295,11.365908,0.1669188,1.188132,-0.25503606,-29.250002,-4.425,-48.693752,0.16010953,0.14498436,0.647768,999.7084, , , , 
2026-03-19 21:12:21.209,-0.57427746,4.3357944,10.9352,0.482125,0.09957096,-0.22571453,-28.85625,-4.425,-48.80625,0.15675673,0.15265812,0.64665425,999.70667, , , , 
2026-03-19 21:12:21.230,-0.8279166,4.479364,7.786245,0.33551747,-0.48808095,-0.12186752,-28.331251,-4.6312504,-49.218754,0.16066308,0.15497471,0.6442983,999.70667, , , , 
2026-03-19 21:12:21.249,-0.5407779,4.6229334,6.2883377,-0.039553493,-0.47830713,-0.010690134,-27.618752,-4.9875,-49.66875,0.16555043,0.15264897,0.64243203,999.70667, , , , 
2026-03-19 21:12:21.270,-0.076570325,4.6085763,7.2263246,-0.1470657,0.1178969,0.0736092,-27.112501,-5.4,-49.800003,0.16715208,0.14974555,0.6421014,999.70667, , , , 
2026-03-19 21:12:21.289,-0.5407779,3.885944,8.580662,0.010537418,0.47097674,0.16646065,-26.85,-5.775,-49.800003,0.16498208,0.15082088,0.64336973,999.7141, , , , 
2026-03-19 21:12:21.310,-0.11006984,4.197011,9.437292,0.10338886,0.025045456,0.11148282,-26.812502,-5.8875003,-49.687504,0.1630274,0.1535409,0.64513946,999.7141, , , , 
2026-03-19 21:12:21.330,0.55513483,4.287938,7.6139617,-0.2545779,-0.35613418,0.05650499,-26.98125,-5.925,-49.55625,0.16416928,0.153087,0.6458154,999.7141,37.88749226,127.73733409,174.629150390625,0.0
2026-03-19 21:12:21.350,0.06699903,4.402794,9.724431,-0.38163778,-0.5442805,0.032070402,-26.98125,-5.925,-49.48125,0.16468048,0.1479247,0.64569986,999.7307, , , , 
2026-03-19 21:12:21.369,0.23928227,4.5415773,9.375079,-0.10797035,-0.2254091,0.051618073,-27.075,-5.8125,-49.331253,0.16562079,0.14238872,0.64568794,999.7307, , , , 
2026-03-19 21:12:21.389,0.2105684,4.718646,8.882157,0.0716239,0.42577276,0.10537417,-27.431252,-5.64375,-49.0125,0.16553888,0.14187743,0.64626384,999.7307, , , , 
2026-03-19 21:12:21.409,0.37806597,4.6612186,9.0544405,0.21456626,1.0989457,0.13347395,-27.768751,-5.25,-48.656254,0.16231452,0.14738101,0.64801645,999.7307, , , , 
2026-03-19 21:12:21.429,0.59342,3.1345978,10.911271,0.18035783,0.49296787,-0.10354158,-28.06875,-4.78125,-48.35625,0.15721035,0.15588047,0.6500866,999.7307, , , , 
2026-03-19 21:12:21.450,0.35413775,3.8285162,9.757931,0.08261946,-0.84360427,-0.5103775,-27.937502,-4.4625,-48.075,0.15766299,0.15742919,0.6482515,999.7343, , , , 
2026-03-19 21:12:21.470,-1.0959128,4.9531426,8.853444,-0.20204352,-1.382387,-0.4395172,-27.300001,-4.3125,-47.775,0.16373335,0.15011813,0.642746,999.7343, , , , 
2026-03-19 21:12:21.490,-1.0480564,5.4029937,9.040084,-0.1434005,-1.0757328,-0.04734202,-26.737501,-4.2000003,-47.41875,0.1701648,0.13953201,0.6384759,999.7343, , , , 
2026-03-19 21:12:21.510,0.47856453,4.981857,7.7910304,0.113162704,-0.22663084,0.21899502,-26.41875,-4.0125003,-47.193752,0.17524391,0.13286324,0.63735515,999.7343, , , , 
2026-03-19 21:12:21.529,1.1533405,4.197011,7.810173,0.20234896,0.5564978,0.17989968,-26.5125,-3.8437502,-46.893753,0.17644687,0.1337753,0.6388959,999.7471, , , , 
2026-03-19 21:12:21.549,0.31106696,4.479364,9.083155,0.30008733,0.8509346,0.045509428,-26.718752,-3.61875,-46.5,0.17398906,0.1400648,0.6407118,999.7471, , , , 
2026-03-19 21:12:21.570,-0.6652047,4.723432,9.327223,0.41248643,0.62857985,0.094378605,-26.643751,-3.4687502,-46.162502,0.17135964,0.14814378,0.64198935,999.7471, , , , 
2026-03-19 21:12:21.590,-0.47377887,4.517649,8.9826565,0.3575086,0.25228715,0.16523892,-26.343752,-3.4687502,-45.84375,0.17103106,0.15449083,0.64316875,999.7426, , , , 
2026-03-19 21:12:21.610,0.13878371,4.173083,8.719446,0.24266604,-0.16920954,0.088269964,-25.875002,-3.43125,-45.862503,0.17287163,0.15714867,0.6439311,999.7426, , , , 
2026-03-19 21:12:21.630,1.0815558,4.072584,8.571091,0.18157956,-0.3781253,-0.12553272,-25.44375,-3.525,-46.21875,0.17612804,0.15655126,0.64341354,999.7426, , , , 
2026-03-19 21:12:21.649,0.6125626,4.618148,8.049456,0.18157956,-0.27305657,-0.32100943,-25.237501,-3.825,-46.5,0.17957264,0.15526879,0.64115775,999.7426, , , , 
2026-03-19 21:12:21.670,-0.71306115,5.4317074,7.9537425,0.19379686,-0.033597562,-0.24404047,-25.10625,-4.1062503,-46.59375,0.1817715,0.15558486,0.638182,999.7426, , , , 
2026-03-19 21:12:21.690,-0.44506502,5.087141,7.8053875,0.11438443,0.03848448,-0.013133593,-25.087502,-4.2937503,-46.48125,0.18282208,0.15719189,0.63669676,999.7386, , , , 
2026-03-19 21:12:21.710,0.55513483,4.479364,8.097312,-0.016340632,0.005497783,0.014966187,-25.031252,-4.3875003,-46.275,0.18322432,0.1578063,0.6367033,999.7386, , , , 
2026-03-19 21:12:21.730,0.6412765,4.2161536,8.762517,0.015424335,0.04459313,-0.0876591,-24.937502,-4.2937503,-46.18125,0.18297695,0.15785071,0.6367047,999.7386, , , , 
2026-03-19 21:12:21.750,-0.6939186,4.6899323,9.135797,0.1583667,-0.01282816,-0.10476331,-24.900002,-4.125,-46.275,0.18296295,0.1585938,0.6359017,999.72687, , , , 
2026-03-19 21:12:21.770,-0.4977071,4.666004,7.972885,0.21334453,-0.15699224,0.046731155,-24.91875,-4.1062503,-46.3875,0.18469246,0.15940315,0.6350383,999.72687, , , , 
2026-03-19 21:12:21.790,0.6364908,4.2927237,7.04447,0.093615025,-0.04214967,0.07116575,-25.0125,-4.18125,-46.518753,0.18701072,0.15945712,0.634996,999.72687, , , , 
2026-03-19 21:12:21.809,0.15314065,4.2017965,6.8243303,-0.05665771,0.2376264,0.019853106,-25.031252,-4.425,-46.48125,0.18747771,0.15987301,0.6353121,999.72687, , , , 
2026-03-19 21:12:21.829,-0.526421,4.4315076,8.34138,-0.17150028,0.43432486,0.09193515,-24.956251,-4.7625003,-46.36875,0.18477258,0.16154619,0.6363522,999.7158, , , , 
2026-03-19 21:12:21.849,-0.39720857,4.130012,9.413364,-0.14217877,0.22296564,0.16768238,-24.825,-5.0437503,-46.350002,0.18122625,0.16306975,0.63820606,999.7158, , , , 
2026-03-19 21:12:21.870,0.93320084,3.6993039,8.82473,-0.045662142,-0.682336,0.1933387,-24.6375,-4.9500003,-46.4625,0.180764,0.16200633,0.6397591,999.7158, , , , 
2026-03-19 21:12:21.890,1.0624132,4.2257247,8.829515,-0.098196514,-0.40989026,-0.13164136,-24.562502,-4.6125,-46.725002,0.18395948,0.15709007,0.63953656,999.7158, , , , 
2026-03-19 21:12:21.910,0.15792629,4.1587257,7.925029,-0.02489274,-0.45265082,-0.10354158,-24.750002,-4.21875,-46.8375,0.18618311,0.15358484,0.63780975,999.7016, , , , 
2026-03-19 21:12:21.930,0.35413775,5.312066,8.193025,-0.049327333,-0.082466744,-0.11575887,-25.050001,-3.80625,-46.74375,0.18781695,0.15116209,0.63651156,999.7016, , , , 
2026-03-19 21:12:21.950,-0.07178468,4.981857,8.216953,0.008093959,0.032375835,-0.008246674,-25.44375,-3.7687502,-46.3125,0.18773843,0.15089288,0.63580006,999.7016, , , , 
2026-03-19 21:12:21.969,0.086141616,5.1014977,7.853244,0.048411034,0.06169734,0.08093958,-25.837502,-3.9562502,-45.881252,0.18764198,0.15141843,0.6360009,999.7016, , , , 
2026-03-19 21:12:21.989,0.2105684,5.2929235,7.3172517,0.021532983,0.18997894,0.16157374,-26.1,-4.18125,-45.80625,0.18771757,0.15208696,0.6368328,999.7016, , , , 
2026-03-19 21:12:22.009,0.3684947,4.8909297,8.135597,0.045967575,0.53084147,0.22632541,-26.19375,-4.36875,-45.7125,0.1862486,0.15422454,0.6387298,999.6903, , , , 
2026-03-19 21:12:22.029,0.02871387,4.6899323,8.896515,0.21456626,0.8484912,0.25809038,-26.1375,-4.2937503,-45.65625,0.18326323,0.15914875,0.6414919,999.6903, , , , 
2026-03-19 21:12:22.050,0.7896315,4.4985065,9.944571,0.2952004,0.35246897,0.24709481,-25.875002,-4.05,-45.693752,0.18089484,0.16549943,0.64442474,999.6903, , , , 
2026-03-19 21:12:22.069,0.0,5.096712,7.6713896,0.2243401,-0.45998117,0.12125666,-25.425001,-3.80625,-45.61875,0.18274458,0.16781457,0.6453533,999.6791, , , , 
2026-03-19 21:12:22.089,1.0767702,4.8191447,6.34098,-0.3376555,-0.9071342,0.1640172,-24.956251,-3.6375,-45.768753,0.18747534,0.16347273,0.64524,999.6791, , , , 
2026-03-19 21:12:22.110,0.31585258,5.426922,7.570891,-0.49525863,-0.5638282,-0.058337588,-24.6,-3.61875,-46.068752,0.190232,0.15377398,0.64480996,999.6791, , , , 
2026-03-19 21:12:22.130,-0.6987042,6.431907,8.508878,-0.23503022,0.5222894,0.20922118,-24.581251,-3.7125,-46.068752,0.18880075,0.14915012,0.6449669,999.6791, , , , 
2026-03-19 21:12:22.149,-0.2727818,6.0107703,8.796016,0.18280129,1.2614357,0.58307046,-24.806252,-3.7875001,-45.9375,0.18342552,0.15395221,0.6489686,999.661, , , , 
2026-03-19 21:12:22.170,1.0145568,4.8622155,8.9348,0.3733911,1.2614357,0.6490438,-24.91875,-3.80625,-45.787502,0.17786816,0.16392422,0.655465,999.661, , , , 
2026-03-19 21:12:22.189,0.70348984,3.522235,7.7240314,0.25488332,0.8949169,0.36804602,-24.91875,-3.80625,-45.73125,0.17405736,0.1735471,0.6609028,999.661, , , , 
2026-03-19 21:12:22.209,-0.11964113,4.206582,7.8963146,-0.2545779,0.40500334,0.025961753,-24.6,-3.5625002,-45.956253,0.1700255,0.17942774,0.6640211,999.661, , , , 
2026-03-19 21:12:22.229,-0.7322037,5.0536413,9.375079,-0.5038107,-0.56504995,-0.04734202,-23.831251,-3.2625,-46.29375,0.1668747,0.17795345,0.6647083,999.6557, , , , 
2026-03-19 21:12:22.250,0.74177504,3.9960139,9.949356,-0.534354,-1.4666864,-0.11575887,-23.15625,-2.9625,-46.59375,0.16870072,0.16831252,0.6639163,999.6557, , , , 
2026-03-19 21:12:22.271,0.85184485,4.106084,8.915657,-0.14095704,-1.3017528,-0.3197877,-22.837502,-2.49375,-46.818752,0.17716308,0.1513836,0.6596577,999.6557, , , , 
2026-03-19 21:12:22.290,0.023928227,5.2307105,8.288737,0.23533566,-0.50152,-0.27214026,-22.96875,-2.1750002,-46.74375,0.1820332,0.14557426,0.656561,999.6557, , , , 
2026-03-19 21:12:22.309,-0.30149564,5.5274205,7.312466,0.5688678,0.365908,-0.04367683,-23.643751,-1.9875001,-46.425003,0.1856247,0.1471298,0.6542077,999.6576, , , , 
2026-03-19 21:12:22.329,0.33499518,5.2977095,6.9009004,0.41126472,0.46242464,-0.004581486,-24.393751,-1.8375001,-46.125,0.18657294,0.1542696,0.6541906,999.6576,37.88748708,127.73736933,171.2275390625,0.0
2026-03-19 21:12:22.349,0.0526421,5.503492,7.274181,0.03008509,-0.07024945,-0.053450666,-24.91875,-2.0625,-45.7125,0.18663314,0.15888822,0.65419495,999.6576, , , , 
2026-03-19 21:12:22.369,0.20578274,5.3072805,7.9393854,-0.2716821,-0.70799226,-0.0070249448,-24.993752,-2.3812501,-45.45,0.18798769,0.15666619,0.65345466,999.6576, , , , 
2026-03-19 21:12:22.389,-1.5361922,6.719046,7.5756764,-0.2667952,-0.424551,0.083383046,-24.91875,-2.6437502,-45.318752,0.19026764,0.15003677,0.6525937,999.6576, , , , 
2026-03-19 21:12:22.409,-0.14356937,6.202196,7.207182,-0.16539164,0.42699447,0.4572323,-24.956251,-2.8125,-45.206253,0.19025727,0.14715421,0.6543234,999.6591, , , , 
2026-03-19 21:12:22.430,0.16271193,5.15414,7.618747,-0.23258677,0.8032872,0.33750278,-24.975,-2.625,-45.15,0.18600999,0.14933117,0.6587598,999.6591, , , , 
2026-03-19 21:12:22.449,-0.75613195,5.761917,8.547162,-0.28878632,0.65667963,0.23487751,-25.10625,-2.4562502,-45.206253,0.17960636,0.15271686,0.662618,999.6591, , , , 
2026-03-19 21:12:22.469,-0.55513483,5.7427745,8.7577305,-0.3572032,0.6004801,0.3668243,-25.050001,-2.15625,-45.35625,0.17376858,0.15480383,0.6661084,999.6597, , , , 
2026-03-19 21:12:22.489,0.2727818,4.584648,9.293723,-0.39629853,-0.33780822,0.1933387,-24.73125,-1.7812501,-45.393753,0.16865441,0.154718,0.6699029,999.6597, , , , 
2026-03-19 21:12:22.510,0.44027936,5.761917,8.212168,-0.33154687,-0.7629701,0.029626941,-24.281252,-1.575,-45.412502,0.1698276,0.14821029,0.6703921,999.6597, , , , 
2026-03-19 21:12:22.529,0.47856453,5.8193445,7.3746796,-0.10430516,-0.29260424,0.08093958,-24.018751,-1.2,-45.61875,0.17241499,0.14181137,0.669977,999.6597, , , , 
2026-03-19 21:12:22.549,0.38763726,5.919843,7.1066833,0.093615025,0.5247328,0.10293072,-24.187502,-0.90000004,-45.768753,0.17263798,0.14141333,0.6706138,999.6629, , , , 
2026-03-19 21:12:22.569,0.023928227,5.7140603,8.484949,0.22800528,0.92179495,0.18967351,-24.375002,-0.7875,-45.80625,0.1690227,0.14741209,0.6725488,999.6629, , , , 
2026-03-19 21:12:22.590,0.09571291,5.020142,8.379665,0.3526217,0.2999346,0.11026109,-24.468752,-0.45000002,-45.99375,0.16581407,0.15585834,0.6750711,999.6629, , , , 
2026-03-19 21:12:22.609,-0.009571291,5.302495,6.8817577,0.30497423,-0.11178826,-0.013133593,-24.337502,-0.28125,-46.10625,0.1671634,0.15825488,0.67509407,999.6629, , , , 
2026-03-19 21:12:22.629,-0.12921242,6.1639113,6.8051877,0.074067354,-0.29016078,-0.10109812,-23.868752,-0.3375,-46.4625,0.17015581,0.15842478,0.67405397,999.67163, , , , 
2026-03-19 21:12:22.649,-0.46899325,6.364908,6.7525454,0.023976443,-0.022601997,0.11148282,-23.5125,-0.50625,-46.875,0.1722706,0.15756421,0.67308867,999.67163, , , , 
2026-03-19 21:12:22.669,0.6556334,5.6709895,8.030313,0.020311253,0.15332706,0.054061532,-23.306252,-0.8625,-46.875,0.17234392,0.1579255,0.67390865,999.67163, , , , 
2026-03-19 21:12:22.689,0.53599226,5.948557,8.274381,0.17424917,0.19730933,-0.16707152,-23.1375,-1.1625,-46.78125,0.17178215,0.15966055,0.6740011,999.67163, , , , 
2026-03-19 21:12:22.710,-0.8470592,6.6999035,8.1020975,0.2206749,0.27672175,-0.23060146,-23.00625,-1.2750001,-46.55625,0.17147298,0.16301262,0.67258674,999.68353, , , , 
2026-03-19 21:12:22.729,-0.82313097,6.4175506,9.269794,0.14859286,0.23396121,-0.092546016,-22.743752,-1.2750001,-46.331253,0.17078535,0.16695993,0.6713401,999.68353, , , , 
2026-03-19 21:12:22.750,-0.61734825,6.101698,9.15494,0.0923933,-0.36468628,-0.16951497,-22.556252,-1.3312501,-46.3875,0.17131041,0.16816507,0.6704691,999.68353, , , , 
2026-03-19 21:12:22.770,-0.2105684,6.71426,8.135597,-0.061544627,-0.4392118,-0.15607595,-22.48125,-1.4625001,-46.40625,0.1743709,0.16587089,0.6684862,999.68353, , , , 
2026-03-19 21:12:22.790,-0.4546363,6.9344,8.9826565,-0.18738277,-0.21563527,-0.029016078,-22.556252,-1.63125,-46.425003,0.17588155,0.16293842,0.66716856,999.68353, , , , 
2026-03-19 21:12:22.809,0.28713873,6.474978,9.513863,-0.18127412,-0.08124501,0.09682207,-22.650002,-1.7062501,-46.425003,0.17582147,0.16057387,0.66731447,999.69244, , , , 
2026-03-19 21:12:22.829,1.0049855,6.0394845,9.896714,-0.15317434,-0.022601997,0.068722285,-22.987501,-1.8000001,-46.331253,0.17521042,0.15888995,0.6681898,999.69244, , , , 
2026-03-19 21:12:22.849,0.7704889,6.0921264,10.2317095,-0.060322896,0.0140498895,-0.06933315,-23.2875,-2.0062501,-46.331253,0.17457218,0.15784428,0.6685338,999.69244, , , , 
2026-03-19 21:12:22.869,0.29671,6.1591253,9.68136,0.0716239,0.054366965,-0.13530655,-23.38125,-2.0812502,-46.256252,0.1742476,0.15815783,0.66789603,999.69434, , , , 
2026-03-19 21:12:22.889,-0.18664017,5.9916277,8.690732,0.043524116,0.22785257,-0.0754418,-23.53125,-2.04375,-46.18125,0.17394309,0.15970309,0.6670791,999.69434, , , , 
2026-03-19 21:12:22.910,-0.16271193,5.221139,9.083155,-0.10674862,0.4404335,0.0858265,-23.34375,-1.8937501,-46.256252,0.17173076,0.16198152,0.6675391,999.69434, , , , 
2026-03-19 21:12:22.930,0.81834537,4.034299,9.671789,-0.06276636,0.4074468,0.109039366,-23.212502,-1.7437501,-46.2,0.16819061,0.1642637,0.6692234,999.69434, , , , 
2026-03-19 21:12:22.949,2.2205393,3.1058838,9.19801,0.047189303,0.018936807,-0.14019346,-23.23125,-1.81875,-46.2,0.16613357,0.16598818,0.6701345,999.7005, , , , 
2026-03-19 21:12:22.969,2.0051854,3.2973096,8.695518,0.075289086,-0.28038692,-0.39186975,-23.23125,-2.1000001,-46.331253,0.16669573,0.1659828,0.66846395,999.7005, , , , 
2026-03-19 21:12:22.989,1.282553,3.8811584,8.676374,0.09728022,-0.25106543,-0.5079341,-23.25,-2.2875001,-46.3875,0.16853027,0.16499184,0.6648341,999.7005, , , , 
2026-03-19 21:12:23.009,0.1052842,4.4458647,8.489735,0.20601414,-0.05070178,-0.47372565,-23.19375,-2.4,-46.48125,0.16994025,0.1652279,0.6606901,999.7005, , , , 
2026-03-19 21:12:23.029,-0.16749759,4.642076,7.580462,0.22678354,0.18509203,-0.2819141,-22.931252,-2.325,-46.48125,0.17073826,0.16763942,0.6573798,999.7033, , , , 
2026-03-19 21:12:23.049,0.4019942,4.063013,7.82453,0.11560616,0.31459537,-0.2244928,-22.725,-2.2687502,-46.350002,0.17019825,0.17106502,0.65563804,999.7033, , , , 
2026-03-19 21:12:23.070,0.18185452,3.8333018,8.484949,0.09728022,0.16065744,-0.35399613,-22.612501,-2.4562502,-46.350002,0.16866107,0.17413506,0.65409476,999.7033, , , , 
2026-03-19 21:12:23.089,-0.27756742,4.101298,8.087741,0.1547015,-0.16798781,-0.43218684,-22.556252,-2.7375002,-46.331253,0.16843036,0.17586966,0.65121025,999.7033, , , , 
2026-03-19 21:12:23.109,-0.6364908,4.479364,7.058827,0.12904519,-0.26328272,-0.36621344,-22.556252,-3.05625,-46.237503,0.17029412,0.17594266,0.64754015,999.7033, , , , 
2026-03-19 21:12:23.129,-0.79920274,4.421936,7.1880393,0.044745844,-0.04459313,-0.15241076,-22.48125,-3.2812502,-46.162502,0.17182991,0.17566188,0.644844,999.70135, , , , 
2026-03-19 21:12:23.149,-0.33020952,4.0151563,8.135597,0.06307179,0.1594357,-0.027794348,-22.3875,-3.3750002,-45.91875,0.1717553,0.17638965,0.6440447,999.70135, , , , 
2026-03-19 21:12:23.169,0.55034924,3.8141594,8.5423765,0.19257513,0.033597562,-0.091324285,-22.425001,-3.525,-45.6375,0.17151372,0.17806895,0.6438483,999.70135, , , , 
2026-03-19 21:12:23.189,0.65084773,4.072584,7.3459654,0.3110829,-0.2046397,-0.26725334,-22.612501,-3.8625002,-45.675003,0.1733509,0.1793869,0.64223206,999.69775, , , , 
2026-03-19 21:12:23.209,0.023928227,4.4745784,6.0825553,0.21945317,-0.24251331,-0.31245732,-22.743752,-4.2562504,-45.881252,0.17648105,0.18014434,0.63922673,999.69775, , , , 
2026-03-19 21:12:23.230,-0.90448695,5.1349974,6.4701924,0.0044287695,-0.08002329,-0.15729769,-22.81875,-4.59375,-45.881252,0.1785193,0.18019383,0.6364899,999.69775, , , , 
2026-03-19 21:12:23.249,-0.51206404,5.2977095,7.5996046,-0.038331766,0.1594357,0.032070402,-22.743752,-4.9500003,-45.80625,0.17840192,0.18027553,0.6356752,999.69775, , , , 
2026-03-19 21:12:23.269,0.71306115,4.800002,8.556734,0.12293654,0.35124725,0.076052666,-22.5,-5.1375003,-45.600002,0.17708212,0.1819367,0.63660115,999.69244, , , , 
2026-03-19 21:12:23.289,0.23928227,4.7042894,8.1738825,0.25610507,0.30726498,-0.08032872,-22.368752,-5.1937504,-45.375,0.17623661,0.1854187,0.63714653,999.69244, , , , 
2026-03-19 21:12:23.309,-1.3495519,5.5513487,8.283952,0.21823144,0.23029602,-0.092546016,-22.21875,-5.175,-45.43125,0.17612351,0.18921445,0.6364161,999.69244, , , , 
2026-03-19 21:12:23.330,-1.3064811,5.6949177,8.815159,0.2035707,0.11423171,0.14202607,-22.0125,-5.1375003,-45.61875,0.17623131,0.19222423,0.6362022,999.69244,37.88748708,127.73736933,171.2275390625,0.0
2026-03-19 21:12:23.350,-0.24885355,5.178068,8.063812,0.14859286,-0.056810424,0.18967351,-21.9375,-5.15625,-45.675003,0.17759523,0.19369756,0.6371205,999.68567, , , , 
2026-03-19 21:12:23.369,-0.05742774,5.2929235,8.413164,-0.032223117,0.031154104,0.14080434,-21.768751,-5.11875,-45.75,0.1789766,0.1937134,0.63814557,999.68567, , , , 
2026-03-19 21:12:23.390,-0.74177504,5.599205,10.633704,-0.049327333,0.26572618,0.11759147,-21.825,-5.2125,-45.768753,0.17819262,0.1937845,0.63937455,999.68567, , , , 
2026-03-19 21:12:23.410,-1.0001999,5.2929235,11.662618,0.2952004,0.2791652,0.15790854,-21.84375,-5.2125,-45.61875,0.17681323,0.19597486,0.6407417,999.68567, , , , 
2026-03-19 21:12:23.429,-1.1916257,4.924429,9.662218,0.3611738,0.06169734,0.12980877,-21.712502,-5.1375003,-45.6375,0.17797099,0.19944005,0.6415716,999.6848, , , , 
2026-03-19 21:12:23.449,-1.8137596,4.8047876,8.111669,-0.060322896,0.0030543238,0.21288638,-21.581251,-5.25,-45.6375,0.17989203,0.20106073,0.6421079,999.6848, , , , 
2026-03-19 21:12:23.469,-2.0434706,4.4458647,9.9015,-0.47204575,0.16798781,0.3924806,-21.16875,-5.26875,-45.693752,0.17843564,0.19963515,0.6445287,999.6848, , , , 
2026-03-19 21:12:23.490,-1.4117653,3.8141594,11.787045,-0.34865108,0.23151775,0.5244274,-20.868752,-5.175,-46.050003,0.17447385,0.1972036,0.64900327,999.6848, , , , 
2026-03-19 21:12:23.509,-0.7896315,3.3690944,11.078769,-0.029779658,0.16554436,0.4816669,-20.60625,-4.9875,-46.36875,0.17198443,0.19601454,0.6536148,999.6848, , , , 
2026-03-19 21:12:23.529,-0.6125626,3.211168,8.987442,0.06429352,0.08124501,0.36804602,-20.493752,-4.8375,-46.537502,0.17192592,0.19615085,0.6570136,999.6967, , , , 
2026-03-19 21:12:23.550,-0.40677986,3.359523,7.810173,-0.19471315,0.13988803,0.2886336,-20.643751,-4.7625003,-46.66875,0.1717477,0.19599095,0.66019934,999.6967, , , , 
2026-03-19 21:12:23.569,-0.25842485,3.2638102,7.925029,-0.38530296,0.15332706,0.23487751,-20.8125,-4.7625003,-46.6875,0.17000774,0.19512308,0.6622263,999.6967, , , , 
2026-03-19 21:12:23.589,-0.4642076,3.5653057,8.796016,-0.4329504,0.18264857,0.16890411,-21.0,-4.78125,-46.631252,0.16641495,0.19305892,0.66479933,999.70416, , , , 
2026-03-19 21:12:23.609,-0.11006984,3.5605202,8.843872,-0.27412558,0.089797124,0.15546508,-20.962502,-4.6687503,-46.518753,0.16281393,0.1912622,0.6670313,999.70416, , , , 
2026-03-19 21:12:23.629,0.009571291,3.5605202,7.891529,-0.13362667,-0.060475614,0.06017018,-20.75625,-4.40625,-46.537502,0.16118564,0.18972671,0.6684288,999.70416, , , , 
2026-03-19 21:12:23.649,0.16271193,3.804588,6.6329045,-0.10308343,-0.12767074,-0.013133593,-20.643751,-4.0125003,-46.74375,0.1610968,0.18817498,0.6687522,999.70416, , , , 
2026-03-19 21:12:23.669,0.05742774,4.082155,6.1064835,-0.19960007,0.023823727,-0.09010255,-20.550001,-3.525,-46.93125,0.16083698,0.1867011,0.66861093,999.70416, , , , 
2026-03-19 21:12:23.689,-0.38763726,4.3262234,6.4462643,-0.2753473,0.171653,-0.1499673,-20.56875,-3.16875,-47.15625,0.15862326,0.1858973,0.6683871,999.70795, , , , 
2026-03-19 21:12:23.710,-1.2729816,4.666004,6.8817577,-0.22036947,0.18997894,-0.10720677,-20.56875,-3.0375001,-47.193752,0.15521227,0.18579403,0.66812295,999.70795, , , , 
2026-03-19 21:12:23.730,-1.3112668,4.900501,6.661618,-0.16661337,0.11056653,0.044287696,-20.306252,-3.0375001,-47.04375,0.1524861,0.18589585,0.66824543,999.70795, , , , 
2026-03-19 21:12:23.749,-0.36370903,4.723432,6.216553,-0.20815217,0.022601997,0.113926284,-20.1,-3.0937502,-46.85625,0.15088162,0.1853969,0.6691901,999.70795, , , , 
2026-03-19 21:12:23.769,0.07178468,4.790431,6.5659056,-0.25702137,-0.04703659,0.010079269,-19.893751,-3.0375001,-46.85625,0.1495955,0.18375091,0.67020124,999.7065, , , , 
2026-03-19 21:12:23.790,-0.17228323,4.9866424,7.3459654,-0.15317434,0.089797124,-0.08888082,-19.725,-2.8125,-46.96875,0.14815515,0.18216422,0.67042255,999.7065, , , , 
2026-03-19 21:12:23.810,-0.71306115,5.1349974,7.9106717,0.06918044,0.30970845,-0.12064579,-19.650002,-2.53125,-47.11875,0.14630462,0.18308632,0.67006224,999.7065, , , , 
2026-03-19 21:12:23.830,-1.0049855,5.2642097,7.6713896,0.14126249,0.18142684,-0.097432934,-19.556252,-2.2687502,-47.287502,0.14490466,0.18606444,0.66949135,999.6984, , , , 
2026-03-19 21:12:23.849,-1.119841,5.910272,7.6953177,0.03619374,-0.055588696,-0.041233372,-19.44375,-2.1000001,-47.381252,0.14488791,0.18783797,0.6688347,999.6984, , , , 
2026-03-19 21:12:23.870,-0.6939186,6.518049,8.5423765,-0.037110034,-0.21074834,0.03451386,-19.3875,-2.04375,-47.456253,0.14572981,0.1872246,0.6685099,999.6984, , , , 
2026-03-19 21:12:23.890,-0.45942193,6.6424756,9.284152,0.05329795,-0.1924224,0.038179047,-19.35,-2.0812502,-47.475002,0.14724809,0.18563575,0.6684829,999.6984, , , , 
2026-03-19 21:12:23.909,-0.7513463,6.838687,9.710074,0.24755295,-0.115453444,0.03940078,-19.29375,-2.1375,-47.49375,0.14929344,0.18521303,0.66827494,999.6927, , , , 
2026-03-19 21:12:23.929,-0.65084773,6.503692,9.020942,0.35995206,-0.10445788,0.08460477,-19.40625,-2.23125,-47.456253,0.15232804,0.1864207,0.6679338,999.6927, , , , 
2026-03-19 21:12:23.950,-0.3924229,6.2117677,8.997013,0.28053966,-0.055588696,0.05894845,-19.59375,-2.1937501,-47.4,0.15554433,0.18808165,0.66771334,999.6927, , , , 
2026-03-19 21:12:23.969,0.086141616,6.4558353,9.360723,0.15714496,-0.22785257,-0.040011644,-19.650002,-2.2125,-47.34375,0.15802881,0.18900579,0.6673177,999.6927, , , , 
2026-03-19 21:12:23.990,-0.2105684,6.7429743,9.049655,0.03619374,-0.2583958,-0.0962112,-19.66875,-2.4750001,-47.23125,0.1607053,0.18814512,0.6662051,999.69476, , , , 
2026-03-19 21:12:24.009,-1.0480564,6.977471,9.820144,-0.10063997,0.0971275,-0.008246674,-19.66875,-2.7,-47.15625,0.16167314,0.18718924,0.6653707,999.69476, , , , 
2026-03-19 21:12:24.030,-1.7706888,5.986842,11.131411,-0.16294818,0.45875946,0.25198174,-19.59375,-2.98125,-47.175003,0.15943001,0.18797119,0.6665039,999.69476, , , , 
2026-03-19 21:12:24.050,-0.79920274,4.503292,12.155539,-0.17883067,0.5259546,0.45234537,-19.63125,-3.2250001,-47.23125,0.1552723,0.19001439,0.67001045,999.69476, , , , 
2026-03-19 21:12:24.070,0.6269195,3.3643086,11.925828,-0.13240494,0.01527162,0.33139414,-19.725,-3.0,-47.381252,0.15205732,0.19090551,0.67403036,999.70245, , , , 
2026-03-19 21:12:24.089,1.2251252,3.1680973,10.064212,-0.09575305,-0.6346885,-0.013133593,-19.743752,-2.8312502,-47.5875,0.15305594,0.18801156,0.6755495,999.70245, , , , 
2026-03-19 21:12:24.109,0.42592242,4.2687955,9.059227,-0.15317434,-0.6004801,-0.25870124,-19.706251,-2.71875,-47.60625,0.15663835,0.18243161,0.6739796,999.70245, , , , 
2026-03-19 21:12:24.129,-0.40677986,4.8622155,9.437292,-0.05054906,-0.25961754,-0.14019346,-19.78125,-2.4,-47.5125,0.158666,0.17830147,0.6717461,999.70245, , , , 
2026-03-19 21:12:24.149,0.076570325,4.3740797,9.020942,0.048411034,-0.055588696,0.03329213,-19.875,-2.1750002,-47.34375,0.15971974,0.17697532,0.67093986,999.71985, , , , 
2026-03-19 21:12:24.169,0.40677986,3.8811584,8.475378,0.041080657,-0.076358095,0.003970621,-19.95,-1.8750001,-47.0625,0.16050336,0.17686221,0.6709948,999.71985, , , , 
2026-03-19 21:12:24.190,0.64606214,3.8763726,8.489735,0.020311253,-0.07513637,-0.11209369,-20.1375,-1.725,-46.818752,0.16117546,0.17646547,0.67061514,999.71985, , , , 
2026-03-19 21:12:24.209,0.72741807,3.8476589,8.207381,0.09117157,-0.14599667,-0.2538143,-20.34375,-1.81875,-46.706253,0.16182658,0.17627229,0.66929996,999.71985, , , , 
2026-03-19 21:12:24.230,0.18185452,3.885944,7.4943204,0.13637556,-0.22174391,-0.33078328,-20.493752,-1.95,-46.6875,0.16328137,0.17615274,0.6668478,999.71985, , , , 
2026-03-19 21:12:24.249,-0.29671,3.8907297,6.9344,0.12538,-0.20341797,-0.2953531,-20.60625,-2.0062501,-46.706253,0.16513094,0.17599119,0.66396266,999.723, , , , 
2026-03-19 21:12:24.269,-0.06699903,3.8237305,6.4558353,0.19257513,-0.116675176,-0.23793183,-20.681252,-1.9312501,-46.78125,0.16680536,0.17615157,0.66146797,999.723, , , , 
2026-03-19 21:12:24.289,0.15792629,3.8333018,6.096912,0.23167047,-0.056810424,-0.21349724,-20.681252,-2.0062501,-46.65,0.1686041,0.17716943,0.65929276,999.723, , , , 
2026-03-19 21:12:24.309,-0.36370903,3.9673,6.795616,0.2988656,0.06536253,-0.18051054,-20.7,-2.25,-46.425003,0.17015727,0.17899652,0.6573659,999.723, , , , 
2026-03-19 21:12:24.329,-0.7369894,4.254439,7.015756,0.41248643,0.09468404,-0.10598504,-20.831251,-2.3812501,-46.36875,0.17172197,0.18214542,0.6557673,999.7101,37.88749526,127.73737547,173.48974609375,1.2
2026-03-19 21:12:24.351,-0.52163535,4.4985065,6.3074803,0.3037525,0.01282816,0.022296565,-21.0,-2.4562502,-46.331253,0.17401405,0.18547232,0.65467143,999.7101, , , , 
2026-03-19 21:12:24.370,0.07178468,4.3645086,6.652047,0.06918044,-0.06780599,0.03573559,-21.075,-2.3812501,-46.55625,0.1758534,0.18696022,0.6544417,999.7101, , , , 
2026-03-19 21:12:24.389,-0.076570325,4.5272202,7.9680996,0.052076224,-0.059253883,-0.053450666,-21.206251,-2.41875,-46.74375,0.17672405,0.18668531,0.6543153,999.7101, , , , 
2026-03-19 21:12:24.410,-0.94755775,5.1062837,8.484949,0.28787002,0.025045456,-0.06811142,-21.337502,-2.7,-46.74375,0.17772204,0.18738356,0.6535315,999.69946, , , , 
2026-03-19 21:12:24.429,-1.3160524,5.4317074,8.087741,0.4149299,0.08124501,0.08093958,-21.393751,-2.9625,-46.631252,0.17979792,0.19012962,0.65275484,999.69946, , , , 
2026-03-19 21:12:24.449,-1.0001999,5.2402816,7.9776707,0.36850417,-0.058032155,0.22876886,-21.50625,-3.2625,-46.36875,0.18255213,0.19302663,0.6529378,999.69946, , , , 
2026-03-19 21:12:24.469,0.1052842,5.1732826,8.441878,0.2536616,-0.077579826,0.25686863,-21.5625,-3.45,-46.275,0.18595023,0.19421819,0.65388215,999.689, , , , 
2026-03-19 21:12:24.490,0.22013968,4.9722853,9.485149,0.21456626,-0.064140804,0.14935644,-21.54375,-3.6750002,-46.3125,0.18845366,0.19489087,0.654925,999.689, , , , 
2026-03-19 21:12:24.510,-0.6795616,4.910072,9.925428,0.11804962,-0.13255766,0.0027488915,-21.54375,-3.9750001,-46.36875,0.19056039,0.19527493,0.65505004,999.689, , , , 
2026-03-19 21:12:24.529,-1.0959128,4.962714,10.523634,0.019089524,-0.064140804,-9.162972E-4,-21.581251,-4.14375,-46.48125,0.19183192,0.1949513,0.6546445,999.689, , , , 
2026-03-19 21:12:24.549,-1.268196,4.74736,10.461421,-0.072540194,0.082466744,0.068722285,-21.65625,-4.2375,-46.65,0.19180602,0.19472906,0.65473145,999.68054, , , , 
2026-03-19 21:12:24.569,-1.6319051,4.6372905,10.729417,-0.23014331,0.1960876,0.1847866,-21.69375,-4.1625004,-46.725002,0.19009459,0.19458103,0.655948,999.68054, , , , 
2026-03-19 21:12:24.589,-1.6223338,4.1778684,11.021341,-0.31444263,0.19853105,0.30329436,-21.65625,-4.1062503,-46.7625,0.18713653,0.19374381,0.6584868,999.68054, , , , 
2026-03-19 21:12:24.609,-1.5984055,3.6610186,10.4566345,-0.34376416,0.24006985,0.35460702,-21.6375,-4.0875,-46.912502,0.18386453,0.19245608,0.661791,999.68054, , , , 
2026-03-19 21:12:24.630,-1.3447664,3.4456646,9.848858,-0.44638944,0.16065744,0.38026333,-21.54375,-3.9,-46.96875,0.18016122,0.19090322,0.6654873,999.68945, , , , 
2026-03-19 21:12:24.649,-0.57427746,3.0388846,8.743374,-0.5233584,-0.17776164,0.36560258,-21.35625,-3.6562502,-47.04375,0.17700864,0.18734767,0.669137,999.68945, , , , 
2026-03-19 21:12:24.670,0.6125626,2.7086751,6.8817577,-0.56611896,-0.4392118,0.19211698,-21.206251,-3.3937502,-47.34375,0.17564934,0.18104176,0.6718758,999.68945, , , , 
2026-03-19 21:12:24.689,0.8662018,2.8522446,5.599205,-0.5196932,-0.3744601,-0.07177661,-20.98125,-3.0,-47.625,0.17488831,0.1739266,0.6729511,999.68945, , , , 
2026-03-19 21:12:24.709,-0.8853444,3.603591,5.1206403,-0.36819875,-0.045814857,-0.1744019,-21.0375,-2.68125,-47.756252,0.17327492,0.16895014,0.6723752,999.6963, , , , 
2026-03-19 21:12:24.729,-1.4787644,4.106084,4.517649,-0.31444263,0.35246897,0.040622506,-21.337502,-2.325,-47.90625,0.17012785,0.16770487,0.6722816,999.6963, , , , 
2026-03-19 21:12:24.749,-1.0049855,3.871587,5.74756,-0.4561633,0.71043575,0.2800815,-21.675001,-1.95,-47.756252,0.16457343,0.16866136,0.6745981,999.6963, , , , 
2026-03-19 21:12:24.769,-0.7752745,3.8285162,7.570891,-0.45494154,0.67744905,0.35460702,-21.956251,-1.66875,-47.4375,0.15690476,0.17023197,0.6786788,999.6963, , , , 
2026-03-19 21:12:24.790,-0.009571291,3.885944,8.398808,-0.45494154,0.2791652,0.33750278,-21.88125,-1.35,-47.4,0.15047866,0.1706051,0.6828293,999.6884, , , , 
2026-03-19 21:12:24.809,0.5024927,4.0295134,8.379665,-0.50014555,-0.25961754,0.15302163,-21.50625,-1.125,-47.5125,0.14710489,0.16754317,0.685735,999.6884, , , , 
2026-03-19 21:12:24.830,0.52163535,4.924429,8.413164,-0.47571096,-0.3744601,0.014966187,-21.206251,-0.88125,-47.831253,0.1459932,0.16180022,0.68688506,999.6884, , , , 
2026-03-19 21:12:24.849,-0.4642076,5.948557,9.193225,-0.33643377,-0.27794346,0.06627883,-21.09375,-0.54375005,-48.318752,0.14550814,0.15628102,0.68716437,999.6884, , , , 
2026-03-19 21:12:24.870,0.19621146,6.096912,10.279566,-0.016340632,-0.08002329,0.21288638,-21.075,-0.28125,-48.581253,0.14554906,0.15294908,0.68804973,999.6812, , , , 
2026-03-19 21:12:24.889,1.7228323,5.460421,10.12164,0.3037525,-0.2131918,0.05894845,-21.206251,0.13125001,-48.61875,0.14713125,0.15256938,0.68906057,999.6812, , , , 
2026-03-19 21:12:24.909,2.2301106,5.3790655,7.585248,0.41370818,-0.60781044,-0.422413,-21.243752,0.54375005,-48.562504,0.15228532,0.15273215,0.68728673,999.6812, , , , 
2026-03-19 21:12:24.929,-0.10049855,6.6424756,7.2789664,0.18402301,-0.47952884,-0.5897899,-21.112501,0.76875,-48.393753,0.15835702,0.1517132,0.6823007,999.6812, , , , 
2026-03-19 21:12:24.950,-1.5122639,7.4033933,9.413364,0.2035707,-0.1924224,-0.228158,-21.13125,0.8625,-48.2625,0.16141105,0.15123531,0.6779468,999.6633, , , , 
2026-03-19 21:12:24.969,0.17228323,6.202196,8.973084,0.35384342,0.06780599,0.11026109,-21.337502,0.6,-48.16875,0.16399509,0.15277801,0.6767366,999.6633, , , , 
2026-03-19 21:12:24.989,1.2729816,5.771488,8.709874,0.14981459,0.0018325944,-0.021685699,-21.5625,0.13125001,-47.98125,0.16598916,0.15532601,0.67695856,999.6633, , , , 
2026-03-19 21:12:25.009,0.38285163,6.355337,10.226924,-0.19471315,0.1508836,-0.16096286,-21.88125,-0.20625001,-47.7,0.16619445,0.15586464,0.67639536,999.6633, , , , 
2026-03-19 21:12:25.029,-0.41156548,6.5228343,13.552947,-0.2838994,0.5845976,-0.053450666,-22.143751,-0.45000002,-47.568752,0.1622073,0.15659891,0.67633295,999.6672, , , , 
2026-03-19 21:12:25.050,-0.0526421,5.302495,15.002998,0.016646065,0.40500334,0.032070402,-22.237501,-0.63750005,-47.5875,0.15679795,0.15929523,0.6774837,999.6672, , , , 
2026-03-19 21:12:25.069,0.3924229,4.3262234,13.610375,0.29397866,-0.056810424,-0.042455103,-22.21875,-0.61875004,-47.775,0.15551391,0.1617649,0.6778992,999.6672, , , , 
2026-03-19 21:12:25.090,0.8805587,4.197011,11.274981,0.38438666,-0.365908,-0.1291979,-22.050001,-0.61875004,-48.131252,0.1589038,0.16268048,0.6765658,999.6672, , , , 
2026-03-19 21:12:25.109,0.86141616,3.885944,10.0163555,0.3819432,-0.24129158,-0.14385866,-21.88125,-0.80625004,-48.318752,0.16351524,0.16308016,0.6745074,999.6672, , , , 
2026-03-19 21:12:25.130,0.32063824,3.9338005,8.145168,0.30130905,0.027488915,-0.13775001,-21.91875,-1.03125,-48.393753,0.16700059,0.1645084,0.67257625,999.70245, , , , 
2026-03-19 21:12:25.150,-0.4019942,4.182654,8.327023,0.10583232,0.12767074,-0.014355322,-22.125,-1.3125,-48.318752,0.16798744,0.1668763,0.67155427,999.70245, , , , 
2026-03-19 21:12:25.169,-0.11006984,4.0103707,8.269595,-0.007788526,-0.30482152,0.12858704,-22.35,-1.5187501,-48.093754,0.16846068,0.16727144,0.6716745,999.70245, , , , 
2026-03-19 21:12:25.189,0.66041905,3.7328033,7.5086775,-0.016340632,-0.4721985,0.13591741,-22.63125,-1.6125001,-47.86875,0.17117712,0.1641313,0.67207325,999.7131, , , , 
2026-03-19 21:12:25.209,1.0863415,3.0723844,6.2931237,0.011759147,-0.20952661,0.013744458,-22.725,-1.575,-47.71875,0.17407517,0.16115366,0.6720554,999.7131, , , , 
2026-03-19 21:12:25.230,0.56470615,3.3882368,8.097312,-0.22403465,-0.09346231,-0.4639518,-22.725,-1.4625001,-47.550003,0.1740231,0.15956509,0.67099184,999.7131, , , , 
2026-03-19 21:12:25.250,-0.5838487,4.0151563,8.19781,0.023976443,-0.40378162,-0.4101957,-22.875,-1.40625,-47.456253,0.1735344,0.15803264,0.6673667,999.7131, , , , 
2026-03-19 21:12:25.269,-0.3589234,3.9864426,7.3028946,0.22800528,-0.38056874,-0.18661919,-23.0625,-1.44375,-47.25,0.17649405,0.15619816,0.6641631,999.7139, , , , 
2026-03-19 21:12:25.289,-0.3684947,3.8763726,6.695118,0.34529132,0.018936807,-0.030237807,-23.306252,-1.575,-47.04375,0.18004474,0.15623674,0.66223705,999.7139, , , , 
2026-03-19 21:12:25.310,0.44027936,4.0103707,7.776674,0.54565495,0.69088805,0.12125666,-23.625,-1.7812501,-46.987503,0.18090256,0.1610356,0.66230476,999.7139, , , , 
2026-03-19 21:12:25.330,1.0097711,3.6275191,7.34118,0.8107703,0.74464417,0.16279547,-23.85,-2.04375,-46.912502,0.18087073,0.17011754,0.66363466,999.7139,37.88750025,127.7373879,174.0858154296875,1.48
2026-03-19 21:12:25.349,0.8805587,3.871587,6.101698,0.8205441,0.65667963,0.03084867,-23.75625,-2.2875001,-46.93125,0.18227507,0.18039946,0.6643406,999.7139, , , , 
2026-03-19 21:12:25.369,-0.32063824,4.421936,5.4795637,0.54932016,0.6224712,-0.04612029,-23.400002,-2.5687501,-46.893753,0.18340398,0.1897421,0.66404235,999.70135, , , , 
2026-03-19 21:12:25.390,-0.91884387,4.709075,6.5515485,0.14004076,0.2254091,0.09071342,-22.931252,-3.05625,-46.7625,0.18278532,0.1964242,0.6641047,999.70135, , , , 
2026-03-19 21:12:25.409,0.062213387,4.5655055,7.0779696,-0.011453714,-0.16187917,0.20433427,-22.44375,-3.54375,-46.8375,0.183255,0.19731417,0.66497964,999.70135, , , , 
2026-03-19 21:12:25.430,0.9667004,4.024728,8.01117,-0.05421425,-0.15332706,0.088269964,-22.10625,-3.8437502,-47.025,0.18466201,0.1953763,0.66594684,999.70135, , , , 
2026-03-19 21:12:25.449,0.32063824,4.316652,9.183653,0.08994984,-0.1301142,-0.0876591,-21.9375,-4.0875,-47.23125,0.18528153,0.19439633,0.6659372,999.6878, , , , 
2026-03-19 21:12:25.470,-0.124426775,4.618148,8.087741,0.11071924,-0.36468628,-0.118202336,-21.69375,-3.99375,-47.34375,0.1872242,0.193831,0.6646561,999.6878, , , , 
2026-03-19 21:12:25.489,-0.0526421,5.4221363,8.973084,-0.034666575,-0.2290743,-0.12064579,-21.69375,-3.8437502,-47.381252,0.18970548,0.19196856,0.6630405,999.6878, , , , 
2026-03-19 21:12:25.510,0.28713873,4.996214,10.786844,0.08384119,-0.3573559,-0.123089254,-21.7875,-3.99375,-47.30625,0.1908161,0.19057833,0.66194564,999.6854, , , , 
2026-03-19 21:12:25.529,-0.19621146,5.144569,9.676575,0.08261946,-0.51373726,-0.2953531,-22.03125,-4.1625004,-47.325,0.19398724,0.18844707,0.6596979,999.6854, , , , 
2026-03-19 21:12:25.549,-1.6749759,5.7284174,9.781859,-0.19226968,-0.020158539,-0.17562363,-22.3875,-4.4812503,-47.381252,0.19605625,0.18621029,0.6569438,999.6854, , , , 
2026-03-19 21:12:25.569,-2.1631117,5.5130634,12.672389,-0.19593488,0.49418962,0.14691298,-22.612501,-4.78125,-47.193752,0.19296993,0.18621689,0.6572091,999.6854, , , , 
2026-03-19 21:12:25.589,-1.1724831,4.2257247,12.380465,0.17180572,0.40500334,0.22510368,-22.7625,-4.8,-47.025,0.18928237,0.18877013,0.6597293,999.6914, , , , 
2026-03-19 21:12:25.609,-1.0336994,3.938586,10.116854,0.36850417,0.19853105,0.054061532,-22.743752,-4.7250004,-46.8375,0.18871981,0.1923656,0.66118276,999.6914, , , , 
2026-03-19 21:12:25.630,-1.3208381,4.1635113,7.1784678,0.06918044,-0.11423171,-0.0033597562,-22.462502,-4.55625,-46.74375,0.190123,0.19507459,0.6609712,999.6914, , , , 
2026-03-19 21:12:25.649,-2.7469604,4.766503,6.8482585,-0.5111411,-0.14110976,0.19700389,-22.125,-4.40625,-46.95,0.19014865,0.19319126,0.6611737,999.6914, , , , 
2026-03-19 21:12:25.669,-1.0193424,4.139583,9.49472,-0.7371611,-0.04092794,0.55008376,-21.91875,-4.51875,-47.193752,0.18684255,0.18777391,0.6645393,999.7005, , , , 
2026-03-19 21:12:25.689,0.6843473,3.1202407,9.078369,-0.38652468,0.022601997,0.5158753,-21.88125,-4.5750003,-47.362503,0.18353188,0.18239635,0.6694581,999.7005, , , , 
2026-03-19 21:12:25.709,1.727618,2.7948167,7.1688967,-0.14950916,0.0971275,0.11270455,-22.1625,-4.5375004,-47.41875,0.1819329,0.18000934,0.6728064,999.7005, , , , 
2026-03-19 21:12:25.729,0.3062813,3.4648073,5.733203,-0.1385136,0.10445788,-0.18906265,-22.40625,-4.3125,-47.325,0.1803503,0.17963567,0.6731925,999.7005, , , , 
2026-03-19 21:12:25.749,-1.713261,4.421936,5.1876397,-0.2875646,0.2864956,-0.021685699,-22.3875,-3.7875001,-47.193752,0.17785576,0.17979549,0.6725719,999.7005, , , , 
2026-03-19 21:12:25.770,-1.0480564,3.952943,6.843473,-0.5367974,0.26083925,0.3252855,-22.29375,-3.24375,-47.1375,0.1732121,0.18005863,0.67436206,999.7167, , , , 
2026-03-19 21:12:25.790,0.5312066,3.426522,8.4705925,-0.38896814,-0.14966187,0.2886336,-22.21875,-3.0187502,-47.268753,0.16945516,0.17715384,0.67770964,999.7167, , , , 
2026-03-19 21:12:25.809,1.0624132,3.3020952,8.04467,-0.14828743,-0.6298016,0.023518294,-22.143751,-2.9250002,-47.456253,0.16984944,0.17239298,0.67916733,999.7167, , , , 
2026-03-19 21:12:25.830,0.33020952,4.115655,5.9916277,-0.041996952,-0.8460477,-0.26480988,-22.06875,-2.8125,-47.550003,0.17420396,0.16658553,0.6774025,999.7167, , , , 
2026-03-19 21:12:25.849,-0.5838487,5.393422,5.584848,-0.16905683,-0.5112938,-0.16829325,-21.9375,-2.5687501,-47.60625,0.17853042,0.16124335,0.6743811,999.71814, , , , 
2026-03-19 21:12:25.869,-0.44506502,5.709275,7.135397,-0.14462224,-0.0067195124,0.08949169,-21.88125,-2.1937501,-47.5875,0.17962748,0.15787493,0.6734036,999.71814, , , , 
2026-03-19 21:12:25.889,1.8568304,4.2831526,9.236296,0.10583232,0.27305657,0.113926284,-22.143751,-1.95,-47.362503,0.17845799,0.15831153,0.6746531,999.71814, , , , 
2026-03-19 21:12:25.909,0.3397808,6.34098,9.020942,0.3611738,0.076358095,-0.2489274,-22.63125,-1.9125,-47.1375,0.17835341,0.1611296,0.6747578,999.71075, , , , 
2026-03-19 21:12:25.929,-0.18185452,6.6855464,8.437093,0.30986115,-0.42699447,-0.1291979,-23.00625,-1.9312501,-46.893753,0.18123952,0.16352698,0.6724829,999.71075, , , , 
2026-03-19 21:12:25.950,0.2009971,6.326623,8.585447,0.07895427,-0.66034484,-0.1951713,-23.19375,-1.9687501,-46.612503,0.18624672,0.16190155,0.6700948,999.71075, , , , 
2026-03-19 21:12:25.970,-0.20578274,6.771688,9.5760765,-0.012675445,-0.20708317,-0.12797616,-23.325,-2.15625,-46.443752,0.19028717,0.15862665,0.6675817,999.71075, , , , 
2026-03-19 21:12:25.990,0.076570325,6.9152575,10.9352,0.045967575,0.14844014,-0.0070249448,-23.587502,-2.41875,-46.36875,0.19070661,0.15840559,0.66678315,999.71075, , , , 
2026-03-19 21:12:26.009,1.7946169,6.029913,12.346965,0.11804962,0.14844014,-0.027794348,-23.925001,-2.775,-46.350002,0.18988872,0.16041589,0.66716135,999.7103, , , , 
2026-03-19 21:12:26.029,2.2731814,5.5130634,11.4903345,0.1375973,-0.34758207,-0.25625777,-24.2625,-2.98125,-46.143753,0.19138531,0.16074754,0.6660805,999.7103, , , , 
2026-03-19 21:12:26.049,1.7036897,5.063213,11.653047,-0.007788526,-0.3903426,-0.4150826,-24.45,-3.05625,-46.10625,0.19403712,0.15908435,0.66294914,999.7103, , , , 
2026-03-19 21:12:26.069,1.0767702,4.6085763,11.662618,0.10461059,-0.3035998,-0.49449503,-24.393751,-3.0375001,-46.0875,0.19582817,0.15712136,0.65910596,999.71796, , , , 
2026-03-19 21:12:26.090,0.79920274,4.7282176,10.365707,0.33551747,0.018936807,-0.4798343,-24.4125,-3.16875,-46.0125,0.19771254,0.1574973,0.6548585,999.71796, , , , 
2026-03-19 21:12:26.111,0.5694918,4.6229334,8.9013,0.3978257,0.3500255,-0.28802276,-24.4125,-3.5625002,-46.0125,0.19875105,0.16176638,0.6515084,999.71796, , , , 
2026-03-19 21:12:26.129,0.7369894,4.273581,7.8197446,0.13148865,0.4062251,-0.1951713,-24.468752,-4.05,-45.881252,0.19842067,0.16703992,0.64984834,999.71796, , , , 
2026-03-19 21:12:26.149,0.014356935,4.45065,8.585447,-0.15683953,0.47708538,-0.18539746,-24.6375,-4.6875,-45.75,0.19564746,0.17068036,0.64921546,999.7396, , , , 
2026-03-19 21:12:26.169,-0.7609176,4.5798626,9.561719,-0.15439607,0.4648681,-0.031459536,-24.6,-5.175,-45.693752,0.19094062,0.17329207,0.6494257,999.7396, , , , 
2026-03-19 21:12:26.189,-0.11006984,3.723232,9.446864,0.006872229,0.18509203,0.043065965,-24.468752,-5.26875,-45.65625,0.187481,0.17546847,0.6504335,999.7396, , , , 
2026-03-19 21:12:26.210,0.72741807,3.3499517,7.8149586,0.10583232,-0.5516109,-0.22571453,-24.150002,-5.175,-45.825,0.18798268,0.17534153,0.6500826,999.7396, , , , 
2026-03-19 21:12:26.230,0.5072784,3.7280176,5.8097734,-0.029779658,-0.9792162,-0.39920014,-23.643751,-4.9500003,-46.03125,0.19282243,0.17086919,0.64669085,999.74835, , , , 
2026-03-19 21:12:26.249,-0.44027936,4.5798626,5.804988,-0.098196514,-0.62857985,-0.3564396,-23.4375,-4.6687503,-46.068752,0.19756466,0.16475758,0.6420819,999.74835, , , , 
2026-03-19 21:12:26.270,-0.82313097,5.111069,5.919843,0.099723674,0.09957096,-0.098654665,-23.681252,-4.65,-45.975002,0.1995455,0.16212806,0.63917565,999.74835, , , , 
2026-03-19 21:12:26.290,-0.41635114,5.029713,6.096912,0.2707658,0.7214313,0.11514801,-24.0375,-4.7250004,-45.65625,0.19880207,0.16535844,0.63922215,999.74835, , , , 
2026-03-19 21:12:26.309,0.076570325,4.666004,6.206982,0.46624255,1.1062762,0.25076,-24.431252,-4.70625,-45.206253,0.19590728,0.17391537,0.6416282,999.7309, , , , 
2026-03-19 21:12:26.329,-0.3684947,3.885944,5.977271,0.468686,0.9144646,0.24587308,-24.750002,-4.875,-44.9625,0.19295357,0.18429436,0.644637,999.7309,37.88750948,127.73739892,174.45770263671875,1.45
2026-03-19 21:12:26.349,0.26799613,3.9577286,6.283552,0.20479241,0.1508836,0.049174614,-24.6375,-5.15625,-45.018753,0.19188263,0.1910222,0.6467357,999.7309, , , , 
2026-03-19 21:12:26.369,-0.14356937,4.709075,7.0731835,-0.055435978,-0.4819723,-0.10720677,-24.2625,-5.2312503,-45.300003,0.1931313,0.19107886,0.646272,999.7309, , , , 
2026-03-19 21:12:26.390,-0.18664017,4.9579287,7.489535,-0.09697478,-0.5858193,-0.02535089,-23.925001,-5.34375,-45.6375,0.19593108,0.1869438,0.6447368,999.7139, , , , 
2026-03-19 21:12:26.409,0.0,5.072784,7.63789,-0.017562363,-0.31703883,0.043065965,-23.625,-5.4750004,-45.80625,0.19874574,0.18274751,0.6438433,999.7139, , , , 
2026-03-19 21:12:26.430,-0.023928227,5.178068,7.6809607,0.16447534,0.16676609,0.12370012,-23.475,-5.55,-45.787502,0.20025498,0.18167737,0.6438735,999.7139, , , , 
2026-03-19 21:12:26.450,-0.11006984,5.0775695,8.513663,0.22800528,0.5564978,0.19578215,-23.643751,-5.6625004,-45.525,0.20002006,0.18464275,0.6451437,999.7139, , , , 
2026-03-19 21:12:26.469,-0.24885355,5.1158547,9.399008,0.2707658,0.4905244,0.20066908,-23.75625,-5.6625004,-45.225002,0.19850042,0.1897809,0.6472108,999.69775, , , , 
2026-03-19 21:12:26.489,0.09571291,5.0823555,9.987641,0.17302746,0.1802051,0.17867795,-23.625,-5.6062503,-45.15,0.19797857,0.19385824,0.64897645,999.69775, , , , 
2026-03-19 21:12:26.510,0.37806597,4.9722853,10.552348,0.06185006,-0.37323838,-0.021685699,-23.456251,-5.5125003,-45.112503,0.19897208,0.19446021,0.64970016,999.69775, , , , 
2026-03-19 21:12:26.530,-0.11485548,5.45085,9.934999,0.028863361,-0.5907062,-0.16340633,-23.1,-5.4,-45.05625,0.20221063,0.19150184,0.64816856,999.69775, , , , 
2026-03-19 21:12:26.549,-1.5361922,6.2404814,9.016156,-0.06520981,-0.0030543238,0.049174614,-22.7625,-5.4187503,-45.05625,0.20487094,0.18864122,0.6463811,999.6831, , , , 
2026-03-19 21:12:26.569,-1.861616,5.326423,9.915857,-0.22647811,0.70799226,0.4071414,-22.743752,-5.45625,-44.8875,0.20274445,0.18936291,0.648285,999.6831, , , , 
2026-03-19 21:12:26.590,-0.5838487,4.048656,12.413964,-0.32421649,0.53084147,0.49266243,-22.7625,-5.3812504,-44.831253,0.19690265,0.1915366,0.65360993,999.6831, , , , 
2026-03-19 21:12:26.609,-0.32063824,3.6227336,11.940185,-0.22525638,-0.2999346,0.25198174,-22.931252,-5.4187503,-45.0,0.19368428,0.19032215,0.657584,999.6831, , , , 
2026-03-19 21:12:26.629,-0.6125626,4.3740797,9.202796,-0.22769985,-0.5039635,0.1933387,-23.118752,-5.34375,-45.075,0.19509475,0.18540953,0.65876544,999.68695, , , , 
2026-03-19 21:12:26.649,-0.5024927,4.3932223,7.958528,-0.31444263,-0.19486587,0.34483317,-23.19375,-5.26875,-45.300003,0.19632693,0.18032934,0.6600884,999.68695, , , , 
2026-03-19 21:12:26.669,-0.09092726,3.8476589,6.7812595,-0.3914116,0.08857539,0.41080657,-23.38125,-5.2875004,-45.46875,0.19529939,0.17666239,0.66312665,999.68695, , , , 
2026-03-19 21:12:26.689,-0.0526421,3.4983068,5.828916,-0.57589275,0.40500334,0.42180213,-23.362501,-5.11875,-45.393753,0.19170766,0.17416897,0.66714597,999.68695, , , , 
2026-03-19 21:12:26.709,0.23449662,3.2829528,8.671589,-0.6430879,0.87659097,0.39858928,-23.306252,-4.8562503,-45.35625,0.18397091,0.1731608,0.6723302,999.6937, , , , 
2026-03-19 21:12:26.729,-0.0526421,3.4217365,10.356136,-0.1311832,0.7031054,0.24587308,-23.19375,-4.2937503,-45.28125,0.1752013,0.17509764,0.6772003,999.6937, , , , 
2026-03-19 21:12:26.750,-0.5694918,4.2448673,7.1306114,0.19868377,0.06536253,0.16523892,-22.78125,-3.6375,-45.300003,0.1723397,0.17818809,0.6794035,999.6937, , , , 
2026-03-19 21:12:26.769,-0.033499517,4.0965123,5.599205,0.027641632,-0.26572618,0.2751946,-22.368752,-3.24375,-45.525,0.17403507,0.17877817,0.6803742,999.6937, , , , 
2026-03-19 21:12:26.789,0.83748794,4.316652,5.556134,-0.23136504,-0.3866774,0.2678642,-21.806252,-2.98125,-45.881252,0.17643768,0.17576721,0.6818235,999.6952, , , , 
2026-03-19 21:12:26.809,0.80877405,4.871787,6.7334027,-0.31444263,-0.08491021,0.23976442,-21.300001,-2.90625,-46.125,0.17723754,0.17120384,0.68347275,999.6952, , , , 
2026-03-19 21:12:26.829,0.7752745,4.8622155,8.389236,-0.12140937,0.22418737,0.2849684,-21.225,-2.8875,-46.237503,0.17555833,0.16914034,0.68581724,999.6952, , , , 
2026-03-19 21:12:26.849,1.3256238,4.694718,8.298309,0.29642212,0.19853105,0.15546508,-21.393751,-2.7,-46.275,0.1744777,0.17019247,0.6880159,999.6952, , , , 
2026-03-19 21:12:26.869,1.3495519,4.9435716,6.355337,0.41126472,0.037262753,-0.07788526,-21.65625,-2.53125,-46.237503,0.17620862,0.17347321,0.68823206,999.6952, , , , 
2026-03-19 21:12:26.889,0.23928227,5.828916,5.1924253,0.15714496,0.09346231,-0.20250167,-21.768751,-2.5875,-46.125,0.1782929,0.17630234,0.68675756,999.6874, , , , 
2026-03-19 21:12:26.910,0.2105684,6.0921264,7.771888,-0.29856017,0.11300998,-0.0876591,-21.50625,-2.7375002,-46.0875,0.17701438,0.17825651,0.68585384,999.6874, , , , 
2026-03-19 21:12:26.930,1.1964114,5.3790655,10.447063,-0.26313,-0.6298016,-0.20127994,-21.13125,-2.8875,-46.03125,0.17549308,0.17597178,0.68544716,999.6874, , , , 
2026-03-19 21:12:26.949,1.5218352,5.436493,10.289138,-0.16661337,-1.1893537,-0.47128218,-20.90625,-2.90625,-45.91875,0.17927592,0.16892439,0.6824364,999.6874, , , , 
2026-03-19 21:12:26.970,0.28713873,6.0346985,9.312865,-0.018784093,-0.9633338,-0.61055934,-21.0375,-2.5875,-45.862503,0.18564376,0.1609366,0.67675686,999.6742, , , , 
2026-03-19 21:12:26.989,-0.3924229,6.5276203,9.403793,0.043524116,-0.28527385,-0.48349947,-21.45,-2.30625,-45.61875,0.18965457,0.15727738,0.671399,999.6742, , , , 
2026-03-19 21:12:27.009,0.37328035,6.431907,10.782059,0.009315688,0.034819294,-0.41752607,-22.06875,-2.30625,-45.16875,0.1900736,0.15760116,0.66799545,999.6742, , , , 
2026-03-19 21:12:27.030,0.047856454,6.503692,11.629118,0.0386372,-0.053145237,-0.53236866,-22.6875,-2.5875,-44.79375,0.18935962,0.15876004,0.6647787,999.6731, , , , 
2026-03-19 21:12:27.049,-1.0336994,7.025327,11.581262,0.03252855,-0.31826055,-0.38453937,-23.081251,-3.075,-44.5125,0.18967256,0.15909597,0.66090035,999.6731, , , , 
2026-03-19 21:12:27.070,-0.4642076,5.9916277,10.403993,0.054519683,-0.41355544,-0.04978548,-23.400002,-3.5812502,-44.30625,0.19203246,0.15717977,0.6581614,999.6731, , , , 
2026-03-19 21:12:27.090,0.8662018,5.020142,9.638289,0.06062833,-0.048258316,0.113926284,-23.6625,-3.8437502,-44.34375,0.19454984,0.15535659,0.65747255,999.6731, , , , 
2026-03-19 21:12:27.109,1.4356936,3.9290147,9.734002,0.015424335,0.26939136,0.10293072,-23.868752,-3.9750001,-44.456253,0.19458674,0.15593262,0.658427,999.6867, , , , 
2026-03-19 21:12:27.130,1.4739788,3.6227336,9.456435,-0.18371758,0.14844014,-0.09010255,-24.056252,-4.0687504,-44.4,0.19277859,0.15725794,0.6593417,999.6867, , , , 
2026-03-19 21:12:27.149,0.89013004,4.2257247,10.12164,-0.36453354,-0.2254091,-0.2525926,-24.075,-4.0687504,-44.23125,0.19046311,0.15609938,0.65892124,999.6867, , , , 
2026-03-19 21:12:27.169,-0.13399807,4.302295,8.953942,-0.31444263,-0.41722065,-0.14508039,-24.018751,-4.1062503,-44.100002,0.18946871,0.15204626,0.6571453,999.6867, , , , 
2026-03-19 21:12:27.189,0.47856453,3.952943,8.236095,-0.26557347,-0.4062251,-0.058337588,-23.962502,-3.99375,-43.78125,0.18982163,0.14733268,0.65608764,999.69543, , , , 
2026-03-19 21:12:27.209,0.89491564,3.603591,7.389036,-0.116522454,-0.45875946,-0.12186752,-24.018751,-3.80625,-43.5,0.19096605,0.14291063,0.65506023,999.69543, , , , 
2026-03-19 21:12:27.230,0.81834537,3.4217365,6.245267,0.08994984,-0.17653993,-0.27091852,-24.2625,-3.6562502,-43.275,0.19305116,0.14002496,0.65313184,999.69543, , , , 
2026-03-19 21:12:27.249,0.09571291,3.7471602,6.135197,0.26832235,0.29626942,-0.33444846,-24.525002,-3.5812502,-42.91875,0.19396062,0.14129108,0.65071356,999.69543, , , , 
2026-03-19 21:12:27.269,-0.55034924,3.8907297,5.8241305,0.1999055,0.53206325,-0.23915356,-24.750002,-3.7500002,-42.6375,0.192886,0.14655735,0.6488386,999.6993, , , , 
2026-03-19 21:12:27.289,-0.66999036,3.8476589,6.623333,-0.02367101,0.3573559,-0.08643737,-24.825,-3.9750001,-42.318752,0.19035593,0.15118012,0.64820075,999.6993, , , , 
2026-03-19 21:12:27.309,-0.33020952,3.737589,8.078169,0.045967575,0.18631376,0.021074835,-24.656252,-4.1062503,-42.05625,0.18808392,0.15329686,0.6484778,999.6993, , , , 
2026-03-19 21:12:27.329,0.023928227,3.9242291,7.834101,0.3110829,0.01527162,0.032070402,-24.35625,-4.14375,-41.9625,0.18815209,0.15502864,0.64873016,999.6993,37.88751649,127.73741149,174.677490234375,1.42
2026-03-19 21:12:27.349,0.45942193,4.1491547,6.9583282,0.364839,-0.24129158,0.00763581,-24.112501,-4.125,-41.8875,0.19101395,0.15687574,0.6482819,999.6931, , , , 
2026-03-19 21:12:27.369,0.49292147,4.465007,6.5228343,0.16936226,-0.29749113,0.019853106,-23.868752,-4.05,-41.943752,0.19521968,0.15670891,0.6472374,999.6931, , , , 
2026-03-19 21:12:27.391,0.009571291,4.5942197,7.3746796,0.10827578,-0.0140498895,0.1273653,-23.60625,-3.9375002,-41.925003,0.19778751,0.1560034,0.6469236,999.6931, , , , 
2026-03-19 21:12:27.409,0.09092726,4.733003,8.867801,0.25610507,0.262061,0.28619015,-23.625,-3.7500002,-41.68125,0.1983463,0.15745392,0.64830124,999.6931, , , , 
2026-03-19 21:12:27.430,0.7704889,4.4841495,8.451449,0.37705627,0.27305657,0.33017242,-23.6625,-3.61875,-41.381252,0.19929598,0.16078366,0.65060633,999.6897, , , , 
2026-03-19 21:12:27.449,1.2729816,4.15394,8.575876,0.22189663,0.14966187,0.18234314,-23.56875,-3.6000001,-41.11875,0.20064455,0.16406626,0.65265155,999.6897, , , , 
2026-03-19 21:12:27.469,1.8329022,4.436293,9.509077,0.10338886,-0.04092794,-0.04612029,-23.456251,-3.61875,-41.100002,0.201542,0.16559303,0.6534529,999.6897, , , , 
2026-03-19 21:12:27.489,1.1389836,5.058427,9.810573,0.017867794,-0.06902772,-0.21105379,-23.2875,-3.7687502,-41.23125,0.20238645,0.1656326,0.65243536,999.6897, , , , 
2026-03-19 21:12:27.510,-0.043070808,5.8672013,10.2317095,0.008093959,0.14599667,-0.15363249,-23.118752,-4.0875,-41.4,0.2021914,0.16595206,0.6509064,999.6982, , , , 
2026-03-19 21:12:27.529,-0.7082755,5.6757755,10.298709,-0.105526894,0.4159989,0.00763581,-22.96875,-4.18125,-41.5125,0.2004725,0.16769502,0.6505835,999.6982, , , , 
2026-03-19 21:12:27.549,-1.1485549,5.426922,11.23191,-0.25335616,0.28527385,0.11514801,-22.9125,-4.3500004,-41.41875,0.1966733,0.16958545,0.65190303,999.6982, , , , 
2026-03-19 21:12:27.570,-0.7609176,4.74736,10.9352,-0.33521205,-0.011606431,0.23976442,-22.63125,-4.425,-41.325,0.19356593,0.1687912,0.65384614,999.6982, , , , 
2026-03-19 21:12:27.589,-0.02871387,4.0677986,10.60499,-0.32665995,-0.11423171,0.22754712,-22.3125,-4.2375,-41.287502,0.19177735,0.16558792,0.65606093,999.7111, , , , 
2026-03-19 21:12:27.609,0.019142581,4.005585,9.4229355,-0.19471315,0.009162972,0.1725693,-22.087502,-4.21875,-41.2125,0.19057347,0.1626534,0.6578225,999.7111, , , , 
2026-03-19 21:12:27.629,-0.12921242,3.9481573,8.5423765,-0.20570871,0.28893903,0.1933387,-21.84375,-4.0687504,-41.30625,0.188876,0.16161023,0.6595258,999.7111, , , , 
2026-03-19 21:12:27.649,0.02871387,3.723232,9.025727,-0.3254382,0.43554658,0.24587308,-21.768751,-3.7125,-41.456253,0.18509431,0.1620809,0.6621045,999.7111, , , , 
2026-03-19 21:12:27.669,0.11485548,3.4456646,9.643075,-0.34498587,0.3488038,0.20311254,-21.618752,-3.16875,-41.5875,0.18018168,0.16226064,0.6651023,999.7111, , , , 
2026-03-19 21:12:27.690,0.019142581,3.4695928,8.800801,-0.2423606,0.11178826,0.12247839,-21.2625,-2.4750001,-41.71875,0.17634799,0.1617163,0.6673234,999.7239, , , , 
2026-03-19 21:12:27.710,0.22013968,3.6179478,7.537391,-0.17760894,-0.023823727,0.082161315,-20.8875,-1.7812501,-41.8125,0.17449756,0.16039236,0.6685725,999.7239, , , , 
2026-03-19 21:12:27.729,0.09571291,3.8333018,6.690332,-0.08353576,0.051923506,0.06750056,-20.475,-1.40625,-41.925003,0.1736067,0.15917635,0.66934067,999.7239, , , , 
2026-03-19 21:12:27.749,0.45942193,3.7950168,6.0825553,-0.041996952,0.2535089,0.045509428,-20.175001,-1.1625,-42.09375,0.17255473,0.15947053,0.6701099,999.73773, , , , 
2026-03-19 21:12:27.769,0.37328035,3.8907297,6.0346985,0.041080657,0.2535089,-0.044898562,-20.081251,-1.2,-42.46875,0.17072652,0.16114783,0.67073655,999.73773, , , , 
2026-03-19 21:12:27.789,-0.37806597,4.249653,5.3312087,0.075289086,0.126449,-0.04367683,-20.15625,-1.4250001,-42.825,0.16971643,0.16320643,0.6706081,999.73773, , , , 
2026-03-19 21:12:27.810,-0.49292147,4.7042894,5.4317074,-0.010231985,0.064140804,0.074830934,-20.00625,-1.5562501,-43.068752,0.1694766,0.16438843,0.6706241,999.73773, , , , 
2026-03-19 21:12:27.830,-0.4019942,4.8239303,6.4845495,-0.011453714,0.12278382,0.15668681,-19.706251,-1.85625,-43.275,0.1690335,0.16478764,0.67152107,999.7324, , , , 
2026-03-19 21:12:27.849,-0.2105684,4.9340005,6.719046,0.0129808765,0.12522727,0.15668681,-19.59375,-1.95,-43.3125,0.16853535,0.16555032,0.67284006,999.7324, , , , 
2026-03-19 21:12:27.870,-0.19621146,5.1589255,7.379465,-0.0810923,0.11056653,0.11148282,-19.3125,-1.8375001,-43.36875,0.16795242,0.16616707,0.67406136,999.7324, , , , 
2026-03-19 21:12:27.889,-0.79441714,5.905486,9.250652,-0.08231403,0.018936807,0.120034926,-19.10625,-1.63125,-43.443752,0.1669041,0.16609663,0.67514133,999.7324, , , , 
2026-03-19 21:12:27.909,-0.44506502,6.355337,9.676575,0.09850194,-0.1960876,0.17012584,-19.03125,-1.2375001,-43.4625,0.16742939,0.16541123,0.6760105,999.7324, , , , 
2026-03-19 21:12:27.929,0.52163535,6.532406,8.920443,0.12904519,-0.1924224,0.14813471,-18.75,-0.75,-43.4625,0.1701794,0.16461384,0.67659736,999.71606, , , , 
2026-03-19 21:12:27.950,0.55034924,6.513263,9.556933,0.025198173,-0.037262753,0.047952887,-18.6,-0.3,-43.331253,0.17223878,0.16405426,0.67698056,999.71606, , , , 
2026-03-19 21:12:27.969,0.023928227,6.2548385,10.60499,-0.032223117,0.13622284,-0.0058032153,-18.54375,0.09375,-43.3125,0.17223682,0.16426133,0.6771966,999.71606, , , , 
2026-03-19 21:12:27.990,-0.32063824,6.4462643,11.767901,-0.033444848,0.0971275,-0.014355322,-18.4125,0.43125,-43.350002,0.17094754,0.1650994,0.67742604,999.71606, , , , 
2026-03-19 21:12:28.009,0.4642076,6.4462643,11.743974,0.025198173,-0.28038692,-0.0033597562,-18.375,0.58125,-43.4625,0.17104219,0.16489851,0.67736965,999.7124, , , , 
2026-03-19 21:12:28.030,1.3304094,6.0107703,11.19841,0.021532983,-0.4062251,-0.10354158,-18.431252,0.675,-43.7625,0.1734457,0.16279322,0.67655504,999.7124, , , , 
2026-03-19 21:12:28.050,0.9762716,5.4699926,11.021341,0.099723674,-0.31826055,-0.15118903,-18.712502,0.8625,-44.0625,0.17628697,0.16047458,0.67489314,999.7124, , , , 
2026-03-19 21:12:28.069,0.6795616,4.5128636,10.686346,0.23777911,0.033597562,-0.092546016,-19.10625,0.99375004,-44.34375,0.17852476,0.16014501,0.6733808,999.7165, , , , 
2026-03-19 21:12:28.090,0.8709874,3.871587,10.021141,0.23900084,0.30604327,-0.09010255,-19.44375,1.125,-44.4375,0.17929965,0.16269585,0.67258054,999.7165, , , , 
2026-03-19 21:12:28.110,0.9619147,3.5174494,9.547362,0.07651082,0.31826055,-0.11942407,-19.800001,1.1812501,-44.41875,0.1783019,0.166304,0.6721935,999.7165, , , , 
2026-03-19 21:12:28.129,0.9523434,3.6466618,9.178867,-0.17272201,0.23273948,-0.21105379,-19.96875,1.10625,-44.362503,0.17608592,0.16835512,0.6717254,999.7165, , , , 
2026-03-19 21:12:28.149,0.09571291,3.900301,9.102298,-0.40485063,0.15210533,-0.28924447,-20.0625,1.0875001,-44.34375,0.17247541,0.16841401,0.6708147,999.736, , , , 
2026-03-19 21:12:28.169,-0.8039884,4.082155,9.5760765,-0.4903717,0.082466744,-0.22204934,-20.268751,1.0875001,-44.550003,0.16790241,0.16684069,0.669854,999.736, , , , 
2026-03-19 21:12:28.190,-1.2777673,4.0438704,9.858429,-0.30589053,-0.10079269,-0.038789913,-20.306252,1.25625,-44.737503,0.16413218,0.16433354,0.66943157,999.736, , , , 
2026-03-19 21:12:28.209,-0.44985065,3.5605202,8.34138,0.010537418,-0.30115634,0.13347395,-20.25,1.4625001,-44.86875,0.16391966,0.16170116,0.66964054,999.736, , , , 
2026-03-19 21:12:28.230,0.59342,2.8139594,6.570691,0.29153523,-0.24495678,0.0858265,-20.212502,1.5375,-44.925003,0.1668747,0.160014,0.6699251,999.7432, , , , 
2026-03-19 21:12:28.249,0.8039884,2.6751757,5.45085,0.46257734,0.053145237,-0.085215636,-20.2875,1.7062501,-44.850002,0.17056033,0.16094406,0.6693559,999.7432, , , , 
2026-03-19 21:12:28.269,-0.23928227,3.0580273,5.096712,0.5236638,0.43799004,-0.15851942,-20.456251,1.725,-44.737503,0.1726409,0.165734,0.668,999.7432, , , , 
2026-03-19 21:12:28.289,-1.1246266,3.8141594,6.04427,0.34284785,0.5540544,-0.014355322,-20.643751,1.6500001,-44.60625,0.1723955,0.17268531,0.66724706,999.7432, , , , 
2026-03-19 21:12:28.309,-0.93320084,4.1443686,8.1738825,0.26465717,0.26328272,0.21166465,-20.925001,1.575,-44.4,0.17126548,0.17801283,0.66799265,999.73004, , , , 
2026-03-19 21:12:28.329,0.37328035,3.7567315,8.585447,0.48579022,-0.06536253,0.21288638,-21.0,1.4250001,-44.325,0.17273977,0.1808518,0.6693101,999.73004,37.88752471,127.73742452,174.83172607421875,1.48
2026-03-19 21:12:28.354,0.51206404,3.938586,6.206982,0.7460186,-0.055588696,-0.016798781,-20.868752,1.2375001,-44.456253,0.17923746,0.18461056,0.6688743,999.73004, , , , 
2026-03-19 21:12:28.369,-0.13878371,4.546363,5.3647084,0.6250674,0.022601997,-0.030237807,-20.79375,1.06875,-44.68125,0.18324424,0.18805093,0.6676901,999.73004, , , , 
2026-03-19 21:12:28.389,-0.8327023,5.3647084,6.364908,0.3074177,0.12156209,0.15424335,-20.8125,0.84375006,-44.925003,0.1864075,0.19191574,0.6669889,999.73004, , , , 
2026-03-19 21:12:28.409,0.15792629,5.015356,7.810173,0.14859286,0.13622284,0.36438084,-20.831251,0.54375005,-45.15,0.18762667,0.19403267,0.6685224,999.72156, , , , 
2026-03-19 21:12:28.429,1.4452649,4.4985065,8.3174515,0.1375973,0.07513637,0.2751946,-20.925001,0.112500004,-45.2625,0.18852392,0.19510786,0.67091453,999.72156, , , , 
2026-03-19 21:12:28.449,1.4500505,4.570291,8.073383,0.09605849,0.0140498895,0.05894845,-21.09375,-0.41250002,-45.131252,0.18963392,0.19582348,0.67217696,999.72156, , , , 
2026-03-19 21:12:28.469,0.22492532,5.5274205,9.049655,-0.0016798781,0.017715078,0.046731155,-21.075,-0.75,-45.018753,0.19008385,0.1962377,0.6723922,999.72156, , , , 
2026-03-19 21:12:28.489,0.44985065,5.5369916,9.250652,-0.09697478,0.103236146,0.15790854,-20.94375,-0.88125,-45.018753,0.18988496,0.19614127,0.6730599,999.7148, , , , 
2026-03-19 21:12:28.510,0.4019942,4.6325045,9.518648,-0.52824533,0.1802051,0.13836087,-20.90625,-0.90000004,-44.98125,0.18798256,0.19535533,0.67486745,999.7148, , , , 
2026-03-19 21:12:28.530,-0.5072784,4.331009,12.729816,-0.9082032,0.10690133,0.14691298,-20.681252,-0.80625004,-45.112503,0.18260738,0.19184035,0.67737657,999.7148, , , , 
2026-03-19 21:12:28.549,-0.3924229,3.790231,15.227923,-0.7188351,-0.19364414,0.050396346,-20.550001,-0.73125005,-45.412502,0.17634511,0.18556502,0.6800806,999.7137, , , , 
2026-03-19 21:12:28.569,-0.6029913,3.842873,14.395221,-0.0810923,-0.44532043,-0.18784092,-20.475,-0.45000002,-45.6375,0.17418173,0.17976895,0.6804877,999.7137, , , , 
2026-03-19 21:12:28.589,-1.1964114,4.1491547,10.193424,0.35139996,-0.5039635,-0.32956156,-20.325,0.01875,-45.768753,0.17743185,0.17738816,0.67778915,999.7137, , , , 
2026-03-19 21:12:28.610,-1.6701902,4.465007,6.4031935,0.1791361,-0.37079492,-0.23915356,-20.41875,0.35625002,-45.787502,0.18221007,0.17704567,0.6741419,999.7137, , , , 
2026-03-19 21:12:28.629,-1.6127625,4.2592244,5.029713,-0.28267768,-0.18142684,-0.022907428,-20.71875,0.50625,-45.73125,0.18443078,0.17567874,0.67212874,999.7137, , , , 
2026-03-19 21:12:28.649,-1.4787644,3.7806597,6.1734824,-0.6699659,0.12156209,0.1640172,-21.112501,0.3,-45.61875,0.18216299,0.17234452,0.67292047,999.7271, , , , 
2026-03-19 21:12:28.669,-1.4883357,3.6370904,7.8867435,-0.7163917,0.32314748,0.3167334,-21.5625,-0.09375,-45.45,0.17616528,0.16874884,0.675928,999.7271, , , , 
2026-03-19 21:12:28.689,-1.1294123,3.4073794,8.681161,-0.5355757,0.16920954,0.48899725,-21.825,-0.26250002,-45.3375,0.16989315,0.16583885,0.6801792,999.7271, , , , 
2026-03-19 21:12:28.710,-0.086141616,2.9718857,7.2119675,-0.47204575,-0.26572618,0.51465356,-21.88125,-0.01875,-45.3375,0.16680078,0.16188876,0.68456227,999.73346, , , , 
2026-03-19 21:12:28.729,1.2155539,2.8570302,6.719046,-0.5441278,-0.4489856,0.37659815,-21.806252,0.45000002,-45.46875,0.16647168,0.15520276,0.688116,999.73346, , , , 
2026-03-19 21:12:28.749,1.995614,2.928815,7.0061846,-0.42073312,-0.2376264,0.07238748,-21.825,1.06875,-45.600002,0.16617663,0.14831974,0.690221,999.73346, , , , 
2026-03-19 21:12:28.769,0.63170516,3.8811584,7.704889,-0.10430516,0.06169734,-0.2367101,-22.0125,1.5937501,-45.9,0.16476607,0.14523454,0.6901968,999.73346, , , , 
2026-03-19 21:12:28.789,-0.6029913,4.833502,7.135397,0.11194097,0.109344795,-0.22204934,-22.29375,1.8750001,-45.99375,0.163724,0.14596024,0.6886507,999.7326, , , , 
2026-03-19 21:12:28.810,-0.80877405,5.302495,7.0492554,0.099723674,0.14355323,-0.022907428,-22.556252,2.0062501,-45.787502,0.16350421,0.14803413,0.6875074,999.7326, , , , 
2026-03-19 21:12:28.830,-0.06699903,5.0440702,7.393822,0.048411034,0.016493348,0.08460477,-22.556252,2.1375,-45.862503,0.16335855,0.14958087,0.68773544,999.7326, , , , 
2026-03-19 21:12:28.849,0.4211368,5.1349974,7.9106717,0.026419902,-0.04703659,0.011300999,-22.331251,2.23125,-45.956253,0.16383825,0.14986253,0.68815655,999.7326, , , , 
2026-03-19 21:12:28.869,0.46899325,5.680561,8.796016,0.1632536,-0.064140804,-0.10720677,-22.10625,2.23125,-46.0125,0.16461918,0.15004787,0.6878294,999.72797, , , , 
2026-03-19 21:12:28.889,0.3397808,6.3361945,8.236095,0.24022257,-0.064140804,-0.1414152,-21.956251,2.30625,-46.143753,0.16643503,0.15125886,0.68651795,999.72797, , , , 
2026-03-19 21:12:28.909,0.2727818,6.5850477,8.5423765,0.12660173,0.06658426,-0.0754418,-22.050001,2.1750002,-46.10625,0.16801094,0.15284047,0.685285,999.72797, , , , 
2026-03-19 21:12:28.929,0.2009971,6.168697,10.107283,0.14126249,0.25228715,-0.01924224,-22.2,2.0062501,-45.862503,0.1678879,0.1547822,0.6849547,999.72797, , , , 
2026-03-19 21:12:28.950,0.16749759,5.656633,10.485349,0.14737113,0.22663084,-0.058337588,-22.2,1.9312501,-45.80625,0.16718166,0.15772414,0.684969,999.7158, , , , 
2026-03-19 21:12:28.969,0.2536392,6.1591253,10.595419,0.03619374,-0.056810424,-0.11453715,-22.237501,1.725,-45.881252,0.16694595,0.15967532,0.68447536,999.7158, , , , 
2026-03-19 21:12:28.990,0.4546363,6.1591253,10.767702,-0.12018765,-0.091018856,-0.12064579,-22.2,1.4250001,-45.975002,0.16738543,0.1590575,0.68352467,999.7158, , , , 
2026-03-19 21:12:29.010,1.0241281,5.8432727,12.500106,-0.13240494,0.1594357,-0.13897173,-22.21875,1.1437501,-46.162502,0.16618577,0.15829688,0.6829081,999.7158, , , , 
2026-03-19 21:12:29.029,1.0049855,4.871787,13.045669,0.017867794,0.13133593,-0.19761476,-22.3125,0.76875,-46.29375,0.16418307,0.15899664,0.68228465,999.7218, , , , 
2026-03-19 21:12:29.049,0.60777694,4.082155,12.189038,0.18890993,-0.031154104,-0.22937973,-22.29375,0.52500004,-46.425003,0.16376844,0.16026466,0.6808523,999.7218, , , , 
2026-03-19 21:12:29.069,1.0624132,3.5557344,10.317851,0.2451095,-0.023823727,-0.23060146,-22.06875,0.50625,-46.612503,0.16520725,0.16159266,0.67886496,999.7218, , , , 
2026-03-19 21:12:29.090,1.1006985,3.2925239,8.9826565,0.18646647,0.053145237,-0.31734425,-21.9375,0.46875003,-46.78125,0.16641097,0.16340177,0.67678756,999.7218, , , , 
2026-03-19 21:12:29.109,0.4642076,3.574877,7.9346,0.026419902,0.14355323,-0.377209,-22.03125,0.39375,-46.912502,0.16631493,0.16535547,0.67431456,999.7452, , , , 
2026-03-19 21:12:29.129,-0.038285162,3.7136607,7.609176,-0.1763872,0.15821397,-0.33444846,-22.050001,0.16875,-47.11875,0.16437103,0.16673827,0.6720762,999.7452, , , , 
2026-03-19 21:12:29.150,-0.7465607,3.6849468,7.8580294,-0.33032513,0.089797124,-0.2489274,-22.25625,-0.20625001,-47.100002,0.16128722,0.16660579,0.6705082,999.7452, , , , 
2026-03-19 21:12:29.169,-1.2969099,3.804588,8.652447,-0.21670428,0.04459313,-0.11575887,-22.3875,-0.46875003,-47.006252,0.15807624,0.16545543,0.6696289,999.7452, , , , 
2026-03-19 21:12:29.189,-0.6795616,3.493521,7.9633136,0.0594066,-0.005497783,-0.015577052,-22.2,-0.45000002,-46.96875,0.15673842,0.16487703,0.66932964,999.7452, , , , 
2026-03-19 21:12:29.209,-0.043070808,3.1680973,6.5659056,0.2084576,0.026267186,-0.02046397,-22.1625,-0.26250002,-46.818752,0.15758166,0.16573039,0.6690399,999.75134, , , , 
2026-03-19 21:12:29.229,0.63170516,2.9048867,6.9822564,0.29397866,0.17043127,-0.17806709,-22.050001,-0.15,-46.706253,0.15855372,0.16782106,0.6683643,999.75134, , , , 
2026-03-19 21:12:29.249,0.4211368,3.1106694,6.977471,0.47723812,0.13377939,-0.34666577,-21.9375,-0.26250002,-46.800003,0.1594785,0.17163327,0.6664561,999.75134, , , , 
2026-03-19 21:12:29.269,-0.8566305,3.603591,6.3457656,0.5261073,-0.06291907,-0.34544402,-21.84375,-0.63750005,-46.85625,0.16189703,0.1760341,0.6631346,999.75134, , , , 
2026-03-19 21:12:29.290,-1.0241281,4.139583,5.426922,0.40882125,-0.23029602,-0.15241076,-21.7875,-1.06875,-46.706253,0.16577703,0.17894712,0.6600031,999.75006, , , , 
2026-03-19 21:12:29.310,-0.4881358,4.536792,5.2642097,0.23900084,-0.20097451,0.076052666,-21.768751,-1.4250001,-46.575,0.16969131,0.17985085,0.6584379,999.75006, , , , 
2026-03-19 21:12:29.329,0.18664017,4.5320063,5.852844,0.11682789,0.031154104,0.22510368,-21.806252,-1.7062501,-46.518753,0.17248173,0.18000704,0.6586417,999.75006,37.88753331,127.73743751,174.65777587890625,1.49
2026-03-19 21:12:29.349,0.41635114,4.2927237,7.972885,0.13148865,0.28160867,0.22999059,-22.0125,-1.9312501,-46.48125,0.17295995,0.18122347,0.66032493,999.72754, , , , 
2026-03-19 21:12:29.370,0.062213387,4.666004,9.284152,0.20723587,0.25961754,0.17134757,-22.125,-2.1937501,-46.518753,0.17251198,0.18397772,0.6620367,999.72754, , , , 
2026-03-19 21:12:29.390,-0.41156548,4.9435716,9.633504,0.19746204,0.018936807,0.1725693,-22.1625,-2.4,-46.55625,0.1729583,0.18640092,0.6631937,999.72754, , , , 
2026-03-19 21:12:29.409,-0.09571291,5.144569,9.595219,0.15958843,-0.07880156,0.19578215,-22.125,-2.49375,-46.443752,0.17474324,0.1871187,0.6640788,999.72754, , , , 
2026-03-19 21:12:29.430,0.44506502,5.15414,9.432507,0.14370593,-0.007941242,0.14569125,-21.88125,-2.5500002,-46.36875,0.17657454,0.18739349,0.665003,999.719, , , , 
2026-03-19 21:12:29.449,0.42592242,5.0823555,9.126225,-0.037110034,0.045814857,0.041844238,-21.806252,-2.5500002,-46.425003,0.17738195,0.18786164,0.6656438,999.719, , , , 
2026-03-19 21:12:29.469,0.0,5.1158547,9.920643,-0.21914774,0.055588696,-0.01924224,-21.806252,-2.5500002,-46.59375,0.17632006,0.18737368,0.666057,999.719, , , , 
2026-03-19 21:12:29.489,-0.64606214,5.020142,10.729417,-0.24724752,0.21441354,3.054324E-4,-21.7875,-2.5875,-46.85625,0.17395128,0.1865161,0.6665623,999.719, , , , 
2026-03-19 21:12:29.510,-1.6606189,4.6803613,11.08834,-0.27412558,0.32925612,0.12614357,-21.9375,-2.71875,-46.987503,0.17041758,0.18670586,0.6677564,999.7254, , , , 
2026-03-19 21:12:29.530,-1.7036897,3.871587,12.576675,-0.35109454,0.2791652,0.23487751,-21.75,-2.6437502,-47.0625,0.16610497,0.18663295,0.67009354,999.7254, , , , 
2026-03-19 21:12:29.549,-0.9379865,3.2829528,12.576675,-0.18616104,-0.010384701,0.15302163,-21.35625,-2.5875,-47.081253,0.16269623,0.18546127,0.6725949,999.7254, , , , 
2026-03-19 21:12:29.569,-0.72263247,3.129812,10.566705,-0.05665771,-0.102014415,-0.02535089,-21.1875,-2.60625,-47.04375,0.16205923,0.18381578,0.6734886,999.7254, , , , 
2026-03-19 21:12:29.589,-1.3016955,3.225525,8.815159,-0.15683953,-0.05070178,-0.12675445,-20.85,-2.4750001,-47.175003,0.16186756,0.18265294,0.6730185,999.7254, , , , 
2026-03-19 21:12:29.609,-1.8711873,3.6083765,8.480164,-0.3046688,0.037262753,-0.062002774,-20.868752,-2.3625002,-47.34375,0.16016498,0.18122654,0.6725198,999.73773, , , , 
2026-03-19 21:12:29.630,-1.5553347,3.7184465,8.159525,-0.28145593,0.12522727,0.100487255,-21.056252,-2.25,-47.5875,0.15747513,0.17965457,0.67300934,999.73773, , , , 
2026-03-19 21:12:29.649,-0.6029913,3.4504502,7.322037,-0.20693044,0.1472184,0.19578215,-21.018751,-2.11875,-47.831253,0.15483537,0.17878444,0.67463833,999.73773, , , , 
2026-03-19 21:12:29.670,0.08135597,3.1776686,6.1304116,-0.24846925,-0.032375835,0.16646065,-21.018751,-2.1000001,-48.0,0.15298854,0.17779157,0.67653507,999.7494, , , , 
2026-03-19 21:12:29.690,-0.023928227,3.3020952,5.465207,-0.36819875,-0.126449,0.1395826,-20.868752,-2.0625,-48.112503,0.15179156,0.17520075,0.6780193,999.7494, , , , 
2026-03-19 21:12:29.709,0.18664017,3.6610186,6.5371914,-0.38408124,-0.12400555,0.15790854,-20.85,-2.04375,-48.24375,0.1502368,0.17134385,0.67950594,999.7494, , , , 
2026-03-19 21:12:29.729,1.2203395,3.6323047,7.350751,-0.15317434,0.04214967,0.074830934,-21.0,-1.8750001,-48.43125,0.1488407,0.16830833,0.6809658,999.7494, , , , 
2026-03-19 21:12:29.749,1.1246266,3.67059,7.3363943,0.21334453,0.16432263,-0.15607595,-21.0,-1.48125,-48.506252,0.14808634,0.16864245,0.6811931,999.7541, , , , 
2026-03-19 21:12:29.770,0.019142581,4.718646,6.1639113,0.2952004,0.103236146,-0.3026835,-20.962502,-1.29375,-48.562504,0.14867912,0.17193355,0.67941445,999.7541, , , , 
2026-03-19 21:12:29.790,-0.91405827,5.316852,5.9964137,0.03375028,-0.116675176,-0.17195843,-20.681252,-1.29375,-48.468754,0.1495907,0.17437059,0.67713445,999.7541, , , , 
2026-03-19 21:12:29.810,-0.6843473,5.3072805,6.431907,-0.22281294,-0.3329213,-0.04978548,-20.34375,-1.35,-48.281254,0.1504347,0.17300606,0.6760322,999.7541, , , , 
2026-03-19 21:12:29.830,-0.56470615,5.474778,7.52782,-0.24358234,-0.24251331,-0.04367683,-20.306252,-1.5187501,-48.300003,0.15092972,0.16927648,0.67564636,999.74493, , , , 
2026-03-19 21:12:29.850,-0.9667004,5.7667027,8.848659,-0.034666575,0.023823727,-0.059559315,-20.5125,-1.6875001,-48.3375,0.15063354,0.16716681,0.67535937,999.74493, , , , 
2026-03-19 21:12:29.869,-1.0959128,6.192625,9.882358,0.16447534,0.10445788,-0.01802051,-20.8125,-1.725,-48.393753,0.15032554,0.16799022,0.67505354,999.74493, , , , 
2026-03-19 21:12:29.889,-1.0959128,6.135197,9.4229355,0.26343542,-0.09590577,-9.162972E-4,-21.056252,-1.7437501,-48.393753,0.15155676,0.16986607,0.6746474,999.74493, , , , 
2026-03-19 21:12:29.909,-1.2873386,6.1878395,9.097511,0.1461494,-0.11178826,0.038179047,-21.09375,-1.8000001,-48.487503,0.15403265,0.1707386,0.67408717,999.72626, , , , 
2026-03-19 21:12:29.929,-0.8470592,5.790631,9.614362,-0.067653276,0.034819294,0.09926552,-20.925001,-1.81875,-48.581253,0.1552194,0.17083225,0.6742858,999.72626, , , , 
2026-03-19 21:12:29.951,-0.34456646,6.1639113,10.906486,-0.21059564,0.06902772,0.06627883,-20.868752,-1.8000001,-48.7125,0.15377706,0.17025395,0.67543995,999.72626, , , , 
2026-03-19 21:12:29.970,0.038285162,6.178268,11.284552,-0.27046037,0.017715078,0.008857539,-20.8875,-1.85625,-48.881252,0.15240437,0.1693006,0.67602944,999.72626, , , , 
2026-03-19 21:12:29.990,0.11006984,6.1064835,12.01197,-0.26557347,-0.03848448,-0.01924224,-20.94375,-2.025,-48.956253,0.15047137,0.16746762,0.67646396,999.7239, , , , 
2026-03-19 21:12:30.010,0.38763726,4.938786,12.437892,-0.14095704,-0.051923506,-0.0070249448,-21.13125,-2.11875,-49.10625,0.14909062,0.16551276,0.67671925,999.7239, , , , 
2026-03-19 21:12:30.029,0.91884387,3.9433718,11.466406,0.087506376,-0.12889247,-0.059559315,-21.28125,-2.1375,-49.312504,0.1490007,0.16446467,0.6766124,999.7239, , , , 
2026-03-19 21:12:30.049,0.8853444,3.6227336,9.556933,0.06429352,-0.17653993,-0.109650224,-21.31875,-2.0812502,-49.425003,0.15061712,0.16400294,0.67569155,999.7239, , , , 
2026-03-19 21:12:30.069,0.6843473,3.5126636,9.41815,-0.15683953,0.032375835,-0.11209369,-21.4125,-1.9312501,-49.406254,0.1512138,0.16308123,0.6747899,999.732, , , , 
2026-03-19 21:12:30.089,0.3493521,3.5174494,10.8969145,-0.1800524,0.22296564,-0.15363249,-21.431252,-1.7062501,-49.143753,0.14885871,0.16270317,0.6744059,999.732, , , , 
2026-03-19 21:12:30.110,-0.023928227,3.4743786,10.30828,-0.07131846,0.14355323,-0.21716243,-21.45,-1.5,-48.825,0.14617716,0.16341735,0.6737097,999.732, , , , 
2026-03-19 21:12:30.129,-0.7513463,3.5365918,9.623933,-0.07742711,-0.076358095,-0.2073886,-21.65625,-1.29375,-48.675003,0.1446411,0.16376626,0.6724021,999.732, , , , 
2026-03-19 21:12:30.149,-0.6652047,3.3260236,8.738588,-0.040775225,-0.36835146,-0.118202336,-21.712502,-1.25625,-48.581253,0.14491597,0.16224883,0.6710242,999.753, , , , 
2026-03-19 21:12:30.169,-0.16749759,3.1728828,7.470392,0.13148865,-0.47952884,-0.13164136,-21.825,-1.25625,-48.393753,0.14736515,0.15952058,0.66960555,999.753, , , , 
2026-03-19 21:12:30.189,0.124426775,3.2159536,6.0251274,0.28176138,-0.31948227,-0.18051054,-21.88125,-1.25625,-48.24375,0.1514782,0.15770456,0.6676138,999.753, , , , 
2026-03-19 21:12:30.210,-0.11964113,3.3020952,6.216553,0.40149087,0.11423171,-0.2452622,-21.84375,-1.21875,-47.86875,0.1546115,0.15888065,0.6654019,999.753, , , , 
2026-03-19 21:12:30.229,-0.79441714,3.6083765,6.503692,0.52855074,0.25228715,-0.20494513,-22.1625,-1.2,-47.5125,0.15618162,0.16363543,0.6632229,999.75214, , , , 
2026-03-19 21:12:30.249,-0.6939186,3.5557344,6.4701924,0.540768,0.2046397,-0.10476331,-22.368752,-1.44375,-47.287502,0.15807043,0.16927746,0.6614421,999.75214, , , , 
2026-03-19 21:12:30.269,-0.23449662,3.5557344,6.3696938,0.4735729,0.04214967,-0.05589413,-22.40625,-1.725,-47.04375,0.16059275,0.17409135,0.66017896,999.75214, , , , 
2026-03-19 21:12:30.289,-0.22013968,3.5557344,6.3601227,0.3611738,-0.19364414,-0.05589413,-22.518751,-2.1375,-46.85625,0.16385512,0.17681244,0.658972,999.75214, , , , 
2026-03-19 21:12:30.309,-0.526421,3.8572302,6.6855464,0.28420484,-0.21197008,-0.013133593,-22.368752,-2.41875,-46.7625,0.16762635,0.17745098,0.65768355,999.75214, , , , 
2026-03-19 21:12:30.329,-0.5886344,4.0965123,7.4847493,0.3318523,-0.005497783,0.06627883,-22.237501,-2.5875,-46.706253,0.17072882,0.1782407,0.6569393,999.7339,37.88754123,127.73745153,174.9637451171875,1.45
2026-03-19 21:12:30.349,-0.7178468,4.278367,7.743174,0.45158178,0.25717407,0.17623448,-22.237501,-2.9250002,-46.74375,0.17300172,0.1811,0.6571002,999.7339, , , , 
2026-03-19 21:12:30.369,-0.5982057,4.421936,7.149754,0.36850417,0.26572618,0.32895067,-22.087502,-3.16875,-46.800003,0.17472924,0.18569566,0.6583581,999.7339, , , , 
2026-03-19 21:12:30.390,0.33020952,4.5272202,7.350751,0.0044287695,0.017715078,0.36438084,-22.03125,-3.4875002,-46.725002,0.17589195,0.18806599,0.66072464,999.7339, , , , 
2026-03-19 21:12:30.410,1.0145568,4.723432,8.532805,-0.2838994,-0.21441354,0.23732096,-22.10625,-3.7875001,-46.706253,0.17633295,0.1860173,0.66309005,999.72284, , , , 
2026-03-19 21:12:30.430,0.9762716,5.0105705,9.633504,-0.29733843,-0.01527162,0.11148282,-22.125,-3.91875,-46.65,0.17584436,0.18232533,0.6647559,999.72284, , , , 
2026-03-19 21:12:30.449,0.38285163,5.072784,10.150353,-0.18616104,0.32925612,0.024740024,-22.10625,-3.7500002,-46.66875,0.17354372,0.18103798,0.6659629,999.72284, , , , 
2026-03-19 21:12:30.469,-0.9667004,4.8095737,10.786844,-0.28634286,0.5528326,-0.0058032153,-22.06875,-3.3750002,-46.875,0.16917229,0.1828192,0.6672088,999.7158, , , , 
2026-03-19 21:12:30.490,-2.009971,4.685147,11.964113,-0.42684177,0.21563527,0.051618073,-21.84375,-3.0,-47.1375,0.16354011,0.18390241,0.66859853,999.7158, , , , 
2026-03-19 21:12:30.509,-1.430908,4.168297,12.4426775,-0.39752024,-0.022601997,0.15057817,-21.581251,-2.7562501,-47.4375,0.15966499,0.18168093,0.67020035,999.7158, , , , 
2026-03-19 21:12:30.529,-0.6556334,3.8476589,11.724831,-0.21792601,-0.034819294,0.076052666,-21.46875,-2.625,-47.662502,0.15758398,0.17882162,0.67169905,999.7158, , , , 
2026-03-19 21:12:30.549,-0.7848458,4.0007997,10.351351,-0.16661337,0.13377939,-0.04367683,-21.206251,-2.5875,-47.8125,0.15611632,0.17750634,0.67227805,999.72516, , , , 
2026-03-19 21:12:30.569,-1.4261223,4.1347976,10.509277,-0.18127412,0.2290743,-0.038789913,-20.94375,-2.4750001,-47.925003,0.15348691,0.1775864,0.6725312,999.72516, , , , 
2026-03-19 21:12:30.590,-1.2634103,3.9481573,9.600004,-0.18127412,0.13377939,0.03084867,-20.962502,-2.1937501,-47.98125,0.15069465,0.17784229,0.6730565,999.72516, , , , 
2026-03-19 21:12:30.609,-1.282553,3.737589,8.116454,-0.28145593,-0.08002329,0.088269964,-20.90625,-2.0062501,-47.98125,0.14875762,0.17685035,0.6738728,999.72516, , , , 
2026-03-19 21:12:30.629,-1.2490535,3.6131623,6.9248285,-0.44761115,-0.3500255,0.18723005,-20.71875,-1.85625,-48.0,0.14768916,0.17325413,0.67501587,999.7362, , , , 
2026-03-19 21:12:30.649,-0.3397808,3.4025939,6.3601227,-0.5111411,-0.48808095,0.2678642,-20.6625,-1.6875001,-48.075,0.1473857,0.16703057,0.6767496,999.7362, , , , 
2026-03-19 21:12:30.670,0.63170516,3.0675986,6.876972,-0.47204575,-0.2535089,0.18845178,-20.56875,-1.5375,-48.206253,0.1471836,0.16014877,0.67873406,999.7362, , , , 
2026-03-19 21:12:30.689,0.71306115,3.1489546,8.293523,-0.18249585,0.06291907,-0.027794348,-20.625,-1.2750001,-48.375004,0.14563756,0.15626486,0.680004,999.7362, , , , 
2026-03-19 21:12:30.709,-0.66041905,3.9290147,8.169097,0.15958843,0.24495678,-0.10720677,-20.94375,-1.0875001,-48.281254,0.14427355,0.15700202,0.67972124,999.7373, , , , 
2026-03-19 21:12:30.730,-0.8279166,4.139583,7.7001033,0.23044874,-0.0018325944,0.003970621,-21.150002,-0.80625004,-48.037502,0.14407319,0.15988088,0.67917585,999.7373, , , , 
2026-03-19 21:12:30.750,-0.28235307,4.2352962,6.3218374,0.06307179,-0.46120292,0.05650499,-21.243752,-0.61875004,-47.90625,0.1465112,0.16020434,0.678799,999.7373, , , , 
2026-03-19 21:12:30.769,0.22492532,4.3405805,6.350551,0.006872229,-0.560163,0.019853106,-21.225,-0.76875,-47.850002,0.15038075,0.15689255,0.67831045,999.7373, , , , 
2026-03-19 21:12:30.789,0.35413775,4.6229334,6.580262,0.09728022,-0.26816964,-0.026572619,-21.206251,-0.88125,-48.093754,0.15401262,0.15379763,0.6775553,999.7373, , , , 
2026-03-19 21:12:30.809,0.043070808,4.8239303,6.948757,0.19013166,0.051923506,-0.066889696,-21.225,-1.03125,-48.3375,0.1560082,0.15395959,0.6767877,999.7358, , , , 
2026-03-19 21:12:30.830,-0.47856453,5.0919266,8.288737,0.107054055,0.12889247,-0.08032872,-21.431252,-1.2,-48.2625,0.15649992,0.15594319,0.6761548,999.7358, , , , 
2026-03-19 21:12:30.849,-0.82313097,5.642276,10.126426,0.1876882,-0.109344795,-0.02535089,-21.75,-1.2,-48.131252,0.15675479,0.15736419,0.67556655,999.7358, , , , 
2026-03-19 21:12:30.869,0.17228323,5.493921,9.30808,0.37461284,-0.26939136,-0.040011644,-22.03125,-1.1437501,-47.8875,0.15961403,0.1579557,0.67478025,999.7258, , , , 
2026-03-19 21:12:30.889,0.23449662,5.723632,8.350951,0.40515608,-0.12889247,-0.16951497,-22.143751,-1.1625,-47.737503,0.16392079,0.15913136,0.6732025,999.7258, , , , 
2026-03-19 21:12:30.909,-0.31585258,5.948557,8.04467,0.21334453,0.06536253,-0.17928882,-22.050001,-1.40625,-47.831253,0.16674253,0.16140899,0.67119795,999.7258, , , , 
2026-03-19 21:12:30.929,-0.40677986,6.0729837,9.513863,-0.011453714,0.262061,-0.07910699,-22.050001,-1.81875,-47.9625,0.16647698,0.1637476,0.67017126,999.7258, , , , 
2026-03-19 21:12:30.949,0.038285162,5.7188463,10.796415,-0.18249585,0.31337363,-0.060781047,-22.087502,-2.2875001,-47.943752,0.1641624,0.1655198,0.670215,999.7141, , , , 
2026-03-19 21:12:30.970,0.57906306,5.4460645,12.705888,-0.2594648,0.1301142,-0.1291979,-22.143751,-2.68125,-47.925003,0.16065292,0.1661121,0.67049676,999.7141, , , , 
2026-03-19 21:12:30.989,0.4977071,4.895715,13.57209,-0.08842268,-0.18631376,-0.19883649,-22.331251,-2.8312502,-48.018753,0.1587044,0.1649027,0.6698158,999.7141, , , , 
2026-03-19 21:12:31.010,0.9762716,4.3501515,11.408978,0.16203189,-0.25961754,-0.20127994,-22.35,-2.71875,-48.112503,0.16008212,0.1633984,0.6680009,999.7141, , , , 
2026-03-19 21:12:31.029,1.1820544,4.0103707,10.241281,0.19501857,0.07391464,-0.2452622,-22.21875,-2.5687501,-48.300003,0.16214302,0.16350769,0.6659539,999.72327, , , , 
2026-03-19 21:12:31.049,0.8662018,3.8811584,9.848858,0.10338886,0.33536476,-0.2941314,-22.237501,-2.5125,-48.412502,0.16183631,0.16615804,0.66413265,999.72327, , , , 
2026-03-19 21:12:31.069,0.42592242,3.8572302,9.729217,-0.093309596,0.2290743,-0.3271181,-22.06875,-2.5125,-48.3375,0.15949194,0.16914253,0.6624148,999.72327, , , , 
2026-03-19 21:12:31.089,-0.11006984,3.7471602,9.662218,-0.19715661,0.056810424,-0.32589635,-21.862501,-2.7375002,-48.206253,0.15681483,0.16997188,0.6605869,999.72327, , , , 
2026-03-19 21:12:31.109,-0.37328035,3.6658044,9.102298,-0.16172644,-0.1301142,-0.286801,-21.806252,-3.0187502,-48.112503,0.15489192,0.1690076,0.65869707,999.736, , , , 
2026-03-19 21:12:31.130,-0.6412765,3.574877,7.925029,-0.013897174,-0.1594357,-0.27947062,-21.675001,-3.24375,-48.131252,0.15453155,0.16739151,0.6566148,999.736, , , , 
2026-03-19 21:12:31.149,-0.6221339,3.5940197,7.3172517,0.1424842,-0.023823727,-0.23426664,-21.675001,-3.35625,-48.131252,0.1550446,0.16707881,0.65444714,999.736, , , , 
2026-03-19 21:12:31.169,-0.44985065,3.2877383,6.192625,0.30986115,0.010384701,-0.2037234,-21.768751,-3.3187501,-48.05625,0.15613665,0.16887209,0.65250736,999.736, , , , 
2026-03-19 21:12:31.189,-0.74177504,3.2733815,5.6949177,0.229227,0.04214967,-0.18539746,-21.84375,-3.3375,-47.925003,0.15788786,0.17120896,0.6505422,999.736, , , , 
2026-03-19 21:12:31.209,-0.81834537,3.5509489,7.0636125,0.25243986,0.11300998,-0.10109812,-21.91875,-3.3187501,-47.568752,0.15865184,0.17350137,0.64912117,999.7379, , , , 
2026-03-19 21:12:31.230,-0.31106696,3.6610186,6.8578296,0.3856084,0.020158539,-0.060781047,-21.956251,-3.35625,-47.362503,0.16003639,0.17628752,0.6481866,999.7379, , , , 
2026-03-19 21:12:31.250,0.1052842,3.938586,6.178268,0.4149299,-0.10445788,-0.07666353,-21.84375,-3.54375,-47.325,0.16292,0.17884745,0.64698505,999.7379, , , , 
2026-03-19 21:12:31.269,0.10049855,4.2831526,5.9724855,0.37094763,-0.09957096,-0.092546016,-21.581251,-3.6375,-47.15625,0.16650605,0.18079512,0.6454686,999.7343, , , , 
2026-03-19 21:12:31.290,0.21535404,4.508078,6.6759753,0.364839,0.060475614,-0.07788526,-21.4125,-3.7687502,-46.987503,0.16940248,0.18294564,0.64406854,999.7343, , , , 
2026-03-19 21:12:31.309,0.038285162,4.5224347,7.34118,0.42836893,0.22418737,-0.059559315,-21.35625,-4.05,-46.78125,0.17137678,0.18639001,0.64304,999.7343, , , , 
2026-03-19 21:12:31.329,-0.02871387,4.642076,7.4273214,0.45524698,0.32314748,-0.0070249448,-21.31875,-4.2937503,-46.537502,0.17290664,0.191289,0.64232004,999.7343,37.88754897,127.73746444,174.896484375,1.44
2026-03-19 21:12:31.349,-0.2536392,4.6707897,8.288737,0.37705627,0.33902994,0.045509428,-21.1875,-4.6125,-46.4625,0.17392834,0.19643237,0.64212364,999.71326, , , , 
2026-03-19 21:12:31.369,0.038285162,4.6229334,8.743374,0.30619597,0.19853105,0.11514801,-21.018751,-5.1000004,-46.706253,0.17469911,0.20077854,0.64247,999.71326, , , , 
2026-03-19 21:12:31.390,0.57427746,4.5655055,8.1738825,0.100945406,-0.115453444,0.101708986,-20.775002,-5.4187503,-47.025,0.17609404,0.20277666,0.64298654,999.71326, , , , 
2026-03-19 21:12:31.410,0.91884387,4.7569313,8.145168,-0.30100363,-0.17043127,0.045509428,-20.56875,-5.6625004,-47.287502,0.17722693,0.20103213,0.64335567,999.71326, , , , 
2026-03-19 21:12:31.429,1.282553,4.814359,9.269794,-0.4647154,0.11423171,-0.036346454,-20.53125,-5.6625004,-47.49375,0.17544329,0.1978022,0.6441206,999.70795, , , , 
2026-03-19 21:12:31.449,0.2632105,4.694718,11.389835,-0.50991935,0.39767298,-0.15607595,-20.4375,-5.49375,-47.41875,0.17037663,0.19624114,0.6449882,999.70795, , , , 
2026-03-19 21:12:31.469,-1.1102697,4.5559344,12.830315,-0.42806348,0.46242464,-0.16340633,-20.25,-5.3625,-47.30625,0.16373372,0.1962596,0.6454704,999.70795, , , , 
2026-03-19 21:12:31.489,-1.9860427,4.2257247,13.9166565,-0.2997819,0.32559094,-0.10720677,-20.025002,-5.1000004,-47.268753,0.15762348,0.19690518,0.64590824,999.70795, , , , 
2026-03-19 21:12:31.509,-1.698904,4.0151563,13.318451,-0.05665771,0.054366965,-0.04367683,-19.85625,-5.08125,-47.34375,0.1542042,0.1972315,0.6460904,999.72815, , , , 
2026-03-19 21:12:31.529,-1.0863415,3.656233,11.083554,-0.05421425,-0.23884813,-0.07910699,-19.59375,-5.2312503,-47.60625,0.15385918,0.1966465,0.64579415,999.72815, , , , 
2026-03-19 21:12:31.551,-0.72741807,3.8620157,9.466006,-0.21914774,-0.48441577,-0.14874557,-19.368752,-5.3250003,-47.831253,0.1551347,0.19247061,0.64440364,999.72815, , , , 
2026-03-19 21:12:31.569,-0.038285162,3.5796626,8.020741,-0.23136504,-0.41844237,-0.18417573,-19.2,-5.4,-47.925003,0.15595923,0.18885718,0.64331514,999.72815, , , , 
2026-03-19 21:12:31.590,0.53599226,3.2015967,6.695118,-0.21548255,-0.06291907,-0.28435755,-19.087502,-5.3625,-48.037502,0.15603136,0.18528885,0.6417129,999.7464, , , , 
2026-03-19 21:12:31.609,-0.043070808,3.2159536,6.690332,-0.25702137,0.35124725,-0.3564396,-19.25625,-5.2312503,-48.093754,0.15329291,0.18486814,0.64000094,999.7464, , , , 
2026-03-19 21:12:31.629,-1.2921243,3.804588,8.322237,-0.27290383,0.4196641,-0.20983206,-19.63125,-5.25,-48.112503,0.14800021,0.18666536,0.6387346,999.7464, , , , 
2026-03-19 21:12:31.649,-0.5694918,3.4743786,8.19781,-0.23258677,-0.05070178,0.013744458,-19.78125,-5.25,-48.281254,0.143835,0.1875179,0.6386418,999.7464, , , , 
2026-03-19 21:12:31.669,1.134198,2.7756743,7.001399,-0.3291034,-0.5577195,-0.092546016,-19.837502,-5.25,-48.468754,0.14337382,0.18414846,0.63886154,999.7464, , , , 
2026-03-19 21:12:31.689,1.5457634,3.0436704,6.503692,-0.31322092,-0.64812756,-0.4065305,-19.78125,-5.175,-48.675003,0.14462388,0.17746876,0.63717324,999.7564, , , , 
2026-03-19 21:12:31.710,0.47856453,3.8093736,6.1734824,-0.10308343,-0.23151775,-0.6203332,-19.6875,-4.96875,-48.80625,0.14545803,0.17254621,0.63320017,999.7564, , , , 
2026-03-19 21:12:31.729,-0.6221339,4.220939,6.5084777,-0.0029016077,0.04459313,-0.6056724,-19.81875,-4.89375,-48.956253,0.14483497,0.17204517,0.62850606,999.7564, , , , 
2026-03-19 21:12:31.750,-0.8422736,4.6564326,7.111469,0.050854493,-0.12156209,-0.4480693,-19.96875,-4.9125004,-49.125004,0.14391023,0.17318052,0.62433386,999.75665, , , , 
2026-03-19 21:12:31.769,0.21535404,4.354937,6.283552,0.042302385,-0.44165525,-0.42607817,-20.025002,-4.9500003,-49.18125,0.14520523,0.1723481,0.62068963,999.75665, , , , 
2026-03-19 21:12:31.789,1.038485,4.2352962,5.9437714,-0.034666575,-0.32559094,-0.56902057,-20.025002,-5.1375003,-49.29375,0.14740953,0.16985932,0.61650753,999.75665, , , , 
2026-03-19 21:12:31.809,0.2632105,4.6325045,7.982456,-0.007788526,0.07880156,-0.75961035,-20.081251,-5.45625,-49.18125,0.14720857,0.16921996,0.61143994,999.75665, , , , 
2026-03-19 21:12:31.830,-0.52163535,5.2019963,9.652647,0.08628465,0.16554436,-0.7363975,-20.212502,-5.86875,-48.881252,0.14539078,0.17146283,0.60577226,999.74133, , , , 
2026-03-19 21:12:31.849,0.043070808,5.2163534,10.475778,0.16814053,-0.15821397,-0.6911935,-20.4375,-6.3375,-48.6375,0.1444076,0.17386988,0.60023326,999.74133, , , , 
2026-03-19 21:12:31.870,1.6127625,5.058427,9.868001,0.26710063,-0.320704,-0.82314026,-20.625,-6.7125,-48.300003,0.1461491,0.17425081,0.59406716,999.74133, , , , 
2026-03-19 21:12:31.889,1.9334008,5.1493545,9.8632145,0.31719154,-0.15821397,-1.0308343,-20.85,-7.2187505,-48.018753,0.14861088,0.1749066,0.5863608,999.74133, , , , 
2026-03-19 21:12:31.909,1.0576276,5.532206,9.456435,0.17302746,-0.06780599,-1.1530073,-20.8875,-7.7812505,-47.90625,0.14995883,0.1770773,0.57730395,999.72797, , , , 
2026-03-19 21:12:31.930,-0.3062813,6.053841,11.026127,-0.25824308,0.15821397,-1.0479386,-20.831251,-8.418751,-47.831253,0.14844993,0.17880073,0.56828016,999.72797, , , , 
2026-03-19 21:12:31.949,-0.65084773,5.9294147,14.012369,-0.37064222,0.089797124,-0.78771013,-20.775002,-9.168751,-47.925003,0.14339426,0.17983562,0.5613244,999.72797, , , , 
2026-03-19 21:12:31.969,1.0145568,4.642076,14.735002,-0.23380849,-0.38789913,-0.7180715,-20.56875,-9.69375,-48.24375,0.13953714,0.17850076,0.55597234,999.72797, , , , 
2026-03-19 21:12:31.989,2.3018954,3.8380876,12.935599,0.0044287695,-0.80695236,-0.9159917,-20.4375,-10.106251,-48.468754,0.14000899,0.1739425,0.549349,999.73157, , , , 
2026-03-19 21:12:32.010,2.1822543,3.493521,10.628919,0.093615025,-0.7800743,-1.1383466,-20.41875,-10.425,-48.675003,0.14330488,0.16844052,0.54013944,999.73157, , , , 
2026-03-19 21:12:32.030,1.7946169,3.37388,10.265209,0.093615025,-0.4331031,-1.23975,-20.625,-10.575001,-48.750004,0.1459151,0.16459785,0.52951694,999.73157, , , , 
2026-03-19 21:12:32.049,1.430908,3.3834512,10.485349,0.170584,-0.26816964,-1.3399318,-21.056252,-10.875,-48.506252,0.1467374,0.16377,0.5184201,999.73157, , , , 
2026-03-19 21:12:32.069,0.34456646,3.6370904,10.116854,0.1876882,-0.3488038,-1.380249,-21.618752,-11.08125,-48.16875,0.14753753,0.16404527,0.50643325,999.73987, , , , 
2026-03-19 21:12:32.090,-0.37806597,3.7328033,10.073783,0.1547015,-0.5259546,-1.3069452,-22.237501,-11.400001,-47.775,0.14876683,0.16335148,0.4942018,999.73987, , , , 
2026-03-19 21:12:32.109,-0.30149564,3.4121652,9.52822,0.24633121,-0.81916964,-1.2104286,-22.59375,-12.168751,-47.2125,0.15120244,0.160724,0.48226243,999.73987, , , , 
2026-03-19 21:12:32.130,0.2632105,3.0388846,8.135597,0.38072148,-1.0378592,-1.231198,-22.63125,-12.900001,-46.6875,0.1559727,0.15618321,0.47016835,999.73987, , , , 
2026-03-19 21:12:32.149,0.42592242,2.9383862,6.8482585,0.4809033,-0.9633338,-1.3130538,-22.725,-13.650001,-46.237503,0.16245261,0.15105896,0.45710078,999.7534, , , , 
2026-03-19 21:12:32.169,-0.086141616,3.225525,6.5611196,0.5419898,-0.6701187,-1.3203843,-22.893751,-14.400001,-45.693752,0.16873363,0.14800593,0.4434816,999.7534, , , , 
2026-03-19 21:12:32.190,-0.3493521,3.359523,7.149754,0.6030763,-0.46975502,-1.2030982,-23.025002,-15.01875,-45.300003,0.174256,0.14758119,0.43049386,999.7534, , , , 
2026-03-19 21:12:32.209,-0.13399807,3.1633115,7.2693954,0.6995929,-0.49418962,-1.1139119,-23.34375,-15.7875,-44.9625,0.18008852,0.14814956,0.418486,999.7534, , , , 
2026-03-19 21:12:32.230,0.0,3.2015967,6.6089764,0.7374665,-0.53084147,-1.1029164,-23.60625,-16.6875,-44.5125,0.18689962,0.14855322,0.4067707,999.74725, , , , 
2026-03-19 21:12:32.249,-0.6269195,3.804588,6.6281185,0.6336195,-0.35613418,-1.0760384,-23.625,-17.60625,-44.0625,0.19348249,0.14911592,0.39505997,999.74725, , , , 
2026-03-19 21:12:32.269,-1.2251252,4.048656,6.896115,0.5896372,-0.1875355,-0.90377444,-23.681252,-18.525002,-43.518753,0.19868015,0.15084858,0.384328,999.74725, , , , 
2026-03-19 21:12:32.290,-1.4356936,3.8285162,7.1880393,0.49434233,-0.0971275,-0.68997175,-23.643751,-19.44375,-42.75,0.20299158,0.1533462,0.37569737,999.74725, , , , 
2026-03-19 21:12:32.309,-1.0193424,3.723232,8.01117,0.41737336,-0.17409647,-0.5067123,-23.456251,-20.362501,-42.075,0.20652856,0.15539825,0.36913294,999.72095, , , , 
2026-03-19 21:12:32.330,-0.1052842,3.3834512,8.126026,0.4320341,-0.3451386,-0.45051277,-23.212502,-21.09375,-41.4375,0.2102602,0.15593065,0.36372012,999.72095,37.88755678,127.73747777,175.02294921875,1.46
2026-03-19 21:12:32.349,0.41635114,3.2303107,7.881958,0.41615164,-0.34758207,-0.5568032,-22.931252,-21.6,-40.96875,0.21464114,0.15514718,0.3580863,999.72095, , , , 
2026-03-19 21:12:32.369,-0.23928227,3.8141594,7.728817,0.29642212,-0.2706131,-0.6557633,-22.66875,-21.9375,-40.7625,0.21828261,0.1547792,0.35144064,999.72095, , , , 
2026-03-19 21:12:32.389,-0.9523434,4.436293,7.810173,0.080176,-0.29749113,-0.6044507,-22.556252,-22.125,-40.575,0.22025393,0.15446578,0.34471172,999.7095, , , , 
2026-03-19 21:12:32.410,-1.1820544,4.814359,8.078169,-0.18127412,-0.27672175,-0.46517354,-22.575,-22.44375,-40.40625,0.2203936,0.15288185,0.33900622,999.7095, , , , 
2026-03-19 21:12:32.430,-0.8662018,4.6468616,9.284152,-0.34376416,-0.017715078,-0.4138609,-22.6875,-22.96875,-40.29375,0.2182906,0.15117545,0.33492482,999.7095, , , , 
2026-03-19 21:12:32.449,-1.4691931,4.287938,10.432707,-0.36942047,0.17409647,-0.4639518,-22.5375,-23.493752,-40.143753,0.21424682,0.151288,0.33164886,999.7095, , , , 
2026-03-19 21:12:32.470,-2.201397,4.1587257,11.428121,-0.42195484,0.12034036,-0.43218684,-22.35,-23.94375,-40.143753,0.20929371,0.15261444,0.32847857,999.70135, , , , 
2026-03-19 21:12:32.490,-2.1918256,4.034299,11.720045,-0.4696023,-0.2547306,-0.35033095,-22.087502,-24.243752,-40.21875,0.2044717,0.15191205,0.3254629,999.70135, , , , 
2026-03-19 21:12:32.510,-0.94755775,3.6083765,10.427921,-0.4488329,-0.51618075,-0.34666577,-21.7875,-24.31875,-40.3125,0.20081498,0.1473864,0.32227442,999.70135, , , , 
2026-03-19 21:12:32.529,-0.27756742,3.5844483,9.552148,-0.44516772,-0.29749113,-0.4639518,-21.806252,-24.337502,-40.48125,0.19754231,0.14243695,0.31854162,999.70135, , , , 
2026-03-19 21:12:32.549,-0.5838487,3.5557344,9.12144,-0.47204575,-0.22785257,-0.5506946,-21.900002,-24.35625,-40.893753,0.19346203,0.13957208,0.314096,999.70135, , , , 
2026-03-19 21:12:32.570,-1.0145568,3.818945,9.183653,-0.5600103,-0.33414304,-0.5018254,-22.06875,-24.431252,-41.325,0.18878296,0.13656323,0.3092513,999.7099, , , , 
2026-03-19 21:12:32.589,-0.45942193,3.5700915,9.025727,-0.46715885,-0.36346453,-0.41141742,-22.181252,-24.45,-41.643753,0.18417448,0.13243742,0.3049787,999.7099, , , , 
2026-03-19 21:12:32.610,0.2009971,3.2446675,8.260024,-0.27290383,-0.24740024,-0.42974338,-22.25625,-24.54375,-41.943752,0.18087259,0.12876432,0.3011112,999.7099, , , , 
2026-03-19 21:12:32.630,0.5072784,3.010171,7.3746796,-0.09575305,-0.07391464,-0.539699,-22.25625,-24.675001,-42.09375,0.17895624,0.1270302,0.29677898,999.7099, , , , 
2026-03-19 21:12:32.649,-0.08135597,3.359523,6.7525454,-0.085979216,-0.007941242,-0.6203332,-22.125,-24.712502,-42.1875,0.17762767,0.12721115,0.2915403,999.7177, , , , 
2026-03-19 21:12:32.670,-0.55513483,3.8524444,7.0301127,-0.19715661,-0.102014415,-0.5543598,-22.125,-24.768751,-42.525,0.17590135,0.12768634,0.2860238,999.7177, , , , 
2026-03-19 21:12:32.689,-0.2440679,3.9577286,7.4416785,-0.29856017,-0.3365865,-0.4896081,-22.050001,-24.843752,-42.956253,0.17362668,0.12624682,0.2810934,999.7177, , , , 
2026-03-19 21:12:32.710,0.30149564,4.0151563,7.5517483,-0.29122978,-0.4575377,-0.5213731,-21.806252,-24.956251,-43.331253,0.17135826,0.1223747,0.27620125,999.71814, , , , 
2026-03-19 21:12:32.730,-0.20578274,4.4745784,8.073383,-0.13729186,-0.31948227,-0.59589857,-21.618752,-25.218752,-43.6875,0.1695727,0.11856394,0.27066725,999.71814, , , , 
2026-03-19 21:12:32.750,-0.4977071,4.914858,8.394022,0.022754714,-0.28405213,-0.584903,-21.35625,-25.63125,-44.025,0.16896823,0.11652072,0.26469365,999.71814, , , , 
2026-03-19 21:12:32.769,-0.5072784,5.063213,8.226524,0.10216714,-0.36835146,-0.54702944,-21.150002,-26.00625,-44.23125,0.1698233,0.11458648,0.25870106,999.71814, , , , 
2026-03-19 21:12:32.790,-0.37806597,5.0440702,8.389236,0.1339321,-0.32681265,-0.5238165,-21.0375,-26.38125,-44.1375,0.17138731,0.11238406,0.25292814,999.71814, , , , 
2026-03-19 21:12:32.809,-0.2009971,5.2977095,8.963513,0.16814053,-0.2706131,-0.5665771,-21.056252,-26.60625,-43.875,0.17307378,0.11074234,0.24721515,999.7152, , , , 
2026-03-19 21:12:32.830,0.033499517,5.3982077,9.355937,0.1999055,-0.34269515,-0.6227766,-21.075,-26.625002,-43.4625,0.17498027,0.10944342,0.24104528,999.7152, , , , 
2026-03-19 21:12:32.850,-0.124426775,5.221139,9.489935,0.2206749,-0.4159989,-0.67286754,-21.075,-26.643751,-42.91875,0.17726773,0.107489854,0.23414864,999.7152, , , , 
2026-03-19 21:12:32.869,-0.45942193,5.2163534,9.5760765,0.20723587,-0.30726498,-0.64721125,-21.056252,-26.775002,-42.46875,0.17969784,0.105324544,0.22684173,999.70734, , , , 
2026-03-19 21:12:32.890,-0.2632105,5.355137,10.188639,0.13271037,-0.13255766,-0.59345514,-20.831251,-27.018751,-42.16875,0.18150812,0.104453914,0.22022477,999.70734, , , , 
2026-03-19 21:12:32.909,0.023928227,5.4795637,11.188839,-0.07742711,-0.06902772,-0.5543598,-20.7,-27.375002,-41.8875,0.18184866,0.1046115,0.21450679,999.70734, , , , 
2026-03-19 21:12:32.929,0.56470615,5.1206403,12.9643135,-0.26068655,-0.09590577,-0.5763509,-20.831251,-27.937502,-41.850002,0.18005165,0.10448138,0.20925827,999.70734, , , , 
2026-03-19 21:12:32.949,1.105484,4.101298,14.2133665,-0.09697478,-0.3243692,-0.73028886,-20.94375,-28.3875,-42.05625,0.17749876,0.10319258,0.20339824,999.7029, , , , 
2026-03-19 21:12:32.969,0.72263247,3.6275191,12.94517,0.24877468,-0.45265082,-0.98563033,-21.0375,-28.66875,-42.45,0.17735493,0.10073066,0.1950303,999.7029, , , , 
2026-03-19 21:12:32.990,-0.20578274,3.938586,10.911271,0.38927358,-0.33414304,-1.0149518,-20.8875,-28.931252,-42.787502,0.18004538,0.09876394,0.18425277,999.7029, , , , 
2026-03-19 21:12:33.010,-0.09571291,3.8141594,10.327422,0.41981682,-0.07391464,-0.8268055,-20.400002,-29.19375,-42.99375,0.18333836,0.09871117,0.17417829,999.7029, , , , 
2026-03-19 21:12:33.029,0.18664017,3.4887354,10.217353,0.40759954,0.01282816,-0.7510582,-20.025002,-29.56875,-42.975002,0.18661816,0.100406125,0.16599387,999.7029, , , , 
2026-03-19 21:12:33.049,0.65084773,3.0005996,10.021141,0.33551747,-0.19730933,-0.7938188,-19.81875,-30.225,-42.600002,0.1895431,0.10191103,0.15832722,999.7103, , , , 
2026-03-19 21:12:33.069,0.3589234,3.1680973,9.303294,0.30619597,-0.4905244,-0.95630884,-19.650002,-30.956251,-42.15,0.19217134,0.10093562,0.14928925,999.7103, , , , 
2026-03-19 21:12:33.089,-0.7609176,3.6466618,8.551949,0.33796093,-0.62857985,-0.959974,-19.44375,-31.462502,-41.475002,0.19498561,0.09783444,0.13853054,999.7103, , , , 
2026-03-19 21:12:33.109,-0.9954142,3.6993039,7.556534,0.4564687,-0.6713404,-0.8023709,-19.10625,-31.931252,-40.8375,0.19855458,0.09387916,0.12812746,999.7211, , , , 
2026-03-19 21:12:33.129,-0.526421,3.493521,6.2979093,0.52855074,-0.57848895,-0.69241524,-18.712502,-32.25,-40.40625,0.20336445,0.08966168,0.1189603,999.7211, , , , 
2026-03-19 21:12:33.150,-0.033499517,3.37388,6.0346985,0.54932016,-0.28160867,-0.66309375,-18.431252,-32.568752,-39.84375,0.2085701,0.086789176,0.11087687,999.7211, , , , 
2026-03-19 21:12:33.169,-0.22492532,3.4408789,6.786045,0.61040664,-0.009162972,-0.6227766,-18.2625,-32.9625,-39.206253,0.21374112,0.08710248,0.10375081,999.7211, , , , 
2026-03-19 21:12:33.189,-0.47856453,3.4360933,7.001399,0.6458368,-0.08491021,-0.5568032,-18.150002,-33.3375,-38.550003,0.21934031,0.088812225,0.09733119,999.7211, , , , 
2026-03-19 21:12:33.209,-0.14356937,3.4408789,6.987042,0.5603157,-0.2864956,-0.4761691,-18.018751,-33.80625,-37.74375,0.22499433,0.08885996,0.09135827,999.7173, , , , 
2026-03-19 21:12:33.229,-0.05742774,3.574877,7.6139617,0.5920807,-0.19975278,-0.44196066,-17.79375,-34.350002,-36.975002,0.23020385,0.087620385,0.08574247,999.7173, , , , 
2026-03-19 21:12:33.249,-0.0526421,3.6514473,7.690532,0.6873756,-0.026267186,-0.42363474,-17.53125,-34.818752,-36.487503,0.23599407,0.08769213,0.08070831,999.7173, , , , 
2026-03-19 21:12:33.269,-0.526421,3.842873,7.786245,0.6714931,-0.055588696,-0.3857611,-17.19375,-35.25,-35.925003,0.24223268,0.08886594,0.07603578,999.7173, , , , 
2026-03-19 21:12:33.289,-0.9954142,4.0390844,7.944171,0.61407185,-0.15577053,-0.3112356,-16.78125,-35.662502,-35.34375,0.24822009,0.08938631,0.071719326,999.7099, , , , 
2026-03-19 21:12:33.310,-0.8279166,4.2687955,7.8580294,0.5224421,-0.23396121,-0.20494513,-16.425001,-36.0,-34.93125,0.25372005,0.08863102,0.06808792,999.7099, , , , 
2026-03-19 21:12:33.329,-0.5455636,4.206582,7.8580294,0.4027126,-0.23884813,-0.16340633,-16.087502,-36.375,-34.40625,0.25834015,0.0871244,0.06528678,999.7099,37.88755937,127.73749557,175.62127685546875,1.5
2026-03-19 21:12:33.349,-0.18664017,4.240082,8.030313,0.2829831,-0.102014415,-0.2037234,-15.95625,-36.80625,-33.84375,0.26180947,0.085630395,0.06274905,999.6886, , , , 
2026-03-19 21:12:33.369,-0.3062813,4.4985065,8.532805,0.22189663,0.0140498895,-0.22082762,-15.993751,-37.068752,-33.393753,0.26416937,0.08567619,0.060367305,999.6886, , , , 
2026-03-19 21:12:33.389,-0.16271193,5.048856,8.059027,0.093615025,-0.07391464,-0.20983206,-16.050001,-37.256252,-32.850002,0.26577944,0.08623774,0.058083083,999.6886, , , , 
2026-03-19 21:12:33.409,-0.05742774,4.733003,7.1545396,-0.37064222,-0.034819294,-0.19394957,-16.181252,-37.612503,-32.5125,0.26539832,0.08575676,0.056014996,999.6886, , , , 
2026-03-19 21:12:33.430,-0.5312066,4.4410787,9.547362,-0.7799216,0.1472184,-0.25992295,-16.237501,-37.987503,-32.475002,0.26041844,0.08615205,0.05451073,999.68524, , , , 
2026-03-19 21:12:33.449,-1.1916257,4.058227,11.830115,-0.8312343,0.07147118,-0.3930915,-16.1625,-38.325,-32.53125,0.25211173,0.087680854,0.052700803,999.68524, , , , 
2026-03-19 21:12:33.470,-2.0865414,4.139583,13.418949,-0.4243983,-0.08002329,-0.5067123,-15.900001,-38.456253,-33.037502,0.2444741,0.08855893,0.049197752,999.68524, , , , 
2026-03-19 21:12:33.489,-2.8187451,4.6037908,11.514262,0.20112723,-0.21930045,-0.42119128,-15.4875,-38.193752,-33.80625,0.24204725,0.08836358,0.044237234,999.68524, , , , 
2026-03-19 21:12:33.509,-2.7086751,4.316652,7.6570325,0.22189663,-0.1178969,-0.25870124,-15.1125,-37.93125,-34.48125,0.24435592,0.087444276,0.040017404,999.7054, , , , 
2026-03-19 21:12:33.529,-3.1154552,4.220939,6.762117,-0.16905683,-0.058032155,-0.07299834,-14.7375,-37.800003,-35.04375,0.24526638,0.08725027,0.03765868,999.7054, , , , 
2026-03-19 21:12:33.549,-2.6991038,3.7040894,7.408179,-0.5905535,0.016493348,0.15302163,-14.587501,-37.818752,-35.287502,0.24223211,0.08685906,0.037839614,999.7054, , , , 
2026-03-19 21:12:33.569,-2.0003998,3.0580273,9.537791,-0.683405,0.04703659,0.27763805,-14.587501,-38.0625,-35.193752,0.23593953,0.08675757,0.04049379,999.7054, , , , 
2026-03-19 21:12:33.589,-1.0480564,2.6512475,9.159725,-0.5038107,-0.15332706,0.29474226,-14.606251,-38.2125,-35.193752,0.22989106,0.08579031,0.043823194,999.71454, , , , 
