Time,Accel_X,Accel_Y,Accel_Z,Gyro_X,Gyro_Y,Gyro_Z,Mag_X,Mag_Y,Mag_Z,Orient_X,Orient_Y,Orient_Z,Pressure,Lat,Lng,Alt,Speed
2025-09-27 17:50:09.170,0.6723832,4.6325045,7.1138616,0.048792824,-0.22411102,0.07704532,-11.868751,-47.268753,-34.59375,0.18567924,0.14657827,0.6852872,1001.67206,37.88832997,127.73989556,149.7530517578125,0.0
2025-09-27 17:50:09.190,0.4019942,4.1898327,8.463413,-0.15340342,0.15706861,0.00923933,-14.137501,-46.893753,-34.6875,0.1859192,0.14531858,0.6857249,1001.67206, , , , 
2025-09-27 17:50:09.210,0.7298109,4.2855453,9.750752,-0.01962403,0.25541782,0.0067958706,-14.400001,-45.693752,-31.0125,0.1837419,0.14588451,0.6863294,1001.65204, , , , 
2025-09-27 17:50:09.230,0.63170516,4.74736,9.74836,0.19417864,0.17417282,-0.042073313,-14.118751,-48.018753,-32.456253,0.18251719,0.14794768,0.6866287,1001.65204, , , , 
2025-09-27 17:50:09.250,0.2321038,4.855037,9.379865,0.27053675,0.03733911,-0.06956223,-14.981251,-45.6375,-30.0375,0.18308252,0.1503072,0.6861869,1001.6445, , , , 
2025-09-27 17:50:09.270,0.18903299,5.046463,8.894122,0.25526512,-0.05978839,-0.07628174,-13.931251,-45.768753,-32.90625,0.18469355,0.15238205,0.68531805,1001.6445, , , , 
2025-09-27 17:50:09.290,-0.009571291,4.974678,8.063812,0.116598815,-0.013973532,-0.03901899,-14.606251,-48.206253,-31.462502,0.18646169,0.15365355,0.68439835,1001.60785, , , , 
2025-09-27 17:50:09.310,0.17467605,4.843073,7.925029,-0.05016727,0.2041052,0.01962403,-13.181251,-47.0625,-32.30625,0.18628952,0.15490268,0.68431824,1001.60785, , , , 
2025-09-27 17:50:09.330,0.28235307,4.759324,8.439486,-0.10270164,0.23281583,0.03978257,-13.2375,-45.9375,-32.98125,0.18484975,0.15569718,0.6848467,1001.5727, , , , 
2025-09-27 17:50:09.350,0.37088752,4.520042,9.174082,-0.028176138,0.10025818,-5.345067E-4,-15.8625,-45.600002,-30.093752,0.18269426,0.15652545,0.6856183,1001.5727, , , , 
2025-09-27 17:50:09.370,0.3278167,4.479364,8.79123,0.06895136,-0.014584397,-0.025579963,-15.468751,-45.825,-29.343752,0.18244055,0.1569655,0.6855931,1001.5522, , , , 
2025-09-27 17:50:09.390,0.49292147,4.601398,8.367701,0.074449144,-0.025579963,-0.04818196,-14.94375,-46.03125,-28.312502,0.18314138,0.15729317,0.68518883,1001.5522, , , , 
2025-09-27 17:50:09.410,0.36610186,4.7018967,8.176275,0.042684175,0.050778136,-0.057344932,-16.331251,-45.768753,-30.656252,0.18354799,0.15781248,0.6847454,1001.5373, , , , 
2025-09-27 17:50:09.430,0.30149564,4.76411,8.271988,0.01763872,0.029397868,-0.07017309,-15.093751,-46.162502,-29.681252,0.18342571,0.15850712,0.6843606,1001.5373, , , , 
2025-09-27 17:50:09.450,0.27038896,4.7306104,8.504091,0.0029779659,-0.108657576,-0.08849903,-15.50625,-46.818752,-30.225,0.18365946,0.1586171,0.683624,1001.53534, , , , 
2025-09-27 17:50:09.470,0.24646074,4.6085763,8.504091,-0.02328922,-0.13858995,-0.08972076,-15.1125,-46.912502,-28.706251,0.18434264,0.15787645,0.6828006,1001.53534, , , , 
2025-09-27 17:50:09.490,0.1268196,4.6468616,8.484949,-0.048334677,-0.109268434,-0.066507906,-14.400001,-47.831253,-29.962502,0.18486866,0.1569394,0.6820403,1001.5212, , , , 
2025-09-27 17:50:09.510,0.17228323,4.694718,8.4682,-0.06421716,-0.0072540194,-0.02008218,-15.3,-47.0625,-28.5375,0.18482964,0.15632068,0.68170464,1001.5212, , , , 
2025-09-27 17:50:09.530,0.2440679,4.666004,8.556734,-0.08681916,0.117362395,-0.008475749,-15.468751,-45.80625,-30.13125,0.18405545,0.15615207,0.68178815,1001.5151, , , , 
2025-09-27 17:50:09.550,0.25842485,4.7401814,8.803194,-0.07948878,0.15462515,-0.023747368,-16.275002,-46.893753,-29.831251,0.18254015,0.15656498,0.682076,1001.5151, , , , 
2025-09-27 17:50:09.570,0.19621146,4.7306104,8.941978,-0.008628465,0.006185006,-0.055512335,-14.625001,-46.612503,-28.0125,0.18117253,0.15709858,0.68209666,1001.5026, , , , 
2025-09-27 17:50:09.590,0.05742774,4.7282176,8.769695,0.0029779659,-0.08300125,-0.06406444,-14.025001,-46.03125,-30.88125,0.18140164,0.15698881,0.68159384,1001.5026, , , , 
2025-09-27 17:50:09.610,-0.09810573,4.5966125,8.56152,-0.076434456,0.04894554,-0.024358233,-16.143751,-46.256252,-29.56875,0.18139295,0.15682863,0.6811077,1001.48334, , , , 
2025-09-27 17:50:09.630,0.011964113,4.85743,8.7577305,-0.13141228,0.26702428,0.011071924,-16.462502,-47.04375,-29.175001,0.17992948,0.15744627,0.6813474,1001.48334, , , , 
2025-09-27 17:50:09.650,0.11724831,4.7832522,8.989835,-0.11675153,0.2664134,0.020234896,-15.843751,-46.85625,-28.48125,0.17662352,0.1591742,0.6822473,1001.46576, , , , 
2025-09-27 17:50:09.670,0.05742774,4.883751,9.224331,-0.028176138,0.11491894,0.0067958706,-15.093751,-46.143753,-30.300001,0.17460313,0.16023217,0.6828075,1001.46576, , , , 
2025-09-27 17:50:09.690,-0.011964113,4.7162533,8.812766,0.015806125,0.014126248,-0.0054214248,-13.837501,-45.65625,-29.23125,0.1740114,0.16093934,0.68290764,1001.4567, , , , 
2025-09-27 17:50:09.710,0.04546363,4.7114677,8.772088,-0.020845762,-0.039629854,-0.0054214248,-16.650002,-47.193752,-28.3875,0.17407772,0.16128041,0.6827751,1001.4567, , , , 
2025-09-27 17:50:09.730,-0.019142581,4.6468616,8.827123,-0.051999863,0.04894554,0.006185006,-14.3625,-44.71875,-29.38125,0.17382042,0.1612625,0.68272704,1001.4643, , , , 
2025-09-27 17:50:09.750,0.05503492,4.6372905,8.669196,-0.05688678,0.10025818,0.019013166,-14.56875,-45.84375,-30.843752,0.17296644,0.16158186,0.68296236,1001.4643, , , , 
2025-09-27 17:50:09.770,0.09810573,4.658826,8.578269,-0.07032581,0.1485165,0.009850195,-14.2875,-47.193752,-29.7,0.17192811,0.16219251,0.6833229,1001.48236, , , , 
2025-09-27 17:50:09.790,0.11246266,4.627719,8.748159,-0.028787002,0.12652537,-5.345067E-4,-13.9125,-46.143753,-30.2625,0.17078017,0.16294236,0.68366426,1001.48236, , , , 
2025-09-27 17:50:09.811,0.15074782,4.599005,8.185846,-0.059941106,0.19372049,0.020845762,-14.94375,-45.28125,-28.2,0.16999838,0.16374217,0.68388134,1001.51556, , , , 
2025-09-27 17:50:09.830,-0.08135597,4.56072,8.315059,-0.17050762,0.29634577,0.03489565,-14.00625,-45.80625,-28.743752,0.16746141,0.16525936,0.6847943,1001.5507, , , , 
2025-09-27 17:50:09.850,0.16510476,4.536792,8.867801,-0.18150319,0.18577924,0.062995434,-13.950001,-47.1375,-31.143751,0.16545014,0.16573049,0.68556607,1001.5507, , , , 
2025-09-27 17:50:09.873,-0.09571291,4.4721856,8.52802,-0.17600541,0.14973822,0.03611738,-13.931251,-44.04375,-29.925001,0.16259117,0.16540273,0.6868836,1001.591, , , , 
2025-09-27 17:50:09.892,0.06460621,4.369294,8.941978,-0.17417282,0.19005531,-0.0060322895,-13.81875,-45.6375,-30.000002,0.16093357,0.16536278,0.68740994,1001.591, , , , 
2025-09-27 17:50:09.911,-0.6556334,4.328616,8.827123,-0.14485131,0.12163845,0.015347977,-13.725,-46.0125,-30.91875,0.1585473,0.16533267,0.68790233,1001.6298, , , , 
2025-09-27 17:50:09.930,-0.31345975,4.395615,9.303294,-0.09720386,0.033063058,0.03733911,-13.81875,-46.612503,-32.568752,0.15637046,0.16541542,0.68837214,1001.6298, , , , 
2025-09-27 17:50:09.950,-0.24885355,4.4171505,9.547362,-0.020234896,-0.090942495,0.013515383,-14.906251,-46.0125,-30.16875,0.15556449,0.16486323,0.6886682,1001.6298, , , , 
2025-09-27 17:50:09.970,-0.35174492,4.426722,9.52822,0.09705114,-0.19234605,-5.345067E-4,-14.681251,-44.86875,-30.2625,0.1560317,0.16400436,0.6885221,1001.6557, , , , 
2025-09-27 17:50:09.990,0.031106694,4.6492543,8.872586,0.1343139,-0.24915648,-0.013362667,-14.118751,-45.675003,-29.962502,0.15850848,0.1632933,0.68782914,1001.6557, , , , 
2025-09-27 17:50:10.010,-0.09092726,4.536792,8.274381,0.061620984,-0.1343139,-0.046349365,-14.493751,-46.2,-31.29375,0.16094057,0.16293225,0.6870604,1001.6667, , , , 
2025-09-27 17:50:10.031,0.0,4.5535417,8.5423765,-0.075212725,0.07460186,-0.026801692,-15.150001,-45.787502,-30.468752,0.16157262,0.16321783,0.6866007,1001.6806, , , , 
2025-09-27 17:50:10.050,-0.02871387,4.3740797,9.075976,-0.07460186,0.11614066,-0.018249584,-14.437501,-45.206253,-31.2,0.1605505,0.16352862,0.6867004,1001.6806, , , , 
2025-09-27 17:50:10.070,-0.02632105,4.395615,8.992228,-0.038560838,0.017791437,-0.023747368,-15.468751,-45.825,-29.343752,0.15941165,0.16360554,0.68685615,1001.6933, , , , 
2025-09-27 17:50:10.090,-0.11246266,4.2568316,9.025727,-0.009850195,-0.029245151,-0.040240716,-15.4125,-46.18125,-29.19375,0.1591412,0.16332702,0.68674004,1001.6933, , , , 
2025-09-27 17:50:10.110,-0.30149564,4.2711883,8.927621,0.020693045,-0.022525638,-0.040240716,-13.81875,-44.90625,-29.41875,0.15896969,0.16306645,0.68642765,1001.6933, , , , 
2025-09-27 17:50:10.131,-0.23928227,4.3764725,8.810373,-0.012904518,0.05016727,-0.013973532,-14.587501,-46.59375,-30.16875,0.15851681,0.16348977,0.6861076,1001.7016, , , , 
2025-09-27 17:50:10.150,-0.08853444,4.4434714,9.006584,-0.028176138,0.06421716,-0.025579963,-14.175,-45.9375,-29.94375,0.15781493,0.16388188,0.68612105,1001.7016, , , , 
2025-09-27 17:50:10.172,-0.15074782,4.429115,9.032906,-0.0074067353,-0.031688612,-0.032299474,-16.087502,-46.0125,-29.587502,0.15738077,0.16395827,0.68599397,1001.7094,37.88832997,127.73989556,149.7530517578125,0.0
2025-09-27 17:50:10.191,-0.23688944,4.469793,8.669196,-0.025121814,-0.024358233,-0.026801692,-14.26875,-45.075,-30.6,0.1574702,0.16379996,0.68572277,1001.7094, , , , 
2025-09-27 17:50:10.211,-0.20817557,4.3094735,8.9108715,-0.06421716,0.07460186,-0.007864884,-14.437501,-45.206253,-31.2,0.15706055,0.16389902,0.6856107,1001.7172, , , , 
2025-09-27 17:50:10.232,-0.30867413,4.331009,8.891729,-0.031841327,0.061162837,0.009850195,-14.681251,-44.86875,-29.962502,0.15595932,0.1640993,0.68577904,1001.7172, , , , 
2025-09-27 17:50:10.251,-0.08135597,4.4339004,8.846265,0.02008218,-0.037797257,0.0074067353,-14.306251,-45.825,-29.325,0.15552428,0.16431661,0.6858961,1001.726, , , , 
2025-09-27 17:50:10.272,-0.17228323,4.386044,8.547162,0.0060322895,-0.092164226,-0.0029779659,-14.64375,-46.85625,-29.85,0.15646428,0.16421203,0.68568665,1001.74603, , , , 
2025-09-27 17:50:10.291,-0.5312066,4.1778684,8.786445,-0.044669487,-0.048792824,0.014126248,-13.89375,-46.143753,-31.66875,0.15684518,0.16378517,0.6855214,1001.74603, , , , 
2025-09-27 17:50:10.313,-0.09571291,4.3262234,8.879765,-0.082543105,0.1051451,0.033063058,-12.4875,-45.0,-31.406252,0.15610713,0.163444,0.68579113,1001.75555, , , , 
2025-09-27 17:50:10.330,-0.06460621,4.4339004,8.685946,-0.10758856,0.17050762,0.036728244,-14.212501,-45.54375,-31.81875,0.15475474,0.16362609,0.6863885,1001.75555, , , , 
2025-09-27 17:50:10.350,-0.25124636,4.517649,8.640483,-0.13019055,0.13996439,0.032452192,-13.1625,-44.7,-31.2,0.15322101,0.16411501,0.6870009,1001.75555, , , , 
2025-09-27 17:50:10.371,-0.5240282,4.584648,8.805588,-0.09537126,0.0080176005,0.03367392,-13.481251,-44.850002,-31.63125,0.15192385,0.16412292,0.6874984,1001.76825, , , , 
2025-09-27 17:50:10.390,0.6269195,4.0797625,8.693125,-0.088651754,-0.16302454,0.0025198173,-13.70625,-45.768753,-29.081251,0.15160318,0.16375104,0.68773735,1001.76825, , , , 
2025-09-27 17:50:10.410,-0.083748795,4.3525443,8.88455,-0.06666062,-0.10438152,0.0012980876,-14.55,-44.23125,-30.31875,0.15251774,0.1620179,0.6876676,1001.7797, , , , 
2025-09-27 17:50:10.430,-0.12921242,4.2999024,8.975478,-0.069104075,-0.03046688,0.0080176005,-12.95625,-43.575,-30.206251,0.15267597,0.16098782,0.6876867,1001.7797, , , , 
2025-09-27 17:50:10.450,0.148355,4.254439,8.834301,-0.058108512,-0.07139482,0.0037415468,-13.856251,-43.78125,-31.031252,0.15259606,0.16003706,0.68785423,1001.8, , , , 
2025-09-27 17:50:10.470,0.11724831,4.2352962,8.786445,-0.083764836,-0.07017309,-0.043905906,-14.64375,-46.10625,-30.35625,0.15306659,0.15879324,0.6877773,1001.8, , , , 
2025-09-27 17:50:10.490,-0.2656033,4.156333,8.839087,-0.118584126,-0.00481056,-0.03046688,-14.925,-45.2625,-29.2875,0.15269083,0.15784237,0.68759763,1001.81, , , , 
2025-09-27 17:50:10.511,-0.30388847,4.223332,8.729017,-0.12530364,-0.07750347,0.00923933,-14.1,-45.675003,-30.581251,0.15169126,0.15723638,0.6876074,1001.81, , , , 
2025-09-27 17:50:10.530,-0.021535404,4.1898327,8.712267,-0.1344666,-0.07994693,0.0025198173,-14.64375,-47.5875,-30.2625,0.15138473,0.15606754,0.68765706,1001.8129, , , , 
2025-09-27 17:50:10.550,0.009571291,4.2975097,8.283952,-0.20899211,0.029397868,-0.0353538,-13.950001,-45.54375,-29.38125,0.15094289,0.15484846,0.68774474,1001.8129, , , , 
2025-09-27 17:50:10.570,-0.43070808,4.1778684,8.149954,-0.43623382,0.23281583,-0.0066431547,-15.562501,-46.331253,-29.775002,0.14773792,0.15411113,0.6881283,1001.80927, , , , 
2025-09-27 17:50:10.590,-0.14596218,4.139583,8.800801,-0.53580475,0.27374378,0.031230463,-13.837501,-45.15,-31.25625,0.1428709,0.15324524,0.6891825,1001.80927, , , , 
2025-09-27 17:50:10.611,0.047856454,3.9649072,9.133404,-0.48510298,0.2578613,0.006185006,-11.7375,-44.925003,-31.500002,0.13785274,0.1515764,0.6904929,1001.8078, , , , 
2025-09-27 17:50:10.631,-0.33499518,3.940979,9.262616,-0.40324712,0.08987348,-0.044516772,-12.95625,-45.91875,-31.931252,0.13375314,0.149711,0.6913263,1001.8122, , , , 
2025-09-27 17:50:10.650,-0.6771688,3.7184465,9.753145,-0.32078037,-0.055512335,-0.01886045,-13.70625,-43.875,-32.8875,0.13057278,0.14769125,0.69163173,1001.8122, , , , 
2025-09-27 17:50:10.670,-0.6628119,3.4791641,10.188639,-0.18577924,-0.09582941,0.049556404,-12.825001,-44.643753,-33.7125,0.12824377,0.14537767,0.6919021,1001.8122, , , , 
2025-09-27 17:50:10.690,-0.44506502,3.4887354,9.997213,-0.06360629,-0.057344932,0.09598213,-12.150001,-44.831253,-32.7,0.12674269,0.1434839,0.6924831,1001.8083, , , , 
2025-09-27 17:50:10.710,-0.2656033,3.6227336,9.51147,-0.012293654,-0.042684175,0.10270164,-14.3625,-45.675003,-32.71875,0.12622513,0.14236155,0.6932192,1001.8083, , , , 
2025-09-27 17:50:10.730,-0.3278167,3.7423747,9.147761,-0.045891218,-0.06956223,0.09842559,-13.481251,-43.706253,-35.7,0.12628464,0.14173505,0.6938797,1001.80316, , , , 
2025-09-27 17:50:10.750,-0.09571291,3.6107693,9.410972,-0.07460186,-0.09582941,0.084375694,-13.70625,-42.487503,-33.75,0.126575,0.14046332,0.694598,1001.80316, , , , 
2025-09-27 17:50:10.770,-0.07178468,3.4648073,9.475577,-0.028176138,-0.039629854,0.06666062,-12.95625,-45.28125,-33.65625,0.12671047,0.13911086,0.69514215,1001.80194, , , , 
2025-09-27 17:50:10.790,-0.047856454,3.644269,9.219545,-6.8722287E-4,0.014737112,0.07276927,-13.425,-43.8375,-32.30625,0.12665755,0.13850813,0.6956799,1001.80194, , , , 
2025-09-27 17:50:10.810,0.10049855,3.8835511,9.152547,-0.0037415468,-0.061620984,0.042226028,-11.418751,-43.5,-34.0875,0.12699942,0.13828522,0.69617474,1001.7951, , , , 
2025-09-27 17:50:10.830,0.2536392,3.739982,9.131011,0.021303909,-0.20334162,0.008628465,-13.725,-44.850002,-35.15625,0.12839013,0.13750172,0.69626606,1001.7951, , , , 
2025-09-27 17:50:10.850,0.0047856453,3.7710886,9.083155,-0.017180571,-0.15997021,-0.019471316,-13.462501,-44.850002,-32.4,0.13066708,0.1356395,0.69589967,1001.78534, , , , 
2025-09-27 17:50:10.871,0.16271193,3.7088752,9.157332,-0.07887791,-0.0011453715,0.0025198173,-12.1125,-43.331253,-34.0125,0.13124634,0.13478194,0.6957968,1001.78534, , , , 
2025-09-27 17:50:10.890,0.15792629,3.4743786,9.288938,-0.08193224,0.062995434,-0.039629854,-12.0375,-42.9375,-33.73125,0.13089451,0.13423394,0.695902,1001.7624, , , , 
2025-09-27 17:50:10.910,0.14356937,3.7878382,9.626326,0.0029779659,-0.07506001,-0.010919208,-13.425,-44.5875,-32.41875,0.13026996,0.13365506,0.6958476,1001.7502, , , , 
2025-09-27 17:50:10.930,0.35413775,3.8237305,9.470792,0.098272875,-0.1740201,-0.07628174,-13.762501,-45.61875,-33.24375,0.13163963,0.1328476,0.6954914,1001.7502, , , , 
2025-09-27 17:50:10.950,0.0,3.8069808,9.260223,0.13125958,-0.2192241,-0.11537708,-12.375001,-44.71875,-34.6875,0.1339379,0.13225721,0.694535,1001.7502, , , , 
2025-09-27 17:50:10.970,-1.0935199,3.5988052,9.025727,0.08849903,-0.18135048,-0.012140937,-11.793751,-43.800003,-32.643753,0.13570659,0.13225804,0.6933443,1001.738, , , , 
2025-09-27 17:50:10.990,-0.9212367,3.5772698,8.915657,0.0072540194,-0.120264,0.23098324,-12.69375,-44.756252,-33.881252,0.13590913,0.13294268,0.6934807,1001.7341, , , , 
2025-09-27 17:50:11.010,0.43788654,3.5820556,9.008977,-0.12530364,0.0025198173,0.3287216,-14.3625,-45.675003,-33.1875,0.13585837,0.13222645,0.6954556,1001.7341, , , , 
2025-09-27 17:50:11.030,1.2299109,3.8261235,9.193225,-0.18089233,0.12408191,0.21815509,-11.887501,-43.66875,-33.862503,0.13544844,0.130503,0.6978781,1001.7341, , , , 
2025-09-27 17:50:11.050,0.9954142,3.9146578,9.47797,-0.082543105,0.13202316,-0.022525638,-12.39375,-43.96875,-34.10625,0.13512161,0.12921758,0.69912875,1001.73505, , , , 
2025-09-27 17:50:11.070,0.4546363,3.830909,9.525827,0.07017309,-0.050014555,-0.12148573,-13.70625,-44.60625,-33.0,0.13547516,0.12894244,0.69884074,1001.73505, , , , 
2025-09-27 17:50:11.090,0.04546363,3.7686956,9.394221,0.14530946,-0.13492475,-0.1758527,-13.6125,-45.7125,-34.5,0.13712652,0.12895642,0.6976123,1001.7348, , , , 
2025-09-27 17:50:11.111,-0.3062813,3.493521,9.688539,0.18196134,-0.14592032,-0.16241367,-12.88125,-44.15625,-33.581253,0.13856979,0.12954292,0.6960414,1001.7348, , , , 
2025-09-27 17:50:11.130,-0.64845496,3.3930225,9.674182,0.2778671,-0.26503897,-0.100105464,-14.1,-44.5125,-34.66875,0.13990867,0.13002172,0.69455117,1001.7392, , , , 
2025-09-27 17:50:11.150,-0.89730847,3.6227336,9.064013,0.31146467,-0.34872743,0.022067491,-12.168751,-43.575,-33.693752,0.14228413,0.13062464,0.6932369,1001.7392, , , , 
2025-09-27 17:50:11.172,0.12203395,4.007978,8.776874,0.21250458,-0.33467755,0.15462515,-11.981251,-44.68125,-32.568752,0.1465365,0.1312337,0.69263595,1001.7526,37.88832997,127.73989556,149.7530517578125,0.0
2025-09-27 17:50:11.190,0.43788654,3.8644085,8.769695,0.15080725,-0.33101234,0.067271486,-13.89375,-45.506252,-32.625,0.15039088,0.13055347,0.6927354,1001.7563, , , , 
2025-09-27 17:50:11.210,0.18424734,4.0869412,9.025727,0.09582941,-0.42752898,0.032452192,-14.00625,-44.643753,-33.43125,0.15403423,0.12897946,0.6923236,1001.7563, , , , 
2025-09-27 17:50:11.230,0.35653058,4.0965123,9.178867,0.068340495,-0.42630726,0.010461059,-15.468751,-46.78125,-33.16875,0.15757823,0.12698399,0.6916633,1001.7563, , , , 
2025-09-27 17:50:11.252,0.27038896,3.7950168,9.025727,0.059177525,-0.28092143,-0.007864884,-15.95625,-46.10625,-30.375002,0.1605942,0.12508921,0.6909092,1001.75433, , , , 
2025-09-27 17:50:11.273,0.45702913,3.7950168,8.927621,-0.006185006,0.054443322,0.059941106,-14.025001,-45.393753,-32.15625,0.16163641,0.12427928,0.6907045,1001.75824, , , , 
2025-09-27 17:50:11.290,0.77766734,4.046263,8.898908,-0.05688678,0.20532693,0.04344776,-14.043751,-45.412502,-31.3875,0.16099697,0.12463398,0.6912096,1001.75824, , , , 
2025-09-27 17:50:11.310,0.49292147,4.54397,9.284152,0.06895136,-0.21555892,-0.010919208,-13.5375,-43.74375,-31.987501,0.16086638,0.1252077,0.69144326,1001.7575, , , , 
2025-09-27 17:50:11.330,0.9499506,4.321438,9.23151,0.109268434,-0.28031057,0.062384564,-13.481251,-44.850002,-31.63125,0.16351457,0.124560796,0.690985,1001.7575, , , , 
2025-09-27 17:50:11.350,1.5577276,4.1108694,8.989835,0.12331833,-0.40431613,0.0074067353,-13.6125,-44.737503,-31.781252,0.16742912,0.12273464,0.6907255,1001.7575, , , , 
2025-09-27 17:50:11.370,1.3998013,4.1371903,9.257831,0.12454005,-0.4379137,-0.19234605,-15.8625,-45.84375,-32.25,0.17209874,0.11996755,0.6895799,1001.74506, , , , 
2025-09-27 17:50:11.391,0.66041905,3.8404803,9.410972,0.14592032,-0.44768754,-0.29924738,-15.168751,-46.537502,-30.281252,0.17617084,0.11760404,0.68722486,1001.74506, , , , 
2025-09-27 17:50:11.411,0.22013968,3.603591,9.370294,0.23388486,-0.4495201,-0.3077995,-16.143751,-46.256252,-29.56875,0.17908376,0.11612091,0.6842838,1001.7341, , , , 
2025-09-27 17:50:11.432,-0.014356935,4.091727,8.822337,0.23449571,-0.32612544,-0.21616977,-14.85,-45.0,-30.862501,0.18261911,0.11551699,0.6806324,1001.73114, , , , 
2025-09-27 17:50:11.450,0.28713873,3.845266,8.56152,0.17829616,-0.20456335,-0.13248129,-15.975,-44.756252,-29.831251,0.184718,0.11686615,0.6785352,1001.73114, , , , 
2025-09-27 17:50:11.470,0.35413775,3.8380876,8.79123,0.059177525,-0.18135048,0.020234896,-15.69375,-46.95,-30.0375,0.18640421,0.11640185,0.6774645,1001.73114, , , , 
2025-09-27 17:50:11.490,0.8063812,3.8548372,8.386844,-0.10758856,0.34704757,0.11308634,-14.64375,-46.10625,-30.0375,0.18562144,0.116841294,0.6780074,1001.71844, , , , 
2025-09-27 17:50:11.510,0.8566305,4.1228333,8.575876,-0.2523635,0.4661662,0.08926262,-15.187501,-45.28125,-30.806252,0.1820551,0.11832413,0.67965114,1001.71844, , , , 
2025-09-27 17:50:11.530,0.7537391,4.019942,9.049655,-0.2664134,0.4313469,0.055054188,-14.493751,-46.2,-31.29375,0.17766638,0.11956089,0.6812264,1001.71454, , , , 
2025-09-27 17:50:11.553,0.54317075,3.9050865,9.233903,-0.23220497,0.44112074,0.07765619,-13.968751,-45.787502,-30.900002,0.17174964,0.12104631,0.6830638,1001.7045, , , , 
2025-09-27 17:50:11.570,0.49292147,4.0869412,9.559326,-0.17050762,0.27252206,0.11614066,-13.781251,-44.8875,-31.893751,0.16856274,0.1217846,0.6842373,1001.7045, , , , 
2025-09-27 17:50:11.590,0.7178468,4.2257247,10.140782,0.0041996953,-0.009086614,0.12041672,-13.650001,-44.98125,-32.2125,0.16643623,0.12198422,0.68549275,1001.7045, , , , 
2025-09-27 17:50:11.610,1.0719845,3.952943,10.025927,0.32368198,-0.21800236,0.088651754,-14.1,-45.15,-33.393753,0.1681348,0.12147904,0.6862398,1001.7111, , , , 
2025-09-27 17:50:11.630,1.105484,4.180261,9.224331,0.4965567,-0.48678288,0.017180571,-13.200001,-45.693752,-32.68125,0.17328419,0.121080965,0.6857586,1001.7111, , , , 
2025-09-27 17:50:11.650,1.2394822,4.1611185,8.685946,0.46906778,-0.3853793,-0.0891099,-15.58125,-45.693752,-30.73125,0.180582,0.12062206,0.68421733,1001.716, , , , 
2025-09-27 17:50:11.670,0.4546363,3.9888353,8.181061,0.29069528,-0.021303909,-0.046349365,-14.2875,-46.55625,-30.975,0.18558267,0.12159251,0.6826659,1001.716, , , , 
2025-09-27 17:50:11.691,1.2227324,4.5248275,9.085547,0.20517421,0.28779367,0.11614066,-14.625001,-46.0875,-31.44375,0.18529274,0.12465682,0.68301964,1001.72235, , , , 
2025-09-27 17:50:11.710,1.7659031,4.709075,8.420342,0.23327398,-0.090942495,-0.03718639,-13.762501,-46.03125,-29.062502,0.18677217,0.12681262,0.68365353,1001.72235, , , , 
2025-09-27 17:50:11.731,1.0097711,4.347759,8.7266245,0.13675736,-0.11293363,-0.12820524,-13.293751,-45.956253,-30.187502,0.19109017,0.12695988,0.6823252,1001.7331, , , , 
2025-09-27 17:50:11.751,0.37567315,4.0534415,8.937193,0.13187043,-0.08422298,-0.08422298,-15.20625,-46.03125,-30.13125,0.19215414,0.12738974,0.6812707,1001.7331, , , , 
2025-09-27 17:50:11.771,0.5910272,4.2831526,8.630911,0.15997021,-0.21372631,-0.01886045,-14.64375,-47.5875,-30.2625,0.19318166,0.12774089,0.6804554,1001.7275, , , , 
2025-09-27 17:50:11.791,1.6079768,4.599005,8.250452,0.10804671,-0.18012875,-0.075670876,-14.868751,-45.75,-29.8875,0.19583453,0.12749766,0.67966527,1001.7277, , , , 
2025-09-27 17:50:11.810,0.7106683,4.113262,7.6977105,0.040240716,0.10147991,-0.20945026,-15.356251,-45.9375,-28.593752,0.19820762,0.12696165,0.6785545,1001.7277, , , , 
2025-09-27 17:50:11.830,0.0023928226,4.7952166,8.437093,-0.12286018,-0.047571093,-0.119653136,-16.10625,-46.7625,-29.23125,0.19685566,0.12885335,0.6774209,1001.7277, , , , 
2025-09-27 17:50:11.851,0.782453,4.321438,8.645268,-0.1277471,0.07460186,-0.0787252,-12.1125,-45.73125,-28.312502,0.19560932,0.12971422,0.67660445,1001.71747, , , , 
2025-09-27 17:50:11.870,1.1581261,4.017549,10.451849,0.01763872,0.14301872,-0.13187043,-13.25625,-46.4625,-29.23125,0.19362676,0.12904689,0.6763186,1001.71747, , , , 
2025-09-27 17:50:11.892,0.65084773,4.462614,10.454242,0.34628397,-0.123929195,-0.19295691,-14.175,-47.41875,-30.16875,0.1933997,0.12992258,0.6753894,1001.7131, , , , 
2025-09-27 17:50:11.910,0.49052864,4.766503,9.322437,0.4654026,-0.29680392,-0.1514181,-12.075001,-45.7125,-30.187502,0.19697367,0.13150117,0.6732967,1001.7131, , , , 
2025-09-27 17:50:11.931,0.8757731,4.867001,8.26481,0.36949682,-0.3108538,-0.116598815,-15.075001,-46.66875,-27.956251,0.2017692,0.13270792,0.6712557,1001.7419, , , , 
2025-09-27 17:50:11.950,0.79441714,5.0847483,7.867601,0.2485456,-0.41408995,-0.11293363,-13.200001,-47.5875,-28.875002,0.20620969,0.13282056,0.66931385,1001.7419, , , , 
2025-09-27 17:50:11.970,0.82313097,4.912465,7.3698936,0.09277509,-0.3615556,-0.07322741,-14.26875,-46.95,-27.862501,0.21027741,0.1316626,0.66746676,1001.73944, , , , 
2025-09-27 17:50:11.991,1.1174482,4.709075,7.9154572,-0.09537126,0.0067958706,-0.03046688,-14.75625,-48.6375,-27.112501,0.21218261,0.13028029,0.66641796,1001.7089, , , , 
2025-09-27 17:50:12.010,1.2370893,4.6492543,8.609376,-0.1344666,0.07826705,-0.061620984,-15.150001,-48.525,-28.462502,0.21133932,0.13002783,0.66642046,1001.7089, , , , 
2025-09-27 17:50:12.031,0.8470592,4.6037908,8.489735,-0.1344666,0.003130682,-0.13187043,-14.56875,-46.987503,-27.056252,0.20981449,0.12954146,0.6659235,1001.7043, , , , 
2025-09-27 17:50:12.050,0.3278167,4.113262,7.8173513,-0.26458082,0.30550876,-0.092164226,-14.2875,-48.468754,-26.7,0.20797051,0.12932947,0.6654692,1001.7043, , , , 
2025-09-27 17:50:12.070,-0.27517462,4.005585,8.415557,-0.48204866,0.83451766,0.023900084,-15.356251,-47.30625,-28.500002,0.20161141,0.1309439,0.6667209,1001.7043, , , , 
2025-09-27 17:50:12.092,-0.33260235,4.194618,8.953942,-0.4881573,0.88155425,0.17172936,-13.968751,-47.15625,-30.056252,0.192195,0.13390589,0.6696807,1001.707, , , , 
2025-09-27 17:50:12.112,0.44027936,4.4674,9.241081,-0.40752316,0.4954877,0.19066617,-12.806251,-47.79375,-28.931252,0.18261057,0.1359592,0.6736089,1001.71185, , , , 
2025-09-27 17:50:12.131,1.3256238,4.618148,9.253045,-0.25053093,0.18639012,0.12163845,-12.95625,-46.425003,-30.0375,0.17936589,0.13581453,0.67528474,1001.71185, , , , 
2025-09-27 17:50:12.150,1.6127625,4.28076,9.372686,-0.13752094,0.14729477,-0.033521205,-14.025001,-46.78125,-30.993752,0.17683074,0.13506265,0.6764915,1001.71747, , , , 
2025-09-27 17:50:12.170,0.7968099,3.885944,9.667004,-0.030008731,0.25541782,-0.11232276,-12.95625,-46.443752,-29.268751,0.17536063,0.13542013,0.67652607,1001.71747,37.88832997,127.73989556,149.7530517578125,0.0
2025-09-27 17:50:12.192,-0.13160525,4.4147577,9.492328,0.19112432,-0.054290608,-0.07200569,-13.837501,-46.40625,-29.025002,0.17402105,0.13755849,0.6759417,1001.73895, , , , 
2025-09-27 17:50:12.210,0.3684947,4.558327,9.013762,0.22288929,-0.26381722,-0.06101012,-13.1625,-46.818752,-30.937502,0.17612053,0.13819382,0.6750126,1001.73895, , , , 
2025-09-27 17:50:12.231,0.0741775,4.345366,8.571091,0.1636354,-0.16546799,-0.08605558,-12.975,-45.91875,-31.312502,0.17907809,0.13801387,0.6737591,1001.73895, , , , 
2025-09-27 17:50:12.250,-0.9164511,4.3932223,8.815159,0.08422298,0.02451095,0.12896882,-12.69375,-45.9,-30.2625,0.180437,0.13850468,0.67313176,1001.74554, , , , 
2025-09-27 17:50:12.270,-1.4117653,5.123033,8.724232,-0.013515383,-0.017027855,0.7105121,-13.875001,-46.65,-30.093752,0.18083696,0.1388729,0.6749454,1001.74554, , , , 
2025-09-27 17:50:12.290,0.20817557,4.6492543,7.8699937,-0.37270388,-0.26381722,1.1576651,-14.700001,-47.850002,-30.243752,0.18181151,0.13651524,0.68088454,1001.7192, , , , 
2025-09-27 17:50:12.311,2.2468605,3.6514473,7.798209,-0.9047671,-0.7586177,0.99578595,-13.2375,-45.7125,-30.525002,0.1827769,0.12509185,0.6901423,1001.7192, , , , 
2025-09-27 17:50:12.330,3.493521,3.5940197,9.260223,-0.7050143,-0.13614649,0.21448989,-14.400001,-44.9625,-30.13125,0.18163857,0.11422031,0.6948911,1001.67303, , , , 
2025-09-27 17:50:12.350,2.0817556,4.240082,10.535598,-0.27313292,0.11003202,-0.2192241,-15.562501,-45.693752,-31.050001,0.1783829,0.110431775,0.6953273,1001.67303, , , , 
2025-09-27 17:50:12.370,0.90448695,3.8668015,10.813166,0.065286174,-0.0029779659,-0.24610215,-16.40625,-44.90625,-32.4,0.17681816,0.11026893,0.6939981,1001.6171, , , , 
2025-09-27 17:50:12.390,0.6939186,3.6203406,10.872986,0.44341147,0.43684468,-0.16485713,-16.10625,-44.11875,-32.006252,0.17677177,0.11248603,0.6925358,1001.6171, , , , 
2025-09-27 17:50:12.410,0.38285163,3.9242291,10.193424,0.70363986,0.48265955,-0.13003784,-16.050001,-46.725002,-32.175003,0.1768353,0.11942935,0.69175535,1001.5878, , , , 
2025-09-27 17:50:12.430,0.083748795,3.885944,8.949157,0.7219658,0.35559967,-0.0029779659,-15.150001,-45.787502,-30.468752,0.17829482,0.1274514,0.69104314,1001.5878, , , , 
2025-09-27 17:50:12.450,0.5024927,4.223332,7.9704924,0.50510883,0.1625664,0.06543889,-15.656251,-46.2,-31.63125,0.18131681,0.13508728,0.6909178,1001.5656, , , , 
2025-09-27 17:50:12.470,0.45942193,4.3908296,7.752745,0.3004691,0.18516839,0.039171703,-15.562501,-47.0625,-29.8875,0.18295904,0.13904123,0.69101155,1001.5656, , , , 
2025-09-27 17:50:12.490,0.8925229,4.510471,7.4153576,0.08605558,0.07154754,0.014737112,-14.587501,-45.84375,-30.056252,0.18367332,0.14132434,0.6911727,1001.53754, , , , 
2025-09-27 17:50:12.510,0.7848458,4.0366917,7.1808605,-0.12896882,-0.040240716,-0.14225514,-14.493751,-46.725002,-28.63125,0.18341325,0.14161372,0.69092494,1001.53754, , , , 
2025-09-27 17:50:12.530,0.148355,4.2424746,7.1473613,-0.3568214,-0.18257222,-0.16852233,-16.800001,-46.6875,-30.562502,0.18261382,0.13978365,0.68994,1001.509, , , , 
2025-09-27 17:50:12.550,0.3493521,3.9888353,7.877172,-0.47349656,-0.22472188,-0.20517421,-14.437501,-46.4625,-28.650002,0.18112376,0.1362522,0.6889138,1001.509, , , , 
2025-09-27 17:50:12.570,0.18185452,4.3070807,8.762517,-0.47899434,-0.14592032,-0.22044583,-15.093751,-46.143753,-30.300001,0.17903928,0.13207598,0.6877492,1001.4709, , , , 
2025-09-27 17:50:12.590,-1.0600204,4.4315076,10.200603,-0.21876594,0.17783801,-0.11537708,-12.450001,-44.756252,-30.656252,0.1763262,0.12929666,0.6867852,1001.4709, , , , 
2025-09-27 17:50:12.610,-0.65084773,4.7832522,10.267602,0.1844048,0.44906196,0.17295109,-14.156251,-45.1875,-30.150002,0.17290594,0.13182963,0.68740046,1001.43134, , , , 
2025-09-27 17:50:12.630,0.8805587,4.8095737,9.425328,0.34322965,0.45455974,0.2749655,-13.25625,-46.4625,-30.018751,0.17172974,0.13654463,0.6894718,1001.4223, , , , 
2025-09-27 17:50:12.650,1.4045869,4.7784667,8.9108715,0.32795802,0.30734134,0.19433136,-13.33125,-45.975002,-28.331251,0.17183343,0.14109525,0.69134694,1001.4223, , , , 
2025-09-27 17:50:12.671,1.4883357,4.7808595,8.6141615,0.1636354,0.005574141,0.014737112,-14.343751,-46.068752,-30.393751,0.17284365,0.14385948,0.69214416,1001.4223, , , , 
2025-09-27 17:50:12.690,0.8063812,4.914858,8.839087,0.007864884,-0.19601123,-0.09521855,-15.150001,-47.15625,-29.306252,0.17426775,0.14410509,0.6917102,1001.4196, , , , 
2025-09-27 17:50:12.710,0.019142581,4.5894337,9.030513,-0.050778136,-0.13675736,-0.07017309,-14.64375,-46.10625,-30.0375,0.17549689,0.14288218,0.6907445,1001.4196, , , , 
2025-09-27 17:50:12.730,-0.23688944,4.35733,9.183653,-0.06849321,0.0184023,0.049556404,-14.231251,-46.2,-29.156252,0.17552608,0.14219439,0.6904151,1001.4206, , , , 
2025-09-27 17:50:12.750,0.16271193,4.503292,9.389436,-0.1051451,0.0049632764,0.19066617,-13.875001,-46.65,-29.775002,0.17480348,0.14175335,0.6912056,1001.4206, , , , 
2025-09-27 17:50:12.770,0.7728817,4.3118663,9.662218,-0.04772381,-0.023136504,0.21326816,-14.137501,-45.91875,-32.11875,0.17450881,0.14040124,0.69307345,1001.4294, , , , 
2025-09-27 17:50:12.791,0.87338024,3.9218364,9.753145,0.13125958,0.058719378,0.2041052,-14.437501,-46.4625,-28.650002,0.17470458,0.14025342,0.6944821,1001.43695, , , , 
2025-09-27 17:50:12.810,1.5840486,3.792624,9.212367,0.21494804,-5.345067E-4,0.099036455,-15.69375,-46.21875,-29.925001,0.1757834,0.14106512,0.6955537,1001.43695, , , , 
2025-09-27 17:50:12.830,1.6127625,4.331009,8.681161,0.21189372,-0.10254893,-0.046349365,-15.562501,-47.5875,-27.862501,0.17755541,0.14198439,0.69561166,1001.43695, , , , 
2025-09-27 17:50:12.850,1.2083755,4.520042,8.523234,0.20395248,-0.12087487,-0.11843141,-16.0125,-46.36875,-29.718752,0.17985529,0.14252992,0.6946654,1001.4455, , , , 
2025-09-27 17:50:12.870,0.22731815,4.6229334,8.903693,0.26442808,0.030008731,-0.0994946,-15.1125,-46.162502,-28.9125,0.18203127,0.14418577,0.69309723,1001.4455, , , , 
2025-09-27 17:50:12.890,0.37806597,4.668397,9.188439,0.35727954,0.05261073,0.041615162,-15.243751,-46.800003,-28.087502,0.18367814,0.14658749,0.6924882,1001.4616, , , , 
2025-09-27 17:50:12.910,0.89013004,4.034299,9.150154,0.48067424,0.14179699,0.049556404,-14.587501,-47.23125,-28.893751,0.18579504,0.14983483,0.6924659,1001.4616, , , , 
2025-09-27 17:50:12.930,1.2107682,3.8572302,8.62134,0.49411324,0.123471044,-0.035964664,-13.950001,-46.912502,-28.218752,0.18806045,0.15395917,0.6921346,1001.46747, , , , 
2025-09-27 17:50:12.950,0.7704889,3.8404803,7.9274216,0.3096321,-0.03718639,-0.13370302,-15.093751,-45.9375,-26.75625,0.19046855,0.1571222,0.6911283,1001.46747, , , , 
2025-09-27 17:50:12.970,0.2009971,4.1228333,7.757531,0.110490166,-0.119653136,-0.12576179,-15.4875,-47.943752,-27.69375,0.19228372,0.15842877,0.6897645,1001.4843, , , , 
2025-09-27 17:50:12.990,0.42831525,4.316652,8.049456,-0.11247548,-0.1758527,-0.093996815,-15.375001,-46.6875,-27.91875,0.19321679,0.1577101,0.6887382,1001.4843, , , , 
2025-09-27 17:50:13.010,0.44506502,4.2951164,8.338987,-0.22243114,-0.09766201,-0.18135048,-14.137501,-47.0625,-28.35,0.19276184,0.1554942,0.6877026,1001.49335, , , , 
2025-09-27 17:50:13.030,-0.08135597,4.8287163,8.549556,-0.26519167,-0.100105464,-0.16424626,-15.58125,-46.85625,-26.6625,0.19153565,0.15355417,0.6866411,1001.4997, , , , 
2025-09-27 17:50:13.050,-0.21296121,4.9052863,8.79123,-0.2609156,-0.067118764,-0.100105464,-15.4875,-48.693752,-28.575,0.19003476,0.1516789,0.68595237,1001.4997, , , , 
2025-09-27 17:50:13.070,-0.57188463,4.9531426,8.860622,-0.22792892,-0.04940369,-0.007864884,-12.375001,-46.275,-27.018751,0.18861605,0.14987808,0.68571776,1001.4997, , , , 
2025-09-27 17:50:13.090,-0.3278167,5.096712,9.085547,-0.11491894,0.033063058,0.07460186,-11.90625,-46.96875,-28.125002,0.18736231,0.14865935,0.6861043,1001.50995, , , , 
2025-09-27 17:50:13.111,0.3469593,4.833502,9.353543,0.05856666,0.11491894,0.08009964,-14.175,-45.9375,-29.175001,0.18660648,0.14863148,0.6868068,1001.50995, , , , 
2025-09-27 17:50:13.131,0.9236295,4.4315076,9.219545,0.21861324,0.13385575,-0.009086614,-13.2375,-46.443752,-30.6375,0.18665592,0.15068431,0.6872928,1001.5263, , , , 
2025-09-27 17:50:13.151,0.5623133,4.7282176,8.391629,0.17463097,0.08193224,-0.075670876,-15.39375,-47.68125,-30.187502,0.18732177,0.15284836,0.686894,1001.5351, , , , 
2025-09-27 17:50:13.170,0.31106696,5.1206403,8.090134,0.032299474,-0.024358233,-0.032299474,-13.81875,-46.3875,-29.79375,0.18770543,0.15385054,0.6864812,1001.5351,37.88832997,127.73989556,149.7530517578125,0.0
2025-09-27 17:50:13.191,0.5096712,4.9603214,8.571091,-0.028787002,-0.06772963,-0.00481056,-13.762501,-47.4,-27.750002,0.18814056,0.15343678,0.68623793,1001.54193, , , , 
2025-09-27 17:50:13.210,0.16510476,4.833502,8.633304,0.15202898,0.09659299,-0.07750347,-14.250001,-46.95,-28.181252,0.1884169,0.15380628,0.6859139,1001.54193, , , , 
2025-09-27 17:50:13.230,-0.25603202,4.718646,8.185846,0.23021966,0.22365287,-0.02008218,-13.500001,-46.875,-28.725,0.18853363,0.15652916,0.685426,1001.54193, , , , 
2025-09-27 17:50:13.251,0.4761717,4.130012,7.9106717,0.081779525,0.22609633,0.061162837,-13.481251,-48.975002,-29.38125,0.18817413,0.15943691,0.68572044,1001.5456, , , , 
2025-09-27 17:50:13.270,1.1102697,4.273581,8.157132,-0.16806418,0.114308074,0.030619597,-13.593751,-48.112503,-29.8875,0.18708773,0.16052593,0.68642867,1001.5456, , , , 
2025-09-27 17:50:13.290,0.60059845,4.4721856,8.836694,-0.32749987,0.09842559,0.030619597,-12.0375,-47.5875,-28.837502,0.1849715,0.15956517,0.68717074,1001.55536, , , , 
2025-09-27 17:50:13.310,0.34456646,4.496114,9.523434,-0.3617083,0.020234896,0.09353867,-15.58125,-47.081253,-28.800001,0.18216437,0.15729143,0.6882454,1001.55536, , , , 
2025-09-27 17:50:13.331,0.7848458,4.4004006,9.762716,-0.30489787,-0.01763872,0.12652537,-15.262501,-47.025,-30.69375,0.1786647,0.15358722,0.6901062,1001.5605, , , , 
2025-09-27 17:50:13.350,0.6436693,4.26401,9.62154,-0.22792892,-0.040240716,0.083764836,-12.937501,-47.0625,-29.400002,0.17710328,0.15022705,0.69138825,1001.5695, , , , 
2025-09-27 17:50:13.370,0.44745782,4.551149,9.329616,-0.15279256,-0.029245151,0.097814724,-12.88125,-46.050003,-29.60625,0.1759584,0.14801353,0.692305,1001.5695, , , , 
2025-09-27 17:50:13.390,0.72023964,4.773681,9.399008,-0.07154754,-0.06895136,0.100869045,-15.356251,-45.1875,-28.781252,0.17555113,0.14662147,0.69311535,1001.58246, , , , 
2025-09-27 17:50:13.410,0.86859465,4.479364,9.683753,0.1117119,-0.0041996953,0.026343543,-14.775001,-47.49375,-30.112501,0.17591758,0.14598331,0.6935963,1001.58246, , , , 
2025-09-27 17:50:13.431,0.47138608,4.2855453,9.5665045,0.3511709,-0.023136504,-0.045127634,-12.731251,-44.550003,-28.95,0.177722,0.1474998,0.69318414,1001.582, , , , 
2025-09-27 17:50:13.450,0.40677986,3.9577286,8.889337,0.46479174,0.014737112,-0.074449144,-13.14375,-46.575,-29.1,0.17930399,0.14923722,0.6925687,1001.582, , , , 
2025-09-27 17:50:13.470,0.1794617,4.7712884,7.6570325,0.359723,-0.07139482,-0.12881611,-14.250001,-48.43125,-28.875002,0.18247366,0.15282573,0.6910151,1001.5878, , , , 
2025-09-27 17:50:13.490,-0.18185452,5.1014977,7.3866434,0.23266312,-0.060399257,-0.117820546,-12.262501,-47.98125,-28.95,0.18539836,0.15584451,0.6892511,1001.5878, , , , 
2025-09-27 17:50:13.511,-0.1363909,5.089534,7.2861447,0.08972076,0.045891218,-0.050014555,-14.043751,-47.53125,-30.018751,0.18660489,0.1573621,0.6883014,1001.5878, , , , 
2025-09-27 17:50:13.530,0.50009996,4.9028935,7.499106,-0.11675153,0.041615162,-0.068340495,-14.118751,-47.0625,-29.118752,0.18627882,0.15807548,0.6880369,1001.5871, , , , 
2025-09-27 17:50:13.550,0.2536392,5.056034,8.329415,-0.30428702,-0.008475749,-0.09766201,-14.08125,-47.550003,-28.63125,0.18484442,0.15705936,0.68773395,1001.5871, , , , 
2025-09-27 17:50:13.570,-0.14356937,4.912465,8.992228,-0.30428702,0.029397868,-0.042073313,-14.493751,-47.475002,-28.743752,0.18275654,0.15519182,0.6876393,1001.59, , , , 
2025-09-27 17:50:13.590,-0.22253251,4.8358946,9.509077,-0.1955531,0.08987348,0.061773703,-15.150001,-47.15625,-29.775002,0.18053651,0.15387043,0.6880044,1001.59, , , , 
2025-09-27 17:50:13.610,0.44027936,4.682754,9.497113,-0.07826705,0.08193224,0.13507748,-13.425,-46.612503,-29.831251,0.17861095,0.15326235,0.68931025,1001.5998, , , , 
2025-09-27 17:50:13.630,1.0193424,4.5726843,9.597611,0.04329504,0.051389,0.05261073,-13.44375,-46.612503,-29.062502,0.17817366,0.15320879,0.6902147,1001.5998, , , , 
2025-09-27 17:50:13.650,0.526421,4.1635113,9.461221,0.21006113,0.048334677,-0.08972076,-14.118751,-47.04375,-29.41875,0.17867552,0.15413441,0.6900708,1001.6091, , , , 
2025-09-27 17:50:13.670,-0.0047856453,4.089334,8.784052,0.2796997,0.07093667,-0.12698352,-13.181251,-46.818752,-29.85,0.17968996,0.15630835,0.6890503,1001.6091, , , , 
2025-09-27 17:50:13.690,-0.043070808,4.0701914,8.329415,0.19601123,0.08987348,-0.10621411,-12.993751,-47.4375,-30.13125,0.18055263,0.15879595,0.6879972,1001.61053, , , , 
2025-09-27 17:50:13.710,0.10289137,4.362116,8.042277,0.05184715,0.09048434,-0.081779525,-14.700001,-47.625,-27.487501,0.18074854,0.16057657,0.6872416,1001.61053, , , , 
2025-09-27 17:50:13.730,0.15792629,4.800002,8.1738825,-0.1051451,0.020234896,-0.03291034,-12.50625,-47.025,-28.050001,0.17999473,0.1612203,0.6868718,1001.611, , , , 
2025-09-27 17:50:13.750,0.086141616,4.9459643,8.647661,-0.16928591,-0.0029779659,0.01962403,-12.337501,-46.875,-27.91875,0.1793116,0.16068535,0.68696094,1001.611, , , , 
2025-09-27 17:50:13.770,-0.038285162,5.1900325,9.444471,-0.092927806,0.01962403,0.042836893,-13.668751,-47.756252,-29.737501,0.17812777,0.1594671,0.68743217,1001.61566, , , , 
2025-09-27 17:50:13.790,0.2943172,4.833502,9.698111,0.055512335,0.03489565,0.08009964,-13.44375,-47.362503,-28.85625,0.17783752,0.15938921,0.68796015,1001.61566, , , , 
2025-09-27 17:50:13.810,0.20338993,4.7545385,9.489935,0.2314414,0.04772381,0.03733911,-12.562501,-46.65,-28.987501,0.17849903,0.16028975,0.6882298,1001.6152, , , , 
2025-09-27 17:50:13.830,0.17467605,4.668397,8.95155,0.3267363,0.06055197,0.036728244,-14.325001,-46.575,-28.35,0.17990477,0.16235134,0.6881758,1001.6152, , , , 
2025-09-27 17:50:13.850,0.41874397,4.7210393,8.518449,0.31696245,0.026954409,0.0080176005,-13.81875,-47.662502,-28.031252,0.1818164,0.1647674,0.68794674,1001.6208, , , , 
2025-09-27 17:50:13.870,0.09332009,4.938786,8.281559,0.27908885,0.036728244,-0.033521205,-14.437501,-47.850002,-28.10625,0.18367459,0.16700052,0.6874491,1001.6208, , , , 
2025-09-27 17:50:13.891,-0.12921242,5.0344987,8.116454,0.20578507,0.09231694,0.011071924,-13.968751,-48.525,-29.362501,0.185272,0.16976033,0.68688035,1001.622, , , , 
2025-09-27 17:50:13.910,0.22731815,4.816752,8.109276,0.08116866,0.08804089,0.034284785,-12.8625,-45.825,-27.468752,0.18571001,0.1715065,0.68694615,1001.622, , , , 
2025-09-27 17:50:13.930,0.50488555,4.7880383,8.281559,-0.026343543,-0.014584397,7.63581E-5,-13.462501,-48.0,-27.13125,0.18571757,0.17190146,0.68712676,1001.6198, , , , 
2025-09-27 17:50:13.950,-0.040677983,4.8693943,8.331808,-0.10881029,-0.05856666,-0.0017562362,-11.1,-48.750004,-27.937502,0.1856199,0.17121895,0.68710744,1001.6198, , , , 
2025-09-27 17:50:13.971,-0.18903299,4.7976093,9.018549,-0.1674533,0.02451095,0.055054188,-13.44375,-48.73125,-28.0125,0.18486595,0.17021626,0.68735397,1001.63007, , , , 
2025-09-27 17:50:13.990,0.18903299,5.194818,9.276974,-0.14179699,0.0067958706,0.14607304,-13.81875,-49.031254,-27.187502,0.1832844,0.16932105,0.68821096,1001.63007, , , , 
2025-09-27 17:50:14.010,0.7322037,5.113462,9.298509,-0.054443322,-0.057955798,0.09964732,-13.575001,-47.8875,-27.281252,0.18308486,0.16827567,0.6892921,1001.62787, , , , 
2025-09-27 17:50:14.030,0.8350951,4.436293,9.568898,0.012751802,-0.13125958,-0.007864884,-13.89375,-46.65,-29.325,0.18407549,0.1661167,0.68986595,1001.6242, , , , 
2025-09-27 17:50:14.050,0.31106696,4.6037908,9.102298,0.06223185,-0.14103341,-0.05978839,-14.062501,-46.800003,-29.1375,0.18494621,0.16449443,0.68959206,1001.6242, , , , 
2025-09-27 17:50:14.070,-0.062213387,4.800002,8.556734,0.04085158,-0.1550833,-0.048792824,-13.031251,-47.456253,-28.275002,0.18583655,0.16396734,0.68887407,1001.6242, , , , 
2025-09-27 17:50:14.090,-0.3397808,5.0919266,8.4682,0.0029779659,-0.17646356,0.012904518,-12.637501,-47.662502,-27.993752,0.18679747,0.16381995,0.6881676,1001.63226, , , , 
2025-09-27 17:50:14.110,-0.076570325,4.7880383,8.961121,0.10315979,0.010461059,0.04405862,-13.781251,-47.41875,-26.962502,0.18742798,0.16467862,0.68779093,1001.6381, , , , 
2025-09-27 17:50:14.130,0.4833502,4.706682,8.863015,0.1392008,0.061162837,0.030008731,-12.918751,-48.412502,-29.475,0.18749265,0.16551903,0.68789285,1001.6381, , , , 
2025-09-27 17:50:14.153,0.29671,5.1661043,8.29113,0.041462447,-0.031077746,0.02451095,-13.368751,-47.71875,-29.00625,0.18849148,0.16642933,0.68797207,1001.64325, , , , 
2025-09-27 17:50:14.170,0.24646074,5.493921,8.410771,-0.04405862,-0.1306487,0.067271486,-13.14375,-47.325,-29.19375,0.18930702,0.16661082,0.6879171,1001.64325,37.88832997,127.73989556,149.7530517578125,0.0
2025-09-27 17:50:14.190,0.31585258,5.1469617,9.092726,-0.009850195,-0.13309216,0.07399099,-14.19375,-47.4375,-29.081251,0.19062354,0.16604519,0.687992,1001.6379, , , , 
2025-09-27 17:50:14.210,0.5694918,4.9172506,9.298509,0.13370302,-0.09644028,0.076434456,-13.425,-46.612503,-29.831251,0.19199298,0.16524267,0.6882846,1001.6379, , , , 
2025-09-27 17:50:14.230,0.6963114,4.776074,8.566305,0.18073961,-0.09155336,0.055054188,-14.343751,-47.9625,-26.8875,0.1937513,0.16516402,0.6884242,1001.6379, , , , 
2025-09-27 17:50:14.251,0.81834537,4.156333,7.932207,0.029245151,-0.1550833,0.029397868,-15.50625,-48.7125,-27.018751,0.19568849,0.16479452,0.68838644,1001.6413, , , , 
2025-09-27 17:50:14.272,1.538585,4.005585,8.193025,-0.1503491,-0.28397575,-0.014584397,-16.931252,-47.737503,-26.925001,0.19706252,0.16230434,0.68847436,1001.6413, , , , 
2025-09-27 17:50:14.290,1.8017955,4.1778684,8.810373,-0.21204643,-0.39332056,-0.16607887,-15.525001,-47.98125,-25.518751,0.19843943,0.1572309,0.68824875,1001.6396, , , , 
2025-09-27 17:50:14.310,1.0336994,4.0701914,9.035298,-0.12713623,-0.33773187,-0.3077995,-13.218751,-46.85625,-27.675001,0.19986174,0.15185326,0.6868237,1001.6396, , , , 
2025-09-27 17:50:14.330,0.7920243,4.584648,8.702696,-0.022067491,-0.23510659,-0.31024295,-14.700001,-48.2625,-26.5125,0.20043284,0.1484556,0.68397295,1001.64056, , , , 
2025-09-27 17:50:14.350,0.6628119,4.5248275,8.391629,-0.0043524117,-0.21250458,-0.32368198,-14.700001,-46.875,-27.206251,0.20145158,0.14721917,0.6815253,1001.64056, , , , 
2025-09-27 17:50:14.370,0.44506502,4.666004,8.003992,-0.051389,-0.23266312,-0.26198465,-15.468751,-47.193752,-28.2,0.20212391,0.14650695,0.67906684,1001.642, , , , 
2025-09-27 17:50:14.390,0.65324056,4.922036,7.726424,-0.1259145,-0.26381722,-0.24610215,-14.606251,-47.98125,-27.937502,0.20307891,0.14546143,0.67686385,1001.642, , , , 
2025-09-27 17:50:14.410,0.50009996,4.95075,7.649854,-0.18761185,-0.2277762,-0.29008442,-14.512501,-48.862503,-26.812502,0.20409966,0.14404413,0.6745778,1001.64154, , , , 
2025-09-27 17:50:14.431,0.5192425,4.7018967,7.4392858,-0.3201695,-0.15752676,-0.28580835,-14.512501,-48.112503,-26.7,0.20366763,0.1420404,0.67188025,1001.6403, , , , 
2025-09-27 17:50:14.450,0.34217364,4.6468616,7.487142,-0.46860963,-0.12087487,-0.2833649,-12.1125,-47.850002,-27.281252,0.2016732,0.1392723,0.6701555,1001.6403, , , , 
2025-09-27 17:50:14.470,0.10767702,4.87418,7.972885,-0.5834522,-0.1673006,-0.24243696,-12.375001,-47.86875,-28.781252,0.19869944,0.13562797,0.66871935,1001.643, , , , 
2025-09-27 17:50:14.490,-0.37328035,4.610969,8.740981,-0.59200436,-0.16485713,-0.18745913,-13.293751,-48.843754,-29.250002,0.1954157,0.1312529,0.667606,1001.643, , , , 
2025-09-27 17:50:14.510,-0.85902333,4.5128636,9.272188,-0.4918225,0.013515383,-0.0353538,-14.175,-45.9375,-29.94375,0.1919071,0.12748401,0.6672024,1001.643, , , , 
2025-09-27 17:50:14.530,1.0289137,7.580462,14.797215,1.3346632,0.13568833,0.5309178,-14.2875,-46.55625,-30.525002,0.19029933,0.13170996,0.6689368,1001.64667, , , , 
2025-09-27 17:50:14.551,4.5008993,3.8333018,7.836494,1.566181,0.349491,-0.024969097,-14.025001,-48.787502,-29.025002,0.19868267,0.14268708,0.6702621,1001.64667, , , , 
2025-09-27 17:50:14.570,1.7467605,3.4073794,4.345366,0.6755401,-0.13797908,-0.56986046,-11.7375,-48.187504,-27.300001,0.20640914,0.15246399,0.66730756,1001.70844, , , , 
2025-09-27 17:50:14.590,-1.1318051,4.4339004,6.4534426,-0.10025818,-0.34628397,-0.41408995,-13.425,-48.506252,-25.85625,0.21016984,0.15440725,0.6624972,1001.70844, , , , 
2025-09-27 17:50:14.610,-1.105484,3.830909,10.853844,-0.083764836,0.023900084,-0.06589704,-13.575001,-48.393753,-25.3875,0.20978309,0.15242371,0.65969026,1001.7011, , , , 
2025-09-27 17:50:14.631,0.2009971,4.1347976,10.468599,0.2589303,-0.09338595,0.15951207,-12.731251,-48.675003,-25.931252,0.20932554,0.15317407,0.6600749,1001.7011, , , , 
2025-09-27 17:50:14.652,2.2037897,4.7832522,10.102497,0.57108223,-0.1117119,-0.009697478,-12.8625,-49.312504,-25.875002,0.2125192,0.15427458,0.6601757,1001.71576, , , , 
2025-09-27 17:50:14.672,0.9667004,4.615755,3.802195,0.8331432,0.44906196,-0.30657777,-12.543751,-48.525,-26.56875,0.2177215,0.16002227,0.65747756,1001.70575, , , , 
2025-09-27 17:50:14.690,-0.76570326,7.8460655,4.4841495,0.38476846,0.44050986,-0.20822853,-13.031251,-48.7125,-26.19375,0.2176792,0.16974117,0.6561725,1001.70575, , , , 
2025-09-27 17:50:14.710,-0.30867413,5.9294147,5.7523456,-0.48754644,0.35071275,0.14912736,-10.81875,-49.125004,-23.625,0.21602659,0.17376968,0.65619063,1001.70575, , , , 
2025-09-27 17:50:14.730,-0.76331043,5.649454,8.281559,-0.5339722,0.34399322,0.28046328,-12.39375,-49.143753,-25.462502,0.21069469,0.17275868,0.6589654,1001.6933, , , , 
2025-09-27 17:50:14.750,1.2299109,5.575277,8.250452,-0.49670944,0.1051451,0.2578613,-12.731251,-49.2,-23.8875,0.20584068,0.17104313,0.66230935,1001.6933, , , , 
2025-09-27 17:50:14.770,1.6390835,5.1661043,9.128618,-0.32505643,-0.10621411,-0.07994693,-10.931251,-49.237503,-27.018751,0.20269048,0.16676621,0.66450155,1001.71234, , , , 
2025-09-27 17:50:14.790,0.36610186,4.766503,8.695518,-0.073380135,-0.100105464,-0.30535603,-11.7375,-48.825,-25.706251,0.20186827,0.16498086,0.6632028,1001.71234, , , , 
2025-09-27 17:50:14.810,0.16510476,4.6325045,8.051848,-0.12102758,-0.22411102,-0.29741478,-10.3125,-47.68125,-27.16875,0.20173974,0.1641627,0.66089475,1001.7336, , , , 
2025-09-27 17:50:14.830,1.1796615,4.8909297,9.21476,-0.20593779,-0.44218975,-0.3340667,-12.262501,-47.025,-25.143751,0.20209022,0.16140527,0.65859705,1001.7336, , , , 
2025-09-27 17:50:14.850,1.0145568,4.0941195,8.7266245,0.23266312,0.34765843,-0.63461214,-11.71875,-48.187504,-28.06875,0.20312987,0.15862891,0.6551057,1001.75433, , , , 
2025-09-27 17:50:14.870,-0.3924229,5.3359947,7.82453,0.24243696,-0.19967642,-0.6651554,-11.08125,-48.506252,-26.8875,0.20260097,0.16339658,0.64911306,1001.77655, , , , 
2025-09-27 17:50:14.890,-1.5864414,5.3359947,6.7334027,-0.26580253,-0.2711476,-0.19478951,-12.731251,-49.425003,-26.493752,0.2044788,0.16292347,0.6451694,1001.77655, , , , 
2025-09-27 17:50:14.910,-1.8257236,4.168297,9.255438,0.009697478,0.23464844,0.59017175,-12.31875,-48.750004,-26.118752,0.20227477,0.1616254,0.6462977,1001.77655, , , , 
2025-09-27 17:50:14.930,1.3136597,4.388437,7.02772,-0.003130682,-0.3578904,0.5803979,-12.13125,-48.61875,-26.306252,0.20307639,0.16216365,0.65122396,1001.77435, , , , 
2025-09-27 17:50:14.950,1.4213367,5.855237,7.8029947,-0.6598103,-1.4525601,-0.03901899,-12.731251,-48.675003,-26.23125,0.20730142,0.1529416,0.65174365,1001.77435, , , , 
2025-09-27 17:50:14.970,1.7730815,5.0368915,8.71466,-0.5614611,-0.9076687,-0.010308343,-12.975,-48.45,-26.212502,0.21181616,0.13957575,0.6494484,1001.78143, , , , 
2025-09-27 17:50:14.990,1.7084754,4.321438,8.29113,-0.83207417,0.14301872,-0.14103341,-13.012501,-48.693752,-26.98125,0.21116139,0.13165283,0.6488156,1001.78143, , , , 
2025-09-27 17:50:15.010,0.04546363,4.476971,9.444471,-0.99700767,0.76487905,0.011682789,-13.275001,-48.600002,-27.562502,0.1993236,0.12847416,0.65048814,1001.80145, , , , 
2025-09-27 17:50:15.030,1.1318051,4.5152564,10.425529,-0.8424589,0.6304888,0.05688678,-13.462501,-47.362503,-28.087502,0.1907467,0.12776878,0.6527117,1001.80145, , , , 
2025-09-27 17:50:15.050,1.052842,4.319045,10.588241,-0.4936551,0.28840452,-0.1636354,-14.531251,-47.71875,-29.343752,0.18050915,0.12643412,0.6547809,1001.84174, , , , 
2025-09-27 17:50:15.070,0.014356935,4.1180477,9.815358,-0.25663957,-0.016416991,-0.24732387,-12.656251,-47.25,-31.425001,0.17664698,0.12530689,0.6539691,1001.84174, , , , 
2025-09-27 17:50:15.090,-1.4356936,4.024728,6.977471,-0.30856308,0.49915287,-0.017027855,-13.312501,-47.475002,-29.325,0.17404117,0.1248852,0.65315914,1001.8747, , , , 
2025-09-27 17:50:15.111,-0.29671,3.9864426,8.145168,-0.73005974,0.89560413,0.30917394,-13.1625,-46.818752,-30.937502,0.16601361,0.12740219,0.6557981,1001.9047, , , , 
2025-09-27 17:50:15.131,0.94277215,3.818945,9.236296,-0.8210786,1.0275509,0.24808747,-11.08125,-46.8375,-33.15,0.15505952,0.12857036,0.6603755,1001.9047, , , , 
2025-09-27 17:50:15.152,0.4426722,3.3020952,9.956535,-0.76854426,0.918817,0.047112945,-11.587501,-45.525,-31.1625,0.14313182,0.13004428,0.66418374,1001.9047, , , , 
2025-09-27 17:50:15.172,-0.35174492,3.3690944,10.738988,-0.49976376,0.49609855,0.02573268,-12.58125,-44.86875,-32.943752,0.1311555,0.1309364,0.6666842,1001.9355,37.88832997,127.73989556,149.7530517578125,0.0
2025-09-27 17:50:15.190,-0.2847459,3.2063823,10.736595,-0.15706861,0.2523635,0.21204643,-12.468751,-46.59375,-34.40625,0.12591673,0.13107531,0.66838074,1001.9572, , , , 
2025-09-27 17:50:15.212,-0.078963146,3.1944182,9.915857,0.056734066,0.055054188,0.16073379,-12.225,-46.818752,-34.725002,0.124399975,0.13149163,0.67014295,1001.9572, , , , 
2025-09-27 17:50:15.232,-0.36610186,3.7423747,9.047262,0.10071633,-0.11476622,0.10025818,-11.775001,-45.91875,-32.98125,0.12533143,0.13166574,0.6708038,1001.9421, , , , 
2025-09-27 17:50:15.250,0.2536392,3.735196,8.88455,-0.005574141,0.08071051,0.06482802,-12.95625,-46.65,-32.8125,0.12643157,0.13150205,0.67133045,1001.9421, , , , 
2025-09-27 17:50:15.270,0.040677983,3.9146578,8.975478,-0.04650208,0.1503491,-0.0054214248,-12.900001,-45.65625,-32.41875,0.1256367,0.13215934,0.67179394,1001.9421, , , , 
2025-09-27 17:50:15.291,0.038285162,3.8237305,9.391829,-0.03611738,-0.00481056,-0.1117119,-11.2875,-44.362503,-34.350002,0.1245944,0.13263309,0.67164,1001.92035, , , , 
2025-09-27 17:50:15.310,-0.09332009,3.7447674,9.470792,0.10621411,-0.29497132,-0.18501566,-11.08125,-46.2,-33.80625,0.12508856,0.1322361,0.67060864,1001.92035, , , , 
2025-09-27 17:50:15.331,-0.25603202,3.6658044,8.965906,0.21678063,-0.63949907,-0.18807,-12.6,-45.61875,-32.756252,0.12975399,0.12998389,0.6679782,1001.9108, , , , 
2025-09-27 17:50:15.351,-0.09810573,3.7064822,8.446664,0.09644028,-0.5148826,-0.15874848,-12.281251,-45.46875,-32.643753,0.13471468,0.12721322,0.6657296,1001.9108, , , , 
2025-09-27 17:50:15.371,0.4426722,3.4672,9.619147,0.04818196,-0.37071857,-0.17768529,-14.00625,-45.393753,-32.775,0.13777807,0.12466318,0.66397154,1001.91693, , , , 
2025-09-27 17:50:15.391,1.1102697,3.737589,9.652647,0.26748243,-0.35727954,-0.19540037,-12.656251,-43.0125,-32.90625,0.14049202,0.12332688,0.6621014,1001.9394, , , , 
2025-09-27 17:50:15.410,0.07178468,3.3930225,7.54457,0.27542365,-0.38476846,-0.29008442,-11.606251,-44.4,-32.925003,0.14512084,0.12266556,0.65961534,1001.9394, , , , 
2025-09-27 17:50:15.430,0.14117654,4.551149,7.1784678,-0.123471044,0.14973822,-0.24243696,-12.281251,-45.46875,-32.643753,0.14728156,0.12263372,0.65705425,1001.9394, , , , 
2025-09-27 17:50:15.450,-0.46660042,3.6801612,8.169097,-0.31467173,0.013515383,-0.25098908,-13.125001,-45.412502,-34.10625,0.14468178,0.12307546,0.65581876,1001.935, , , , 
2025-09-27 17:50:15.470,-0.31106696,3.67059,8.740981,-0.20654866,-0.56924963,-0.2088394,-12.918751,-47.381252,-34.48125,0.14332247,0.120528065,0.6541623,1001.935, , , , 
2025-09-27 17:50:15.491,0.6580262,3.4025939,8.305488,-0.04894554,-1.1214714,-0.17768529,-12.450001,-46.350002,-32.8875,0.14817862,0.11278453,0.65126264,1001.9294, , , , 
2025-09-27 17:50:15.510,1.227518,3.0245278,8.185846,-0.0043524117,-1.1434625,-0.18868086,-12.731251,-46.275,-31.931252,0.15542014,0.10420394,0.6481878,1001.9294, , , , 
2025-09-27 17:50:15.530,0.6580262,2.5794628,7.676175,0.042073313,-0.6388882,0.0019089525,-13.44375,-46.0875,-31.406252,0.16101086,0.0980003,0.6459843,1001.9235, , , , 
2025-09-27 17:50:15.550,2.8235307,3.4169507,6.936793,0.06345358,-0.5637518,0.123471044,-14.437501,-45.206253,-31.2,0.1649901,0.094137624,0.6457033,1001.9235, , , , 
2025-09-27 17:50:15.570,1.4261223,1.9525433,5.096712,0.00481056,-0.83069974,-0.05856666,-14.493751,-45.581253,-32.25,0.16976061,0.08958205,0.6450541,1001.8962, , , , 
2025-09-27 17:50:15.590,1.038485,2.3018954,4.0031924,-0.21082471,-1.367039,0.22365287,-14.025001,-46.03125,-30.88125,0.17574473,0.08193112,0.6435315,1001.8962, , , , 
2025-09-27 17:50:15.610,1.7252251,1.6941184,4.237689,-0.34032804,-2.0512075,0.38675377,-13.5375,-45.112503,-31.9125,0.18395393,0.06854082,0.64306074,1001.8298, , , , 
2025-09-27 17:50:15.631,0.7369894,0.8350951,4.005585,-0.26580253,-3.1073928,0.65553427,-17.025002,-46.4625,-32.081253,0.20050934,0.0429687,0.64180726,1001.8298, , , , 
2025-09-27 17:50:15.650,2.0745773,0.4953143,1.2993027,-0.44356418,-3.4671922,1.1271219,-19.1625,-46.068752,-30.656252,0.22014779,0.0148809645,0.64095783,1001.799, , , , 
2025-09-27 17:50:15.670,3.804588,-0.019142581,1.6295122,-1.0159445,-3.13366,1.3268746,-20.6625,-45.35625,-29.1375,0.2356864,-0.015730005,0.6425753,1001.799, , , , 
2025-09-27 17:50:15.691,4.1922255,-0.9906286,3.2063823,-1.4466041,-3.0860126,1.3696352,-22.368752,-45.16875,-29.2875,0.2463086,-0.048964057,0.6444252,1001.7443, , , , 
2025-09-27 17:50:15.710,4.833502,-1.4380864,3.95055,-1.4936408,-3.837376,1.5254058,-25.331251,-42.46875,-29.587502,0.25564024,-0.085111395,0.6455499,1001.7443, , , , 
2025-09-27 17:50:15.730,5.9413786,-2.103291,3.3930225,-1.8064035,-4.2973576,1.6756785,-27.993752,-39.75,-30.393751,0.2686545,-0.12770003,0.6444805,1001.7187, , , , 
2025-09-27 17:50:15.750,6.680761,-3.129812,4.1922255,-2.3225842,-3.991925,1.9524002,-31.25625,-39.0,-27.937502,0.2787998,-0.17416564,0.64242816,1001.7187, , , , 
2025-09-27 17:50:15.770,9.272188,-3.8380876,7.6402826,-2.3629012,-3.6144106,2.0434191,-33.84375,-37.893753,-26.325,0.2829041,-0.22127429,0.6408227,1001.70746, , , , 
2025-09-27 17:50:15.790,9.159725,-4.091727,7.678568,-1.9163592,-2.6443572,1.7947971,-37.162502,-36.131252,-25.0125,0.28403595,-0.2723997,0.6391356,1001.70746, , , , 
2025-09-27 17:50:15.810,6.9128647,-4.2520456,5.3766723,-1.7960188,-2.360916,1.939572,-37.875,-32.362503,-24.525002,0.28161198,-0.3049405,0.6391577,1001.7419, , , , 
2025-09-27 17:50:15.831,7.152147,-4.7856455,3.682554,-1.8314489,-3.0395868,2.296317,-40.331253,-30.000002,-24.243752,0.27952063,-0.33855492,0.63957286,1001.7419, , , , 
2025-09-27 17:50:15.850,8.839087,-5.680561,2.9216363,-2.1142793,-3.4421468,2.549826,-43.256252,-28.44375,-23.56875,0.27905232,-0.37657416,0.63890165,1001.72797, , , , 
2025-09-27 17:50:15.870,9.480363,-6.8602223,4.814359,-2.3176973,-3.6828275,2.7501895,-45.3375,-26.19375,-20.7,0.2775566,-0.4185713,0.63609755,1001.72797, , , , 
2025-09-27 17:50:15.890,9.561719,-7.941778,5.7020965,-2.029369,-3.979097,3.122817,-48.3375,-22.66875,-17.19375,0.2749146,-0.47212905,0.63165444,1001.70795, , , , 
2025-09-27 17:50:15.911,10.631311,-8.963513,4.208975,-1.8571053,-3.4018295,3.425806,-48.318752,-19.556252,-15.975,0.27169657,-0.5123179,0.62976295,1001.70624, , , , 
2025-09-27 17:50:15.930,11.71526,-9.078369,3.682554,-1.9737805,-2.762865,3.6133416,-51.318752,-16.050001,-12.468751,0.26533931,-0.53961927,0.6294344,1001.70624, , , , 
2025-09-27 17:50:15.950,12.904492,-9.2075815,4.558327,-2.0452516,-2.2906666,3.5247662,-50.737503,-12.375001,-12.1125,0.24818785,-0.58084446,0.62864214,1001.6945, , , , 
2025-09-27 17:50:15.970,12.8111725,-9.413364,5.022535,-1.777082,-2.2191954,3.4135888,-50.9625,-7.6875005,-11.4375,0.23327538,-0.6097886,0.6274644,1001.6945, , , , 
2025-09-27 17:50:15.990,14.151154,-9.037691,5.5776696,-1.397735,-1.7469969,3.0476809,-51.206253,-3.5062501,-7.7812505,0.21962015,-0.63471013,0.6264994,1001.6945, , , , 
2025-09-27 17:50:16.011,13.048062,-8.8701935,4.706682,-1.1497239,-1.1080323,2.6567273,-51.937504,0.26250002,-5.6062503,0.20600767,-0.6533657,0.626435,1001.6921, , , , 
2025-09-27 17:50:16.030,12.433106,-8.779266,3.5006995,-1.0959678,-0.7464004,2.4386485,-51.73125,2.1375,-4.8187504,0.19181408,-0.66776973,0.62682015,1001.6921, , , , 
2025-09-27 17:50:16.050,11.988042,-8.221739,3.37388,-1.1839323,-0.52526736,2.1894157,-51.15,5.0625,-4.2562504,0.17334987,-0.6833033,0.6261517,1001.6679, , , , 
2025-09-27 17:50:16.070,12.184253,-7.9106717,3.7758741,-1.2126429,-0.44768754,1.9524002,-50.193752,7.6312504,-3.2812502,0.1625996,-0.6919273,0.6247739,1001.6679, , , , 
2025-09-27 17:50:16.090,13.000205,-7.259824,5.6733823,-0.97623825,-0.40920305,1.4417173,-49.912502,7.65,-3.0,0.14736456,-0.70439845,0.62146145,1001.6608, , , , 
2025-09-27 17:50:16.110,12.315858,-6.9391856,5.5657053,-0.40080366,-0.22411102,0.8754456,-48.881252,9.13125,-2.41875,0.1396637,-0.71023375,0.6200515,1001.6547, , , , 
2025-09-27 17:50:16.131,11.736795,-6.611369,4.1228333,-0.05933024,0.015347977,0.48510298,-49.65,9.0375,-1.5562501,0.13551913,-0.7121689,0.6206215,1001.6547, , , , 
2025-09-27 17:50:16.152,10.798809,-6.4151573,2.9575288,0.06345358,0.38858637,0.17050762,-49.3875,8.71875,-4.05,0.1322253,-0.7110204,0.6225083,1001.63666, , , , 
2025-09-27 17:50:16.170,10.399207,-6.0897336,2.2229323,0.07750347,0.6622538,-0.009086614,-50.175003,9.993751,-2.49375,0.13019964,-0.709187,0.623709,1001.63666,37.88832997,127.73989556,149.7530517578125,0.0
2025-09-27 17:50:16.190,10.298709,-5.8911295,1.8089739,-0.0074067353,1.0037272,-0.33162323,-47.775,9.4875,-3.3187501,0.12635039,-0.704999,0.6248814,1001.63666, , , , 
2025-09-27 17:50:16.210,9.408579,-6.1471615,1.7635103,-0.012904518,1.2468513,-0.676151,-47.5125,10.03125,-3.8437502,0.1235282,-0.70055264,0.624594,1001.61127, , , , 
2025-09-27 17:50:16.230,7.54457,-6.4845495,1.0552348,-0.0025198173,1.2291363,-0.7922153,-49.3875,8.71875,-4.3500004,0.1213703,-0.6952412,0.6236743,1001.61127, , , , 
2025-09-27 17:50:16.252,6.384051,-6.1806607,0.31345975,-0.08987348,0.8925498,-0.6333904,-48.91875,7.9125004,-6.20625,0.11985091,-0.69070286,0.6223078,1001.58685, , , , 
2025-09-27 17:50:16.270,6.1184473,-5.8241305,0.5623133,-0.18089233,0.5779544,-0.44035715,-50.268753,7.0312505,-6.4687505,0.1186802,-0.6880063,0.62038404,1001.58685, , , , 
2025-09-27 17:50:16.290,5.74756,-5.568098,1.0169497,-0.19127703,0.2615265,-0.19417864,-51.43125,5.6625004,-6.43125,0.11772356,-0.6869352,0.61838216,1001.57367, , , , 
2025-09-27 17:50:16.310,6.5946193,-5.2283173,1.5170496,-0.10575596,-0.090942495,0.05627592,-49.48125,7.8750005,-8.15625,0.11700977,-0.6873146,0.6168772,1001.57416, , , , 
2025-09-27 17:50:16.330,7.331609,-5.2019963,1.3878372,-0.012293654,-0.1984547,0.08681916,-49.331253,7.2562504,-7.8187504,0.11727906,-0.68783915,0.61664426,1001.57416, , , , 
2025-09-27 17:50:16.350,7.6163545,-5.2426744,1.3304094,0.06467531,-0.2729802,0.08132137,-48.018753,7.14375,-8.26875,0.11847747,-0.6883652,0.61673844,1001.57416, , , , 
2025-09-27 17:50:16.370,7.422536,-5.130212,1.2179468,0.12576179,-0.2589303,0.124692775,-49.331253,8.00625,-6.9375005,0.12062424,-0.6886846,0.6174656,1001.5832, , , , 
2025-09-27 17:50:16.390,7.628319,-4.7018967,0.98584294,0.081779525,-0.33651012,0.2212094,-49.518753,7.1062503,-6.5625005,0.12165631,-0.68876934,0.6181954,1001.5832, , , , 
2025-09-27 17:50:16.410,8.879765,-3.8524444,1.7300107,-0.094760396,-0.73540485,0.26458082,-49.706253,8.45625,-5.8500004,0.12381896,-0.6907796,0.61851335,1001.5832, , , , 
2025-09-27 17:50:16.431,8.690732,-3.2063823,3.9601214,-0.022678355,-1.5423572,0.075212725,-48.99375,6.9,-5.83125,0.13067612,-0.695675,0.61670184,1001.60175, , , , 
2025-09-27 17:50:16.452,7.881958,-3.0556345,5.35753,0.4794525,-2.4097853,0.045891218,-49.706253,6.95625,-5.6062503,0.14291584,-0.70001453,0.6158213,1001.60175, , , , 
2025-09-27 17:50:16.473,9.245867,-3.6610186,4.699504,1.0365611,-3.092732,0.14057526,-50.5125,7.5937505,-2.15625,0.1615775,-0.70319533,0.6176175,1001.63495, , , , 
2025-09-27 17:50:16.490,13.117454,-4.4721856,3.2446675,1.2247075,-3.0377543,0.16378812,-49.050003,7.8375,0.3,0.18320374,-0.7046905,0.62107986,1001.63495, , , , 
2025-09-27 17:50:16.510,16.409977,-4.575077,2.1822543,1.1697297,-2.3896267,-0.22472188,-50.100002,7.9500003,3.6375,0.2042759,-0.70394236,0.6242695,1001.63495, , , , 
2025-09-27 17:50:16.530,17.469997,-5.35753,1.1724831,0.83253235,-1.566181,-0.83375406,-50.100002,7.2000003,3.99375,0.22391255,-0.7007856,0.62574404,1001.64935, , , , 
2025-09-27 17:50:16.550,17.240288,-5.7284174,1.7515461,0.5154935,-0.9925789,-1.3358849,-49.0875,8.043751,5.7000003,0.24206035,-0.69657725,0.6245254,1001.64935, , , , 
2025-09-27 17:50:16.570,16.883757,-5.8935223,1.7898313,0.27725625,-0.2778671,-1.8129703,-49.443752,7.74375,6.525,0.25886098,-0.69118834,0.6216885,1001.63763, , , , 
2025-09-27 17:50:16.590,15.940985,-6.0634127,2.7900312,0.30902123,0.4588358,-2.3132687,-49.687504,6.6000004,6.9187503,0.2739228,-0.68367577,0.61821836,1001.63763, , , , 
2025-09-27 17:50:16.610,13.715659,-6.5371914,2.9910283,0.6474403,0.98356867,-2.7146068,-48.825,3.5812502,6.5437503,0.28788054,-0.67177826,0.616116,1001.6401, , , , 
2025-09-27 17:50:16.630,11.880364,-7.1976104,2.251646,1.0732131,1.0055598,-2.8557165,-51.2625,-0.63750005,5.175,0.30592373,-0.6508107,0.6165106,1001.6518, , , , 
2025-09-27 17:50:16.650,11.200803,-7.4919276,1.2083755,1.4275147,0.5492438,-2.8654904,-50.625004,-2.5687501,4.9125004,0.31843603,-0.63647914,0.61758626,1001.6518, , , , 
2025-09-27 17:50:16.670,10.727024,-7.4440713,0.1363909,1.6962951,-0.2833649,-2.9357398,-51.656254,-4.03125,4.33125,0.3447475,-0.61232513,0.6183253,1001.64276, , , , 
2025-09-27 17:50:16.690,10.262816,-7.530213,-0.8662018,1.6999604,-0.9895246,-3.0395868,-50.30625,-6.8812504,3.9,0.3713751,-0.59397215,0.6161218,1001.64276, , , , 
2025-09-27 17:50:16.710,9.585648,-7.4584284,-1.7108682,1.5221987,-1.1416299,-3.0902886,-48.562504,-10.556251,4.0687504,0.4005953,-0.5769455,0.61077243,1001.64276, , , , 
2025-09-27 17:50:16.730,8.257631,-7.4536424,-2.4789643,1.1966077,-0.9027818,-3.0554693,-49.85625,-12.337501,7.4062505,0.428781,-0.560648,0.603304,1001.63104, , , , 
2025-09-27 17:50:16.750,6.7669024,-7.2502527,-2.7110682,0.84719306,-0.5497019,-2.885038,-50.193752,-15.356251,8.38125,0.45288032,-0.54527396,0.5948977,1001.63104, , , , 
2025-09-27 17:50:16.770,5.828916,-7.1282187,-2.548356,0.45196357,-0.2296088,-2.5453973,-48.600002,-16.931252,7.9875,0.47168204,-0.53149664,0.5865352,1001.61127, , , , 
2025-09-27 17:50:16.792,4.9435716,-6.963114,-1.7563318,0.26870415,-0.092164226,-2.2167518,-46.40625,-19.81875,8.231251,0.4893337,-0.51690286,0.57661396,1001.61127, , , , 
2025-09-27 17:50:16.810,3.940979,-6.4414787,-1.6414764,0.24426955,-0.026190827,-1.8496222,-45.5625,-21.35625,8.85,0.5003312,-0.50673664,0.5699009,1001.60345, , , , 
2025-09-27 17:50:16.830,3.182454,-6.1208405,-1.9501505,0.18745913,0.006185006,-1.4525601,-45.768753,-21.75,7.9687505,0.50897056,-0.49829227,0.5645611,1001.60345, , , , 
2025-09-27 17:50:16.851,2.5459633,-6.2811594,-2.292324,0.019471316,0.005574141,-0.9632574,-44.4375,-22.368752,9.1125,0.51503867,-0.4922439,0.56043935,1001.6054, , , , 
2025-09-27 17:50:16.871,2.1367905,-6.4534426,-1.8424734,-0.08681916,-0.023747368,-0.49594584,-46.36875,-23.306252,8.118751,0.51839423,-0.4892953,0.5573263,1001.6054, , , , 
2025-09-27 17:50:16.890,1.8329022,-6.570691,-1.3615161,-0.082543105,-0.0891099,0.0049632764,-47.325,-24.281252,9.675,0.51931673,-0.4892553,0.55571616,1001.6025, , , , 
2025-09-27 17:50:16.910,1.5601203,-6.71426,-1.2634103,-0.014737112,-0.18318307,0.53824824,-45.131252,-25.1625,7.8,0.51828307,-0.49189505,0.5560418,1001.6025, , , , 
2025-09-27 17:50:16.930,1.4404793,-7.1210403,-1.3567305,0.06223185,-0.3994292,1.2108103,-44.04375,-23.306252,8.64375,0.5145657,-0.4992924,0.559218,1001.6042, , , , 
2025-09-27 17:50:16.950,2.0889342,-7.941778,-1.5744773,0.0891099,-0.59796023,1.8137339,-45.037502,-22.425001,9.168751,0.5096081,-0.50917935,0.5636061,1001.6042, , , , 
2025-09-27 17:50:16.970,2.6273193,-8.903693,-1.8544376,0.066507906,-0.66393363,2.395888,-46.21875,-22.425001,9.450001,0.50236905,-0.5224147,0.56938434,1001.59906, , , , 
2025-09-27 17:50:16.990,3.5294135,-9.62154,-1.8400806,-0.042836893,-0.6663771,3.0317984,-47.04375,-20.025002,8.925,0.4916052,-0.53877187,0.57663405,1001.59906, , , , 
2025-09-27 17:50:17.010,5.211568,-9.552148,-1.6965113,-0.23770276,-0.53381944,3.6530478,-47.925003,-17.118752,9.01875,0.47639227,-0.5580692,0.5850304,1001.58344, , , , 
2025-09-27 17:50:17.030,6.9942207,-9.152547,-1.4452649,-0.48754644,-0.23021966,3.9932995,-47.68125,-14.250001,11.306251,0.4563712,-0.5792375,0.5939082,1001.58344, , , , 
2025-09-27 17:50:17.050,8.932407,-8.745767,-0.63170516,-0.71295553,0.099036455,4.026897,-48.131252,-11.4375,10.875,0.4251319,-0.6059405,0.6046486,1001.58905, , , , 
2025-09-27 17:50:17.070,10.100104,-8.760123,0.2656033,-0.7642682,0.31100652,3.7129126,-48.468754,-8.7375,11.38125,0.3980632,-0.62542784,0.6120781,1001.58905, , , , 
2025-09-27 17:50:17.090,10.581061,-9.332008,0.26081768,-0.63843006,0.33055422,3.3189046,-48.24375,-3.8812501,13.2375,0.37225634,-0.64187163,0.6184576,1001.60956, , , , 
2025-09-27 17:50:17.110,10.487741,-9.564112,-0.930808,-0.6323214,0.3513236,2.9120688,-47.268753,-1.2750001,12.20625,0.34886295,-0.65553147,0.6236746,1001.60956, , , , 
2025-09-27 17:50:17.130,9.35833,-10.097712,-1.9932213,-0.89499325,0.52542007,2.6438992,-47.268753,2.9625,10.743751,0.32699716,-0.6680217,0.62683743,1001.61224, , , , 
2025-09-27 17:50:17.150,8.489735,-10.293923,-2.3162522,-1.2560143,0.80092007,2.6335144,-49.425003,4.5,9.637501,0.3037858,-0.68098843,0.6278156,1001.61224, , , , 
2025-09-27 17:50:17.170,7.9274216,-10.126426,-1.8113668,-1.6359723,1.0745875,2.725755,-46.95,5.11875,9.65625,0.28414917,-0.6916856,0.62699085,1001.6066,37.8883253,127.73988544,152.12725830078125,0.66
2025-09-27 17:50:17.190,7.881958,-9.956535,-0.8327023,-1.9163592,1.2645664,2.8320456,-46.443752,6.2812505,10.3125,0.25482187,-0.70707077,0.6239728,1001.6066, , , , 
2025-09-27 17:50:17.210,8.152347,-9.602397,0.80159557,-2.0104322,1.3910154,2.9218426,-44.193752,7.55625,5.3625,0.21468572,-0.72642577,0.6181703,1001.60394, , , , 
2025-09-27 17:50:17.230,8.484949,-9.267402,1.8664017,-1.6940044,1.2218059,2.9713225,-42.487503,10.6125,1.4625001,0.17396231,-0.74346125,0.612306,1001.60394, , , , 
2025-09-27 17:50:17.250,8.941978,-8.504091,1.6414764,-1.2645664,0.9585232,2.9823182,-44.30625,12.13125,5.8875003,0.14324202,-0.75401586,0.60949904,1001.622, , , , 
2025-09-27 17:50:17.270,9.62154,-7.6713896,0.7082755,-0.9652427,0.72211856,2.8778603,-42.46875,15.337501,3.9750001,0.11510556,-0.7619975,0.60829115,1001.622, , , , 
2025-09-27 17:50:17.290,10.250853,-7.2957163,0.30388847,-0.7728203,0.43195775,2.6646686,-41.643753,15.900001,5.55,0.09024143,-0.7683057,0.60753083,1001.6364, , , , 
2025-09-27 17:50:17.310,10.420743,-6.884151,0.36131623,-0.4832704,0.06482802,2.4917939,-42.131252,18.46875,4.8375,0.06935585,-0.77319413,0.6072811,1001.6364, , , , 
2025-09-27 17:50:17.330,11.602797,-6.71426,-0.3469593,-0.10575596,-0.32551455,2.3164756,-37.4625,19.81875,4.5750003,0.0524131,-0.77624667,0.608619,1001.64813, , , , 
2025-09-27 17:50:17.350,12.339787,-6.3290157,-1.2323036,0.087888174,-0.45562875,2.0855687,-37.818752,21.768751,5.8875003,0.039241236,-0.77763677,0.6113102,1001.64813, , , , 
2025-09-27 17:50:17.370,12.832707,-5.8600225,-1.7898313,0.07383828,-0.37621635,1.8167882,-38.4375,22.3125,5.925,0.026016813,-0.7782054,0.61481476,1001.64496, , , , 
2025-09-27 17:50:17.390,13.806586,-5.503492,-1.7443677,-0.057497647,-0.28947353,1.4918082,-35.381252,25.125002,5.1375003,0.01718787,-0.7787701,0.6164313,1001.64496, , , , 
2025-09-27 17:50:17.411,14.44547,-5.1326046,-1.1270195,-0.20654866,-0.23571745,0.9401972,-33.9,25.3875,7.275,0.01094012,-0.779865,0.61648065,1001.6464, , , , 
2025-09-27 17:50:17.430,14.7661085,-5.4843497,-0.4833502,-0.2890154,-0.2485456,0.43928814,-33.6375,25.9125,6.76875,0.008471446,-0.7814636,0.6151317,1001.6464, , , , 
2025-09-27 17:50:17.450,14.804394,-6.422336,0.35413775,-0.30489787,-0.28947353,-0.15630503,-33.412502,27.056252,7.7625003,0.010512058,-0.7832632,0.612859,1001.6452, , , , 
2025-09-27 17:50:17.470,14.864214,-7.9513497,0.86141616,-0.22243114,-0.3652208,-0.78732836,-34.96875,26.00625,9.056251,0.017285978,-0.784701,0.6104039,1001.6452, , , , 
2025-09-27 17:50:17.490,14.871393,-9.970892,0.8997013,-0.18089233,-0.36277732,-1.3053417,-33.7125,26.268751,7.2187505,0.028537598,-0.78550315,0.60796267,1001.665, , , , 
2025-09-27 17:50:17.510,13.892728,-10.459028,1.4093726,-0.10453424,-0.15997021,-1.606498,-35.25,24.6,9.46875,0.042772267,-0.78554004,0.6054315,1001.665, , , , 
2025-09-27 17:50:17.530,12.825529,-9.640682,2.1176481,0.12820524,0.2126573,-1.8978806,-35.475002,21.243752,7.6875005,0.060978234,-0.78344184,0.6032988,1001.6789, , , , 
2025-09-27 17:50:17.550,12.44507,-9.169296,2.498107,0.4256964,0.30611962,-2.2460735,-35.98125,22.2,6.4500003,0.076470405,-0.7793196,0.6031073,1001.6789, , , , 
2025-09-27 17:50:17.570,12.212967,-9.784252,2.07697,0.7787762,0.15340342,-2.6797874,-38.775,21.525002,7.70625,0.095264606,-0.7725454,0.6044945,1001.69696, , , , 
2025-09-27 17:50:17.590,11.777473,-11.212767,1.5840486,1.1330779,-0.2589303,-3.1593163,-39.46875,18.73125,6.7125,0.119072065,-0.76329666,0.6068678,1001.69696, , , , 
2025-09-27 17:50:17.610,11.301301,-12.100504,1.0648061,1.3627629,-0.69997466,-3.4384816,-40.875,16.837502,6.4875,0.14836898,-0.7518808,0.6096048,1001.7177, , , , 
2025-09-27 17:50:17.630,10.124033,-12.646068,0.4235296,1.4934881,-1.109865,-3.6302931,-42.131252,15.20625,8.71875,0.18227138,-0.73892254,0.61183304,1001.7177, , , , 
2025-09-27 17:50:17.650,9.554541,-12.521641,0.21774685,1.4342341,-1.277242,-3.639456,-44.04375,10.668751,7.0312505,0.21810335,-0.7251405,0.612728,1001.7194, , , , 
2025-09-27 17:50:17.670,9.695718,-12.380465,0.47856453,1.3688716,-1.245477,-3.6565602,-44.71875,9.58125,8.85,0.2538908,-0.711003,0.611922,1001.7194, , , , 
2025-09-27 17:50:17.690,10.236495,-12.30868,0.57188463,1.3749802,-1.1850014,-3.7170358,-45.65625,7.1250005,8.793751,0.2889177,-0.6958022,0.610035,1001.71844, , , , 
2025-09-27 17:50:17.710,10.829915,-12.069397,0.21296121,1.385365,-1.118417,-3.941834,-46.2,3.075,9.84375,0.3237527,-0.67905456,0.60721636,1001.71844, , , , 
2025-09-27 17:50:17.730,10.229317,-12.277573,-0.37806597,1.2747984,-1.0304525,-4.3150725,-45.16875,1.6875001,10.59375,0.36822802,-0.6554272,0.6013378,1001.717, , , , 
2025-09-27 17:50:17.750,9.142975,-12.220145,-0.8566305,1.1257474,-0.8850667,-4.4726753,-47.25,-3.3937502,11.71875,0.40375817,-0.6347888,0.59424376,1001.717, , , , 
2025-09-27 17:50:17.770,7.867601,-12.023933,-1.2299109,0.9113339,-0.6755401,-4.452517,-44.7,-6.0,12.375001,0.43755838,-0.6132722,0.5853519,1001.71356, , , , 
2025-09-27 17:50:17.790,6.6687965,-11.657832,-1.1700903,0.6785944,-0.42264208,-4.2655926,-47.381252,-9.13125,12.056251,0.46802306,-0.59175694,0.57525676,1001.71356, , , , 
2025-09-27 17:50:17.810,5.749953,-11.033305,-1.0815558,0.49228066,-0.21678063,-3.955884,-45.112503,-13.875001,11.925,0.4942666,-0.5708616,0.56487113,1001.7104, , , , 
2025-09-27 17:50:17.830,5.259424,-10.593026,-0.7704889,0.35911214,-0.09277509,-3.626628,-44.49375,-16.556252,12.637501,0.5216713,-0.5463332,0.5520581,1001.7104, , , , 
2025-09-27 17:50:17.850,4.615755,-10.284351,-0.5072784,0.3407862,-0.033521205,-3.3492951,-43.162502,-19.40625,12.50625,0.54030305,-0.5277103,0.54233897,1001.7126, , , , 
2025-09-27 17:50:17.870,3.9840498,-10.21496,-0.5455636,0.38660106,-0.09705114,-3.0573018,-41.7,-23.1,11.94375,0.5569724,-0.5100184,0.53323746,1001.7126, , , , 
2025-09-27 17:50:17.890,3.0843484,-9.95175,-0.9092726,0.4165334,-0.16180281,-2.7188828,-42.2625,-25.031252,12.731251,0.5723204,-0.49362466,0.52463776,1001.71674, , , , 
2025-09-27 17:50:17.910,1.8927227,-9.820144,-1.2801601,0.36216646,-0.07506001,-2.4146721,-39.0,-25.575,13.031251,0.58589154,-0.47873572,0.51678824,1001.71674, , , , 
2025-09-27 17:50:17.930,0.37567315,-9.674182,-1.8281165,0.17096578,0.06849321,-1.8514547,-38.41875,-27.750002,12.7875,0.5964808,-0.46606916,0.51031387,1001.71674, , , , 
2025-09-27 17:50:17.950,-0.6269195,-9.729217,-2.3282163,-0.10636683,0.30550876,-1.2167662,-39.225002,-30.206251,14.1,0.6028513,-0.45685774,0.5058306,1001.71674, , , , 
2025-09-27 17:50:17.970,-1.038485,-9.966106,-2.684747,-0.43928814,0.42035133,-0.58391035,-39.393753,-29.718752,12.39375,0.6039536,-0.45222187,0.5037575,1001.70966, , , , 
2025-09-27 17:50:17.990,-0.99302137,-10.408778,-2.644069,-0.9872338,0.3898081,0.349491,-38.081253,-31.2,12.656251,0.59810966,-0.45514378,0.50314564,1001.70966, , , , 
2025-09-27 17:50:18.010,-1.2777673,-9.674182,-1.8711873,-1.4527128,0.4606684,1.1539999,-38.625,-31.743752,12.281251,0.5873685,-0.46482646,0.5039641,1001.7033, , , , 
2025-09-27 17:50:18.030,-0.57188463,-9.5353985,-0.21535404,-1.8143448,0.57428926,2.097786,-40.0125,-31.500002,10.387501,0.57035375,-0.48054364,0.50674474,1001.7033, , , , 
2025-09-27 17:50:18.050,1.0456635,-9.930214,1.174876,-1.8424445,0.647593,2.8308237,-38.381252,-28.687502,7.5937505,0.54747796,-0.5009599,0.5122515,1001.71185, , , , 
2025-09-27 17:50:18.070,2.6464617,-10.719846,1.8927227,-1.6573524,0.63843006,3.313407,-40.537502,-28.5375,7.3500004,0.52049726,-0.5237737,0.52073216,1001.71185, , , , 
2025-09-27 17:50:18.090,4.0941195,-11.712867,1.8999012,-1.1912627,0.5443569,3.8308094,-42.975002,-27.018751,4.5750003,0.48397598,-0.5526375,0.5351722,1001.7314, , , , 
2025-09-27 17:50:18.113,4.948357,-12.327823,1.3112668,-0.8784999,0.37026042,4.148459,-43.350002,-22.96875,5.9437504,0.4615466,-0.56959265,0.5454215,1001.7314, , , , 
2025-09-27 17:50:18.130,5.5465627,-12.693924,0.34217364,-0.6133846,0.16439898,4.5571275,-45.46875,-21.31875,4.51875,0.4235688,-0.5973902,0.56389993,1001.7507, , , , 
2025-09-27 17:50:18.150,6.3960147,-12.58864,-0.39960137,-0.5602394,0.041615162,4.8869944,-45.018753,-14.043751,3.2812502,0.3918411,-0.61953795,0.578816,1001.7507, , , , 
2025-09-27 17:50:18.170,7.1066833,-12.9547415,-1.0743774,-0.6781363,0.15095995,5.1282864,-47.8125,-10.2375,6.15,0.3665523,-0.6360584,0.5894475,1001.74677,37.88831607,127.73988855,151.9259033203125,1.7
2025-09-27 17:50:18.190,8.377272,-13.095919,-0.3469593,-0.91393006,0.3568214,5.4153924,-49.93125,-3.2625,7.51875,0.3193669,-0.66309196,0.6053474,1001.74677, , , , 
2025-09-27 17:50:18.210,9.930214,-13.050455,0.35653058,-0.8668935,0.290848,5.4844203,-48.16875,1.66875,5.49375,0.27860636,-0.6833418,0.6161877,1001.7431, , , , 
2025-09-27 17:50:18.230,11.516655,-13.127025,0.66041905,-0.67324936,0.058719378,5.4386053,-46.74375,4.0875,1.35,0.24843884,-0.6968369,0.6233966,1001.7431, , , , 
2025-09-27 17:50:18.250,13.663017,-12.610175,-0.2440679,-0.32505643,-0.10071633,5.225414,-48.018753,8.15625,4.18125,0.20130382,-0.71503586,0.63431036,1001.75214, , , , 
2025-09-27 17:50:18.270,14.699109,-12.1459675,-1.0289137,-0.18577924,-0.15019637,4.8454556,-44.25,12.39375,5.86875,0.16673584,-0.7255764,0.64196277,1001.75214, , , , 
2025-09-27 17:50:18.290,14.871393,-10.882557,-1.6486548,-0.106977694,-0.14469859,4.420294,-41.98125,17.625,3.3187501,0.12811269,-0.73491234,0.6493531,1001.7431, , , , 
2025-09-27 17:50:18.310,14.940784,-9.650253,-2.0961127,-0.12286018,-0.033521205,4.1228027,-38.23125,21.112501,4.5750003,0.099763535,-0.74016315,0.6536789,1001.7431, , , , 
2025-09-27 17:50:18.330,15.622739,-8.7266245,-2.0985055,-0.21082471,0.06543889,3.85952,-37.537502,22.5375,6.43125,0.079475194,-0.74340266,0.6557804,1001.7365, , , , 
2025-09-27 17:50:18.350,17.343178,-7.01097,-1.9046868,-0.48937905,0.30062184,3.060509,-34.5,24.35625,4.78125,0.048554,-0.74834543,0.65649754,1001.7365, , , , 
2025-09-27 17:50:18.370,17.85285,-6.2213387,-1.3495519,-0.7080686,0.40324712,2.3219733,-33.80625,27.900002,5.8875003,0.028347204,-0.7527142,0.6540647,1001.726, , , , 
2025-09-27 17:50:18.390,17.20918,-6.5108705,0.31345975,-0.82046777,0.37942338,1.2535709,-30.2625,27.900002,4.2937503,0.011231944,-0.7589026,0.64805484,1001.726, , , , 
2025-09-27 17:50:18.410,16.773687,-7.7503524,1.1222339,-0.61949325,0.1833358,0.507705,-31.48125,30.112501,7.9875,0.0057494864,-0.7621815,0.64431584,1001.72845, , , , 
2025-09-27 17:50:18.430,16.13959,-8.190632,1.2131611,-0.45150542,0.039171703,0.123471044,-32.90625,29.475,6.7875004,0.0040357993,-0.7645876,0.64135987,1001.72845, , , , 
2025-09-27 17:50:18.450,14.926428,-8.882157,0.64606214,-0.30856308,0.027565273,-0.4916698,-29.94375,31.25625,8.38125,0.00886231,-0.7672532,0.6375256,1001.747, , , , 
2025-09-27 17:50:18.470,14.61536,-9.413364,0.96430755,-0.29512405,0.13568833,-0.8019891,-31.95,29.19375,7.4812503,0.0133968545,-0.7682546,0.6356489,1001.747, , , , 
2025-09-27 17:50:18.490,13.976477,-9.262616,1.7108682,-0.1589012,0.20899211,-1.0726022,-30.712502,28.81875,6.9,0.020952089,-0.7689797,0.63339144,1001.7597, , , , 
2025-09-27 17:50:18.510,13.205988,-8.405986,2.1535404,0.27847797,-0.055512335,-1.507538,-31.687502,28.968752,6.6937504,0.033744976,-0.7674578,0.63269687,1001.7597, , , , 
2025-09-27 17:50:18.530,13.124632,-8.310273,1.7036897,0.5124392,-0.38599017,-1.8856633,-35.925003,26.5125,10.81875,0.04899652,-0.7640022,0.6341086,1001.7692, , , , 
2025-09-27 17:50:18.550,12.753745,-9.341579,1.4285151,0.7445678,-0.93332505,-2.5313473,-32.41875,23.925001,6.1312504,0.076752074,-0.75757366,0.6366958,1001.7692, , , , 
2025-09-27 17:50:18.570,12.203396,-10.207782,1.4117653,0.86674076,-1.2570834,-2.9125268,-35.11875,24.50625,8.231251,0.0980489,-0.7526412,0.6381536,1001.77435, , , , 
2025-09-27 17:50:18.590,11.638689,-11.452049,1.4141582,0.9730312,-1.4782164,-3.2808783,-39.2625,22.087502,8.34375,0.13906424,-0.7425164,0.63982844,1001.77435, , , , 
2025-09-27 17:50:18.610,11.712867,-12.167503,1.375873,1.0805434,-1.6162719,-3.4616942,-37.3125,20.925001,8.512501,0.17477934,-0.73251283,0.6404394,1001.77216, , , , 
2025-09-27 17:50:18.630,12.157932,-12.210574,1.1676974,1.1226931,-1.701793,-3.6516733,-39.75,19.6875,7.9125004,0.2026889,-0.72387654,0.6403829,1001.77216, , , , 
2025-09-27 17:50:18.650,12.847065,-12.435499,0.44985065,1.015181,-1.638263,-4.1079893,-43.893753,13.9875,12.075001,0.25148523,-0.70743644,0.638211,1001.7839, , , , 
2025-09-27 17:50:18.670,12.533605,-12.813565,0.2105684,0.83375406,-1.3279437,-4.4567933,-42.75,12.262501,11.118751,0.29146153,-0.69252205,0.63373655,1001.7839, , , , 
2025-09-27 17:50:18.690,11.574083,-13.256237,0.2727818,0.65538156,-0.6285035,-4.7836056,-42.24375,9.69375,10.9125,0.33882162,-0.6711385,0.6256588,1001.7756, , , , 
2025-09-27 17:50:18.710,10.798809,-13.600804,-0.2727818,0.599182,-0.21616977,-4.9204392,-45.54375,5.7375,11.625,0.3648753,-0.65652335,0.6203316,1001.7756, , , , 
2025-09-27 17:50:18.730,10.047462,-13.825729,-0.9068798,0.46967867,0.04344776,-4.985802,-46.0125,1.9687501,11.118751,0.3970081,-0.63534933,0.6125619,1001.7736, , , , 
2025-09-27 17:50:18.750,9.066405,-13.950156,-0.94755775,0.25587597,0.19494222,-5.0059605,-47.625,-3.6937501,13.931251,0.43360403,-0.607715,0.6005373,1001.7736, , , , 
2025-09-27 17:50:18.770,7.8029947,-13.8353,-0.7298109,0.19417864,0.15218168,-4.9332676,-48.750004,-8.53125,13.556251,0.4540706,-0.59080225,0.5920306,1001.7646, , , , 
2025-09-27 17:50:18.790,6.355337,-13.112668,-0.782453,0.15263984,-0.03901899,-4.6968627,-45.75,-11.212501,12.468751,0.48641405,-0.56281465,0.5760273,1001.7646, , , , 
2025-09-27 17:50:18.810,5.625526,-13.146168,-0.715454,0.12942697,-0.15874848,-4.451906,-45.43125,-16.78125,13.218751,0.5106404,-0.5411577,0.5618675,1001.7658, , , , 
2025-09-27 17:50:18.830,4.386044,-12.940385,-0.13878371,0.20517421,-0.2864192,-4.1715193,-45.91875,-20.681252,13.031251,0.5332318,-0.5204146,0.54722345,1001.7658, , , , 
2025-09-27 17:50:18.850,2.524428,-12.160325,-0.526421,0.3804924,-0.49594584,-3.6199083,-44.775,-22.81875,14.718751,0.5595741,-0.49607787,0.5296168,1001.76605, , , , 
2025-09-27 17:50:18.870,1.6486548,-12.325429,-1.6271194,0.29985824,-0.5350412,-3.1391578,-41.23125,-25.9125,10.668751,0.57398146,-0.48314768,0.5196529,1001.76605, , , , 
2025-09-27 17:50:18.890,0.7968099,-12.574283,-2.2492533,-0.05016727,-0.7262419,-2.500193,-40.40625,-28.087502,14.56875,0.5937776,-0.4665118,0.50368935,1001.75946, , , , 
2025-09-27 17:50:18.910,-0.8111669,-11.818151,-1.8568304,-0.28840452,-0.9168317,-2.0658684,-38.8125,-30.300001,14.531251,0.6067081,-0.45861992,0.4899838,1001.75946, , , , 
2025-09-27 17:50:18.930,-2.4215364,-11.059627,-1.3950156,-0.5577959,-0.7378483,-1.5020401,-36.54375,-31.5375,12.806251,0.6142208,-0.45563874,0.4798377,1001.7624, , , , 
2025-09-27 17:50:18.950,-3.8333018,-11.332408,-0.6939186,-0.760603,-0.025579963,-0.42752898,-37.443752,-32.8875,15.450001,0.6190815,-0.45538104,0.4679247,1001.7624, , , , 
2025-09-27 17:50:18.970,-5.0177493,-10.652846,-0.7609176,-0.81680256,0.37942338,0.51870054,-34.95,-33.0,13.650001,0.6147856,-0.45923808,0.4660702,1001.7714, , , , 
2025-09-27 17:50:18.990,-3.4169507,-10.856236,-1.1581261,-0.9340886,0.5816196,1.9084179,-37.612503,-33.787502,14.906251,0.5999183,-0.4718629,0.4724237,1001.7714, , , , 
2025-09-27 17:50:19.010,-0.93320084,-11.320444,-0.9284152,-1.063592,0.55474156,2.820439,-35.8875,-32.8125,10.5,0.58133274,-0.48880693,0.48217213,1001.7756, , , , 
2025-09-27 17:50:19.030,1.7994026,-11.760723,-0.29671,-1.135674,0.5174788,3.4942229,-39.787502,-30.35625,11.08125,0.55783874,-0.5106021,0.49430484,1001.7756, , , , 
2025-09-27 17:50:19.050,3.9338005,-12.076576,0.38524446,-1.0153337,0.5749001,3.9425976,-42.9,-29.175001,9.95625,0.5306927,-0.53459185,0.50813496,1001.7624, , , , 
2025-09-27 17:50:19.070,4.584648,-12.693924,0.25842485,-0.8687261,0.7135664,4.2284822,-44.34375,-25.462502,9.262501,0.5008183,-0.5582293,0.5238211,1001.7624, , , , 
2025-09-27 17:50:19.090,4.668397,-13.3639145,-0.32303107,-0.72211856,0.57245666,4.8747773,-45.5625,-22.743752,10.78125,0.45947614,-0.587571,0.5455239,1001.75555, , , , 
2025-09-27 17:50:19.110,5.8887367,-13.694124,-0.80877405,-0.75144005,0.3568214,5.355528,-48.3375,-17.04375,8.90625,0.43243217,-0.60637504,0.55866224,1001.75555, , , , 
2025-09-27 17:50:19.130,9.738789,-13.629518,-0.4019942,-0.932256,0.40996662,5.852161,-47.53125,-10.2375,7.8187504,0.3825527,-0.6394358,0.5790059,1001.7387, , , , 
2025-09-27 17:50:19.150,12.129218,-12.586247,0.5766702,-0.98234695,0.715399,5.6872272,-50.5125,-6.1687503,7.1250005,0.33887622,-0.6637704,0.5934218,1001.7387, , , , 
2025-09-27 17:50:19.170,12.335001,-11.356337,1.1174482,-0.9200387,0.80153096,5.2712283,-50.23125,-3.3937502,6.3187504,0.3061144,-0.6790851,0.6028176,1001.7297,37.88830576,127.73989095,151.913818359375,1.07
2025-09-27 17:50:19.190,11.454442,-11.052447,0.86859465,-0.81008303,0.69768393,4.943805,-48.937504,0.73125005,4.8562503,0.26495492,-0.69590765,0.6132428,1001.7297, , , , 
2025-09-27 17:50:19.210,10.803595,-12.1148615,0.9092726,-0.59994555,0.38919723,4.9279227,-46.36875,6.0937505,3.825,0.21694747,-0.71334356,0.62383246,1001.72406, , , , 
2025-09-27 17:50:19.230,12.196217,-12.440285,0.25124636,-0.26580253,0.15767947,5.100797,-46.10625,9.6,3.7500002,0.17950861,-0.72456706,0.6321836,1001.72406, , , , 
2025-09-27 17:50:19.250,15.0221405,-11.155339,-1.3567305,-0.12286018,-0.09582941,4.9505243,-44.775,14.212501,5.6625004,0.13504188,-0.734896,0.6422734,1001.7221, , , , 
2025-09-27 17:50:19.270,16.359728,-10.112068,-1.6917256,-0.19249876,-0.16546799,4.6658616,-42.600002,17.6625,5.08125,0.110872224,-0.7397808,0.64670426,1001.7221, , , , 
2025-09-27 17:50:19.290,17.991634,-8.403593,-1.4404793,-0.4466185,0.067271486,3.8815112,-38.7,21.7875,5.83125,0.07476652,-0.74677354,0.65030485,1001.7138, , , , 
2025-09-27 17:50:19.310,17.544176,-7.6067834,-0.7465607,-0.6170498,0.36781695,3.1454191,-36.206253,24.0375,6.20625,0.0498275,-0.75175637,0.6499086,1001.7138, , , , 
2025-09-27 17:50:19.330,16.496119,-6.991828,0.09810573,-0.71478814,0.6078868,2.454531,-34.050003,25.25625,5.7562504,0.027855508,-0.75630486,0.6475634,1001.696, , , , 
2025-09-27 17:50:19.350,16.74258,-7.0899334,0.66999036,-0.6304888,0.46860963,1.8797073,-33.24375,27.712502,5.08125,0.0093793105,-0.7602724,0.6443409,1001.696, , , , 
2025-09-27 17:50:19.370,17.180466,-7.6546397,0.93559366,-0.40630144,0.02573268,1.2120321,-33.375,29.19375,4.0687504,-0.002893597,-0.7632085,0.64151895,1001.70746, , , , 
2025-09-27 17:50:19.390,17.001005,-8.190632,0.552742,-0.20044,-0.27053675,0.53885907,-31.612501,29.98125,5.4,-0.007665274,-0.76523674,0.6395649,1001.70746, , , , 
2025-09-27 17:50:19.410,17.197216,-8.554341,0.45702913,-0.09964732,-0.29802567,0.10025818,-30.6375,29.831251,6.3750005,-0.006574883,-0.7658589,0.638945,1001.7292, , , , 
2025-09-27 17:50:19.430,17.163717,-8.9348,0.58624154,0.042073313,-0.28458664,-0.42142034,-29.475,30.45,5.45625,-3.0216072E-5,-0.76602143,0.63854456,1001.7292, , , , 
2025-09-27 17:50:19.450,17.59921,-7.798209,0.99302137,0.22594361,-0.36583164,-0.9406554,-30.300001,32.23125,6.3562503,0.009171642,-0.76504934,0.63907516,1001.73895, , , , 
2025-09-27 17:50:19.470,17.826529,-7.664211,0.66759753,0.34628397,-0.57413656,-1.8111377,-33.956253,28.63125,6.01875,0.024434857,-0.762908,0.640217,1001.73895, , , , 
2025-09-27 17:50:19.490,16.756937,-9.564112,0.31585258,0.32001677,-0.7433461,-2.9296312,-32.49375,30.768751,5.7562504,0.0478627,-0.7600406,0.6405508,1001.7441, , , , 
2025-09-27 17:50:19.510,15.25903,-11.566905,0.51445687,0.26870415,-0.8074869,-3.6425104,-35.11875,25.875002,7.3875003,0.07850878,-0.7564313,0.63902634,1001.7441, , , , 
2025-09-27 17:50:19.530,13.5481615,-14.043476,0.93559366,0.28214318,-0.8679625,-4.195954,-36.768753,22.837502,8.8125,0.11386945,-0.75146013,0.6356928,1001.7475, , , , 
2025-09-27 17:50:19.550,12.2991085,-15.062819,1.3447664,0.404927,-0.92416203,-4.3327875,-39.825,22.1625,8.25,0.16090927,-0.7424252,0.6301371,1001.7475, , , , 
2025-09-27 17:50:19.570,12.217752,-14.689538,1.119841,0.5466476,-0.83375406,-4.340118,-40.443752,18.487501,8.6625,0.19841674,-0.732646,0.6255049,1001.7597, , , , 
2025-09-27 17:50:19.590,12.957134,-13.801801,1.0049855,0.6230057,-0.62422746,-4.5716357,-41.49375,14.64375,8.38125,0.23517539,-0.72055924,0.6204566,1001.7597, , , , 
2025-09-27 17:50:19.610,12.727424,-13.72523,0.6987042,0.69020087,-0.37438375,-5.013291,-44.79375,11.4375,9.525001,0.27237657,-0.70540285,0.61447114,1001.76874, , , , 
2025-09-27 17:50:19.630,11.452049,-14.411971,0.28953153,0.76106113,-0.20945026,-5.4250135,-45.6375,8.962501,12.543751,0.3104028,-0.68678075,0.60711884,1001.76874, , , , 
2025-09-27 17:50:19.650,9.889536,-14.6129675,0.18424734,0.85208,-0.25587597,-5.5087023,-46.40625,5.15625,12.056251,0.34864524,-0.6652335,0.59829694,1001.769, , , , 
2025-09-27 17:50:19.670,8.8701935,-14.620147,-0.43788654,0.89789486,-0.35422522,-5.432955,-49.706253,-0.50625,9.637501,0.3863685,-0.64177966,0.5881779,1001.769, , , , 
2025-09-27 17:50:19.690,7.6833534,-14.397614,-1.3040884,0.8080977,-0.37927067,-5.22465,-46.85625,-7.425,9.28125,0.42263022,-0.6175423,0.5765925,1001.7609, , , , 
2025-09-27 17:50:19.710,7.1066833,-13.787444,-1.4548361,0.5790235,-0.3340667,-4.9351,-47.15625,-10.96875,10.89375,0.45579502,-0.5938233,0.5635491,1001.7609, , , , 
2025-09-27 17:50:19.730,6.5443697,-13.280166,-0.60777694,0.4654026,-0.2766454,-4.6846457,-49.593754,-16.44375,11.625,0.49227786,-0.56539124,0.5456747,1001.75726, , , , 
2025-09-27 17:50:19.750,4.95075,-12.734602,-0.33738798,0.5350412,-0.2399935,-4.4085345,-45.84375,-19.03125,10.14375,0.51855505,-0.5426416,0.53139484,1001.75726, , , , 
2025-09-27 17:50:19.770,2.6081767,-11.643475,-0.82313097,0.6291144,-0.23083054,-3.9571056,-42.09375,-23.737501,9.5625,0.54237694,-0.5200854,0.5181702,1001.75214, , , , 
2025-09-27 17:50:19.790,0.95473623,-11.66501,-2.0721843,0.5264891,-0.34872743,-3.4561965,-41.30625,-27.675001,12.168751,0.56372875,-0.49918205,0.50579417,1001.75214, , , , 
2025-09-27 17:50:19.810,-0.0741775,-11.837294,-2.3449662,0.23327398,-0.4757873,-2.8954227,-38.831253,-29.156252,12.0,0.58203864,-0.48208705,0.4933336,1001.75287, , , , 
2025-09-27 17:50:19.830,-0.8327023,-11.691332,-1.9884356,-0.05688678,-0.42875072,-2.257069,-38.4375,-30.975,10.81875,0.5964769,-0.46979707,0.4810191,1001.75287, , , , 
2025-09-27 17:50:19.850,-1.8640088,-10.817951,-1.4859428,-0.32749987,-0.012140937,-1.5448006,-37.10625,-32.100002,13.368751,0.6072324,-0.45990083,0.46896598,1001.7387, , , , 
2025-09-27 17:50:19.870,-3.9098723,-10.143175,-1.1676974,-0.4484511,0.22243114,-0.8624647,-37.050003,-33.45,11.26875,0.60986096,-0.45519972,0.4635426,1001.7387, , , , 
2025-09-27 17:50:19.890,-5.0249276,-10.650454,-1.5026926,-0.48937905,0.27618724,0.07582359,-38.23125,-33.956253,14.062501,0.6083119,-0.45465901,0.46166635,1001.7458, , , , 
2025-09-27 17:50:19.910,-5.7930236,-10.54517,-1.8305093,-0.60422164,0.26396993,0.98051435,-37.575,-33.75,12.731251,0.60239625,-0.45957184,0.46371174,1001.7458, , , , 
2025-09-27 17:50:19.930,-4.130012,-10.396814,-0.9595219,-0.78015065,0.16623157,2.3134212,-36.5625,-32.5125,10.856251,0.5909177,-0.47184807,0.4696165,1001.7541, , , , 
2025-09-27 17:50:19.950,-0.91405827,-11.059627,0.09810573,-0.76854426,0.14362958,3.2779768,-39.15,-32.287502,10.81875,0.57360053,-0.49109232,0.47949126,1001.7541, , , , 
2025-09-27 17:50:19.970,2.1391835,-11.925828,0.76331043,-0.60422164,0.17356196,3.822868,-38.775,-29.75625,10.012501,0.5515391,-0.5142011,0.49322593,1001.747, , , , 
2025-09-27 17:50:19.990,4.4554358,-13.320844,0.634098,-0.27801985,0.18516839,4.1930523,-42.881252,-28.2,11.90625,0.5267865,-0.53781676,0.5098793,1001.747, , , , 
2025-09-27 17:50:20.010,4.84068,-14.933606,0.11964113,0.037797257,0.055054188,4.563847,-44.175003,-23.94375,8.700001,0.50073016,-0.5606778,0.5283585,1001.7504, , , , 
2025-09-27 17:50:20.030,5.7547383,-16.45544,-0.83748794,0.24060437,-0.24976733,5.245572,-45.09375,-21.1875,10.03125,0.4659271,-0.5899133,0.552955,1001.7504, , , , 
2025-09-27 17:50:20.050,8.056634,-16.845472,-1.2011969,0.26381722,-0.382325,5.9315734,-46.4625,-16.125,12.356251,0.43454656,-0.61489695,0.5727669,1001.74725, , , , 
2025-09-27 17:50:20.070,10.226924,-16.426727,-1.2083755,0.1740201,-0.24976733,6.1765304,-47.68125,-8.418751,12.356251,0.39900225,-0.6397914,0.5916755,1001.74725, , , , 
2025-09-27 17:50:20.090,12.253645,-15.127425,-1.0983056,-0.02451095,0.025121814,6.0213704,-50.662502,-2.7562501,14.043751,0.36029163,-0.6625288,0.6083762,1001.72626, , , , 
2025-09-27 17:50:20.110,12.5551405,-14.012369,-0.2440679,-0.21571162,0.30001098,5.5955977,-46.6875,2.3812501,13.181251,0.31069642,-0.6866086,0.62455016,1001.72626, , , , 
2025-09-27 17:50:20.130,12.193824,-13.387843,0.6723832,-0.16378812,0.39713848,5.354917,-44.90625,8.700001,8.925,0.28116092,-0.6985654,0.63224036,1001.71796, , , , 
2025-09-27 17:50:20.150,13.040883,-12.94517,1.0025927,0.25526512,0.17600541,5.2064767,-44.53125,9.731251,8.212501,0.23373097,-0.7136665,0.64417523,1001.71796, , , , 
2025-09-27 17:50:20.170,14.813965,-12.363714,0.15314065,0.70180726,-0.05184715,4.9670177,-44.86875,13.406251,11.2875,0.19925213,-0.72065705,0.65419185,1001.72845,37.8882929,127.73989573,152.33746337890625,2.11
2025-09-27 17:50:20.190,16.094126,-10.9352,-1.5553347,0.9852485,-0.024358233,4.558349,-38.662502,19.3875,10.44375,0.16848072,-0.72316253,0.6646187,1001.72845, , , , 
2025-09-27 17:50:20.210,16.438692,-8.762517,-3.4193435,0.7885501,0.4001928,3.877846,-38.625,22.3875,9.337501,0.13353664,-0.7228696,0.6760233,1001.73016, , , , 
2025-09-27 17:50:20.230,16.31905,-7.391429,-3.3882368,0.45440704,0.83085245,3.3793802,-36.131252,25.3875,10.293751,0.11348708,-0.72275674,0.6807042,1001.73016, , , , 
2025-09-27 17:50:20.250,16.613367,-6.541977,-3.0077782,0.18135048,1.1643846,2.725755,-34.5,27.675001,9.375,0.087661006,-0.72332066,0.6844581,1001.70966, , , , 
2025-09-27 17:50:20.270,16.527225,-6.113662,-3.1393833,-0.0080176005,1.3238204,2.0318127,-32.1375,29.04375,7.6687503,0.06475442,-0.72425157,0.6861973,1001.70966, , , , 
2025-09-27 17:50:20.290,15.866807,-6.1734824,-3.1800613,-0.30734134,1.3219877,1.2486839,-32.025,30.300001,7.7250004,0.042021565,-0.7264026,0.6856579,1001.6972, , , , 
2025-09-27 17:50:20.310,15.354743,-6.735796,-2.8163524,-0.5577959,1.2004256,0.7410553,-30.16875,31.368752,6.0937505,0.031928178,-0.72868973,0.68364686,1001.6972, , , , 
2025-09-27 17:50:20.330,15.168102,-7.7790666,-1.5744773,-0.873613,0.83451766,0.14301872,-31.275002,31.0125,6.2250004,0.02135396,-0.7343715,0.6775715,1001.7033, , , , 
2025-09-27 17:50:20.350,15.787844,-9.475577,-0.23928227,-1.0183879,0.53946996,-0.36766425,-29.531252,32.325,5.1937504,0.018663961,-0.74168074,0.6690316,1001.70624, , , , 
2025-09-27 17:50:20.370,15.919449,-10.686346,1.0911272,-0.9719622,0.30856308,-0.75434166,-30.54375,30.337502,6.3375,0.020723984,-0.74616194,0.6634496,1001.70624, , , , 
2025-09-27 17:50:20.390,15.637096,-9.827323,2.6991038,-0.6640864,0.030619597,-1.1569015,-31.687502,29.718752,6.80625,0.02752593,-0.75096315,0.6568827,1001.70624, , , , 
2025-09-27 17:50:20.410,15.610775,-9.274581,3.1800613,-0.24320054,-0.2796997,-1.7744858,-30.50625,31.331251,7.51875,0.039633475,-0.7531067,0.6526896,1001.72455, , , , 
2025-09-27 17:50:20.430,14.735002,-10.327422,2.4502504,0.100105464,-0.49716756,-2.6345835,-33.75,27.525002,6.3750005,0.064371586,-0.7517224,0.65025896,1001.72455, , , , 
2025-09-27 17:50:20.450,13.265809,-11.913864,1.7443677,0.22594361,-0.60162544,-3.2607198,-33.375,28.050001,8.15625,0.09090841,-0.7481263,0.64876235,1001.75507, , , , 
2025-09-27 17:50:20.470,12.457035,-13.813766,1.4237294,0.3108538,-0.73662657,-3.6547277,-37.125,24.7875,9.50625,0.12140245,-0.7428638,0.64657885,1001.75507, , , , 
2025-09-27 17:50:20.490,12.105289,-14.924035,1.591227,0.47028953,-0.9724204,-3.8978517,-37.987503,21.112501,7.8,0.15474847,-0.7358531,0.64369965,1001.7673, , , , 
2025-09-27 17:50:20.510,11.650654,-14.483755,1.5002998,0.6425534,-1.0774891,-4.0169706,-40.725002,19.2,8.512501,0.19016035,-0.7266545,0.64059025,1001.7673, , , , 
2025-09-27 17:50:20.530,11.629118,-13.581661,1.1365907,0.76655895,-1.0585523,-4.1880126,-41.025,18.431252,7.65,0.22665778,-0.7152697,0.63715875,1001.77606, , , , 
2025-09-27 17:50:20.550,12.023933,-12.9954195,1.1413764,0.8398627,-0.90156007,-4.4451866,-42.787502,13.387501,9.20625,0.26343206,-0.70165485,0.6330253,1001.77606, , , , 
2025-09-27 17:50:20.570,11.866008,-13.064812,0.8805587,0.96203566,-0.69692034,-4.8471355,-44.25,10.106251,12.7875,0.31029123,-0.6802231,0.6268035,1001.7851, , , , 
2025-09-27 17:50:20.590,10.365707,-13.158132,-0.086141616,1.0469459,-0.5093849,-5.1873875,-47.34375,5.5687504,11.53125,0.3482901,-0.6590942,0.62085277,1001.7851, , , , 
2025-09-27 17:50:20.610,8.999406,-13.115061,-0.92602235,0.96203566,-0.4880046,-5.2368674,-47.53125,2.4375,11.71875,0.38572755,-0.6358318,0.6131838,1001.779, , , , 
2025-09-27 17:50:20.630,8.176275,-12.973885,-1.4404793,0.72807443,-0.49472412,-5.137296,-47.756252,-3.80625,11.325001,0.4214275,-0.61217475,0.60319823,1001.779, , , , 
2025-09-27 17:50:20.650,7.757531,-12.629318,-1.1796615,0.51854783,-0.5154935,-5.050554,-45.506252,-8.681251,10.743751,0.4628701,-0.5831874,0.58724564,1001.76825, , , , 
2025-09-27 17:50:20.670,7.025327,-12.260823,-0.9379865,0.39454228,-0.4812851,-4.98458,-46.818752,-11.325001,12.900001,0.48618373,-0.56585014,0.57617915,1001.76825, , , , 
2025-09-27 17:50:20.690,5.6374903,-11.916257,-0.63888365,0.3126864,-0.35483608,-4.801932,-44.100002,-18.243752,12.225,0.52197504,-0.5365087,0.55651945,1001.7497, , , , 
2025-09-27 17:50:20.710,4.165904,-11.612369,-0.96909314,0.3077995,-0.3438405,-4.495888,-43.143753,-21.50625,11.700001,0.5412575,-0.518902,0.5447145,1001.7497, , , , 
2025-09-27 17:50:20.730,2.7996025,-10.997413,-1.5122639,0.18379395,-0.43547022,-3.9222863,-41.643753,-24.206251,12.0,0.56966424,-0.49188253,0.52525574,1001.75433, , , , 
2025-09-27 17:50:20.750,2.2564318,-10.317851,-1.5577276,0.028634287,-0.5466476,-3.4018295,-39.525,-27.2625,14.887501,0.58882654,-0.47392133,0.50976425,1001.75433, , , , 
2025-09-27 17:50:20.770,2.1702902,-10.5284195,-1.3854443,-0.13629921,-0.55825406,-2.9424593,-39.300003,-29.212502,13.425,0.60493755,-0.45940602,0.49452084,1001.7492, , , , 
2025-09-27 17:50:20.790,1.4739788,-10.645668,-1.1365907,-0.2664134,-0.4482984,-2.4836998,-38.550003,-32.5125,15.712501,0.6177503,-0.44768342,0.48045543,1001.7492, , , , 
2025-09-27 17:50:20.810,-0.078963146,-10.530812,-1.1030912,-0.45089456,-0.18562654,-1.773264,-34.95,-32.268753,14.55,0.62840885,-0.43683764,0.46614563,1001.7392, , , , 
2025-09-27 17:50:20.829,-1.1557333,-10.482956,-1.2873386,-0.58772826,-0.0054214248,-1.1434625,-33.956253,-31.7625,12.712501,0.6315723,-0.43292058,0.45985624,1001.7392, , , , 
2025-09-27 17:50:20.850,-3.2159536,-10.042677,-1.3926228,-0.8198569,0.2212094,-0.1117119,-34.18125,-35.04375,13.856251,0.630605,-0.43219253,0.45417878,1001.74725, , , , 
2025-09-27 17:50:20.870,-4.302295,-9.109476,-0.83748794,-1.0244966,0.37026042,0.96646446,-35.23125,-35.8875,13.387501,0.62550265,-0.4364608,0.45417586,1001.74725, , , , 
2025-09-27 17:50:20.890,-2.158326,-8.681161,0.7298109,-1.0519855,0.5626828,2.2382848,-36.28125,-34.612503,12.806251,0.6083185,-0.4524152,0.4613612,1001.7358, , , , 
2025-09-27 17:50:20.910,0.77766734,-9.568898,1.3447664,-0.7972549,0.70318174,3.0617306,-37.3125,-32.49375,12.637501,0.5886917,-0.47015586,0.47339895,1001.7358, , , , 
2025-09-27 17:50:20.930,2.5627131,-10.449456,1.0743774,-0.50648326,0.7483857,3.5064402,-36.99375,-31.06875,9.900001,0.5660774,-0.4893072,0.4897432,1001.7443, , , , 
2025-09-27 17:50:20.950,3.4767714,-11.636296,0.2632105,-0.24869832,0.7117338,3.913887,-41.0625,-31.612501,10.200001,0.5355658,-0.51366657,0.5136434,1001.7492, , , , 
2025-09-27 17:50:20.970,3.859623,-12.373286,-0.5312066,-0.18211406,0.647593,4.2248173,-42.787502,-28.66875,9.13125,0.515958,-0.52875006,0.52900565,1001.7492, , , , 
2025-09-27 17:50:20.990,4.220939,-12.918849,-1.6654046,-0.34154978,0.6164389,4.7605457,-44.362503,-24.093752,9.65625,0.48733264,-0.5503222,0.54962355,1001.7492, , , , 
2025-09-27 17:50:21.013,4.910072,-13.16531,-1.8376877,-0.7001274,0.7123447,5.2816133,-46.725002,-21.35625,8.83125,0.45404044,-0.57420063,0.56951773,1001.7321, , , , 
2025-09-27 17:50:21.030,6.8315086,-13.72523,-1.1078769,-1.1570543,0.8772782,5.7269335,-49.3875,-15.88125,6.6375003,0.4040269,-0.60695475,0.59200764,1001.7321, , , , 
2025-09-27 17:50:21.050,8.71466,-14.5818615,-0.16510476,-1.4221696,1.0513747,5.8735414,-51.843754,-10.5375,7.05,0.35830617,-0.6335731,0.6071305,1001.7216, , , , 
2025-09-27 17:50:21.070,9.676575,-14.689538,0.7178468,-1.4844778,1.1601086,5.8827043,-50.550003,-3.45,7.425,0.30950287,-0.6582948,0.6197332,1001.7216, , , , 
2025-09-27 17:50:21.090,10.691132,-14.926428,0.95712906,-1.2853359,0.90904313,5.8094006,-48.3375,0.7875,4.8,0.26034847,-0.67989326,0.63023674,1001.716, , , , 
2025-09-27 17:50:21.110,11.52862,-15.067604,0.25842485,-1.1124611,0.45517063,5.7599206,-49.537502,6.39375,4.2937503,0.21367894,-0.69850796,0.63863844,1001.716, , , , 
2025-09-27 17:50:21.130,12.796816,-15.084354,-0.8111669,-1.1112394,0.123471044,5.6554623,-46.612503,9.075001,0.90000004,0.17025313,-0.7149483,0.64441633,1001.72015, , , , 
2025-09-27 17:50:21.150,14.407186,-14.450256,-0.0071784677,-0.9524146,-0.404927,5.454488,-43.96875,14.306251,3.0937502,0.12090553,-0.73285455,0.6476108,1001.72015, , , , 
2025-09-27 17:50:21.170,16.570297,-12.966706,-0.06460621,-0.6310997,-0.70425075,5.256568,-43.4625,19.2,5.55,0.08631605,-0.74353075,0.64923733,1001.7187,37.88827868,127.73990326,151.7607421875,1.72
2025-09-27 17:50:21.190,19.391436,-10.80838,-0.94277215,-0.6078868,-0.7409026,4.795365,-40.10625,22.143751,6.58125,0.055802654,-0.7510279,0.650146,1001.7187, , , , 
2025-09-27 17:50:21.210,22.801207,-7.987242,0.9379865,-0.66775155,-0.8856776,3.9340456,-36.05625,27.0375,7.2562504,0.030660523,-0.7572497,0.64854956,1001.71747, , , , 
2025-09-27 17:50:21.230,25.646273,-5.8432727,2.7206392,-0.27924156,-0.6926443,2.238896,-33.412502,27.056252,6.9750004,0.015083092,-0.7613574,0.64637464,1001.71747, , , , 
2025-09-27 17:50:21.250,22.169502,-5.13739,1.4955142,0.18562654,-0.14530946,0.65064734,-31.35,29.362501,8.64375,0.009755238,-0.7618248,0.6465723,1001.70844, , , , 
2025-09-27 17:50:21.270,18.568304,-7.1880393,-1.2083755,0.27053675,0.30611962,-0.16546799,-29.306252,30.937502,10.35,0.010725111,-0.75994307,0.6486345,1001.70844, , , , 
2025-09-27 17:50:21.290,14.825929,-7.82453,-2.2564318,-0.13080142,0.7850376,-0.49472412,-29.962502,31.237501,9.7875,0.013247608,-0.75877786,0.6491013,1001.7236, , , , 
2025-09-27 17:50:21.310,15.062819,-8.408379,-1.0001999,-0.34338236,0.837572,-0.5497019,-32.8875,29.718752,7.8562503,0.013708373,-0.75950104,0.6474605,1001.7236, , , , 
2025-09-27 17:50:21.330,16.41237,-8.748159,0.9284152,-0.12163845,0.38553202,-0.93332505,-30.7875,29.925001,7.93125,0.01681218,-0.7608719,0.64413214,1001.7094, , , , 
2025-09-27 17:50:21.350,16.790436,-8.037491,1.2227324,0.19723296,-0.15691589,-1.4061344,-33.225002,29.437502,7.5937505,0.026030432,-0.7600085,0.64341223,1001.7094, , , , 
2025-09-27 17:50:21.370,16.737795,-8.437093,0.863809,0.41897687,-0.76289374,-2.1727695,-34.537502,27.4125,9.09375,0.04410661,-0.7573185,0.6440909,1001.71967, , , , 
2025-09-27 17:50:21.390,16.302301,-10.844273,0.5407779,0.52160215,-1.2192098,-3.1122797,-34.55625,27.806252,6.2812505,0.07128307,-0.7533202,0.64451295,1001.71967, , , , 
2025-09-27 17:50:21.410,15.330814,-13.488341,0.13160525,0.48189595,-1.4611121,-3.8410413,-37.162502,23.79375,8.325001,0.10623551,-0.7480064,0.64348054,1001.73065, , , , 
2025-09-27 17:50:21.430,13.875978,-15.737595,-0.02632105,0.2766454,-1.380478,-4.3236246,-39.975002,21.525002,8.75625,0.15620814,-0.7398782,0.63858086,1001.73065, , , , 
2025-09-27 17:50:21.450,12.677175,-16.031912,0.5694918,0.09338595,-1.0341177,-4.478784,-40.59375,18.581251,10.06875,0.1961336,-0.7323843,0.6316692,1001.7338, , , , 
2025-09-27 17:50:21.470,11.933006,-15.3188505,1.3615161,0.10621411,-0.5283217,-4.501997,-42.16875,15.187501,10.89375,0.23295876,-0.72321683,0.6236873,1001.7338, , , , 
2025-09-27 17:50:21.490,12.1459675,-14.560326,1.6007984,0.35483608,-0.01886045,-4.6479936,-45.693752,10.087501,11.71875,0.26645392,-0.7109991,0.6164674,1001.7487, , , , 
2025-09-27 17:50:21.510,12.196217,-14.512469,1.1629118,0.567417,0.19860741,-4.911887,-45.1875,8.043751,9.450001,0.29880157,-0.6947431,0.6102367,1001.7487, , , , 
2025-09-27 17:50:21.530,11.71526,-14.392828,0.66759753,0.81115204,0.20288347,-5.283904,-46.6875,3.6375,10.8,0.33193845,-0.6745212,0.603891,1001.75653, , , , 
2025-09-27 17:50:21.550,10.6815605,-14.388042,0.10767702,0.96753347,0.030619597,-5.5746756,-49.29375,-0.4875,11.45625,0.36703226,-0.65085346,0.5962434,1001.75653, , , , 
2025-09-27 17:50:21.570,8.88455,-14.194224,-0.44506502,0.97852904,-0.13736822,-5.7237267,-49.068752,-6.7875004,9.168751,0.41289055,-0.61788505,0.5834841,1001.77094, , , , 
2025-09-27 17:50:21.590,7.051648,-13.964513,-0.37806597,0.94554234,-0.24426955,-5.6156034,-46.55625,-10.387501,8.493751,0.4489774,-0.5901436,0.5706647,1001.77094, , , , 
2025-09-27 17:50:21.610,5.5776696,-13.356736,-0.2416751,0.9669226,-0.3701077,-5.2942886,-47.23125,-15.075001,9.900001,0.48305285,-0.5623347,0.5565364,1001.76337, , , , 
2025-09-27 17:50:21.630,4.4841495,-12.425928,-0.37088752,1.001131,-0.5093849,-4.8837876,-46.162502,-20.56875,11.34375,0.5147338,-0.5352373,0.5419482,1001.76337, , , , 
2025-09-27 17:50:21.650,3.4528432,-11.303694,-0.68195444,0.9821942,-0.58574295,-4.3792133,-44.925003,-23.0625,12.13125,0.5438192,-0.5095054,0.52731276,1001.757, , , , 
2025-09-27 17:50:21.670,2.5866413,-10.559526,-1.0408778,0.9088904,-0.58574295,-3.9033496,-42.0,-25.25625,12.262501,0.56983083,-0.48553997,0.51310945,1001.757, , , , 
2025-09-27 17:50:21.690,1.6558332,-10.01157,-1.6606189,0.74701124,-0.6413317,-3.381671,-38.737503,-27.7875,14.212501,0.5925741,-0.46410775,0.49949208,1001.7558, , , , 
2025-09-27 17:50:21.710,1.0815558,-9.427721,-2.0195422,0.3804924,-0.6437751,-2.7549238,-39.075,-31.050001,12.750001,0.61596215,-0.44278368,0.48290592,1001.7558, , , , 
2025-09-27 17:50:21.730,0.5766702,-8.953942,-1.5888343,0.031688612,-0.4482984,-2.2033129,-36.862503,-31.575,14.231251,0.6295771,-0.43041965,0.47065693,1001.74457, , , , 
2025-09-27 17:50:21.750,0.4761717,-8.896515,-0.8853444,-0.22365287,-0.1306487,-1.6388738,-34.21875,-32.943752,14.962501,0.6380873,-0.42152986,0.4608582,1001.74457, , , , 
2025-09-27 17:50:21.770,0.18424734,-8.549556,-0.5096712,-0.37453645,0.2786307,-1.0964259,-32.775,-36.6375,14.868751,0.64161485,-0.41519773,0.4548912,1001.73724, , , , 
2025-09-27 17:50:21.790,-0.50009996,-8.329415,-0.4761717,-0.4557815,0.6414844,-0.5289325,-33.46875,-34.987503,15.618751,0.6406006,-0.4109166,0.45323682,1001.73724, , , , 
2025-09-27 17:50:21.810,-1.7060826,-8.800801,-1.0169497,-0.498542,0.83390677,0.15218168,-33.3375,-35.831253,14.56875,0.63561,-0.40930387,0.4558398,1001.7387, , , , 
2025-09-27 17:50:21.830,-3.3834512,-8.724232,-1.6558332,-0.6946296,0.76915514,1.284725,-32.475002,-36.84375,11.925,0.6237315,-0.41468698,0.4641983,1001.7387, , , , 
2025-09-27 17:50:21.850,-2.0267208,-9.06162,-0.997807,-0.9518037,0.4747183,2.585867,-36.73125,-35.41875,12.900001,0.6086349,-0.4284958,0.47432122,1001.738, , , , 
2025-09-27 17:50:21.870,0.2536392,-9.946963,0.18424734,-0.9896773,0.28473935,3.40748,-35.362503,-35.25,10.89375,0.5888851,-0.4501581,0.4869624,1001.738, , , , 
2025-09-27 17:50:21.890,2.3784657,-11.021341,0.8781659,-0.82718724,0.18700098,4.2095456,-37.987503,-33.037502,10.725,0.56533855,-0.4763403,0.5024045,1001.7253, , , , 
2025-09-27 17:50:21.910,4.4195433,-12.339787,0.7848458,-0.5736784,0.17844887,4.6780787,-43.3125,-30.993752,12.562501,0.53890866,-0.50411534,0.52040595,1001.7253, , , , 
2025-09-27 17:50:21.930,5.2019963,-13.397414,-0.2727818,-0.42340565,0.1918879,5.0818605,-43.55625,-26.5125,11.1,0.5101162,-0.5317338,0.54006046,1001.7287, , , , 
2025-09-27 17:50:21.950,5.7379885,-14.227723,-1.1246266,-0.52542007,0.1711185,5.5247374,-42.225002,-22.25625,8.71875,0.47834465,-0.5668771,0.5646558,1001.72675, , , , 
2025-09-27 17:50:21.970,7.125826,-15.160924,-1.39023,-0.78625935,0.123471044,6.0030446,-46.875,-17.75625,8.793751,0.44225588,-0.5890492,0.57843584,1001.72675, , , , 
2025-09-27 17:50:21.990,9.487542,-15.723238,-0.66759753,-1.0739766,0.23037238,6.312753,-48.61875,-14.08125,8.925,0.39059028,-0.6271202,0.5982739,1001.72675, , , , 
2025-09-27 17:50:22.010,11.100305,-15.97927,0.014356935,-1.234634,0.36781695,6.2748795,-50.100002,-6.9,8.8125,0.35671553,-0.64897597,0.60807014,1001.7055, , , , 
2025-09-27 17:50:22.030,12.368501,-16.170696,1.3351951,-1.1747693,0.36781695,6.0091534,-49.612503,-1.5,9.225,0.29912677,-0.6814274,0.62047476,1001.7055, , , , 
2025-09-27 17:50:22.050,12.878172,-15.261423,1.3974084,-0.83390677,0.23037238,5.756255,-46.85625,4.03125,7.5375004,0.25504747,-0.70224124,0.62835956,1001.6977, , , , 
2025-09-27 17:50:22.070,13.10549,-14.55554,-0.07178468,-0.5632937,0.20288347,5.513131,-47.90625,8.26875,7.8750005,0.21379188,-0.7182007,0.63558596,1001.6977, , , , 
2025-09-27 17:50:22.090,13.749159,-13.4763775,-1.5194423,-0.65431255,0.3635409,5.268785,-43.7625,12.806251,7.5000005,0.17397389,-0.7309617,0.6411426,1001.71185, , , , 
2025-09-27 17:50:22.110,15.062819,-12.205789,-1.8233309,-0.9102649,0.51198107,4.9554114,-42.24375,16.06875,8.38125,0.13476202,-0.74231553,0.6434834,1001.71185, , , , 
2025-09-27 17:50:22.130,17.13261,-10.983056,-0.8853444,-1.0336596,0.6109411,4.478937,-40.48125,20.362501,7.33125,0.09716203,-0.75272167,0.6423474,1001.70624, , , , 
2025-09-27 17:50:22.150,18.905691,-8.886943,0.3589234,-0.85162187,0.53458303,3.728795,-35.41875,22.987501,7.89375,0.0558391,-0.7628321,0.638678,1001.70624, , , , 
2025-09-27 17:50:22.170,19.917856,-7.487142,0.8853444,-0.61888236,0.41790786,2.952386,-35.737503,25.687502,7.6125,0.03599274,-0.76684546,0.63658524,1001.70233,37.88826495,127.73991102,151.98980712890625,2.09
2025-09-27 17:50:22.190,19.70011,-6.7022963,0.74177504,-0.29023713,0.358654,1.8418337,-32.5875,29.118752,9.243751,0.013068584,-0.7703679,0.63438356,1001.70233, , , , 
2025-09-27 17:50:22.210,18.405592,-6.8482585,-0.15314065,-0.111253746,0.4802161,0.9829578,-32.79375,29.587502,9.8625,0.0026022058,-0.7710762,0.633864,1001.7155, , , , 
2025-09-27 17:50:22.230,16.577475,-7.3603225,-0.5694918,-0.16684245,0.55657417,0.28840452,-32.625,31.087502,9.6,-0.003035638,-0.7712955,0.6332873,1001.7155, , , , 
2025-09-27 17:50:22.250,15.699309,-7.908279,-0.11724831,-0.20654866,0.5138136,-0.09338595,-31.987501,29.175001,8.868751,-0.005264227,-0.77187896,0.6319043,1001.72235, , , , 
2025-09-27 17:50:22.270,16.010376,-8.784052,0.4211368,-0.14729477,0.33299765,-0.46479174,-30.618752,30.075,8.0625,-0.004377834,-0.77245724,0.6303064,1001.72235, , , , 
2025-09-27 17:50:22.291,15.885949,-8.91805,1.4979069,0.07750347,0.03733911,-0.9266055,-32.775,29.587502,9.09375,0.002766208,-0.7722505,0.62916344,1001.72797, , , , 
2025-09-27 17:50:22.310,15.998412,-8.539984,1.7300107,0.35911214,-0.24732387,-1.3786454,-32.71875,28.25625,6.525,0.010888587,-0.7709656,0.62967294,1001.72797, , , , 
2025-09-27 17:50:22.330,15.778273,-8.709874,1.5529419,0.5778017,-0.52526736,-1.9803473,-33.225002,28.181252,9.375,0.027480481,-0.76765484,0.6316447,1001.73676, , , , 
2025-09-27 17:50:22.350,14.825929,-10.329815,1.3686945,0.8050434,-0.84841484,-2.9186356,-34.95,25.800001,5.3625,0.058374062,-0.76120174,0.63466305,1001.73676, , , , 
2025-09-27 17:50:22.370,13.3639145,-11.97847,1.1437693,0.96264654,-1.1080323,-3.476966,-36.80625,25.575,8.8125,0.09029764,-0.753964,0.63675517,1001.7399, , , , 
2025-09-27 17:50:22.390,12.062219,-13.584054,0.79920274,1.0475568,-1.4568361,-3.8062222,-40.256252,22.987501,8.25,0.12671046,-0.74491936,0.6380999,1001.7399, , , , 
2025-09-27 17:50:22.410,11.583654,-13.890335,0.91884387,1.109865,-1.823355,-3.914956,-41.90625,19.95,9.056251,0.16618015,-0.73457074,0.6381385,1001.74164, , , , 
2025-09-27 17:50:22.430,11.820544,-13.55534,1.0169497,1.1605667,-2.1141267,-4.0493464,-40.10625,17.8875,8.6625,0.20804957,-0.7228967,0.63673717,1001.74164, , , , 
2025-09-27 17:50:22.450,11.801401,-12.973885,1.012164,1.1856122,-2.1739914,-4.3596654,-42.45,14.400001,10.05,0.26324818,-0.7057926,0.6325561,1001.7465, , , , 
2025-09-27 17:50:22.470,11.260623,-12.818351,0.6987042,1.1483494,-1.9803473,-4.6565456,-42.0,12.337501,11.043751,0.30833867,-0.68940926,0.6272156,1001.7465, , , , 
2025-09-27 17:50:22.491,10.762917,-12.794423,0.12203395,1.0402263,-1.6291,-4.9564805,-43.96875,8.118751,15.806251,0.3527171,-0.6705775,0.62012273,1001.74896, , , , 
2025-09-27 17:50:22.510,10.171889,-12.806387,-0.61016977,0.85208,-1.213712,-5.1598983,-44.79375,4.6687503,15.168751,0.39510828,-0.64942396,0.6113582,1001.74896, , , , 
2025-09-27 17:50:22.530,9.18126,-12.856636,-1.0360922,0.5264891,-0.62239486,-5.333995,-45.61875,0.6,15.7875,0.43404818,-0.6265032,0.6008758,1001.7419, , , , 
2025-09-27 17:50:22.550,8.250452,-12.971492,-1.0719845,0.28092143,-0.15202898,-5.3730903,-46.93125,-5.1375003,15.7875,0.4686696,-0.60213166,0.5891273,1001.7419, , , , 
2025-09-27 17:50:22.570,7.0396843,-12.878172,-1.0408778,0.13003784,0.17905974,-5.266189,-45.35625,-9.69375,15.731251,0.4988795,-0.576614,0.5766784,1001.7287, , , , 
2025-09-27 17:50:22.590,5.4029937,-12.222538,-0.93320084,0.05856666,0.37514734,-4.939987,-44.15625,-13.06875,16.725,0.5307782,-0.54408175,0.56095594,1001.7287, , , , 
2025-09-27 17:50:22.610,4.046263,-11.569298,-1.1509477,0.026190827,0.36109746,-4.4910016,-43.93125,-17.775002,16.66875,0.5521223,-0.51886785,0.54863733,1001.727, , , , 
2025-09-27 17:50:22.630,3.938586,-11.480763,-1.1437693,-0.061162837,0.1344666,-4.063396,-43.5,-20.94375,14.325001,0.5705632,-0.49595448,0.53605336,1001.727, , , , 
2025-09-27 17:50:22.650,3.778267,-11.66501,-0.50009996,-0.04650208,-0.337121,-3.7738461,-41.268753,-22.95,13.89375,0.5879303,-0.4758965,0.5220324,1001.72797, , , , 
2025-09-27 17:50:22.670,1.9238294,-11.801401,-0.6412765,-0.017791437,-0.82703453,-3.3492951,-42.09375,-28.275002,16.29375,0.6058788,-0.4586399,0.50602317,1001.72797, , , , 
2025-09-27 17:50:22.690,-0.124426775,-11.830115,-1.1916257,-0.2694677,-0.89484054,-2.63214,-37.65,-30.300001,15.337501,0.62251425,-0.445427,0.48923838,1001.7275, , , , 
2025-09-27 17:50:22.710,-1.6510476,-11.1936245,-1.1676974,-0.71845335,-0.44768754,-1.5887829,-36.768753,-31.48125,18.393751,0.6335837,-0.43804973,0.47456276,1001.7275, , , , 
2025-09-27 17:50:22.730,-1.2921243,-10.068997,-0.53359944,-1.198593,0.72028595,-0.41836601,-33.45,-31.987501,14.83125,0.63411224,-0.43677297,0.4650171,1001.7331, , , , 
2025-09-27 17:50:22.750,-0.23449662,-10.054641,0.3589234,-1.4148391,1.9334633,0.26335907,-36.975002,-32.2125,13.200001,0.6222019,-0.43803158,0.46811837,1001.7331, , , , 
2025-09-27 17:50:22.770,-2.132005,-9.32483,0.17228323,-1.3995676,2.359847,0.87788904,-36.45,-33.2625,12.6,0.60286474,-0.43884572,0.47868446,1001.74164, , , , 
2025-09-27 17:50:22.790,-3.1202407,-9.1669035,0.2536392,-1.3439789,1.6066507,1.6726241,-36.600002,-34.143753,10.8,0.580706,-0.44301462,0.491484,1001.74164, , , , 
2025-09-27 17:50:22.810,-2.2492533,-9.702896,0.83988076,-1.1796563,0.530307,2.513174,-38.8125,-31.48125,8.418751,0.55931336,-0.4556396,0.5029167,1001.7531, , , , 
2025-09-27 17:50:22.830,0.69152576,-10.968699,1.3591232,-0.7850376,-0.51976955,3.4636796,-41.362503,-31.85625,7.7812505,0.5399358,-0.47715858,0.51320195,1001.7531, , , , 
2025-09-27 17:50:22.850,3.3834512,-11.91865,1.4907285,-0.29756752,-0.9363794,4.144183,-41.8875,-30.056252,8.6625,0.5169273,-0.5101182,0.52782816,1001.75287, , , , 
2025-09-27 17:50:22.870,4.996214,-12.643675,0.40917268,0.16302454,-0.8832341,4.595001,-45.43125,-28.050001,8.306251,0.49800414,-0.53677654,0.54250985,1001.75287, , , , 
2025-09-27 17:50:22.890,5.84088,-13.117454,-0.9379865,0.26198465,-0.50694144,5.0189414,-44.90625,-24.018751,8.325001,0.4758103,-0.56207204,0.55996376,1001.75385, , , , 
2025-09-27 17:50:22.910,6.6855464,-13.593625,-1.8041883,0.10499238,-0.090942495,5.422723,-46.706253,-19.63125,11.493751,0.4480842,-0.58649373,0.57894546,1001.75385, , , , 
2025-09-27 17:50:22.930,7.5254273,-13.998013,-1.7730815,-0.1155298,0.19677481,5.729988,-48.0,-13.781251,10.21875,0.42318043,-0.6046276,0.59314597,1001.7419, , , , 
2025-09-27 17:50:22.950,9.4636135,-14.440684,-1.3926228,-0.36476263,0.32933247,6.031755,-49.725002,-6.3750005,10.59375,0.3753415,-0.634516,0.61484456,1001.7419, , , , 
2025-09-27 17:50:22.970,11.038091,-14.433506,-0.6221339,-0.43195775,0.2438114,6.0262575,-47.5125,0.31875002,10.9125,0.33390716,-0.65723133,0.6292103,1001.72504, , , , 
2025-09-27 17:50:22.990,12.614961,-13.890335,-0.36131623,-0.27435464,-0.021914775,5.8509393,-46.6875,4.8,7.18125,0.29303178,-0.6773408,0.640774,1001.72504, , , , 
2025-09-27 17:50:23.010,14.096118,-13.10549,-1.0360922,-0.13752094,-0.14347686,5.475868,-45.956253,9.84375,7.1250005,0.25523022,-0.69376117,0.6500206,1001.7116, , , , 
2025-09-27 17:50:23.030,14.68236,-11.830115,-1.9764715,-0.25908303,0.08009964,4.843623,-46.331253,13.387501,10.96875,0.21224983,-0.7095235,0.65806115,1001.7116, , , , 
2025-09-27 17:50:23.050,14.502898,-10.853844,-1.7946169,-0.5003746,0.35621053,4.335384,-41.5875,16.5,9.525001,0.18001434,-0.7200925,0.6609937,1001.7033, , , , 
2025-09-27 17:50:23.071,14.880964,-10.624132,-0.81595254,-0.4741074,0.46311185,4.0195665,-39.9375,21.75,10.125,0.15678047,-0.7271392,0.6616782,1001.7033, , , , 
2025-09-27 17:50:23.090,15.914663,-8.970692,-1.18684,-0.14912736,0.6298779,3.7092474,-38.025,21.825,10.087501,0.11997909,-0.7354005,0.6631537,1001.69476, , , , 
2025-09-27 17:50:23.110,17.19961,-7.4153576,-2.1678972,-0.12163845,0.7227294,3.3818238,-33.73125,24.88125,9.450001,0.09220459,-0.7391726,0.6648861,1001.69476, , , , 
2025-09-27 17:50:23.130,18.941584,-6.5108705,-2.0410776,-0.2578613,0.6952405,2.7055964,-34.6875,26.550001,7.6125,0.06790993,-0.7423326,0.6651496,1001.69916, , , , 
2025-09-27 17:50:23.150,20.348564,-6.1208405,-1.0217353,-0.11797326,0.3995819,1.5541164,-31.368752,28.3875,6.3750005,0.04723464,-0.74515736,0.6642436,1001.69916, , , , 
2025-09-27 17:50:23.170,19.69293,-6.424729,-1.3591232,-0.00923933,-0.013973532,0.65003645,-29.98125,31.0125,7.33125,0.04077513,-0.7457532,0.6641102,1001.6994,37.88825264,127.73991969,151.626708984375,1.66
2025-09-27 17:50:23.190,18.637695,-7.2957163,-1.4452649,-0.106977694,-0.17463097,-0.09644028,-30.900002,30.0375,7.4812503,0.042343747,-0.7460612,0.6636227,1001.6994, , , , 
2025-09-27 17:50:23.210,18.283558,-9.056833,-0.76331043,-0.1882227,-0.16791146,-0.6914226,-31.031252,30.900002,8.0625,0.048935015,-0.7467838,0.66210425,1001.7006, , , , 
2025-09-27 17:50:23.230,17.75953,-9.990034,0.016749758,-0.13019055,-0.23938264,-1.1904991,-30.975,29.04375,8.00625,0.05950531,-0.7471319,0.66033816,1001.7006, , , , 
2025-09-27 17:50:23.250,17.003397,-9.236296,0.3924229,-0.027565273,-0.32551455,-1.8068616,-32.41875,27.656252,7.3125005,0.073950484,-0.7463617,0.6589541,1001.7004, , , , 
2025-09-27 17:50:23.270,16.383657,-9.829716,0.66759753,-0.0049632764,-0.39637488,-2.536845,-31.687502,27.712502,8.306251,0.09314328,-0.7444693,0.6573819,1001.7004, , , , 
2025-09-27 17:50:23.290,15.141782,-11.617154,0.64606214,0.04696023,-0.44341147,-3.3798385,-35.362503,26.962502,9.50625,0.124713756,-0.7400772,0.6543649,1001.7187, , , , 
2025-09-27 17:50:23.310,13.560126,-12.9954195,0.7465607,0.10377065,-0.4641809,-3.8642542,-36.65625,23.475,9.543751,0.14715824,-0.73602116,0.6518348,1001.7187, , , , 
2025-09-27 17:50:23.330,11.815758,-14.045869,0.93559366,0.24732387,-0.53565204,-4.1647997,-38.8875,21.862501,9.712501,0.18772891,-0.7265519,0.64667845,1001.7421, , , , 
2025-09-27 17:50:23.350,10.963913,-13.847264,0.7680961,0.38721192,-0.5949059,-4.2558184,-41.175003,18.525002,10.14375,0.22140159,-0.7164466,0.64216673,1001.7421, , , , 
