Time,Accel_X,Accel_Y,Accel_Z,Gyro_X,Gyro_Y,Gyro_Z,Mag_X,Mag_Y,Mag_Z,Orient_X,Orient_Y,Orient_Z,Pressure,Lat,Lng,Alt,Speed
2026-03-20 17:40:45.086,2.7996025,5.4843497,4.9340005,-0.0129808765,0.8269582,0.076358095,-21.825,-51.300003,-25.893751,0.27164775,0.12805596,0.6503802,1001.02374,37.88748255,127.73734774,170.3514404296875,0.0
2026-03-20 17:40:45.106,1.6271194,5.556134,5.2019963,-0.9561561,1.1482731,-0.07147118,-22.5375,-50.98125,-25.9125,0.2558965,0.13615304,0.6558441,1001.0155, , , , 
2026-03-20 17:40:45.126,1.119841,5.8672013,7.436893,-1.381318,1.283885,0.017715078,-22.6875,-50.775,-26.00625,0.24032441,0.1373819,0.65996784,1001.0155, , , , 
2026-03-20 17:40:45.146,0.086141616,5.503492,12.179467,-1.3324488,1.1250602,0.21930045,-22.6875,-50.756252,-26.400002,0.22224191,0.1368508,0.6654253,1001.0155, , , , 
2026-03-20 17:40:45.166,-0.2727818,3.249453,13.347165,-0.87552196,0.22220206,0.38423395,-22.556252,-50.831253,-27.31875,0.20824409,0.13432229,0.6708941,1001.0155, , , , 
2026-03-20 17:40:45.186,1.8664017,4.287938,12.303894,-0.5847503,-0.7368556,0.42821622,-22.237501,-50.86875,-28.650002,0.20384301,0.12712863,0.6745726,1001.0089, , , , 
2026-03-20 17:40:45.206,2.0147567,5.4173503,11.179267,-0.4308124,-1.1302526,0.45875946,-22.237501,-50.9625,-30.206251,0.20680456,0.11607499,0.6764255,1001.0089, , , , 
2026-03-20 17:40:45.226,1.0767702,4.3357944,9.38465,-0.29153523,-0.9017891,0.5479457,-22.725,-50.86875,-31.500002,0.21220298,0.10480008,0.6780081,1001.0089, , , , 
2026-03-20 17:40:45.246,1.6510476,4.0534415,7.628319,-0.2658789,-0.21395539,0.50029826,-23.53125,-50.68125,-32.23125,0.21495639,0.09757056,0.68072087,1001.0089, , , , 
2026-03-20 17:40:45.266,1.7898313,4.56072,6.704689,-0.4809033,0.29061893,0.5369501,-25.06875,-50.625004,-32.5875,0.21356755,0.09390304,0.68437916,1001.0102, , , , 
2026-03-20 17:40:45.286,1.8089739,4.5894337,7.6139617,-0.64705855,1.5184572,0.59803665,-26.868752,-50.5125,-32.79375,0.20558508,0.09403348,0.69013125,1001.0102, , , , 
2026-03-20 17:40:45.306,1.1629118,5.9581285,9.762716,-0.67393655,1.8214461,0.6713404,-28.518751,-50.41875,-33.075,0.18995486,0.099978365,0.6984142,1001.0102, , , , 
2026-03-20 17:40:45.326,-0.076570325,4.761717,9.676575,-0.49922925,1.360854,0.7214313,-29.775002,-50.287502,-33.65625,0.17437579,0.1063031,0.70700306,1001.0102, , , , 
2026-03-20 17:40:45.346,-0.12921242,2.1487548,8.374879,-0.3611738,0.9088141,0.6236929,-30.187502,-49.893753,-34.706253,0.16391745,0.10979232,0.7140068,1001.00824, , , , 
2026-03-20 17:40:45.366,1.1389836,1.8711873,9.040084,-0.31841326,1.3694061,0.46731156,-30.056252,-49.29375,-35.850002,0.15446374,0.113518596,0.71996886,1001.00824, , , , 
2026-03-20 17:40:45.386,1.4931214,3.07717,10.073783,-0.36606073,1.7004949,0.045814857,-29.493752,-48.43125,-36.84375,0.14142756,0.12054799,0.72485924,1001.00824, , , , 
2026-03-20 17:40:45.406,0.19621146,3.0005996,9.79143,-0.36606073,1.134834,-0.64446235,-28.66875,-47.34375,-37.48125,0.12731154,0.12841162,0.7259707,1001.00824, , , , 
2026-03-20 17:40:45.426,-1.268196,1.2299109,8.298309,-0.41737336,-0.10522146,-0.9474513,-27.768751,-46.3875,-37.93125,0.11849752,0.13124993,0.7221694,1001.00934, , , , 
2026-03-20 17:40:45.446,0.32542387,1.7850457,8.9013,-0.6006328,-1.9561417,-1.0867285,-26.5125,-45.43125,-38.34375,0.12072933,0.121677674,0.7148126,1001.00934, , , , 
2026-03-20 17:40:45.466,0.31106696,3.1058838,10.619347,-0.30497423,-1.3037381,-1.1478149,-25.10625,-44.79375,-38.53125,0.12907358,0.10659376,0.7054296,1001.00934, , , , 
2026-03-20 17:40:45.486,0.15792629,3.3690944,10.801202,0.23136504,-1.268308,-1.1062762,-23.8125,-44.53125,-38.568752,0.13446005,0.1000832,0.6962557,1001.00934, , , , 
2026-03-20 17:40:45.506,0.47856453,2.6895328,10.8682,0.82756907,-2.0880885,-0.8484912,-22.85625,-44.643753,-38.081253,0.14752506,0.09293817,0.6863217,1001.0078, , , , 
2026-03-20 17:40:45.526,1.0097711,2.603391,9.370294,1.5520546,-1.2414299,-0.45020735,-22.3875,-45.075,-37.050003,0.16763647,0.08802631,0.67719954,1001.0078, , , , 
2026-03-20 17:40:45.546,2.469393,3.9673,4.517649,1.324813,0.57650363,0.14110976,-22.087502,-45.54375,-35.925003,0.18201564,0.09528339,0.6736339,1001.0078, , , , 
2026-03-20 17:40:45.566,1.4691931,3.7710886,5.3790655,0.42684177,1.0749693,0.19975278,-22.1625,-46.0875,-34.818752,0.18341796,0.10774129,0.6755691,1001.0078, , , , 
2026-03-20 17:40:45.586,0.9954142,4.15394,9.2075815,0.10308343,1.017548,0.23640467,-22.237501,-46.443752,-33.84375,0.17857201,0.116599835,0.6786442,1000.99634, , , , 
2026-03-20 17:40:45.606,0.7752745,3.656233,10.916057,0.40362892,0.7841977,0.3488038,-22.143751,-46.612503,-33.131252,0.17364922,0.1240449,0.6820224,1000.99634, , , , 
2026-03-20 17:40:45.626,0.44027936,3.8907297,8.394022,0.64064443,0.102472566,0.4392118,-22.10625,-46.8375,-32.68125,0.17422053,0.13057543,0.6851033,1000.99634, , , , 
2026-03-20 17:40:45.646,0.95712906,4.388437,5.5226345,0.23503022,-0.14798199,0.2083049,-21.993752,-47.081253,-32.268753,0.17915776,0.13307856,0.6868425,1000.99634, , , , 
2026-03-20 17:40:45.666,0.94277215,4.254439,7.207182,-0.048411034,0.3480402,-0.043371398,-21.975,-47.23125,-31.81875,0.18040852,0.1333205,0.68731093,1000.9781, , , , 
2026-03-20 17:40:45.686,-0.39720857,5.1349974,8.130812,0.20204352,1.3437498,-0.011606431,-22.143751,-47.287502,-31.462502,0.17584854,0.13846858,0.68815404,1000.9781, , , , 
2026-03-20 17:40:45.706,0.0526421,3.3786657,10.767702,-0.08506292,0.4017963,0.1838703,-22.59375,-47.30625,-31.2,0.16840598,0.14873384,0.69048107,1000.9781, , , , 
2026-03-20 17:40:45.726,1.1676974,2.8809586,9.3511505,-0.11804962,-1.1204787,-0.34636033,-22.987501,-47.25,-31.1625,0.1701372,0.14500917,0.6898561,1000.9781, , , , 
2026-03-20 17:40:45.746,1.9669002,3.5270207,7.7383885,-0.24633121,-1.0056361,-0.6200278,-23.15625,-47.362503,-31.29375,0.17662762,0.13588077,0.6852198,1000.9636, , , , 
2026-03-20 17:40:45.766,-0.14356937,4.718646,7.786245,-0.20601414,-0.19807291,-0.66401,-23.268751,-47.7,-31.312502,0.17900649,0.13036564,0.6796,1000.9636, , , , 
2026-03-20 17:40:45.786,-1.3112668,5.6997037,7.958528,-0.006872229,0.7170025,-0.1753182,-23.1375,-48.018753,-31.312502,0.17602152,0.13220431,0.6766466,1000.9636, , , , 
2026-03-20 17:40:45.806,-1.1629118,5.2498527,8.255239,0.26557347,1.4940225,0.39767298,-22.78125,-48.131252,-31.312502,0.16967207,0.14049947,0.6787277,1000.9636, , , , 
2026-03-20 17:40:45.826,-0.2727818,4.3788652,8.394022,0.5392409,1.8287765,0.66401,-22.331251,-48.075,-31.331251,0.16180372,0.15389661,0.6844946,1000.9451, , , , 
2026-03-20 17:40:45.846,0.35413775,3.7088752,7.183254,0.46105018,1.7847942,0.5833759,-21.69375,-47.943752,-31.612501,0.15405785,0.16977592,0.69108653,1000.9451, , , , 
2026-03-20 17:40:45.866,-0.7704889,3.574877,7.752745,-0.17424917,0.92469656,0.37934703,-21.075,-47.8125,-32.006252,0.14610659,0.18054345,0.69625384,1000.9451, , , , 
2026-03-20 17:40:45.886,-0.09092726,3.5605202,9.513863,-0.5041162,-0.64400417,0.0971275,-20.643751,-47.737503,-32.34375,0.14209878,0.17955773,0.6993526,1000.9451, , , , 
2026-03-20 17:40:45.906,0.7465607,4.182654,7.944171,-0.6849321,-1.0838268,-0.34269515,-20.56875,-47.8125,-32.756252,0.14464207,0.16953424,0.69856507,1000.9233, , , , 
2026-03-20 17:40:45.926,-0.06699903,3.9098723,9.786645,-0.75212723,-0.5242747,-0.2791652,-20.85,-47.925003,-33.16875,0.14523733,0.1586715,0.6961205,1000.9233, , , , 
2026-03-20 17:40:45.946,0.09092726,3.2542388,10.815558,-0.34773478,-0.3251328,-0.23029602,-21.337502,-48.018753,-33.2625,0.14346084,0.15203585,0.6948321,1000.9233, , , , 
2026-03-20 17:40:45.966,0.9906286,3.8524444,9.734002,-0.2658789,-0.64522594,-0.65790135,-21.825,-47.79375,-33.43125,0.14399336,0.14741817,0.6920224,1000.9233, , , , 
2026-03-20 17:40:45.986,-0.9619147,4.436293,9.044869,-0.423482,-0.7160862,-0.5540544,-22.0125,-47.4,-33.768753,0.14572878,0.1412044,0.6867448,1000.9196, , , , 
2026-03-20 17:40:46.006,-1.4883357,4.8526444,10.179068,-0.3318523,-0.3092503,-0.102014415,-21.7875,-47.193752,-33.956253,0.14617905,0.13501579,0.6837542,1000.9196, , , , 
2026-03-20 17:40:46.026,-0.47856453,4.6468616,11.174481,0.055435978,-0.19440772,0.2376264,-21.525002,-47.0625,-34.10625,0.14648077,0.13230981,0.6840587,1000.9196, , , , 
2026-03-20 17:40:46.046,0.3924229,3.9290147,10.432707,0.366977,-0.3349066,0.27550003,-21.28125,-47.2125,-34.125,0.14975877,0.13159676,0.68548155,1000.9196, , , , 
2026-03-20 17:40:46.066,1.1964114,2.981457,9.633504,0.27046037,-0.6843213,0.03604102,-21.28125,-47.325,-33.9375,0.15545568,0.13118166,0.68588775,1000.9237, , , , 
2026-03-20 17:40:46.086,1.2490535,3.8333018,7.867601,-0.026419902,-0.983645,-0.42210758,-21.46875,-47.23125,-33.693752,0.16245425,0.12501012,0.68340445,1000.9237,37.88748255,127.73734774,170.3514404296875,0.0
2026-03-20 17:40:46.106,-0.34456646,5.1206403,7.8628154,-0.08261946,-0.13332124,-0.18997894,-21.6375,-47.381252,-33.46875,0.16657083,0.12012633,0.6796448,1000.9237, , , , 
2026-03-20 17:40:46.126,0.5312066,4.4458647,8.5423765,0.15806127,0.5080868,0.13988803,-21.768751,-47.49375,-33.131252,0.1656842,0.121250786,0.6793885,1000.9237, , , , 
2026-03-20 17:40:46.146,1.1485549,3.8333018,8.350951,0.31444263,0.7170025,0.07147118,-21.9375,-47.5875,-32.662502,0.16346115,0.12685606,0.68100965,1000.9269, , , , 
2026-03-20 17:40:46.166,0.32542387,3.8907297,8.422736,0.30711228,0.5007564,-0.011606431,-21.975,-47.71875,-32.362503,0.16120522,0.13368952,0.6819578,1000.9269, , , , 
2026-03-20 17:40:46.186,-0.6939186,4.2831526,7.6953177,0.098196514,-0.0368046,0.04703659,-21.768751,-47.643753,-32.1375,0.16102755,0.13730714,0.6820222,1000.9269, , , , 
2026-03-20 17:40:46.206,0.971486,4.3501515,8.977871,-0.18280129,-0.34468046,-0.0140498895,-21.300001,-47.550003,-32.04375,0.16251583,0.13518897,0.68209213,1000.9269, , , , 
2026-03-20 17:40:46.226,0.41156548,3.5509489,9.652647,0.049327333,-0.016035201,-0.082466744,-20.7,-47.5125,-32.15625,0.16301662,0.13320976,0.68135375,1000.92944, , , , 
2026-03-20 17:40:46.246,0.3397808,3.9433718,9.001799,0.40240717,0.3187187,-0.07269291,-20.400002,-47.4,-32.1375,0.1635646,0.13581035,0.6809888,1000.92944, , , , 
2026-03-20 17:40:46.266,0.31585258,4.3501515,7.5756764,0.32421649,0.26251915,-0.022601997,-20.306252,-47.325,-32.15625,0.16431908,0.14094596,0.68047965,1000.92944, , , , 
2026-03-20 17:40:46.286,-0.11964113,3.751946,8.30788,-0.0594066,0.31627524,-0.018936807,-20.4375,-47.4,-32.175003,0.16392216,0.14426872,0.680508,1000.92944, , , , 
2026-03-20 17:40:46.306,-0.36370903,4.2927237,10.9017,-0.10827578,-0.014813471,-0.12034036,-20.643751,-47.625,-31.987501,0.16125464,0.14505449,0.6806899,1000.92004, , , , 
2026-03-20 17:40:46.326,-0.18185452,4.345366,10.030712,0.15806127,-0.012370012,-6.108648E-4,-20.550001,-47.925003,-31.800001,0.16130026,0.14497049,0.680055,1000.92004, , , , 
2026-03-20 17:40:46.346,-0.15792629,4.517649,9.169296,0.18249585,-0.091782436,0.049480047,-20.2875,-47.98125,-31.706251,0.16281345,0.1461509,0.6800174,1000.92004, , , , 
2026-03-20 17:40:46.366,0.7513463,4.302295,8.85823,0.066431545,-0.22250749,-0.007941242,-20.04375,-47.9625,-31.612501,0.16502358,0.14585021,0.6798194,1000.92004, , , , 
2026-03-20 17:40:46.386,1.3830515,3.3930225,9.810573,0.084757484,-0.022143848,-0.23396121,-19.650002,-47.86875,-31.48125,0.16618423,0.14552297,0.6790601,1000.9286, , , , 
2026-03-20 17:40:46.406,-0.6652047,5.3982077,10.279566,0.23503022,-0.3923279,-0.45998117,-19.237501,-47.71875,-31.29375,0.1674921,0.14588027,0.6760939,1000.9286, , , , 
2026-03-20 17:40:46.426,-0.6269195,5.383851,7.719246,0.24602579,-0.56459177,0.032375835,-18.862501,-47.643753,-31.031252,0.1724953,0.1448781,0.6728399,1000.9286, , , , 
2026-03-20 17:40:46.446,0.22971097,4.331009,7.3459654,0.092087865,-0.3178024,0.15821397,-18.393751,-47.53125,-30.6,0.17729743,0.1427697,0.6722359,1000.9286, , , , 
2026-03-20 17:40:46.466,0.49292147,4.354937,7.8293157,-0.022754714,0.063377224,0.126449,-18.0375,-47.456253,-30.206251,0.17903884,0.14159873,0.6729266,1000.9526, , , , 
2026-03-20 17:40:46.486,-0.033499517,4.345366,7.4656067,-0.10338886,0.18921536,0.171653,-17.775002,-47.23125,-30.000002,0.17806062,0.14200315,0.674169,1000.9526, , , , 
2026-03-20 17:40:46.506,-0.60777694,4.6372905,7.5469627,-0.31474808,0.28695372,0.26083925,-17.493752,-46.85625,-29.94375,0.17570315,0.14198406,0.6761979,1000.9526, , , , 
2026-03-20 17:40:46.526,-0.17228323,4.4745784,11.466406,-0.15714496,0.6998983,0.5027417,-17.325,-46.55625,-30.150002,0.17102036,0.1426657,0.6797234,1000.9526, , , , 
2026-03-20 17:40:46.546,2.3545375,2.5986054,11.801401,0.117744185,-0.15531237,0.23273948,-17.306252,-46.275,-30.656252,0.16879207,0.1432925,0.683763,1000.9632, , , , 
2026-03-20 17:40:46.566,2.0817556,3.4887354,8.863015,0.3743074,-0.45707956,-0.34025168,-17.325,-46.237503,-31.125002,0.17318107,0.14212674,0.682631,1000.9632, , , , 
2026-03-20 17:40:46.586,-0.31585258,4.709075,8.374879,0.3620901,-0.23350306,-0.39278606,-17.41875,-46.3125,-31.406252,0.17766725,0.14270017,0.67863077,1000.9632, , , , 
2026-03-20 17:40:46.606,-0.81834537,5.168497,7.4512496,0.29367325,-0.116217025,-0.09590577,-17.550001,-46.350002,-31.556252,0.18099184,0.14445457,0.67568153,1000.9632, , , , 
2026-03-20 17:40:46.626,-0.10049855,4.910072,6.9344,0.05054906,-0.028252495,0.1386663,-17.643751,-46.612503,-31.368752,0.18303403,0.145479,0.6752103,1000.9749, , , , 
2026-03-20 17:40:46.646,0.15314065,4.4075794,8.19781,-0.11438443,0.15256348,0.21197008,-17.79375,-46.93125,-31.143751,0.18274935,0.14537963,0.6765639,1000.9749, , , , 
2026-03-20 17:40:46.666,0.19621146,4.220939,8.293523,-0.05329795,0.14645483,0.2083049,-17.98125,-47.006252,-31.087502,0.18127559,0.14553863,0.6784644,1000.9749, , , , 
2026-03-20 17:40:46.686,0.4977071,4.4075794,7.2215385,-0.16081016,0.09880738,0.23396121,-18.1875,-47.100002,-31.06875,0.18026498,0.14555636,0.6802889,1000.9749, , , , 
2026-03-20 17:40:46.706,0.6987042,3.9960139,7.925029,-0.35506517,0.10491603,0.2046397,-18.28125,-47.025,-31.0125,0.17825595,0.14426185,0.6823981,1000.9683, , , , 
2026-03-20 17:40:46.726,0.6364908,3.8093736,9.260223,-0.34773478,-0.08078687,0.18142684,-18.31875,-46.8375,-31.0125,0.17558123,0.1416724,0.68441105,1000.9683, , , , 
2026-03-20 17:40:46.746,0.0,3.6131623,7.987242,-0.15714496,-0.6733257,0.2877173,-18.375,-46.85625,-30.956251,0.17554435,0.13766491,0.6856633,1000.9683, , , , 
2026-03-20 17:40:46.766,1.1964114,4.6372905,6.9678993,-0.23411393,-0.025809037,0.29749113,-18.5625,-46.6875,-30.91875,0.17810124,0.13282976,0.6870293,1000.9683, , , , 
2026-03-20 17:40:46.786,1.0863415,4.0773697,7.1976104,-0.3990474,0.3969094,0.28893903,-18.91875,-46.36875,-31.050001,0.17558649,0.13130477,0.68971574,1000.96234, , , , 
2026-03-20 17:40:46.806,0.23928227,3.493521,10.820344,-0.40393433,0.82207125,0.27305657,-19.21875,-46.0875,-31.3875,0.16876599,0.13187315,0.6933159,1000.96234, , , , 
2026-03-20 17:40:46.826,-0.3397808,3.3020952,11.3371935,-0.008093959,0.44333512,0.2376264,-19.518751,-46.03125,-31.706251,0.16214444,0.13437985,0.69665706,1000.96234, , , , 
2026-03-20 17:40:46.846,0.46899325,3.8907297,8.958728,0.3657553,0.032833982,0.30604327,-19.462502,-46.068752,-32.006252,0.16219947,0.13656387,0.69856936,1000.96234, , , , 
2026-03-20 17:40:46.866,1.3208381,4.115655,7.5661054,0.3046688,0.4677697,0.23151775,-19.181252,-46.03125,-32.268753,0.16413881,0.13964845,0.7002517,1000.9534, , , , 
2026-03-20 17:40:46.886,0.9092726,3.6993039,9.255438,0.21548255,0.72677636,0.09957096,-19.050001,-45.9,-32.23125,0.16160373,0.14549567,0.7021963,1000.9534, , , , 
2026-03-20 17:40:46.906,0.3062813,3.8668015,10.27478,0.2509127,0.095142186,-0.076358095,-18.91875,-45.61875,-32.1375,0.1593853,0.15054381,0.70293874,1000.9534, , , , 
2026-03-20 17:40:46.926,0.59342,4.130012,8.781659,0.21181737,-0.25427246,-0.1594357,-19.125,-45.46875,-32.1375,0.16150373,0.15177172,0.70165545,1000.9534, , , , 
2026-03-20 17:40:46.946,1.7228323,3.885944,8.312666,0.060322896,-0.20784675,-0.39522952,-19.275002,-45.65625,-32.23125,0.16398892,0.15136085,0.6995932,1000.9581, , , , 
2026-03-20 17:40:46.966,-0.42592242,4.8239303,9.437292,0.18616104,0.0059559317,-0.47708538,-19.2,-45.80625,-32.325,0.16494992,0.1519245,0.69582266,1000.9581, , , , 
2026-03-20 17:40:46.986,-0.32063824,4.8239303,9.097511,0.27779076,-0.12721258,-0.053145237,-18.9375,-45.825,-32.30625,0.16603425,0.15407684,0.69349676,1000.9581, , , , 
2026-03-20 17:40:47.006,0.3924229,4.4458647,7.456035,0.1262963,-0.08567379,0.04459313,-18.6375,-45.956253,-32.1375,0.16875039,0.15477456,0.692857,1000.9581, , , , 
2026-03-20 17:40:47.026,-0.16749759,3.818945,7.580462,-0.041080657,0.3724748,-0.06536253,-18.675001,-46.03125,-31.7625,0.16863407,0.15565275,0.69305617,1000.96387, , , , 
2026-03-20 17:40:47.046,0.043070808,5.0775695,9.676575,0.11896592,0.7829759,-0.060475614,-18.712502,-46.2,-31.425001,0.16470182,0.15946373,0.6935359,1000.96387, , , , 
2026-03-20 17:40:47.066,0.9667004,3.7040894,10.327422,0.16416991,0.13301581,0.053145237,-18.88125,-46.4625,-31.1625,0.16062644,0.16662881,0.69456726,1000.96387, , , , 
2026-03-20 17:40:47.086,1.4787644,3.8141594,8.279166,0.21792601,-0.69653857,-0.47464192,-18.862501,-46.612503,-31.06875,0.16304035,0.16684252,0.6928108,1000.96387,37.88748256,127.73736033,172.8212890625,0.0
2026-03-20 17:40:47.106,-0.30149564,4.6707897,7.1976104,0.021227552,-0.36911505,-0.47097674,-18.46875,-46.7625,-31.1625,0.16835412,0.16362658,0.687009,1000.9819, , , , 
2026-03-20 17:40:47.126,-0.9523434,5.2402816,7.685746,0.14095704,0.20509785,-0.17287473,-18.16875,-46.800003,-31.237501,0.16870403,0.16404185,0.68494266,1000.9819, , , , 
2026-03-20 17:40:47.146,0.014356935,4.814359,8.551949,0.18371758,0.48976085,0.059253883,-17.925001,-46.85625,-31.331251,0.16742024,0.1677601,0.6846761,1000.9819, , , , 
2026-03-20 17:40:47.166,0.7800602,4.206582,8.336594,0.2753473,0.22464553,0.009162972,-17.7,-46.8375,-31.275002,0.16624345,0.17190614,0.6854274,1000.9819, , , , 
2026-03-20 17:40:47.186,-0.033499517,4.8239303,6.2548385,0.16050471,0.11346813,-0.07024945,-17.493752,-46.8375,-31.050001,0.1669509,0.17474344,0.6849669,1000.9827, , , , 
2026-03-20 17:40:47.206,-1.2346965,5.3886366,6.4558353,-0.18890993,0.25885394,0.17043127,-17.23125,-46.875,-30.825,0.1660949,0.17623438,0.6851505,1000.9827, , , , 
2026-03-20 17:40:47.226,0.6987042,3.842873,10.131211,-0.20601414,0.047494736,0.38912088,-16.96875,-46.893753,-30.562502,0.16330224,0.17610446,0.6878347,1000.9827, , , , 
2026-03-20 17:40:47.246,0.7513463,4.752146,9.221938,0.15073088,-0.5022836,0.09346231,-16.66875,-47.100002,-30.35625,0.16455066,0.17350942,0.6897595,1000.9827, , , , 
2026-03-20 17:40:47.266,0.22013968,5.0105705,5.8624153,0.099418245,-0.25305074,0.13255766,-16.5375,-47.193752,-30.35625,0.16950484,0.17130831,0.6892166,1000.97107, , , , 
2026-03-20 17:40:47.286,-0.26799613,5.168497,7.2646093,-0.22556181,0.21853687,0.2083049,-16.725,-47.175003,-30.468752,0.16959885,0.1709345,0.6902178,1000.97107, , , , 
2026-03-20 17:40:47.306,0.11485548,4.8909297,8.786445,-0.2866483,0.21731515,0.27427828,-17.0625,-47.175003,-30.54375,0.16676705,0.17027634,0.6926635,1000.97107, , , , 
2026-03-20 17:40:47.326,0.66999036,4.3836513,11.035698,-0.119271345,0.23075417,0.20952661,-17.4375,-46.912502,-30.806252,0.16401802,0.16978848,0.6952328,1000.97107, , , , 
2026-03-20 17:40:47.346,0.16271193,5.0440702,8.829515,0.084757484,-0.01970039,0.01527162,-17.79375,-46.74375,-31.06875,0.16348502,0.16995023,0.69625163,1000.96533, , , , 
2026-03-20 17:40:47.366,-0.8709874,5.656633,6.876972,-0.017867794,0.051159926,0.076358095,-17.79375,-46.725002,-31.29375,0.16431752,0.17031626,0.69615513,1000.96533, , , , 
2026-03-20 17:40:47.386,-1.6366907,5.7379885,7.877172,-0.1583667,0.14889829,0.31337363,-17.6625,-46.818752,-31.462502,0.16327283,0.17059727,0.69744194,1000.96533, , , , 
2026-03-20 17:40:47.406,-0.4977071,4.9340005,8.49452,-0.19746204,-0.064904384,0.49907652,-17.71875,-47.11875,-31.48125,0.16228539,0.16938548,0.7005111,1000.96533, , , , 
2026-03-20 17:40:47.426,0.7848458,4.4554358,9.485149,-0.11071924,-0.20173809,0.3414734,-17.925001,-47.2125,-31.462502,0.16273898,0.16658004,0.70367086,1000.9651, , , , 
2026-03-20 17:40:47.446,0.6556334,4.8191447,9.3511505,0.066431545,-0.28603745,0.023823727,-18.300001,-47.100002,-31.406252,0.16457604,0.16438024,0.7048123,1000.9651, , , , 
2026-03-20 17:40:47.466,-0.124426775,5.3742795,8.1020975,0.033444848,-0.3911062,-0.1508836,-18.712502,-47.025,-31.500002,0.16737139,0.1627088,0.7037863,1000.9651, , , , 
2026-03-20 17:40:47.486,-0.9619147,6.1734824,7.7001033,-0.12538,-0.310472,-0.12522727,-18.900002,-46.706253,-31.575,0.16959685,0.16048436,0.7021002,1000.9651, , , , 
2026-03-20 17:40:47.506,-0.8709874,6.5371914,7.752745,-0.20967934,-0.17486005,0.07513637,-19.050001,-46.5,-31.48125,0.17035489,0.15792711,0.7015008,1000.97406, , , , 
2026-03-20 17:40:47.526,-0.0047856453,6.005985,7.8484583,-0.21090107,0.09758565,0.21563527,-19.181252,-46.48125,-31.518751,0.16977742,0.15596059,0.702646,1000.97406, , , , 
2026-03-20 17:40:47.546,0.4881358,5.4317074,8.403593,-0.1669188,0.16966769,0.19486587,-19.29375,-46.237503,-31.63125,0.16786017,0.15532556,0.70465034,1000.97406, , , , 
2026-03-20 17:40:47.567,-0.02871387,5.407779,8.025527,-0.07284562,0.019394957,0.09590577,-19.48125,-46.0125,-31.800001,0.16636671,0.15491968,0.7062468,1000.97406, , , , 
2026-03-20 17:40:47.586,-0.44506502,5.5226345,7.446464,-0.044745844,0.03894263,0.12400555,-19.518751,-45.84375,-32.1375,0.16622815,0.15470673,0.70678514,1000.977, , , , 
2026-03-20 17:40:47.606,-0.27756742,5.5226345,7.0636125,-0.074067354,0.11957678,0.22174391,-19.5,-45.693752,-32.287502,0.16566133,0.15485872,0.70804673,1000.977, , , , 
2026-03-20 17:40:47.626,-0.35413775,5.599205,7.092326,-0.20967934,0.08659008,0.28527385,-19.5375,-45.61875,-32.193752,0.16461256,0.15455408,0.7099698,1000.977, , , , 
2026-03-20 17:40:47.646,-0.23449662,5.532206,9.08794,-0.20723587,0.101250835,0.3573559,-19.725,-45.5625,-32.081253,0.16294621,0.15321848,0.7125311,1000.977, , , , 
2026-03-20 17:40:47.666,-0.014356935,5.465207,9.973285,0.098196514,0.032833982,0.30604327,-19.96875,-45.45,-32.2125,0.16231549,0.15265824,0.7150752,1000.98425, , , , 
2026-03-20 17:40:47.686,0.02871387,5.7427745,8.609376,0.398742,-0.008704823,0.1875355,-20.23125,-45.35625,-32.325,0.16438282,0.15407693,0.71635675,1000.98425, , , , 
2026-03-20 17:40:47.706,-0.047856454,5.8911295,7.4512496,0.34376416,0.03649917,0.1386663,-20.56875,-45.24375,-32.4375,0.16731009,0.1569371,0.7167852,1000.98425, , , , 
2026-03-20 17:40:47.726,0.062213387,5.8097734,7.891529,0.17027856,-0.077121675,0.12278382,-20.643751,-45.131252,-32.49375,0.1694003,0.15887348,0.7171869,1000.98425, , , , 
2026-03-20 17:40:47.746,0.64606214,5.9246287,8.786445,0.19471315,-0.19929464,0.06536253,-20.53125,-45.09375,-32.2125,0.17173733,0.15908532,0.71732384,1000.98846, , , , 
2026-03-20 17:40:47.766,1.3686945,5.757131,8.513663,0.40362892,-0.11377356,-0.076358095,-20.53125,-45.0,-31.987501,0.17493734,0.15996708,0.71668565,1000.98846, , , , 
2026-03-20 17:40:47.786,0.5886344,6.2117677,7.2933235,0.457385,-0.008704823,-0.20952661,-20.41875,-45.075,-31.800001,0.17839317,0.16292332,0.7149053,1000.98846, , , , 
2026-03-20 17:40:47.806,0.5168497,6.2548385,6.503692,0.23625195,0.09269873,-0.11300998,-20.4375,-45.1875,-31.556252,0.18064356,0.16642989,0.71304876,1000.98846, , , , 
2026-03-20 17:40:47.826,0.12921242,7.298109,8.006385,-0.0019853106,0.3028362,-0.01282816,-20.7,-45.300003,-31.35,0.18011983,0.16875829,0.7126055,1000.9913, , , , 
2026-03-20 17:40:47.846,0.33020952,6.728617,9.633504,0.005345067,0.52763444,0.12767074,-20.868752,-45.506252,-31.031252,0.17721696,0.17154409,0.71382225,1000.9913, , , , 
2026-03-20 17:40:47.866,0.4833502,6.3744793,9.74836,0.018784093,0.28206682,0.082466744,-20.90625,-45.61875,-30.806252,0.1743736,0.17460713,0.7153335,1000.9913, , , , 
2026-03-20 17:40:47.886,0.2727818,6.1495543,9.030513,-0.23044874,-0.14309508,-0.06658426,-20.79375,-45.75,-30.750002,0.17338279,0.17484146,0.7157573,1000.9913, , , , 
2026-03-20 17:40:47.906,-0.5455636,6.1878395,10.202995,-0.32085672,-0.22006404,-0.08124501,-20.493752,-45.9375,-30.825,0.17271121,0.17154698,0.7152818,1001.00037, , , , 
2026-03-20 17:40:47.926,-0.062213387,5.7810597,10.49492,-0.080176,0.069485866,0.020158539,-20.23125,-45.956253,-31.10625,0.17192155,0.16915855,0.7151562,1001.00037, , , , 
2026-03-20 17:40:47.946,0.49292147,4.991428,10.27478,0.16661337,0.058490302,0.005497783,-20.19375,-45.881252,-31.425001,0.17134818,0.16990687,0.7155089,1001.00037, , , , 
2026-03-20 17:40:47.966,0.3684947,4.651647,8.30788,0.25702137,-0.16386448,-0.10445788,-20.25,-45.75,-31.48125,0.17310482,0.1711917,0.71473694,1001.00037, , , , 
2026-03-20 17:40:47.986,0.4642076,4.685147,6.987042,0.06276636,-0.07956514,-0.12400555,-20.493752,-45.65625,-31.368752,0.17530505,0.17175823,0.7133486,1001.0074, , , , 
2026-03-20 17:40:48.006,0.86141616,4.369294,7.274181,-0.080176,-0.016035201,-0.109344795,-20.587502,-45.61875,-31.29375,0.17552237,0.1717884,0.71247524,1001.0074, , , , 
2026-03-20 17:40:48.026,1.119841,4.091727,8.355737,-0.11560616,-0.25060728,-0.15577053,-20.4375,-45.6375,-31.181252,0.17531297,0.17037004,0.7116796,1001.0074, , , , 
2026-03-20 17:40:48.046,1.4691931,4.1635113,8.896515,0.093309596,-0.25793764,-0.1838703,-20.456251,-45.65625,-31.2,0.17666413,0.16844445,0.7101926,1001.0074, , , , 
2026-03-20 17:40:48.066,2.2636101,3.7328033,7.4177504,0.30222535,-0.34468046,-0.31948227,-20.400002,-45.600002,-31.275002,0.17978227,0.16829093,0.7079199,1001.01953, , , , 
2026-03-20 17:40:48.086,1.9286151,4.197011,7.259824,0.12140937,-0.3263545,-0.5112938,-20.38125,-45.65625,-31.275002,0.18340322,0.16806966,0.70431006,1001.01953,37.88748256,127.73736033,172.8212890625,0.0
2026-03-20 17:40:48.106,0.71306115,4.5798626,6.518049,0.02367101,-0.1357647,-0.44409868,-20.475,-45.881252,-31.06875,0.18530507,0.16773278,0.70028716,1001.01953, , , , 
2026-03-20 17:40:48.126,0.46899325,4.575077,7.350751,-0.07284562,0.3260491,-0.25228715,-20.400002,-46.2,-30.7875,0.18423995,0.16854551,0.6979225,1001.01953, , , , 
2026-03-20 17:40:48.146,0.9092726,4.469793,8.9826565,0.08231403,0.6852376,-0.14966187,-20.118752,-46.537502,-30.45,0.18012506,0.17213912,0.69760287,1001.0261, , , , 
2026-03-20 17:40:48.166,1.1916257,4.1874394,8.288737,0.20204352,0.3688096,-0.24129158,-19.743752,-46.706253,-30.281252,0.17663354,0.1773474,0.69732404,1001.0261, , , , 
2026-03-20 17:40:48.186,0.8566305,4.048656,7.891529,0.1018617,-0.034361143,-0.4147772,-19.21875,-46.800003,-30.375002,0.17577513,0.18047011,0.6953538,1001.0261, , , , 
2026-03-20 17:40:48.206,0.124426775,4.5894337,7.3268228,-0.0129808765,-0.4411971,-0.5247328,-18.75,-46.912502,-30.6,0.17686795,0.17989719,0.6916453,1001.0261, , , , 
2026-03-20 17:40:48.226,-0.11006984,4.8095737,6.7525454,-0.16447534,-0.46929687,-0.37323838,-18.393751,-46.96875,-30.862501,0.17875554,0.17708796,0.68771046,1001.0323, , , , 
2026-03-20 17:40:48.246,0.5694918,4.436293,6.364908,-0.2243401,-0.41065386,-0.30115634,-18.225,-47.04375,-30.91875,0.18008244,0.17335238,0.68492514,1001.0323, , , , 
2026-03-20 17:40:48.266,-0.09092726,4.8191447,6.407979,-0.30619597,-0.21639885,-0.2791652,-18.09375,-47.34375,-30.862501,0.1802994,0.16981567,0.68264693,1001.0323, , , , 
2026-03-20 17:40:48.286,-0.6364908,5.259424,7.4177504,-0.3159698,-0.030695954,-0.09590577,-17.8125,-47.568752,-30.806252,0.17869784,0.16723146,0.6814624,1001.0323, , , , 
2026-03-20 17:40:48.306,0.4546363,4.8382874,8.571091,-0.16447534,0.04016436,0.025045456,-17.71875,-47.5125,-30.768751,0.17671353,0.16557989,0.6817496,1001.03864, , , , 
2026-03-20 17:40:48.326,0.3397808,4.7425747,8.465807,0.040775225,-0.009926553,-0.04092794,-17.7,-47.456253,-30.937502,0.17598177,0.16520992,0.68194467,1001.03864, , , , 
2026-03-20 17:40:48.346,0.35413775,5.0009995,8.456235,0.09697478,-0.19807291,-0.049480047,-17.643751,-47.04375,-31.06875,0.17693964,0.1652867,0.68136805,1001.03864, , , , 
2026-03-20 17:40:48.366,0.52163535,5.1158547,8.16431,0.099418245,-0.43508843,-0.059253883,-17.75625,-46.706253,-31.087502,0.17964995,0.163975,0.68028855,1001.03864, , , , 
2026-03-20 17:40:48.386,0.47377887,5.1924253,7.30768,0.05054906,-0.33735007,-0.058032155,-17.831251,-46.85625,-31.050001,0.18322586,0.16167575,0.67891943,1001.0405, , , , 
2026-03-20 17:40:48.406,0.15314065,5.5130634,7.6426754,-0.15958843,-0.07834341,0.048258316,-17.75625,-46.93125,-30.956251,0.18480434,0.16005135,0.6783032,1001.0405, , , , 
2026-03-20 17:40:48.426,0.72263247,5.465207,9.580862,-0.35017824,0.03405571,0.12400555,-17.79375,-46.912502,-30.88125,0.1835337,0.1580698,0.6792219,1001.0405, , , , 
2026-03-20 17:40:48.446,0.7322037,5.3742795,12.854243,-0.15103632,0.15378521,0.060475614,-17.94375,-46.93125,-30.956251,0.18091415,0.15635195,0.6806466,1001.0405, , , , 
2026-03-20 17:40:48.466,0.15792629,5.895915,13.16531,0.4243983,0.1660025,-0.007941242,-18.0375,-46.631252,-31.143751,0.1802887,0.15797016,0.68100977,1001.0429, , , , 
2026-03-20 17:40:48.486,-0.0526421,6.0825553,10.380065,0.5722276,-0.030695954,-0.01282816,-18.0375,-46.331253,-31.29375,0.18312672,0.16221558,0.6802809,1001.0429, , , , 
2026-03-20 17:40:48.506,0.31585258,5.8337016,8.140383,0.23991714,-0.035582874,-0.020158539,-18.0,-46.256252,-31.3875,0.18679076,0.1650584,0.67930406,1001.0429, , , , 
2026-03-20 17:40:48.526,0.047856454,5.2977095,8.729017,-0.15592323,0.12324197,-0.043371398,-17.90625,-46.237503,-31.237501,0.18691306,0.16590445,0.67905694,1001.0429, , , , 
2026-03-20 17:40:48.546,0.8327023,4.910072,10.485349,-0.16936226,-0.060017463,0.0971275,-17.6625,-46.425003,-30.88125,0.18443543,0.16515574,0.67951083,1001.0471, , , , 
2026-03-20 17:40:48.566,-0.9619147,4.369294,8.973084,-0.081397735,0.13301581,-0.017715078,-17.475,-46.631252,-30.562502,0.18357371,0.16421951,0.6795901,1001.0471, , , , 
2026-03-20 17:40:48.586,-0.57906306,3.9290147,8.949157,0.1262963,0.25152358,0.023823727,-17.456251,-46.78125,-30.431252,0.1822005,0.16548409,0.68007755,1001.0471, , , , 
2026-03-20 17:40:48.606,-1.5409778,4.206582,9.312865,0.31444263,0.26251915,0.19853105,-17.456251,-46.893753,-30.487501,0.18169318,0.1688503,0.6807224,1001.0471, , , , 
2026-03-20 17:40:48.626,-0.9906286,4.072584,8.432307,0.1385136,-0.15042545,0.38789913,-17.643751,-46.85625,-30.806252,0.18300578,0.17130499,0.6823389,1001.0495, , , , 
2026-03-20 17:40:48.646,0.33020952,3.67059,7.728817,-0.29153523,-0.45585784,0.4318814,-18.0,-47.04375,-31.06875,0.18550564,0.1683824,0.68469197,1001.0495, , , , 
2026-03-20 17:40:48.666,0.8566305,3.330809,8.350951,-0.5041162,-0.33979353,0.31337363,-18.243752,-47.325,-31.10625,0.18631154,0.16186278,0.68725294,1001.0495, , , , 
2026-03-20 17:40:48.686,-0.06699903,3.4839497,8.762517,-0.37216938,-0.13209951,0.1508836,-18.46875,-47.287502,-31.06875,0.1849997,0.15643613,0.6892486,1001.0495, , , , 
2026-03-20 17:40:48.706,-0.2440679,3.9673,7.585248,-0.22800528,-0.19562945,0.15821397,-18.69375,-47.23125,-30.956251,0.18397053,0.1530347,0.6904717,1001.05414, , , , 
2026-03-20 17:40:48.726,0.11485548,3.656233,7.2023964,-0.12293654,-0.18219042,0.1386663,-18.900002,-47.025,-30.975,0.1842564,0.15000243,0.6914675,1001.05414, , , , 
2026-03-20 17:40:48.746,-0.0526421,3.8380876,7.0779696,0.05299252,-0.006261364,0.077579826,-19.125,-46.575,-31.2,0.1848402,0.14855465,0.6920845,1001.05414, , , , 
2026-03-20 17:40:48.766,-0.07178468,4.019942,5.541777,0.18371758,0.26496258,0.06536253,-19.425001,-46.29375,-31.462502,0.18511084,0.15020245,0.69257444,1001.05414, , , , 
2026-03-20 17:40:48.786,-0.971486,4.5272202,5.345566,0.007788526,0.32116216,0.171653,-19.743752,-45.99375,-31.66875,0.18409179,0.15311193,0.6934618,1001.05414, , , , 
2026-03-20 17:40:48.806,0.02871387,4.398008,6.690332,-0.0923933,0.32238388,0.32925612,-19.987501,-45.61875,-31.725,0.18193501,0.15470996,0.6957402,1001.05414, , , , 
2026-03-20 17:40:48.826,1.0049855,4.1108694,7.446464,-0.0056504994,0.20876303,0.29626942,-20.15625,-45.487503,-31.66875,0.1800757,0.1556881,0.69858706,1001.05414, , , , 
2026-03-20 17:40:48.846,0.30149564,4.3788652,7.274181,-0.06429352,-0.083230324,0.2046397,-20.25,-45.43125,-31.593752,0.17975633,0.1558902,0.7004673,1001.05414, , , , 
2026-03-20 17:40:48.866,-0.33499518,4.962714,8.178668,-0.20967934,-0.30802858,0.27794346,-20.25,-45.45,-31.650002,0.1804709,0.1535562,0.7018082,1001.0499, , , , 
2026-03-20 17:40:48.886,0.86141616,5.0009995,9.035298,-0.15347977,-0.3593412,0.3121519,-20.2875,-45.506252,-31.837502,0.18196547,0.14934573,0.70355,1001.0499, , , , 
2026-03-20 17:40:48.906,2.062613,5.048856,9.23151,0.117744185,-0.25305074,0.082466744,-20.643751,-45.487503,-32.081253,0.18435457,0.1462757,0.7046164,1001.0499, , , , 
2026-03-20 17:40:48.926,1.4404793,5.9581285,8.595019,0.44394597,-0.0050396346,-0.23640467,-20.962502,-45.45,-32.23125,0.187296,0.14713916,0.703558,1001.0499, , , , 
2026-03-20 17:40:48.946,0.12921242,6.613762,8.46102,0.502589,0.08414663,-0.33780822,-21.075,-45.35625,-32.193752,0.18995108,0.15141925,0.700957,1001.05115, , , , 
2026-03-20 17:40:48.966,-1.105484,7.2119675,8.350951,0.41095927,0.04016436,-0.16187917,-21.206251,-45.393753,-31.95,0.19229874,0.15601966,0.6983306,1001.05115, , , , 
2026-03-20 17:40:48.986,-0.47377887,6.8099732,8.327023,0.1678351,0.11835505,0.08735366,-21.018751,-45.506252,-31.556252,0.19403787,0.15895218,0.6975298,1001.05115, , , , 
2026-03-20 17:40:49.006,1.0193424,5.9342003,10.289138,-0.06429352,0.28451028,0.109344795,-20.831251,-45.61875,-31.237501,0.19327681,0.16068451,0.6986342,1001.05115, , , , 
2026-03-20 17:40:49.026,1.4452649,5.517849,11.361122,-0.11438443,0.095142186,-0.08857539,-20.85,-45.73125,-31.06875,0.1912068,0.16144322,0.69946,1001.05414, , , , 
2026-03-20 17:40:49.046,0.32063824,6.250053,11.332408,-0.22800528,-0.1443168,-0.25228715,-20.85,-45.9375,-31.2,0.1901315,0.16029385,0.6983668,1001.05414, , , , 
2026-03-20 17:40:49.066,-0.31585258,6.273981,11.480763,-0.2206749,-0.020922119,-0.059253883,-20.90625,-46.162502,-31.425001,0.18909253,0.15825114,0.69723046,1001.05414, , , , 
2026-03-20 17:40:49.086,0.7513463,4.7808595,12.437892,-0.11682789,0.29550585,0.11300998,-20.8125,-46.3125,-31.5375,0.186939,0.15772462,0.69797605,1001.05414,37.88747141,127.73737467,173.06585693359375,1.59
2026-03-20 17:40:49.106,2.1248264,3.3786657,12.356536,0.11896592,0.057268575,-0.022601997,-20.625,-46.425003,-31.612501,0.18493888,0.15884154,0.6991489,1001.0639, , , , 
2026-03-20 17:40:49.127,2.7852457,3.3930225,9.040084,0.24724752,-0.46440995,-0.3817905,-20.4375,-46.331253,-31.650002,0.18803382,0.15880494,0.6967819,1001.0639, , , , 
2026-03-20 17:40:49.146,1.9094725,4.173083,6.6185474,0.19593488,-0.43508843,-0.57482374,-20.400002,-46.256252,-31.593752,0.19128215,0.15809545,0.69332254,1001.0639, , , , 
2026-03-20 17:40:49.166,-0.16749759,5.2498527,6.053841,0.017562363,0.102472566,-0.40255988,-20.38125,-46.425003,-31.800001,0.19308658,0.15840444,0.6889107,1001.0639, , , , 
2026-03-20 17:40:49.186,-0.148355,4.790431,6.580262,-0.12660173,0.3688096,-0.0042760535,-20.325,-46.518753,-32.025,0.19093865,0.1604522,0.6876514,1001.06836, , , , 
2026-03-20 17:40:49.206,0.67477596,3.9338005,6.948757,-0.37216938,0.18921536,0.18264857,-20.1375,-46.443752,-31.968752,0.18741636,0.16100688,0.68918896,1001.06836, , , , 
2026-03-20 17:40:49.226,0.72263247,3.522235,7.728817,-0.47968158,-0.016035201,0.15699224,-19.7625,-46.18125,-32.006252,0.1841168,0.15819545,0.6912895,1001.06836, , , , 
2026-03-20 17:40:49.246,0.2105684,3.5270207,7.800602,-0.3074177,0.059712034,0.13744457,-19.5,-45.768753,-32.025,0.18151388,0.15478742,0.6929211,1001.06836, , , , 
2026-03-20 17:40:49.266,-0.4354937,3.842873,7.283752,-0.13026692,0.20265439,0.216857,-19.518751,-45.6375,-32.025,0.17928751,0.15374005,0.6945632,1001.0616, , , , 
2026-03-20 17:40:49.286,-0.3589234,3.7950168,7.2933235,-0.09728022,0.21364996,0.3866774,-19.5375,-45.6375,-32.268753,0.17748185,0.15397432,0.6970057,1001.0616, , , , 
2026-03-20 17:40:49.306,1.1772687,3.2207394,8.56152,0.005345067,0.045051277,0.38056874,-19.5,-45.5625,-32.568752,0.17624879,0.15399112,0.70027906,1001.0616, , , , 
2026-03-20 17:40:49.326,1.9669002,3.2398818,8.130812,0.1348484,-0.2591594,0.102014415,-19.5375,-45.54375,-32.86875,0.1774926,0.15322785,0.7020946,1001.0616, , , , 
2026-03-20 17:40:49.346,1.6127625,3.5940197,7.092326,0.18738277,-0.3263545,-0.13255766,-19.63125,-45.35625,-33.16875,0.18079413,0.1521309,0.70136714,1001.0548, , , , 
2026-03-20 17:40:49.366,0.25842485,4.0965123,7.092326,0.19593488,-0.12965605,-0.1472184,-19.85625,-45.24375,-33.2625,0.18374248,0.15191604,0.6995282,1001.0548, , , , 
2026-03-20 17:40:49.386,0.33020952,4.2592244,7.1210403,0.24602579,0.14889829,0.043371398,-20.25,-45.3375,-33.24375,0.18523584,0.1536039,0.69867676,1001.0548, , , , 
2026-03-20 17:40:49.406,0.8566305,4.2161536,7.2358956,0.1800524,0.2234238,0.051923506,-20.4375,-45.28125,-33.15,0.18555316,0.15638079,0.69904625,1001.0548, , , , 
2026-03-20 17:40:49.426,0.63170516,4.536792,7.2789664,0.07620538,0.14034618,0.031154104,-20.4375,-45.3375,-33.0,0.18526465,0.15861496,0.6994429,1001.04333, , , , 
2026-03-20 17:40:49.446,0.6556334,4.642076,8.394022,0.1018617,0.12202024,0.056810424,-20.362501,-45.2625,-33.018753,0.1849175,0.16018374,0.6999368,1001.04333, , , , 
2026-03-20 17:40:49.466,0.8805587,4.6037908,7.9011,0.11530073,0.13545926,0.031154104,-20.25,-45.09375,-33.15,0.18502045,0.16143377,0.70021397,1001.04333, , , , 
2026-03-20 17:40:49.486,0.12921242,4.8239303,8.216953,-0.05574141,0.10002911,0.023823727,-20.212502,-45.112503,-33.225002,0.18465509,0.16265094,0.7004715,1001.04333, , , , 
2026-03-20 17:40:49.506,0.16749759,4.8095737,9.958928,-0.14126249,0.15134175,0.10690133,-20.0625,-45.075,-33.300003,0.18317668,0.1626065,0.70124084,1001.0286, , , , 
2026-03-20 17:40:49.526,0.66041905,4.766503,10.949556,-0.0056504994,0.08170316,0.10567961,-19.81875,-45.131252,-33.225002,0.18168479,0.16261406,0.7024238,1001.0286, , , , 
2026-03-20 17:40:49.546,0.90448695,4.9052863,9.887143,0.07987057,-0.19074252,0.01282816,-19.556252,-45.206253,-33.112503,0.18229163,0.16259272,0.7028156,1001.0286, , , , 
2026-03-20 17:40:49.566,-0.13878371,5.0919266,9.45165,-0.119271345,-0.10766492,0.06291907,-19.462502,-45.24375,-33.112503,0.18385914,0.16140415,0.70252466,1001.0286, , , , 
2026-03-20 17:40:49.586,-0.66999036,4.85743,10.992627,-0.3856084,0.2197586,0.27550003,-19.556252,-45.2625,-33.037502,0.18239568,0.1597918,0.7038226,1001.0293, , , , 
2026-03-20 17:40:49.606,-0.13399807,3.6083765,13.653446,-0.49189886,0.20387612,0.3866774,-19.78125,-45.393753,-33.09375,0.1779194,0.15763997,0.7073073,1001.0293, , , , 
2026-03-20 17:40:49.626,0.70348984,2.9240294,15.122639,-0.22800528,-0.07101303,0.2376264,-20.1375,-45.54375,-33.206253,0.17487085,0.15442143,0.71040535,1001.0293, , , , 
2026-03-20 17:40:49.646,1.0576276,2.9958138,13.131811,0.3743074,-0.12476913,-0.051923506,-20.38125,-45.5625,-33.375,0.17583142,0.15323603,0.7110234,1001.0293, , , , 
2026-03-20 17:40:49.666,0.9619147,3.4695928,9.542577,0.6210968,-0.044134982,-0.24617851,-20.475,-45.487503,-33.675003,0.1794346,0.1562883,0.7092828,1001.04565, , , , 
2026-03-20 17:40:49.686,0.8279166,3.7423747,6.9535427,0.4243983,-0.058795735,-0.3451386,-20.4375,-45.1875,-33.768753,0.18305138,0.16036655,0.70638627,1001.04565, , , , 
2026-03-20 17:40:49.706,-0.971486,4.3836513,6.518049,0.10919208,0.09269873,-0.27672175,-20.41875,-45.037502,-33.61875,0.18457858,0.16287161,0.7035515,1001.04565, , , , 
2026-03-20 17:40:49.726,-1.3447664,4.575077,6.0921264,-0.09483676,0.38224864,0.029932374,-20.400002,-45.1875,-33.3375,0.18319225,0.16500534,0.702663,1001.04565, , , , 
2026-03-20 17:40:49.746,-0.9523434,4.101298,7.537391,-0.37216938,0.45310894,0.26328272,-20.362501,-45.487503,-33.09375,0.17890644,0.16631818,0.7046186,1001.0524, , , , 
2026-03-20 17:40:49.766,0.2009971,3.2590244,9.485149,-0.34162614,0.22464553,0.27550003,-20.38125,-45.675003,-33.09375,0.1740312,0.1656096,0.7078803,1001.0524, , , , 
2026-03-20 17:40:49.786,0.30149564,3.0963125,9.049655,-0.016646065,-0.14309508,0.06169734,-20.212502,-45.768753,-33.300003,0.17226367,0.16408867,0.70969915,1001.0524, , , , 
2026-03-20 17:40:49.806,-0.23928227,3.8620157,7.4512496,0.111635536,-0.25671592,-0.033597562,-19.987501,-45.6375,-33.6375,0.1739484,0.16297477,0.7093847,1001.0524, , , , 
2026-03-20 17:40:49.826,-0.15792629,4.316652,6.5228343,0.14584397,-0.16142102,0.027488915,-20.00625,-45.225002,-33.99375,0.17700028,0.1623452,0.7085147,1001.0573, , , , 
2026-03-20 17:40:49.846,0.55513483,4.240082,6.2404814,0.17516547,0.007177661,0.055588696,-20.212502,-45.09375,-34.256252,0.17831895,0.16279215,0.7084387,1001.0573, , , , 
2026-03-20 17:40:49.866,0.61734825,4.168297,6.15434,0.16905683,0.09392046,0.01282816,-20.325,-44.9625,-34.162502,0.1792351,0.16445751,0.7085204,1001.0573, , , , 
2026-03-20 17:40:49.886,0.5982057,4.3118663,6.3792653,0.09086613,-0.01847866,-0.016493348,-20.38125,-44.756252,-33.881252,0.17983352,0.16589701,0.70839554,1001.0573, , , , 
2026-03-20 17:40:49.906,0.29192436,4.6085763,6.943971,0.066431545,-0.15042545,-0.054366965,-20.38125,-45.0,-33.525,0.18086702,0.16597566,0.7078996,1001.0531, , , , 
2026-03-20 17:40:49.926,0.15792629,5.0344987,7.4847493,0.27290383,0.014508039,0.034819294,-20.212502,-45.206253,-33.225002,0.18254732,0.16627131,0.70726705,1001.0531, , , , 
2026-03-20 17:40:49.946,1.2203395,5.163711,7.068398,0.34376416,0.1904371,-0.005497783,-20.19375,-45.24375,-33.09375,0.18415059,0.16905193,0.7071249,1001.0531, , , , 
2026-03-20 17:40:49.966,0.9619147,5.493921,7.2550383,0.16539164,0.051159926,-0.17409647,-20.4375,-45.412502,-33.037502,0.184945,0.1723231,0.7064843,1001.0531, , , , 
2026-03-20 17:40:49.986,-0.038285162,6.1639113,8.585447,4.581486E-4,-0.16630794,-0.24617851,-20.53125,-45.6375,-32.90625,0.18559496,0.17301707,0.70479137,1001.0531, , , , 
2026-03-20 17:40:50.006,-0.043070808,6.245267,9.930214,0.23380849,-0.116217025,-0.16554436,-20.550001,-45.825,-32.71875,0.18676199,0.17283118,0.7029353,1001.0435, , , , 
2026-03-20 17:40:50.026,-0.15792629,6.135197,8.724232,0.3376555,0.0108428495,-0.16432263,-20.6625,-46.162502,-32.568752,0.18893893,0.17484678,0.7011803,1001.0435, , , , 
2026-03-20 17:40:50.046,-0.6364908,6.355337,8.609376,0.035888307,-0.0368046,-0.07391464,-20.625,-46.425003,-32.41875,0.1901593,0.17704022,0.6998474,1001.0435, , , , 
2026-03-20 17:40:50.066,0.17228323,6.5611196,9.9015,-0.21823144,-0.32879797,-0.01282816,-20.550001,-46.4625,-32.23125,0.1905327,0.17563492,0.69939226,1001.0376, , , , 
2026-03-20 17:40:50.086,1.7036897,6.3457656,10.202995,-0.12660173,-0.25793764,-0.083688475,-20.587502,-46.518753,-32.006252,0.1915864,0.17201385,0.6988918,1001.0376,37.88746274,127.73738555,173.13409423828125,1.46
2026-03-20 17:40:50.106,1.2394822,6.407979,9.513863,-0.07040217,0.075594515,-0.1960876,-20.38125,-46.537502,-31.968752,0.19172846,0.17103891,0.69786394,1001.0376, , , , 
2026-03-20 17:40:50.126,0.52163535,5.733203,10.030712,-0.24633121,0.06582068,-0.1178969,-20.1375,-46.48125,-32.100002,0.19000983,0.17105754,0.69709134,1001.0376, , , , 
2026-03-20 17:40:50.146,0.5982057,4.412365,10.911271,-0.34529132,0.11835505,-0.06536253,-20.00625,-46.443752,-32.25,0.18728684,0.1695936,0.69714725,1001.0376, , , , 
2026-03-20 17:40:50.166,1.0145568,3.603591,11.810972,-0.17302746,0.07437278,-0.126449,-19.875,-46.40625,-32.49375,0.18413757,0.16837567,0.6973911,1001.0376, , , , 
2026-03-20 17:40:50.186,1.1820544,3.7854455,9.839287,0.1800524,-0.24694209,-0.34636033,-19.837502,-46.55625,-32.662502,0.18391602,0.16800845,0.6959875,1001.0376, , , , 
2026-03-20 17:40:50.206,0.23449662,4.843073,6.9296145,0.28634286,-0.19074252,-0.4062251,-19.743752,-46.66875,-32.71875,0.1867528,0.16854693,0.69250244,1001.0376, , , , 
2026-03-20 17:40:50.226,-0.85184485,5.4987063,5.9007006,0.14950916,0.13423753,-0.15210533,-19.66875,-46.78125,-32.90625,0.18829788,0.17058794,0.68974,1001.04333, , , , 
2026-03-20 17:40:50.246,-0.47377887,5.015356,6.0155563,-0.17424917,0.29184064,0.18264857,-19.612501,-46.85625,-32.90625,0.18695173,0.17245227,0.6900836,1001.04333, , , , 
2026-03-20 17:40:50.266,0.33499518,4.1204405,7.2646093,-0.51633346,0.22464553,0.365908,-19.556252,-46.78125,-32.775,0.18337072,0.17160113,0.6929777,1001.04333, , , , 
2026-03-20 17:40:50.286,0.95712906,3.330809,8.949157,-0.5261073,0.14278965,0.33902994,-19.518751,-46.6875,-32.625,0.17895304,0.16836894,0.696765,1001.04333, , , , 
2026-03-20 17:40:50.306,1.3878372,3.0053852,9.174082,-0.2707658,0.11102467,0.18875721,-19.518751,-46.55625,-32.53125,0.17563067,0.16551243,0.6996624,1001.052, , , , 
2026-03-20 17:40:50.326,1.2729816,3.1154552,8.623733,0.018784093,0.114689864,-0.034819294,-19.518751,-46.3125,-32.831253,0.17390876,0.16490354,0.70084375,1001.052, , , , 
2026-03-20 17:40:50.346,0.5312066,3.5892339,7.5182486,0.116522454,-0.0697913,-0.1838703,-19.425001,-46.0125,-33.318752,0.17376298,0.16585529,0.70024407,1001.052, , , , 
2026-03-20 17:40:50.366,-0.09092726,4.302295,6.9391856,0.07987057,-0.17608178,-0.1631009,-19.25625,-45.768753,-33.768753,0.1750546,0.16601455,0.69859225,1001.052, , , , 
2026-03-20 17:40:50.386,-0.13878371,4.412365,6.795616,0.159283,0.0108428495,-0.07391464,-19.087502,-45.73125,-34.0125,0.17643759,0.16617158,0.6973305,1001.05286, , , , 
2026-03-20 17:40:50.406,-0.06699903,4.6468616,6.6185474,0.22036947,0.31627524,0.06169734,-19.06875,-45.75,-34.068752,0.17669128,0.16873944,0.69709706,1001.05286, , , , 
2026-03-20 17:40:50.426,-0.0526421,4.685147,6.580262,0.06520981,0.26251915,0.1545488,-19.06875,-45.84375,-34.0875,0.17589329,0.17193127,0.69799817,1001.05286, , , , 
2026-03-20 17:40:50.446,0.55513483,4.493721,7.7910304,-0.10949751,0.07925971,0.21807873,-19.21875,-46.03125,-34.0125,0.17491505,0.17248292,0.6996218,1001.05286, , , , 
2026-03-20 17:40:50.466,0.64606214,4.249653,9.164511,0.111635536,0.13790272,0.16432263,-19.40625,-46.068752,-33.9,0.17434485,0.17231338,0.7011983,1001.0495, , , , 
2026-03-20 17:40:50.486,0.5407779,4.2352962,7.6713896,0.46105018,0.3016145,0.0971275,-19.35,-46.0125,-33.768753,0.17493011,0.1754506,0.70202994,1001.0495, , , , 
2026-03-20 17:40:50.506,0.15792629,4.5224347,6.4271216,0.28634286,0.2441932,0.08613193,-19.331251,-45.99375,-33.61875,0.17593299,0.18023898,0.7023533,1001.0495, , , , 
2026-03-20 17:40:50.526,-0.08135597,4.5415773,7.432107,-0.017867794,0.13790272,0.12889247,-19.275002,-46.0125,-33.525,0.17588474,0.18251432,0.7030514,1001.0495, , , , 
2026-03-20 17:40:50.546,0.019142581,4.6612186,10.097712,-0.05574141,0.17211115,0.20952661,-19.06875,-46.10625,-33.6375,0.17467138,0.18279424,0.7045004,1001.0488, , , , 
2026-03-20 17:40:50.566,1.3112668,4.584648,10.403993,0.17027856,0.029168794,0.15699224,-18.900002,-46.237503,-33.7125,0.17433685,0.18350568,0.7060844,1001.0488, , , , 
2026-03-20 17:40:50.586,1.3495519,5.0105705,10.0163555,0.17760894,-0.16019928,0.0042760535,-18.825,-46.29375,-33.73125,0.17603499,0.18418868,0.70639044,1001.0488, , , , 
2026-03-20 17:40:50.606,0.36370903,5.5130634,10.126426,0.1556178,-0.19685118,-0.017715078,-18.806252,-46.18125,-33.787502,0.17848395,0.18406424,0.7056407,1001.0488, , , , 
2026-03-20 17:40:50.626,0.38763726,5.4460645,9.695718,0.027336199,-0.09422589,0.04703659,-18.806252,-45.99375,-33.693752,0.18040872,0.18375514,0.70522326,1001.0535, , , , 
2026-03-20 17:40:50.646,-0.11485548,4.8622155,10.040284,-0.31352636,0.07315106,0.07880156,-18.975,-45.956253,-33.393753,0.1800865,0.18274844,0.705768,1001.0535, , , , 
2026-03-20 17:40:50.666,-0.60777694,4.316652,12.71546,-0.36728245,0.059712034,0.11300998,-19.087502,-46.03125,-33.206253,0.17709044,0.18045187,0.70720524,1001.0535, , , , 
2026-03-20 17:40:50.686,-0.23449662,3.9146578,13.045669,-0.008093959,0.012064579,0.051923506,-19.1625,-46.10625,-33.16875,0.1751886,0.17859164,0.7084033,1001.0535, , , , 
2026-03-20 17:40:50.706,-0.11964113,3.871587,10.222138,0.34742934,0.075594515,-0.06780599,-19.3125,-46.256252,-33.3375,0.17591895,0.17978577,0.70825356,1001.0639, , , , 
2026-03-20 17:40:50.726,-0.66041905,4.197011,7.389036,0.07131846,0.09880738,-0.102014415,-19.3875,-46.275,-33.61875,0.17696641,0.18258065,0.70730907,1001.0639, , , , 
2026-03-20 17:40:50.746,-1.0671989,3.952943,7.8723865,-0.40393433,0.046273008,-0.031154104,-19.3875,-46.331253,-33.73125,0.17545298,0.18249726,0.7071231,1001.0639, , , , 
2026-03-20 17:40:50.766,-0.7082755,3.5270207,9.068798,-0.5871938,0.056046844,0.031154104,-19.368752,-46.425003,-33.581253,0.1716834,0.17927091,0.70809054,1001.0639, , , , 
2026-03-20 17:40:50.786,-0.09092726,2.9336007,10.0163555,-0.41126472,0.102472566,-0.01527162,-19.275002,-46.256252,-33.300003,0.16740686,0.17573743,0.70938987,1001.068, , , , 
2026-03-20 17:40:50.806,-0.014356935,3.048456,9.245867,-0.06062833,0.056046844,-0.126449,-19.181252,-46.0125,-33.24375,0.16458115,0.17422506,0.7097308,1001.068, , , , 
2026-03-20 17:40:50.826,-0.047856454,3.4839497,7.1018977,0.14217877,0.008399391,-0.20097451,-19.331251,-45.693752,-33.506252,0.1642043,0.17481612,0.7087144,1001.068, , , , 
2026-03-20 17:40:50.846,-0.5024927,3.9816568,5.326423,0.13240494,0.10980295,-0.20219624,-19.5375,-45.487503,-33.9,0.16466902,0.17650089,0.7070894,1001.068, , , , 
2026-03-20 17:40:50.866,-1.0432707,4.4602213,5.359923,-0.054519683,0.17577635,-0.06902772,-19.59375,-45.506252,-34.10625,0.16370578,0.17834194,0.706167,1001.06647, , , , 
2026-03-20 17:40:50.886,-0.6412765,4.2831526,6.2644095,-0.25243986,0.029168794,0.09346231,-19.40625,-45.525,-34.18125,0.16191143,0.17825796,0.7066152,1001.06647, , , , 
2026-03-20 17:40:50.906,-0.60777694,4.2352962,7.30768,-0.19013166,-0.064904384,0.15210533,-19.03125,-45.581253,-34.2,0.16055469,0.17631203,0.70779175,1001.06647, , , , 
2026-03-20 17:40:50.926,-0.45942193,4.2975097,7.1976104,-0.0019853106,-0.008704823,0.19853105,-18.65625,-45.54375,-34.10625,0.16049466,0.17494455,0.7090297,1001.06647, , , , 
2026-03-20 17:40:50.946,-0.08135597,4.3405805,6.963114,0.0810923,0.024281874,0.171653,-18.675001,-45.393753,-34.331253,0.1610318,0.1751223,0.71024626,1001.0614, , , , 
2026-03-20 17:40:50.966,0.14356937,4.666004,6.920043,0.021227552,-0.21517712,0.07880156,-18.91875,-45.1875,-34.706253,0.16212162,0.17502846,0.71094686,1001.0614, , , , 
2026-03-20 17:40:50.986,0.28713873,5.15414,7.2215385,0.039553493,-0.297033,-0.037262753,-19.10625,-45.05625,-34.893753,0.16429232,0.173312,0.7107006,1001.0614, , , , 
2026-03-20 17:40:51.006,0.124426775,6.0251274,7.556534,0.1800524,0.014508039,-0.091018856,-19.3125,-45.0,-35.006252,0.16631839,0.17292467,0.7097417,1001.0614, , , , 
2026-03-20 17:40:51.026,-0.18185452,6.6089764,8.092526,0.26435173,0.24174973,-0.10567961,-19.368752,-44.98125,-34.800003,0.16678648,0.1757828,0.7088734,1001.0563, , , , 
2026-03-20 17:40:51.046,-0.61734825,6.8339014,8.240881,0.15317434,0.054825112,-0.054366965,-19.425001,-45.131252,-34.3875,0.1669269,0.17910326,0.70813215,1001.0563, , , , 
2026-03-20 17:40:51.066,-0.6843473,6.4941206,9.288938,-0.054519683,-0.16752967,-0.023823727,-19.425001,-45.35625,-34.068752,0.16767718,0.17953423,0.7076184,1001.0563, , , , 
2026-03-20 17:40:51.086,-0.32063824,6.1160545,10.710274,-0.0056504994,-0.14065161,-0.04703659,-19.368752,-45.46875,-33.881252,0.1684716,0.17817383,0.7072193,1001.0563,37.88745241,127.73739481,173.19854736328125,1.41
2026-03-20 17:40:51.106,-0.5072784,6.2883377,10.332209,0.0029016077,0.0108428495,-0.10690133,-19.35,-45.75,-33.881252,0.1691108,0.17788552,0.70651066,1001.0508, , , , 
2026-03-20 17:40:51.126,-1.5409778,6.843473,10.3848505,-0.229227,0.18066326,0.0140498895,-19.3125,-46.03125,-33.975002,0.16805328,0.17820713,0.7061698,1001.0508, , , , 
2026-03-20 17:40:51.146,-1.3495519,6.786045,12.471392,-0.42836893,0.1782198,0.25717407,-19.29375,-46.0875,-34.10625,0.16460183,0.17720744,0.7077293,1001.0508, , , , 
2026-03-20 17:40:51.166,0.11006984,5.5896335,13.409378,-0.28909177,0.14034618,0.37934703,-19.29375,-46.10625,-34.143753,0.16140771,0.17490266,0.71082234,1001.0508, , , , 
2026-03-20 17:40:51.186,1.2921243,4.45065,12.409178,0.045662142,0.10491603,0.25717407,-19.275002,-45.9375,-34.275,0.15989663,0.17401092,0.7136505,1001.0565, , , , 
2026-03-20 17:40:51.206,1.6893328,3.9720855,10.021141,0.12996148,-0.17974696,0.09224058,-19.3875,-45.73125,-34.48125,0.16073377,0.17429507,0.7148843,1001.0565, , , , 
2026-03-20 17:40:51.226,1.8807586,3.991228,8.336594,0.07864884,-0.32391104,-0.08735366,-19.556252,-45.375,-34.706253,0.1635099,0.17305599,0.714475,1001.0565, , , , 
2026-03-20 17:40:51.246,1.2155539,4.3740797,7.503892,0.105526894,-0.055130545,-0.21074834,-19.78125,-45.16875,-34.78125,0.16558947,0.17227797,0.7129956,1001.0565, , , , 
2026-03-20 17:40:51.266,0.15792629,4.4841495,6.6281185,0.045662142,0.17577635,-0.16432263,-19.837502,-45.300003,-34.706253,0.16555259,0.17374046,0.711551,1001.07007, , , , 
2026-03-20 17:40:51.286,-0.009571291,4.115655,7.2789664,-0.15714496,0.25396705,-0.03604102,-19.650002,-45.318752,-34.575,0.16370475,0.17514575,0.7111689,1001.07007, , , , 
2026-03-20 17:40:51.306,0.062213387,3.546163,8.403593,-0.229227,0.27107126,0.029932374,-19.5375,-45.46875,-34.40625,0.16053072,0.17546257,0.7119111,1001.07007, , , , 
2026-03-20 17:40:51.326,-0.019142581,3.1441689,8.977871,-0.12415826,0.17333288,0.04703659,-19.29375,-45.43125,-34.48125,0.157481,0.17556138,0.71294785,1001.07007, , , , 
2026-03-20 17:40:51.346,0.3684947,3.3882368,7.948957,-0.06307179,-0.10033454,0.029932374,-19.125,-45.075,-34.612503,0.1564941,0.17520644,0.713503,1001.0737, , , , 
2026-03-20 17:40:51.366,0.37328035,3.574877,7.743174,-0.041080657,-0.14920372,-0.029932374,-19.10625,-44.850002,-34.800003,0.15702723,0.17378338,0.7134925,1001.0737, , , , 
2026-03-20 17:40:51.386,-0.038285162,3.5509489,7.5469627,0.123852834,-0.030695954,-0.07147118,-19.125,-44.68125,-34.987503,0.1578845,0.17315948,0.71296716,1001.0737, , , , 
2026-03-20 17:40:51.406,-0.30149564,3.6083765,6.853044,0.2875646,0.11346813,-0.07269291,-19.125,-44.643753,-35.175003,0.15877812,0.17495288,0.7121816,1001.0737, , , , 
2026-03-20 17:40:51.426,-0.55513483,3.6753755,6.8099732,0.2838994,0.108581215,-0.007941242,-19.2,-44.625,-35.268753,0.15965654,0.17802261,0.7115499,1001.0741, , , , 
2026-03-20 17:40:51.446,-0.009571291,3.6658044,7.2215385,0.31077746,-0.11255184,0.06169734,-19.125,-44.7,-35.23125,0.161388,0.18017246,0.7112606,1001.0741, , , , 
2026-03-20 17:40:51.466,0.90448695,3.7088752,7.1449685,0.38896814,-0.14676027,0.01527162,-18.806252,-44.86875,-35.04375,0.16476913,0.18147688,0.7107511,1001.0741, , , , 
2026-03-20 17:40:51.486,0.8566305,3.8380876,6.7381887,0.4659371,-0.11133011,-0.09224058,-18.54375,-45.15,-34.8375,0.16854055,0.18362184,0.7095616,1001.0741, , , , 
2026-03-20 17:40:51.506,-0.2536392,4.493721,6.5754766,0.40362892,0.1036943,-0.03848448,-18.243752,-45.393753,-34.725002,0.1716734,0.18669921,0.7080219,1001.06757, , , , 
2026-03-20 17:40:51.526,0.10049855,4.6372905,7.4847493,0.31077746,0.28451028,0.109344795,-18.300001,-45.581253,-34.518753,0.17285891,0.19051321,0.7077804,1001.06757, , , , 
2026-03-20 17:40:51.546,0.3062813,4.6085763,8.073383,0.1470657,0.15500695,0.102014415,-18.73125,-45.881252,-34.3875,0.17294194,0.19383228,0.7084896,1001.06757, , , , 
2026-03-20 17:40:51.566,0.047856454,5.144569,8.772088,-0.056963142,-0.13942988,0.10445788,-19.06875,-46.162502,-34.350002,0.17330597,0.19422944,0.7090537,1001.06757, , , , 
2026-03-20 17:40:51.586,0.4354937,5.5704913,9.298509,-0.15958843,-0.2310596,0.14599667,-19.29375,-46.4625,-34.143753,0.17438637,0.19183674,0.70967895,1001.0688, , , , 
2026-03-20 17:40:51.606,0.89013004,5.407779,10.547563,-0.17791437,-0.038026333,0.115453444,-19.3125,-46.55625,-33.9375,0.17481707,0.18919386,0.7106526,1001.0688, , , , 
2026-03-20 17:40:51.626,0.94755775,5.383851,11.834901,-0.1339321,0.15867212,0.007941242,-19.2,-46.443752,-33.7125,0.17351502,0.18807274,0.7115944,1001.0688, , , , 
2026-03-20 17:40:51.646,0.56470615,5.4556355,12.576675,-0.037415467,0.107359484,-0.17776164,-19.29375,-46.162502,-33.54375,0.17156379,0.18841091,0.71167445,1001.0688, , , , 
2026-03-20 17:40:51.666,-0.5982057,5.5800624,12.897314,0.1763872,-0.10644319,-0.31337363,-19.35,-45.99375,-33.7125,0.17105693,0.18911663,0.7100557,1001.0894, , , , 
2026-03-20 17:40:51.686,-1.0767702,5.245067,11.423335,0.39263335,-0.27870706,-0.26572618,-19.368752,-45.975002,-34.068752,0.17334959,0.19028513,0.70725685,1001.0894, , , , 
2026-03-20 17:40:51.706,-1.1294123,4.8622155,9.375079,0.38896814,-0.19440772,-0.1545488,-19.3875,-45.9375,-34.40625,0.17734848,0.19190855,0.7045237,1001.0894, , , , 
2026-03-20 17:40:51.726,-1.3830515,4.45065,8.738588,0.22769985,-0.2432769,0.04459313,-19.25625,-46.03125,-34.48125,0.1805535,0.1931599,0.7029942,1001.0894, , , , 
2026-03-20 17:40:51.746,-0.3397808,4.0438704,7.379465,0.02489274,-0.4167625,0.16920954,-19.181252,-46.2,-34.331253,0.18388669,0.1921158,0.70275223,1001.1062, , , , 
2026-03-20 17:40:51.766,0.34456646,3.7615173,6.690332,-0.14004076,-0.33979353,0.12767074,-19.050001,-46.350002,-33.99375,0.18675108,0.1887928,0.7031733,1001.1062, , , , 
2026-03-20 17:40:51.786,-0.22492532,3.7854455,6.1639113,-0.27565274,-0.06734784,0.055588696,-18.7875,-46.59375,-33.487503,0.18733585,0.18572298,0.70370615,1001.1062, , , , 
2026-03-20 17:40:51.806,-1.1964114,3.9242291,7.245467,-0.46746427,0.18432845,0.09957096,-18.75,-46.631252,-33.1875,0.18473518,0.18342513,0.70481455,1001.1062, , , , 
2026-03-20 17:40:51.826,-0.8997013,3.7854455,8.705089,-0.34284785,0.240528,0.1802051,-18.768751,-46.4625,-33.05625,0.18042433,0.18155976,0.7069028,1001.12024, , , , 
2026-03-20 17:40:51.846,-0.09571291,3.7184465,7.7814593,-0.080176,0.18188499,0.108123064,-18.993752,-46.29375,-33.112503,0.1776098,0.18117057,0.70881,1001.12024, , , , 
2026-03-20 17:40:51.866,-0.4642076,4.2831526,6.4175506,-0.019089524,0.08659008,0.018936807,-19.275002,-46.068752,-33.393753,0.17642139,0.18167832,0.70955104,1001.12024, , , , 
2026-03-20 17:40:51.886,-0.90448695,4.7282176,5.895915,-0.06307179,0.1452331,0.09346231,-19.425001,-46.050003,-33.675003,0.1755087,0.18220149,0.7099988,1001.12024, , , , 
2026-03-20 17:40:51.906,-1.052842,4.7712884,6.096912,-0.18035783,0.059712034,0.23029602,-19.650002,-46.125,-33.9375,0.17418566,0.18224223,0.7112788,1001.14044, , , , 
2026-03-20 17:40:51.926,0.014356935,4.536792,6.728617,-0.21456626,-0.066126116,0.3035998,-19.875,-46.2,-34.068752,0.1733928,0.18039389,0.71337533,1001.14044, , , , 
2026-03-20 17:40:51.946,1.0289137,4.220939,7.2933235,-0.042302385,0.019394957,0.17898338,-19.96875,-46.21875,-34.143753,0.17319609,0.17856373,0.7153402,1001.14044, , , , 
2026-03-20 17:40:51.966,0.23449662,4.575077,6.5898337,0.066431545,0.10613775,-0.005497783,-20.362501,-46.143753,-34.3125,0.17321172,0.17892611,0.71599615,1001.14044, , , , 
2026-03-20 17:40:51.986,-0.6891329,4.8861437,7.537391,-0.00320704,0.1660025,0.03604102,-20.681252,-46.050003,-34.29375,0.17258655,0.1801357,0.71611243,1001.1426, , , , 
2026-03-20 17:40:52.006,-0.44985065,5.058427,9.102298,0.12996148,0.09269873,0.102014415,-20.8875,-45.862503,-34.29375,0.1717827,0.18128863,0.7167499,1001.1426, , , , 
2026-03-20 17:40:52.026,0.7322037,5.3982077,9.183653,0.31199917,-0.0490219,-0.034819294,-21.075,-45.581253,-34.4625,0.17297281,0.18290833,0.71685743,1001.1426, , , , 
2026-03-20 17:40:52.046,0.6029913,6.2261243,8.379665,0.38896814,-0.20784675,-0.2950477,-20.868752,-45.43125,-34.48125,0.17603862,0.18489595,0.71504134,1001.1426, , , , 
2026-03-20 17:40:52.066,-1.0241281,7.183254,7.5469627,0.31077746,-0.0050396346,-0.25961754,-20.6625,-45.46875,-34.48125,0.17921281,0.1871726,0.71194947,1001.14465, , , , 
2026-03-20 17:40:52.086,-1.9908284,7.322037,8.628518,0.05177079,0.45799586,0.09957096,-20.56875,-45.487503,-34.443752,0.17913216,0.19041622,0.71092576,1001.14465,37.8874426,127.73740622,173.1932373046875,1.46
2026-03-20 17:40:52.106,-0.95712906,6.680761,10.796415,-0.24633121,0.35537058,0.3781253,-20.53125,-45.525,-34.256252,0.17563027,0.19307907,0.71332985,1001.14465, , , , 
2026-03-20 17:40:52.126,0.6269195,6.005985,11.667403,-0.5542071,-0.2762636,0.30237806,-20.60625,-45.581253,-33.99375,0.17299746,0.19088264,0.71668124,1001.14465, , , , 
2026-03-20 17:40:52.146,1.1581261,6.058627,12.887743,-0.5261073,-0.48884454,0.091018856,-20.625,-45.61875,-33.9,0.17253086,0.18361095,0.7185571,1001.1466, , , , 
2026-03-20 17:40:52.166,1.253839,5.6327047,12.576675,-0.08628465,-0.10155627,-0.007941242,-20.475,-45.80625,-33.99375,0.17286819,0.17839089,0.7189275,1001.1466, , , , 
2026-03-20 17:40:52.186,1.4548361,4.6372905,10.585847,0.23625195,0.2112065,-0.08613193,-20.362501,-45.881252,-34.03125,0.17289639,0.17924388,0.7186851,1001.1466, , , , 
2026-03-20 17:40:52.206,1.282553,4.063013,8.776874,0.12873976,0.091477,-0.16187917,-20.41875,-45.768753,-34.18125,0.17272869,0.1822378,0.7178589,1001.1466, , , , 
2026-03-20 17:40:52.226,1.5361922,3.6849468,8.456235,-0.041080657,-0.056352276,-0.19120067,-20.56875,-45.5625,-34.350002,0.17267951,0.1828829,0.7167226,1001.1479, , , , 
2026-03-20 17:40:52.246,1.1437693,3.8620157,8.633304,0.021227552,0.16478078,-0.29016078,-20.6625,-45.3375,-34.29375,0.1719903,0.18293414,0.71531016,1001.1479, , , , 
2026-03-20 17:40:52.266,0.23449662,4.130012,8.202596,0.084757484,0.40301803,-0.2791652,-20.737501,-45.412502,-34.256252,0.1698622,0.18563548,0.71376854,1001.1479, , , , 
2026-03-20 17:40:52.286,-0.2632105,4.23051,7.9680996,-0.06185006,0.33215773,-0.1545488,-20.6625,-45.6375,-34.21875,0.16678786,0.18895268,0.71283144,1001.1479, , , , 
2026-03-20 17:40:52.306,-0.16749759,3.9338005,8.183454,-0.19746204,0.03527744,-0.055588696,-20.362501,-45.787502,-34.162502,0.16411541,0.18979096,0.71268916,1001.1462, , , , 
2026-03-20 17:40:52.326,0.3062813,3.7663028,8.092526,-0.17669263,-0.19929464,-0.031154104,-20.0625,-45.881252,-34.256252,0.16315873,0.18791886,0.71270275,1001.1462, , , , 
2026-03-20 17:40:52.346,0.71306115,3.7710886,7.503892,-0.023976443,-0.2591594,-0.06902772,-19.800001,-45.91875,-34.3875,0.16398627,0.18551624,0.7122775,1001.1462, , , , 
2026-03-20 17:40:52.366,1.0624132,3.4983068,7.0540414,0.23136504,-0.06856957,-0.19486587,-19.462502,-45.787502,-34.59375,0.16576074,0.18476984,0.71110487,1001.1462, , , , 
2026-03-20 17:40:52.386,0.64606214,3.6753755,6.2117677,0.37064222,0.15622866,-0.28527385,-19.331251,-45.787502,-34.8375,0.16725259,0.18731548,0.7090585,1001.14, , , , 
2026-03-20 17:40:52.406,-0.2727818,4.106084,6.15434,0.2961167,0.1782198,-0.27183482,-19.368752,-45.881252,-34.912502,0.16777068,0.19154517,0.70678186,1001.14, , , , 
2026-03-20 17:40:52.426,-0.80877405,4.5894337,6.771688,0.12996148,-0.12110394,-0.13500112,-19.29375,-45.9,-34.987503,0.16830471,0.19409823,0.7049509,1001.14, , , , 
2026-03-20 17:40:52.446,-0.19142582,4.6612186,6.910472,0.13729186,-0.27992877,-0.018936807,-19.087502,-45.9375,-34.85625,0.17031452,0.19388025,0.7037652,1001.14, , , , 
2026-03-20 17:40:52.466,0.19621146,4.508078,6.695118,0.25579962,-0.084452055,0.0042760535,-18.69375,-45.80625,-34.36875,0.17314848,0.1936237,0.7029768,1001.1204, , , , 
2026-03-20 17:40:52.486,-0.09571291,4.4315076,6.853044,0.3999637,0.2771799,0.028710645,-18.337502,-45.80625,-34.03125,0.17491162,0.19620945,0.70252186,1001.1204, , , , 
2026-03-20 17:40:52.506,-0.44985065,4.570291,6.991828,0.3327686,0.30039275,0.082466744,-18.150002,-46.162502,-33.581253,0.17543358,0.20093367,0.7025824,1001.1204, , , , 
2026-03-20 17:40:52.526,0.019142581,4.3262234,7.8484583,0.092087865,-0.07467822,0.09468404,-18.0375,-46.59375,-33.225002,0.17600596,0.20348257,0.7030827,1001.1204, , , , 
2026-03-20 17:40:52.546,-0.10049855,4.666004,8.925228,0.06887501,-0.18463388,0.033597562,-18.150002,-46.95,-33.1875,0.17757669,0.20280418,0.7031691,1001.1073, , , , 
2026-03-20 17:40:52.566,-0.22013968,5.3982077,8.551949,0.19471315,-0.12232567,0.033597562,-18.2625,-47.04375,-33.1875,0.17956708,0.2025646,0.7028095,1001.1073, , , , 
2026-03-20 17:40:52.586,-0.11485548,5.962914,7.661818,-0.006872229,-0.07956514,0.102014415,-18.112501,-46.875,-33.225002,0.1813867,0.20291202,0.702702,1001.1073, , , , 
2026-03-20 17:40:52.606,0.13878371,6.3744793,9.092726,-0.2988656,0.14645483,0.18509203,-18.09375,-46.6875,-33.09375,0.18110956,0.20173953,0.7037169,1001.1073, , , , 
2026-03-20 17:40:52.626,0.41635114,5.709275,10.676775,-0.34162614,0.34681848,0.2046397,-18.056252,-46.575,-32.850002,0.17777807,0.20065412,0.7061395,1001.0986, , , , 
2026-03-20 17:40:52.649,-1.0576276,5.211568,12.05504,-0.5065596,0.20631959,0.15332706,-17.962502,-46.74375,-32.625,0.1719567,0.19936429,0.70924246,1001.0986, , , , 
2026-03-20 17:40:52.666,-1.3782659,4.8047876,13.237095,-0.52855074,-0.020922119,0.2083049,-18.13125,-46.85625,-32.662502,0.16873711,0.1970084,0.7110467,1001.0986, , , , 
2026-03-20 17:40:52.686,-0.8805587,4.15394,13.509876,-0.25977024,-0.2603811,0.20952661,-18.337502,-46.893753,-32.98125,0.16674718,0.19252348,0.7131985,1001.0986, , , , 
2026-03-20 17:40:52.706,-0.12921242,3.6179478,11.787045,0.12018765,-0.26648977,0.09346231,-18.50625,-46.912502,-33.506252,0.16809879,0.18936573,0.71413976,1001.09155, , , , 
2026-03-20 17:40:52.726,0.4881358,3.7184465,8.618947,0.3291034,-0.108886644,-0.08002329,-18.712502,-46.875,-33.84375,0.17103189,0.18949236,0.71355623,1001.09155, , , , 
2026-03-20 17:40:52.746,0.11006984,4.0295134,5.9581285,0.039553493,-0.028252495,-0.21441354,-18.618752,-46.55625,-33.9,0.17289643,0.19105206,0.71204394,1001.09155, , , , 
2026-03-20 17:40:52.766,-0.7609176,4.1443686,5.5944195,-0.32330018,0.09269873,-0.19730933,-18.618752,-46.40625,-33.768753,0.17190823,0.19083937,0.7107928,1001.09155, , , , 
2026-03-20 17:40:52.786,-1.6175481,4.0390844,6.71426,-0.54809844,0.36514443,-0.07880156,-18.806252,-46.29375,-33.581253,0.16743703,0.18943872,0.7108519,1001.09155, , , , 
2026-03-20 17:40:52.806,-1.6654046,3.8237305,8.413164,-0.4894554,0.53496486,0.11178826,-19.0125,-46.125,-33.65625,0.1604649,0.18864785,0.7125677,1001.09155, , , , 
2026-03-20 17:40:52.826,-0.94755775,3.751946,8.269595,-0.3318523,0.37614,0.1631009,-19.3125,-45.956253,-34.10625,0.15427451,0.18858281,0.7150388,1001.09155, , , , 
2026-03-20 17:40:52.846,-0.89491564,4.101298,7.1210403,-0.30619597,0.08414663,0.2131918,-19.5375,-45.768753,-34.725002,0.15078722,0.18784153,0.7171363,1001.09155, , , , 
2026-03-20 17:40:52.866,-0.49292147,4.1491547,6.829116,-0.30497423,-0.07223476,0.2706131,-19.48125,-45.61875,-35.25,0.14912955,0.18535,0.71928203,1001.0939, , , , 
2026-03-20 17:40:52.886,-0.148355,4.0965123,7.1880393,-0.19013166,-0.03924806,0.2669479,-19.3875,-45.487503,-35.568752,0.1483411,0.18261306,0.7214557,1001.0939, , , , 
2026-03-20 17:40:52.906,0.17228323,4.0151563,6.838687,0.009010255,-0.034361143,0.2131918,-19.275002,-45.28125,-35.831253,0.1483249,0.18136775,0.72322774,1001.0939, , , , 
2026-03-20 17:40:52.926,0.07178468,4.345366,6.7381887,0.034666575,-0.10766492,0.16676609,-19.21875,-45.018753,-36.018753,0.14932719,0.18090843,0.72435033,1001.0939, , , , 
2026-03-20 17:40:52.946,-0.5694918,4.8095737,7.2119675,0.055435978,-0.21151192,0.1631009,-19.3875,-44.86875,-36.15,0.15102677,0.1800376,0.72505057,1001.0937, , , , 
2026-03-20 17:40:52.966,-0.37328035,5.087141,7.5661054,0.045662142,-0.32146758,0.20952661,-19.556252,-44.643753,-36.393753,0.15360184,0.17860317,0.7257317,1001.0937, , , , 
2026-03-20 17:40:52.986,0.28235307,5.1828537,8.059027,0.028557928,-0.36300638,0.16798781,-19.85625,-44.568752,-36.525,0.15676956,0.17634659,0.7264361,1001.0937, , , , 
2026-03-20 17:40:53.006,0.40677986,5.5800624,8.839087,0.072540194,-0.23228133,0.08124501,-20.23125,-44.60625,-36.45,0.1597557,0.17436992,0.7267058,1001.0937, , , , 
2026-03-20 17:40:53.026,0.23449662,5.9246287,10.006784,0.19715661,-0.08567379,0.023823727,-20.56875,-44.5125,-36.35625,0.16187775,0.17408077,0.72659665,1001.0913, , , , 
2026-03-20 17:40:53.046,-0.02871387,6.0346985,9.944571,0.34620762,-0.041691523,-0.0042760535,-20.94375,-44.53125,-36.16875,0.164054,0.17562686,0.7260871,1001.0913, , , , 
2026-03-20 17:40:53.066,-0.16271193,5.881558,9.064013,0.2790125,0.008399391,-0.04459313,-21.13125,-44.643753,-35.850002,0.16647081,0.17799255,0.7253103,1001.0913, , , , 
2026-03-20 17:40:53.086,-0.72263247,6.1830535,9.403793,0.060322896,0.059712034,-0.031154104,-21.28125,-44.90625,-35.68125,0.16751565,0.17984508,0.7246639,1001.0913,37.88743263,127.73741651,173.2490234375,1.52
2026-03-20 17:40:53.106,-0.9762716,6.4845495,10.293923,-0.12171481,0.04382955,0.055588696,-21.31875,-45.206253,-35.4375,0.16697668,0.18018863,0.7247419,1001.0939, , , , 
2026-03-20 17:40:53.126,-0.4833502,6.3744793,11.581262,-0.24022257,0.16966769,0.14477496,-21.337502,-45.28125,-35.23125,0.16535403,0.17936233,0.7257891,1001.0939, , , , 
2026-03-20 17:40:53.146,0.22971097,5.871987,12.366107,-0.18524474,0.09025527,0.17898338,-21.487501,-45.206253,-35.325,0.16297168,0.17854287,0.7274889,1001.0939, , , , 
2026-03-20 17:40:53.166,1.1485549,4.871787,11.834901,-0.06185006,-0.16386448,0.08002329,-21.6375,-44.9625,-35.53125,0.16230422,0.17711683,0.72873104,1001.0939, , , , 
2026-03-20 17:40:53.186,1.6414764,4.3932223,9.920643,0.09575305,-0.19807291,-0.037262753,-21.69375,-44.550003,-35.8875,0.1638877,0.17565276,0.7286252,1001.10046, , , , 
2026-03-20 17:40:53.206,2.062613,3.9720855,8.30788,0.09697478,0.03894263,-0.11056653,-21.618752,-44.381252,-36.037502,0.1653312,0.1757063,0.7278635,1001.10046, , , , 
2026-03-20 17:40:53.226,1.7180467,3.8380876,8.020741,-0.05329795,0.2319759,-0.2131918,-21.375,-44.287502,-35.9625,0.16447258,0.17702848,0.7270543,1001.10046, , , , 
2026-03-20 17:40:53.246,0.8039884,3.8907297,8.441878,-0.17180572,0.23441936,-0.24251331,-21.150002,-44.25,-35.8125,0.1618188,0.17801887,0.7261614,1001.10046, , , , 
2026-03-20 17:40:53.266,0.22971097,3.8380876,8.925228,-0.18402301,0.27351472,-0.16432263,-21.018751,-44.49375,-35.60625,0.1584026,0.17858492,0.7255301,1001.11237, , , , 
2026-03-20 17:40:53.286,0.34456646,3.5844483,8.958728,-0.09483676,0.19410229,-0.14110976,-20.98125,-44.643753,-35.60625,0.15529828,0.17921616,0.7252486,1001.11237, , , , 
2026-03-20 17:40:53.306,0.41635114,3.455236,7.867601,0.059101168,0.053603385,-0.171653,-20.90625,-44.8125,-35.90625,0.15381165,0.18000802,0.7245625,1001.11237, , , , 
2026-03-20 17:40:53.326,0.3062813,3.6323047,6.8195443,0.159283,-0.031917684,-0.17776164,-20.643751,-44.8875,-36.225002,0.15400375,0.18113707,0.72326064,1001.11237, , , , 
2026-03-20 17:40:53.346,0.60777694,3.522235,6.6568327,0.19104797,-0.10155627,-0.1838703,-20.23125,-44.737503,-36.487503,0.15533301,0.18217881,0.721713,1001.11707, , , , 
2026-03-20 17:40:53.366,0.55513483,3.3499517,6.498906,0.26190826,-0.07101303,-0.2376264,-19.800001,-44.7,-36.61875,0.15714763,0.18348499,0.7198404,1001.11707, , , , 
2026-03-20 17:40:53.386,-0.009571291,3.5413775,6.8099732,0.24969098,-0.090560704,-0.2254091,-19.612501,-44.86875,-36.412502,0.15890001,0.18520541,0.7177081,1001.11707, , , , 
2026-03-20 17:40:53.406,0.35413775,3.6610186,7.580462,0.32177302,-0.04046979,-0.20097451,-19.59375,-45.206253,-36.037502,0.16080482,0.18685675,0.7157276,1001.11707, , , , 
2026-03-20 17:40:53.426,0.4019942,3.9577286,7.1545396,0.47204575,0.0377209,-0.23273948,-19.612501,-45.600002,-35.71875,0.16301294,0.18994989,0.71359813,1001.11707, , , , 
2026-03-20 17:40:53.446,-0.30149564,4.278367,6.489335,0.4072941,-0.04657844,-0.20219624,-19.63125,-45.862503,-35.381252,0.1655521,0.19371915,0.7112212,1001.11707, , , , 
2026-03-20 17:40:53.466,-0.7609176,4.6325045,6.977471,0.3168861,-0.07101303,-0.060475614,-19.48125,-45.975002,-35.100002,0.16809954,0.19625627,0.70934755,1001.11707, , , , 
2026-03-20 17:40:53.486,-0.28713873,4.699504,7.5613194,0.33154687,-0.033139415,0.08124501,-19.25625,-46.10625,-34.893753,0.17053485,0.19824423,0.7086144,1001.11707, , , , 
2026-03-20 17:40:53.506,0.6891329,4.584648,7.068398,0.29367325,-0.029474225,0.048258316,-19.21875,-46.425003,-34.800003,0.17316285,0.20017008,0.70842355,1001.1105, , , , 
2026-03-20 17:40:53.526,0.08135597,4.900501,8.082955,0.13362667,0.04138609,-0.027488915,-19.125,-46.818752,-34.66875,0.17479898,0.20169045,0.7080017,1001.1105, , , , 
2026-03-20 17:40:53.546,-0.18664017,5.278567,9.2793665,0.043218683,0.057268575,0.03970621,-19.050001,-47.100002,-34.443752,0.17506261,0.20277743,0.70783675,1001.1105, , , , 
2026-03-20 17:40:53.566,0.22492532,5.4412785,9.427721,-0.11194097,-0.03924806,0.06169734,-19.050001,-47.2125,-34.256252,0.17501497,0.2028986,0.70812494,1001.1105, , , , 
2026-03-20 17:40:53.586,-0.23449662,5.8193445,10.782059,-0.27320927,-0.13332124,0.043371398,-18.993752,-47.081253,-33.975002,0.1743535,0.20042498,0.70887434,1001.1079, , , , 
2026-03-20 17:40:53.606,-0.66041905,5.651847,12.059826,-0.08872811,0.056046844,0.08613193,-18.956251,-46.93125,-33.881252,0.1734668,0.1981573,0.7096048,1001.1079, , , , 
2026-03-20 17:40:53.626,-1.0719845,5.426922,11.303694,0.029779658,0.056046844,0.08613193,-19.06875,-47.006252,-34.050003,0.17277531,0.19836655,0.71037173,1001.1079, , , , 
2026-03-20 17:40:53.646,-1.3112668,5.0344987,10.738988,-0.119271345,-0.2102902,0.15332706,-19.29375,-47.081253,-34.18125,0.17300445,0.19776523,0.71103734,1001.1079, , , , 
2026-03-20 17:40:53.666,-0.72741807,4.4315076,10.4566345,-0.17302746,-0.28115052,0.1924224,-19.44375,-47.23125,-34.275,0.17409036,0.19457808,0.712022,1001.1126, , , , 
2026-03-20 17:40:53.686,0.033499517,4.0007997,9.772287,-0.023976443,-0.012370012,0.102014415,-19.518751,-47.34375,-34.3125,0.17479081,0.1921052,0.7130844,1001.1126, , , , 
2026-03-20 17:40:53.706,-0.11485548,4.6085763,8.288737,0.013897174,0.09636392,-0.037262753,-19.5375,-47.11875,-34.03125,0.1745747,0.19224392,0.71348244,1001.1126, , , , 
2026-03-20 17:40:53.726,-0.7178468,5.2163534,6.74776,-0.1754709,0.102472566,-0.04214967,-19.44375,-46.8375,-33.80625,0.17350161,0.19269404,0.7133767,1001.1126, , , , 
2026-03-20 17:40:53.746,-0.8805587,4.981857,6.867401,-0.527329,0.2319759,0.11423171,-19.425001,-46.65,-33.7125,0.17050444,0.19154362,0.71424294,1001.11554, , , , 
2026-03-20 17:40:53.766,-0.40677986,4.2975097,8.796016,-0.61285007,0.3810269,0.216857,-19.575,-46.518753,-33.787502,0.16498944,0.18907204,0.71679354,1001.11554, , , , 
2026-03-20 17:40:53.786,-0.033499517,3.4504502,10.126426,-0.33796093,0.33704466,0.16187917,-19.7625,-46.518753,-34.18125,0.15904091,0.18737544,0.71981186,1001.11554, , , , 
2026-03-20 17:40:53.806,-0.0526421,3.493521,8.719446,0.049327333,0.053603385,0.08857539,-19.81875,-46.425003,-34.725002,0.15632974,0.18729024,0.72138774,1001.11554, , , , 
2026-03-20 17:40:53.826,0.2105684,3.7950168,5.938986,-0.009315688,-0.16386448,0.03970621,-19.893751,-46.275,-35.30625,0.15716644,0.18730894,0.7216616,1001.11707, , , , 
2026-03-20 17:40:53.846,-0.148355,4.019942,5.8863435,-0.19868377,-0.32879797,0.059253883,-20.0625,-46.162502,-35.850002,0.15836047,0.18495515,0.7216987,1001.11707, , , , 
2026-03-20 17:40:53.866,0.18664017,3.804588,6.053841,-0.119271345,-0.23472479,0.12278382,-20.175001,-45.881252,-36.1875,0.15969528,0.18146117,0.7220674,1001.11707, , , , 
2026-03-20 17:40:53.886,0.71306115,3.6179478,6.4175506,0.06887501,0.08659008,0.102014415,-20.38125,-45.73125,-36.300003,0.16051356,0.18017463,0.7227736,1001.11707, , , , 
2026-03-20 17:40:53.906,0.5024927,4.0534415,6.8913293,0.2215912,0.16111559,-0.01527162,-20.493752,-45.65625,-36.16875,0.16047445,0.18213786,0.7231198,1001.1139, , , , 
2026-03-20 17:40:53.926,-0.60777694,5.144569,6.9726853,0.19715661,-0.16630794,-0.023823727,-20.41875,-45.525,-35.943752,0.16158634,0.18411227,0.72250295,1001.1139, , , , 
2026-03-20 17:40:53.946,-0.39720857,5.383851,6.786045,0.1348484,-0.28237224,0.06780599,-20.4375,-45.581253,-35.8125,0.16449343,0.18396248,0.7218467,1001.1139, , , , 
2026-03-20 17:40:53.966,0.23449662,5.6327047,7.7671022,0.12873976,-0.07589995,0.091018856,-20.400002,-45.862503,-35.9625,0.167072,0.18346775,0.72177494,1001.1139, , , , 
2026-03-20 17:40:53.986,0.67477596,5.895915,9.269794,0.2008218,0.04138609,-0.031154104,-20.38125,-45.99375,-35.98125,0.16833387,0.18447518,0.7218305,1001.1075, , , , 
2026-03-20 17:40:54.006,0.014356935,6.245267,10.131211,0.24969098,-0.08933897,-0.18875721,-20.400002,-46.03125,-35.831253,0.16956857,0.18625432,0.7208573,1001.1075, , , , 
2026-03-20 17:40:54.026,-1.1485549,6.541977,9.820144,0.25702137,-0.16630794,-0.19486587,-20.5125,-46.275,-35.737503,0.17183328,0.18767112,0.71880114,1001.1075, , , , 
2026-03-20 17:40:54.046,-1.5218352,6.503692,9.729217,0.18493931,-0.05146536,-0.07880156,-20.625,-46.350002,-35.475002,0.17387648,0.18900344,0.71714264,1001.1075, , , , 
2026-03-20 17:40:54.066,-0.8853444,6.8339014,9.489935,-0.107054055,-0.2603811,0.01282816,-20.681252,-46.59375,-35.23125,0.175031,0.18932939,0.71652085,1001.10706, , , , 
2026-03-20 17:40:54.091,0.47856453,6.829116,10.829915,-0.35139996,-0.2603811,-0.0067195124,-20.550001,-46.800003,-35.100002,0.17622253,0.18462469,0.7163464,1001.10706,37.88742214,127.73742779,173.3310546875,1.54
2026-03-20 17:40:54.106,0.7178468,6.5659056,11.586047,-0.25243986,-0.044134982,-0.018936807,-20.38125,-46.74375,-34.93125,0.17576736,0.1818608,0.71647125,1001.10706, , , , 
2026-03-20 17:40:54.126,0.8566305,5.6183476,12.112468,-0.0056504994,0.19288056,-0.028710645,-20.4375,-46.800003,-34.6875,0.17418739,0.1811906,0.7167693,1001.10706, , , , 
2026-03-20 17:40:54.146,0.93320084,4.8861437,10.60499,0.10308343,0.101250835,-0.082466744,-20.493752,-46.725002,-34.65,0.17323671,0.18276136,0.71666217,1001.11066, , , , 
2026-03-20 17:40:54.166,0.91405827,4.3788652,10.006784,-0.008093959,0.00962112,-0.082466744,-20.587502,-46.59375,-34.818752,0.17302318,0.1836828,0.71613693,1001.11066, , , , 
2026-03-20 17:40:54.186,1.0815558,4.0438704,9.820144,-0.006872229,0.012064579,-0.08491021,-20.456251,-46.575,-34.987503,0.17274049,0.18359995,0.7156727,1001.11066, , , , 
2026-03-20 17:40:54.206,1.3830515,3.694518,8.915657,-0.00320704,0.12202024,-0.12767074,-20.15625,-46.350002,-35.15625,0.17215708,0.18400632,0.71520454,1001.11066, , , , 
2026-03-20 17:40:54.226,0.8470592,3.6849468,8.130812,-0.09728022,0.14767656,-0.23151775,-20.1375,-46.2,-35.325,0.17060032,0.18486935,0.7144506,1001.1179, , , , 
2026-03-20 17:40:54.246,0.2105684,3.7758741,8.178668,-0.21578798,0.032833982,-0.26450446,-20.212502,-46.3125,-35.362503,0.16835238,0.18493478,0.7133428,1001.1179, , , , 
2026-03-20 17:40:54.266,-0.023928227,3.9960139,8.16431,-0.1424842,-0.14920372,-0.2791652,-20.19375,-46.443752,-35.381252,0.1667717,0.18356821,0.71188223,1001.1179, , , , 
2026-03-20 17:40:54.286,-0.15314065,4.3740797,6.920043,0.07131846,-0.064904384,-0.2498437,-20.25,-46.725002,-35.362503,0.1669076,0.18270507,0.70995617,1001.1179, , , , 
2026-03-20 17:40:54.306,-0.526421,4.56072,6.1399827,0.14950916,0.108581215,-0.10445788,-20.1375,-47.081253,-35.4,0.16723566,0.18412572,0.70841515,1001.12787, , , , 
2026-03-20 17:40:54.326,-0.038285162,4.1108694,6.5659056,0.12507457,0.069485866,-6.108648E-4,-19.85625,-47.0625,-35.550003,0.16736686,0.18596457,0.70790315,1001.12787, , , , 
2026-03-20 17:40:54.346,0.5024927,3.5413775,7.0061846,0.20693044,0.004734202,-0.025045456,-19.63125,-46.987503,-35.550003,0.16806337,0.18727547,0.70769167,1001.12787, , , , 
2026-03-20 17:40:54.366,0.05742774,3.6849468,7.0492554,0.41828966,0.008399391,-0.09957096,-19.35,-47.04375,-35.53125,0.16982847,0.18934791,0.70677406,1001.12787, , , , 
2026-03-20 17:40:54.386,-0.11485548,4.072584,5.5944195,0.6101012,0.115911596,-0.04703659,-18.9375,-47.0625,-35.4375,0.17275918,0.19338086,0.7052852,1001.12616, , , , 
2026-03-20 17:40:54.406,0.07178468,4.2448673,4.575077,0.4977021,0.23808455,0.049480047,-18.768751,-47.30625,-35.1375,0.17555195,0.19875477,0.7042851,1001.12616, , , , 
2026-03-20 17:40:54.426,0.11006984,3.818945,6.0921264,0.11041381,0.06093376,0.11056653,-18.806252,-47.625,-34.85625,0.17667256,0.20248033,0.704458,1001.12616, , , , 
2026-03-20 17:40:54.446,0.45942193,3.6897326,8.154739,-0.023976443,-0.3263545,0.055588696,-18.7875,-47.643753,-34.65,0.17781986,0.20168687,0.70485145,1001.12616, , , , 
2026-03-20 17:40:54.466,0.7848458,3.7758741,9.403793,0.35353798,-0.19929464,-0.07880156,-18.91875,-47.8875,-34.3125,0.18071206,0.19988373,0.70419216,1001.1151, , , , 
2026-03-20 17:40:54.486,0.72741807,4.4602213,7.905886,0.6675225,0.15622866,-0.1875355,-18.91875,-48.037502,-33.9375,0.1840743,0.20315434,0.7023524,1001.1151, , , , 
2026-03-20 17:40:54.506,0.22492532,5.2977095,5.986842,0.2509127,0.089033544,-0.18631376,-18.712502,-48.075,-33.675003,0.1863399,0.20851053,0.7001978,1001.1151, , , , 
2026-03-20 17:40:54.526,-0.28235307,6.053841,8.255239,-0.45402524,-0.084452055,-0.06902772,-18.581251,-48.187504,-33.24375,0.18571344,0.2083877,0.6993226,1001.1151, , , , 
2026-03-20 17:40:54.546,0.19621146,5.800202,11.796616,-0.5395463,0.03161225,0.033597562,-18.393751,-48.206253,-32.98125,0.18238989,0.20430514,0.70029604,1001.1102, , , , 
2026-03-20 17:40:54.566,-0.2105684,5.3742795,12.57189,-0.37216938,0.16111559,-0.0030543238,-18.28125,-48.35625,-32.98125,0.17858452,0.20135376,0.701601,1001.1102, , , , 
2026-03-20 17:40:54.586,-0.9092726,5.2259245,12.8686,-0.22556181,0.15256348,-6.108648E-4,-18.4125,-48.600002,-33.037502,0.17517407,0.20010208,0.70249724,1001.1102, , , , 
2026-03-20 17:40:54.606,-0.8135597,4.900501,12.509677,-0.074067354,0.052381653,0.017715078,-18.6,-48.862503,-33.35625,0.173076,0.19964087,0.703147,1001.1102, , , , 
2026-03-20 17:40:54.626,-0.94755775,4.910072,11.423335,0.035888307,-0.10399973,0.010384701,-18.712502,-48.862503,-33.65625,0.17293729,0.19925775,0.70322955,1001.11066, , , , 
2026-03-20 17:40:54.646,-0.7178468,4.6085763,9.949356,0.049327333,-0.11377356,0.023823727,-18.84375,-48.675003,-33.675003,0.17412916,0.1985723,0.7030349,1001.11066, , , , 
2026-03-20 17:40:54.666,-0.85184485,4.4602213,9.107083,0.011453714,0.108581215,0.0030543238,-18.768751,-48.562504,-33.581253,0.17451426,0.19863191,0.7030015,1001.11066, , , , 
2026-03-20 17:40:54.686,-1.3926228,4.3740797,8.532805,-0.12171481,0.13912445,0.076358095,-18.69375,-48.45,-33.600002,0.17320487,0.19925828,0.703492,1001.11066, , , , 
2026-03-20 17:40:54.706,-0.8997013,4.0438704,7.322037,-0.34284785,-0.01847866,0.19486587,-18.7875,-48.393753,-33.5625,0.17150252,0.19813125,0.7048531,1001.1188, , , , 
2026-03-20 17:40:54.726,-0.11006984,3.5509489,7.1545396,-0.54687667,-0.055130545,0.18142684,-18.84375,-48.468754,-33.61875,0.16868709,0.1934675,0.7075047,1001.1188, , , , 
2026-03-20 17:40:54.746,-0.32063824,3.5174494,8.130812,-0.6165153,-0.06734784,0.077579826,-18.806252,-48.412502,-33.73125,0.1662345,0.18982345,0.7089529,1001.1188, , , , 
2026-03-20 17:40:54.766,-0.9762716,4.0869412,8.9826565,-0.35017824,-0.11133011,0.077579826,-18.75,-48.2625,-33.7125,0.16338086,0.18534328,0.7102226,1001.1188, , , , 
2026-03-20 17:40:54.786,-0.37328035,4.115655,7.3363943,0.009010255,-0.17119485,0.15332706,-18.712502,-48.05625,-33.825,0.16326493,0.18308087,0.71110886,1001.1198, , , , 
2026-03-20 17:40:54.806,0.25842485,4.125226,5.1349974,0.07131846,-0.28603745,0.091018856,-18.825,-47.831253,-34.0875,0.16562921,0.18178385,0.7114842,1001.1198, , , , 
2026-03-20 17:40:54.826,-0.2009971,4.2975097,4.699504,0.055435978,-0.07467822,0.054366965,-19.1625,-47.60625,-34.443752,0.16798894,0.18064088,0.7113844,1001.1198, , , , 
2026-03-20 17:40:54.846,-0.41635114,4.316652,5.9820566,0.12507457,0.18799363,0.12034036,-19.44375,-47.5125,-34.66875,0.1684511,0.18133377,0.7117602,1001.1198, , , , 
2026-03-20 17:40:54.866,0.18664017,3.9577286,6.3457656,0.20570871,0.29794928,0.11300998,-19.48125,-47.550003,-34.706253,0.1680519,0.18405198,0.7127042,1001.1045, , , , 
2026-03-20 17:40:54.886,0.2536392,3.9290147,6.704689,0.08353576,0.13179408,0.03848448,-19.48125,-47.49375,-34.66875,0.16754852,0.18670173,0.71336234,1001.1045, , , , 
2026-03-20 17:40:54.906,-0.35413775,4.6325045,8.202596,-0.022754714,-0.18463388,-0.04703659,-19.575,-47.456253,-34.55625,0.16785052,0.18655185,0.713217,1001.1045, , , , 
2026-03-20 17:40:54.926,-1.052842,5.4029937,8.958728,0.14950916,-0.22495095,-0.023823727,-19.59375,-47.49375,-34.443752,0.16953124,0.1855335,0.7124714,1001.1045, , , , 
2026-03-20 17:40:54.946,-0.89013004,6.0921264,8.566305,0.34376416,-0.16386448,0.064140804,-19.706251,-47.4375,-34.40625,0.1725576,0.18604414,0.7117346,1001.09283, , , , 
2026-03-20 17:40:54.966,-0.086141616,6.5946193,7.877172,0.33887723,-0.10155627,0.11423171,-19.987501,-47.4375,-34.36875,0.17606728,0.1876924,0.711362,1001.09283, , , , 
2026-03-20 17:40:54.986,0.3684947,6.9344,7.9346,0.09575305,-0.1357647,0.06658426,-20.04375,-47.456253,-34.03125,0.17878349,0.1888007,0.71130323,1001.09283, , , , 
2026-03-20 17:40:55.006,-0.076570325,6.8721867,9.073584,-0.13881902,-0.3019199,0.027488915,-20.1375,-47.34375,-33.61875,0.1804229,0.1873257,0.71121335,1001.09283, , , , 
2026-03-20 17:40:55.026,-0.6843473,7.092326,10.853844,-0.11194097,-0.23472479,0.13377939,-20.2875,-47.325,-33.300003,0.18158734,0.18436202,0.7113664,1001.0824, , , , 
2026-03-20 17:40:55.046,0.6125626,6.8051877,9.997213,-0.017867794,-0.0013744457,0.18875721,-20.19375,-47.34375,-33.09375,0.18272024,0.18284331,0.7123213,1001.0824, , , , 
2026-03-20 17:40:55.066,1.0001999,6.398408,10.040284,-0.17669263,0.19776747,0.10567961,-20.306252,-47.325,-33.112503,0.18199608,0.18280078,0.7136336,1001.0824, , , , 
2026-03-20 17:40:55.086,1.2059826,5.7954164,11.767901,-0.468686,-0.10522146,-0.0030543238,-20.53125,-47.362503,-33.318752,0.17941515,0.1811633,0.71483564,1001.0824,37.8874116,127.73743865,173.505615234375,1.55
2026-03-20 17:40:55.106,1.1533405,4.8861437,13.055241,-0.35995206,-0.2762636,-0.2046397,-20.75625,-47.362503,-33.45,0.17761414,0.17657448,0.7149298,1001.07495, , , , 
2026-03-20 17:40:55.126,0.45942193,4.9531426,12.021541,0.12140937,-0.06734784,-0.34391686,-21.0,-47.287502,-33.412502,0.17744093,0.17404504,0.71314025,1001.07495, , , , 
2026-03-20 17:40:55.146,0.08135597,4.9770713,9.164511,0.3901899,0.20265439,-0.3121519,-21.018751,-47.325,-33.5625,0.17806545,0.17692858,0.7105695,1001.07495, , , , 
2026-03-20 17:40:55.166,-0.32542387,5.0249276,7.2119675,0.22036947,0.16722423,-0.16798781,-20.71875,-47.4375,-33.768753,0.17837328,0.18121794,0.7086084,1001.07495, , , , 
2026-03-20 17:40:55.186,0.16271193,4.6755753,6.910472,-0.14492767,0.069485866,0.010384701,-20.400002,-47.5125,-33.825,0.17785016,0.18267176,0.7081285,1001.07983, , , , 
2026-03-20 17:40:55.206,0.7369894,3.9720855,7.9154572,-0.26832235,0.14034618,0.06291907,-20.1,-47.49375,-33.787502,0.17595552,0.1816493,0.7089312,1001.07983, , , , 
2026-03-20 17:40:55.226,0.971486,3.359523,8.3174515,-0.16569707,0.1867719,-0.031154104,-19.893751,-47.268753,-33.54375,0.173275,0.18092068,0.70990664,1001.07983, , , , 
2026-03-20 17:40:55.246,0.2727818,3.493521,7.905886,0.02611447,0.20876303,-0.12767074,-19.931252,-47.006252,-33.225002,0.17109758,0.18156801,0.70991343,1001.07983, , , , 
2026-03-20 17:40:55.266,-0.15314065,3.818945,7.097112,0.17883067,0.21853687,-0.08002329,-19.837502,-46.912502,-33.131252,0.16990605,0.18375425,0.7093551,1001.0839, , , , 
2026-03-20 17:40:55.286,0.11485548,3.7663028,6.2213387,0.16294818,0.17699806,-0.010384701,-19.66875,-46.912502,-33.206253,0.16955787,0.18651758,0.70903456,1001.0839, , , , 
2026-03-20 17:40:55.306,0.38763726,3.6370904,6.2261243,0.043218683,0.048716467,0.016493348,-19.48125,-46.96875,-33.45,0.16946554,0.18824953,0.7090493,1001.0839, , , , 
2026-03-20 17:40:55.326,0.7322037,3.5796626,6.9678993,0.07742711,-0.050243627,-0.021380268,-19.25625,-47.100002,-33.5625,0.16969822,0.18855023,0.70906746,1001.0839, , , , 
2026-03-20 17:40:55.346,0.71306115,3.7423747,6.7764735,0.19226968,-0.052687086,-0.089797124,-19.1625,-47.175003,-33.61875,0.17089461,0.18899046,0.7084328,1001.0828, , , , 
2026-03-20 17:40:55.366,0.49292147,3.9720855,6.853044,0.30955574,0.07925971,-0.10567961,-19.125,-47.268753,-33.5625,0.17231108,0.19078928,0.7073365,1001.0828, , , , 
2026-03-20 17:40:55.386,0.076570325,4.369294,6.431907,0.29000807,0.063377224,-0.026267186,-19.087502,-47.5875,-33.487503,0.17369878,0.19373156,0.7063268,1001.0828, , , , 
2026-03-20 17:40:55.406,0.30149564,4.4745784,7.1210403,0.12996148,0.0707076,0.083688475,-19.125,-47.850002,-33.46875,0.17494881,0.19561064,0.70612806,1001.0828, , , , 
2026-03-20 17:40:55.426,0.91884387,4.287938,8.63809,0.16539164,0.17944153,0.037262753,-19.10625,-47.850002,-33.3375,0.17518355,0.19709195,0.70659876,1001.07794, , , , 
2026-03-20 17:40:55.446,0.047856454,4.517649,8.891729,0.31077746,0.2612974,-0.11423171,-19.03125,-47.737503,-33.24375,0.17509936,0.20023772,0.7062923,1001.07794, , , , 
2026-03-20 17:40:55.466,-1.4739788,5.1924253,9.025727,0.24602579,0.11346813,-0.04459313,-19.03125,-47.381252,-33.206253,0.17517276,0.20400366,0.7053894,1001.07794, , , , 
2026-03-20 17:40:55.486,-0.8997013,5.4221363,9.073584,0.08720095,-0.25793764,0.20219624,-18.806252,-47.23125,-33.037502,0.17673925,0.20492238,0.70530105,1001.07794, , , , 
2026-03-20 17:40:55.506,0.76570326,5.383851,9.001799,4.581486E-4,-0.30436337,0.23029602,-18.6375,-47.23125,-32.831253,0.1796295,0.20294566,0.7061924,1001.06836, , , , 
2026-03-20 17:40:55.526,0.91884387,5.7954164,9.437292,-0.039858926,-0.19196425,0.102014415,-18.5625,-47.30625,-32.5125,0.18173887,0.20073862,0.70695126,1001.06836, , , , 
2026-03-20 17:40:55.546,-0.11964113,5.5896335,9.150154,-0.24755295,-0.09422589,0.010384701,-18.5625,-47.475002,-31.987501,0.18236732,0.19881234,0.7072839,1001.06836, , , , 
2026-03-20 17:40:55.566,-1.2394822,5.532206,10.820344,-0.3904953,0.1904371,0.054366965,-18.7875,-47.41875,-31.650002,0.18027343,0.19663143,0.7080058,1001.06836, , , , 
2026-03-20 17:40:55.586,-1.1772687,5.087141,12.016755,-0.2866483,0.13423753,0.1386663,-18.9375,-47.381252,-31.593752,0.17651138,0.19518201,0.70965594,1001.06775, , , , 
2026-03-20 17:40:55.606,-0.09092726,4.6564326,11.538191,-0.13515383,-0.060017463,0.076358095,-19.087502,-47.34375,-31.612501,0.17471737,0.19360621,0.71105766,1001.06775, , , , 
2026-03-20 17:40:55.626,0.33020952,4.5942197,9.8727865,0.06887501,-0.011148282,-0.12889247,-19.2,-47.268753,-31.81875,0.17481689,0.19266087,0.7110642,1001.06775, , , , 
2026-03-20 17:40:55.646,-0.2727818,4.7138605,8.331808,0.07864884,0.10002911,-0.24373505,-19.29375,-47.100002,-32.193752,0.17476039,0.19373919,0.7098295,1001.06775, , , , 
2026-03-20 17:40:55.666,-0.9762716,4.800002,7.025327,-0.11071924,0.20631959,-0.22052218,-19.40625,-46.912502,-32.625,0.17345877,0.19521414,0.70838386,1001.0754, , , , 
2026-03-20 17:40:55.686,-1.1485549,4.3932223,7.4273214,-0.37094763,0.3480402,-0.116675176,-19.44375,-46.800003,-33.05625,0.16974482,0.19584583,0.70806867,1001.0754, , , , 
2026-03-20 17:40:55.706,-1.0049855,3.9673,8.437093,-0.4564687,0.32360563,-0.06536253,-19.40625,-46.6875,-33.28125,0.16421513,0.1953293,0.7088839,1001.0754, , , , 
2026-03-20 17:40:55.726,-0.8853444,3.694518,9.078369,-0.25977024,0.17699806,-0.055588696,-19.331251,-46.706253,-33.300003,0.15938693,0.19433725,0.70971656,1001.0754, , , , 
2026-03-20 17:40:55.746,-0.55034924,3.751946,7.2933235,0.032223117,0.14034618,-0.033597562,-19.237501,-46.725002,-33.28125,0.15722434,0.19433418,0.70991606,1001.07776, , , , 
2026-03-20 17:40:55.766,-0.5312066,3.8237305,5.508278,0.012675445,0.15500695,-0.0042760535,-19.143751,-46.55625,-33.412502,0.1563443,0.1958522,0.7099338,1001.07776, , , , 
2026-03-20 17:40:55.786,-0.8422736,4.1491547,5.905486,-0.17669263,0.06704241,0.06780599,-18.975,-46.3875,-33.7125,0.15515512,0.19613811,0.7103169,1001.07776, , , , 
2026-03-20 17:40:55.806,-0.19142582,4.0677986,6.838687,-0.107054055,0.15378521,0.1423315,-18.7875,-46.443752,-33.99375,0.15362078,0.19550197,0.7114336,1001.07776, , , , 
2026-03-20 17:40:55.826,0.38285163,3.8380876,7.479964,0.028557928,0.12935062,0.053145237,-18.65625,-46.4625,-34.275,0.15236807,0.19591604,0.7125953,1001.0756, , , , 
2026-03-20 17:40:55.846,0.11006984,4.2975097,8.216953,0.21670428,-0.04780017,-0.13500112,-18.5625,-46.537502,-34.48125,0.15255964,0.1969914,0.7123583,1001.0756, , , , 
2026-03-20 17:40:55.866,-0.45942193,5.1828537,7.432107,0.43783733,-0.2921461,-0.26939136,-18.6,-46.74375,-34.55625,0.15530024,0.19865379,0.7101924,1001.0756, , , , 
2026-03-20 17:40:55.886,-1.3160524,6.1064835,5.895915,0.35353798,-0.37888888,-0.21074834,-18.768751,-46.66875,-34.631252,0.16009948,0.20000736,0.7070111,1001.0756, , , , 
2026-03-20 17:40:55.906,-1.579263,6.5850477,6.666404,0.084757484,-0.13820815,0.03848448,-18.862501,-46.612503,-34.4625,0.16378029,0.20017177,0.70512587,1001.0654, , , , 
2026-03-20 17:40:55.926,-0.5312066,5.9676995,8.848659,0.092087865,0.0377209,0.2290743,-18.825,-46.818752,-34.125,0.16481143,0.20033938,0.70574224,1001.0654, , , , 
2026-03-20 17:40:55.946,0.4833502,5.7810597,9.288938,0.10308343,-0.11988221,0.12156209,-18.6,-46.78125,-33.862503,0.16598745,0.200715,0.70688516,1001.0654, , , , 
2026-03-20 17:40:55.966,0.25842485,5.7810597,9.767502,0.1763872,-0.14798199,-0.082466744,-18.1875,-46.7625,-33.61875,0.16805486,0.2004421,0.7067056,1001.0654, , , , 
2026-03-20 17:40:55.986,-1.0193424,6.384051,9.810573,0.22647811,0.03405571,-0.12400555,-18.09375,-46.893753,-33.43125,0.16966291,0.20163107,0.7053993,1001.0607, , , , 
2026-03-20 17:40:56.007,-1.2394822,7.001399,9.437292,-0.08261946,-0.04046979,0.08002329,-18.28125,-46.987503,-33.2625,0.17027469,0.20315862,0.7047378,1001.0607, , , , 
2026-03-20 17:40:56.026,-0.20578274,6.6424756,11.045269,-0.33063057,-0.22250749,0.16798781,-18.5625,-47.2125,-32.9625,0.17002536,0.20096873,0.70572793,1001.0607, , , , 
2026-03-20 17:40:56.046,1.0863415,5.852844,12.504891,-0.1754709,0.013286309,0.07269291,-18.862501,-47.30625,-32.756252,0.16964163,0.19728503,0.706991,1001.0607, , , , 
2026-03-20 17:40:56.066,0.7465607,5.029713,12.361321,0.11285727,0.23075417,-0.11423171,-18.91875,-47.175003,-32.850002,0.16833524,0.19763784,0.7073663,1001.06647, , , , 
2026-03-20 17:40:56.086,0.13399807,4.7377887,10.624132,0.10430516,-0.102778,-0.1301142,-18.84375,-46.912502,-33.112503,0.16807964,0.19939753,0.70644975,1001.06647,37.88740099,127.73745006,173.71978759765625,1.56
2026-03-20 17:40:56.106,0.7848458,4.3740797,9.269794,-0.080176,-0.27137667,-0.126449,-18.75,-46.85625,-33.45,0.16949601,0.19818662,0.7053097,1001.06647, , , , 
2026-03-20 17:40:56.126,0.49292147,4.6085763,8.642876,-0.06429352,0.06704241,-0.17409647,-18.806252,-47.025,-33.693752,0.16992077,0.19659112,0.7042347,1001.06647, , , , 
2026-03-20 17:40:56.146,-0.31585258,4.5415773,8.427522,-0.05574141,0.39568767,-0.1545488,-18.975,-47.25,-33.693752,0.16769587,0.19785967,0.70358807,1001.07434, , , , 
2026-03-20 17:40:56.166,-0.7082755,4.2975097,8.236095,-0.080176,0.4470003,-0.083688475,-19.050001,-47.475002,-33.600002,0.16392118,0.20052122,0.7036005,1001.07434, , , , 
2026-03-20 17:40:56.186,-0.8709874,4.0151563,8.350951,-0.1583667,0.19165882,0.0018325944,-19.050001,-47.49375,-33.581253,0.16041958,0.20220183,0.7040798,1001.07434, , , , 
2026-03-20 17:40:56.206,-0.30149564,3.4504502,8.16431,-0.0594066,-0.1357647,0.023823727,-18.768751,-47.4,-33.73125,0.15898278,0.20165372,0.704614,1001.07434, , , , 
2026-03-20 17:40:56.226,0.5599205,3.6658044,6.74776,0.06276636,-0.21517712,-0.034819294,-18.4125,-47.381252,-33.862503,0.16031507,0.20017937,0.7043571,1001.08136, , , , 
2026-03-20 17:40:56.246,0.4354937,4.1443686,6.2117677,0.15683953,0.047494736,-0.08857539,-18.1875,-47.4,-33.99375,0.16174628,0.20017141,0.70357704,1001.08136, , , , 
2026-03-20 17:40:56.266,-0.5982057,4.3932223,6.3601227,0.17150028,0.29184064,-0.010384701,-18.018751,-47.362503,-34.237503,0.16166458,0.2027009,0.7030185,1001.08136, , , , 
2026-03-20 17:40:56.286,-0.8039884,4.345366,7.216753,0.1348484,0.23686282,0.13500112,-18.0375,-47.25,-34.275,0.1607985,0.20561096,0.70342445,1001.08136, , , , 
2026-03-20 17:40:56.306,-0.09092726,4.082155,7.8053875,0.22892158,0.108581215,0.21807873,-17.925001,-47.1375,-34.18125,0.16084248,0.20776223,0.7045807,1001.0864, , , , 
2026-03-20 17:40:56.326,0.5838487,4.063013,6.948757,0.30711228,-0.07589995,0.1545488,-17.71875,-46.987503,-34.2,0.1628464,0.20945008,0.70544475,1001.0864, , , , 
2026-03-20 17:40:56.346,0.25842485,4.402794,6.393622,0.23747368,-0.09789108,0.076358095,-17.643751,-47.025,-33.956253,0.16572168,0.21061656,0.705509,1001.0864, , , , 
2026-03-20 17:40:56.366,-0.5312066,4.517649,7.04447,0.2423606,0.09880738,0.10445788,-17.5125,-47.11875,-33.6375,0.16771576,0.21181323,0.70546085,1001.0864, , , , 
2026-03-20 17:40:56.386,-0.7369894,4.6085763,7.618747,0.3498728,0.34681848,0.21563527,-17.5125,-47.23125,-33.318752,0.1683854,0.215025,0.7061435,1001.0822, , , , 
2026-03-20 17:40:56.406,0.05742774,4.091727,7.838887,0.40240717,0.21609342,0.2547306,-17.71875,-47.456253,-33.0,0.16905521,0.21939677,0.707496,1001.0822, , , , 
2026-03-20 17:40:56.426,0.4881358,4.130012,7.159325,0.26190826,-0.102778,0.12522727,-17.8125,-47.60625,-32.737503,0.17140512,0.22182168,0.7081664,1001.0822, , , , 
2026-03-20 17:40:56.446,0.043070808,4.800002,7.3363943,0.07498365,-0.11866048,0.11178826,-17.8875,-47.737503,-32.60625,0.17374569,0.22199777,0.7082229,1001.0822, , , , 
2026-03-20 17:40:56.466,0.038285162,5.020142,8.020741,-0.06429352,0.0010690134,0.13744457,-18.075,-47.925003,-32.60625,0.17472084,0.22133863,0.7088556,1001.07007, , , , 
2026-03-20 17:40:56.486,-0.4019942,5.508278,9.767502,-0.0716239,0.16233732,0.19486587,-18.206251,-48.075,-32.4375,0.17396498,0.220927,0.7102162,1001.07007, , , , 
2026-03-20 17:40:56.506,0.0526421,5.245067,9.241081,-0.081397735,0.1574504,0.19364414,-18.5625,-48.187504,-32.2125,0.17283309,0.22132756,0.7120147,1001.07007, , , , 
2026-03-20 17:40:56.526,-0.22971097,5.111069,9.23151,-0.40882125,-0.013591741,0.06291907,-18.806252,-48.318752,-32.193752,0.17116392,0.22031859,0.7135731,1001.07007, , , , 
2026-03-20 17:40:56.546,-1.0624132,5.015356,10.887343,-0.6226239,-0.23961172,0.034819294,-18.73125,-48.24375,-32.1375,0.16860223,0.21575014,0.71478945,1001.06586, , , , 
2026-03-20 17:40:56.566,-0.971486,4.9052863,11.710474,-0.43814278,-0.18585561,0.04703659,-18.69375,-48.05625,-32.25,0.16656539,0.21000361,0.7159038,1001.06586, , , , 
2026-03-20 17:40:56.586,-1.282553,4.9196434,11.069198,-0.06918044,0.23075417,0.07391464,-18.6,-47.831253,-32.53125,0.16492556,0.20766318,0.71677136,1001.06586, , , , 
2026-03-20 17:40:56.606,-0.98584294,4.6037908,10.360922,0.02367101,0.40668324,0.09346231,-18.6375,-47.456253,-32.775,0.16247419,0.20953648,0.7179341,1001.06586, , , , 
2026-03-20 17:40:56.626,-0.79441714,4.4171505,9.322437,-0.23900084,0.021838415,0.05070178,-18.862501,-47.23125,-33.037502,0.15962283,0.21061257,0.71926594,1001.06757, , , , 
2026-03-20 17:40:56.647,-0.42592242,4.211368,9.025727,-0.49922925,-0.25671592,0.0140498895,-18.975,-47.025,-33.375,0.15854573,0.20782928,0.71987784,1001.06757, , , , 
2026-03-20 17:40:56.666,-0.29671,4.048656,8.896515,-0.5065596,-0.21639885,-0.05070178,-18.956251,-46.78125,-33.675003,0.1569875,0.2023699,0.720499,1001.06757, , , , 
2026-03-20 17:40:56.686,-0.44027936,3.9768713,8.092526,-0.34162614,-0.033139415,-0.076358095,-18.91875,-46.55625,-33.975002,0.15503067,0.19821765,0.7207581,1001.06757, , , , 
2026-03-20 17:40:56.706,-0.8853444,4.254439,7.609176,-0.2035707,0.03527744,-0.017715078,-18.900002,-46.40625,-34.21875,0.15286839,0.1964199,0.72095,1001.07263, , , , 
2026-03-20 17:40:56.726,-0.8279166,4.2257247,5.9676995,-0.1754709,-0.1443168,0.09834923,-18.993752,-46.425003,-34.443752,0.15206741,0.19492039,0.7213847,1001.07263, , , , 
2026-03-20 17:40:56.746,-0.7178468,4.182654,5.465207,-0.2707658,-0.16875139,0.18142684,-19.21875,-46.55625,-34.48125,0.152109,0.19233559,0.72234696,1001.07263, , , , 
2026-03-20 17:40:56.766,0.13878371,4.15394,6.216553,-0.23533566,-0.10399973,0.22052218,-19.425001,-46.59375,-34.4625,0.15189314,0.18908475,0.7239384,1001.07263, , , , 
2026-03-20 17:40:56.786,0.47377887,3.9433718,5.962914,-0.18402301,-0.15531237,0.077579826,-19.5375,-46.48125,-34.59375,0.15204217,0.18647344,0.7251164,1001.0722, , , , 
2026-03-20 17:40:56.806,-0.2536392,4.3118663,6.7908306,-0.10216714,-0.12965605,-0.033597562,-19.650002,-46.03125,-34.78125,0.15228477,0.18436834,0.72528553,1001.0722, , , , 
2026-03-20 17:40:56.826,-1.0671989,4.8382874,8.020741,0.059101168,-0.08933897,0.08857539,-19.800001,-45.581253,-35.100002,0.15272921,0.183581,0.7251907,1001.0722, , , , 
2026-03-20 17:40:56.846,-0.55513483,5.0392847,8.035098,0.18738277,-0.16508621,0.19120067,-20.025002,-45.3375,-35.362503,0.15457778,0.18349095,0.7256492,1001.0722, , , , 
2026-03-20 17:40:56.866,0.526421,5.259424,8.063812,0.21670428,-0.10399973,0.11300998,-20.362501,-45.225002,-35.381252,0.1574362,0.18377969,0.7261449,1001.06305, , , , 
2026-03-20 17:40:56.886,0.14356937,5.7379885,9.102298,0.29367325,-0.09666935,-0.06536253,-20.681252,-45.3375,-35.25,0.15968522,0.18497941,0.7257904,1001.06305, , , , 
2026-03-20 17:40:56.906,-0.40677986,6.273981,8.82473,0.31444263,-0.123547405,-0.060475614,-20.737501,-45.45,-34.96875,0.16236521,0.18671757,0.7245423,1001.06305, , , , 
2026-03-20 17:40:56.926,-0.31585258,6.5946193,8.595019,0.21426082,-0.012370012,-0.011606431,-20.737501,-45.600002,-34.706253,0.16485281,0.18832071,0.72355074,1001.06305, , , , 
2026-03-20 17:40:56.946,-0.3397808,6.5659056,9.513863,0.11041381,0.19532402,0.032375835,-20.587502,-45.73125,-34.4625,0.16545843,0.19018947,0.723393,1001.05884, , , , 
2026-03-20 17:40:56.966,-0.6125626,6.795616,10.212567,0.027336199,0.08170316,0.06536253,-20.38125,-45.787502,-34.256252,0.16481075,0.19191955,0.7237777,1001.05884, , , , 
2026-03-20 17:40:56.986,-0.23928227,6.7429743,9.657433,-0.16936226,-0.08811724,0.09590577,-20.34375,-45.881252,-34.162502,0.16474861,0.19166353,0.72433275,1001.05884, , , , 
2026-03-20 17:40:57.006,0.27756742,6.3218374,10.542776,-0.32085672,0.042607818,0.102014415,-20.493752,-45.862503,-34.162502,0.16377202,0.18952677,0.72535414,1001.05884, , , , 
2026-03-20 17:40:57.026,0.9619147,5.460421,11.547762,-0.30497423,0.15012002,0.032375835,-20.7,-45.768753,-34.0875,0.16122426,0.18757494,0.7266621,1001.05756, , , , 
2026-03-20 17:40:57.046,0.6987042,4.5655055,12.246467,-0.10461059,0.11713332,-0.109344795,-20.643751,-45.75,-34.21875,0.15848926,0.18670906,0.7272014,1001.05756, , , , 
2026-03-20 17:40:57.066,1.0432707,3.9146578,11.040483,0.12873976,-0.011148282,-0.18509203,-20.643751,-45.7125,-34.443752,0.15758859,0.18707466,0.7265232,1001.05756, , , , 
2026-03-20 17:40:57.086,1.2155539,3.7615173,8.944371,0.14095704,0.03405571,-0.2913825,-20.5125,-45.581253,-34.518753,0.15827301,0.18827268,0.7247879,1001.05756,37.88738971,127.73746157,173.81475830078125,1.51
2026-03-20 17:40:57.106,0.46899325,4.082155,8.944371,0.031001387,0.17333288,-0.36346453,-20.2875,-45.487503,-34.800003,0.15755697,0.18996848,0.7227166,1001.0667, , , , 
2026-03-20 17:40:57.126,-0.47856453,4.3836513,8.676374,-0.021532983,0.19776747,-0.33047783,-20.268751,-45.375,-34.96875,0.15563154,0.19172661,0.7206653,1001.0667, , , , 
2026-03-20 17:40:57.146,-0.7082755,4.402794,8.193025,-0.10338886,0.1989892,-0.24251331,-20.081251,-45.35625,-35.025,0.1532106,0.19318537,0.71913934,1001.0667, , , , 
2026-03-20 17:40:57.166,-0.6891329,4.1347976,8.082955,-0.12660173,0.029168794,-0.13500112,-19.706251,-45.525,-35.0625,0.15092829,0.19360147,0.71830314,1001.0667, , , , 
2026-03-20 17:40:57.186,-0.14356937,3.9050865,7.092326,-0.03497201,-0.12965605,-0.077579826,-19.40625,-45.61875,-34.875,0.15050067,0.19271034,0.71770084,1001.0718, , , , 
2026-03-20 17:40:57.206,0.10049855,3.737589,5.9150577,0.05299252,0.059712034,-0.055588696,-19.125,-45.581253,-34.78125,0.15103352,0.19236222,0.7171312,1001.0718, , , , 
2026-03-20 17:40:57.226,0.07178468,3.8333018,5.575277,-0.025198173,0.17333288,-0.03848448,-18.993752,-45.35625,-34.7625,0.15035461,0.19358405,0.7169038,1001.0718, , , , 
2026-03-20 17:40:57.246,0.13878371,3.8763726,5.8767724,-0.3978257,-0.22372922,-0.025045456,-19.06875,-45.28125,-34.8375,0.14897653,0.19287997,0.7170845,1001.0718, , , , 
2026-03-20 17:40:57.266,0.5599205,3.8141594,8.279166,-0.44180796,-0.4668534,-0.09224058,-19.237501,-45.487503,-35.025,0.14854792,0.18688461,0.71715975,1001.0692, , , , 
2026-03-20 17:40:57.287,-0.18664017,3.9720855,9.322437,0.23869541,0.015729768,-0.11911863,-19.275002,-45.600002,-35.15625,0.14929868,0.18312198,0.71614516,1001.0692, , , , 
2026-03-20 17:40:57.306,-0.8327023,4.115655,7.9011,0.72860897,0.2319759,-0.031154104,-19.181252,-45.693752,-35.23125,0.15074478,0.18653795,0.71519864,1001.0692, , , , 
2026-03-20 17:40:57.326,-0.6364908,4.4458647,5.704489,0.6430879,0.03527744,0.12400555,-19.03125,-45.693752,-35.11875,0.15449518,0.19300042,0.7142286,1001.0692, , , , 
2026-03-20 17:40:57.346,0.21535404,4.1635113,6.0777693,0.28023422,-0.14309508,0.19730933,-18.88125,-45.600002,-35.04375,0.15850902,0.19595653,0.71424645,1001.06586, , , , 
2026-03-20 17:40:57.366,0.6652047,4.0103707,7.7623167,0.073761925,0.007177661,0.10567961,-18.900002,-45.7125,-34.893753,0.16090535,0.19640286,0.7148288,1001.06586, , , , 
2026-03-20 17:40:57.386,0.61734825,3.7471602,9.250652,0.16050471,-0.029474225,-0.023823727,-18.975,-45.91875,-34.631252,0.16151781,0.19696118,0.71508676,1001.06586, , , , 
2026-03-20 17:40:57.406,0.44027936,4.0295134,8.413164,0.24846925,-0.10399973,-0.1472184,-19.0125,-46.03125,-34.425003,0.16323027,0.1979595,0.71407044,1001.06586, , , , 
2026-03-20 17:40:57.426,-0.6364908,5.1924253,8.145168,0.111635536,0.00962112,-0.13500112,-18.993752,-46.0125,-34.143753,0.16470736,0.19923975,0.7125247,1001.0603, , , , 
2026-03-20 17:40:57.446,-0.8135597,5.8241305,9.188439,-0.11438443,0.069485866,0.08124501,-18.91875,-46.068752,-33.862503,0.16428141,0.19986172,0.71225363,1001.0603, , , , 
2026-03-20 17:40:57.466,0.1052842,5.4221363,9.336794,-0.42470375,-0.13698642,0.16920954,-18.73125,-46.143753,-33.675003,0.16309462,0.1981638,0.71353704,1001.0603, , , , 
2026-03-20 17:40:57.486,0.6364908,5.1014977,10.2317095,-0.75945765,-0.46929687,0.043371398,-18.7875,-46.40625,-33.61875,0.16164403,0.19203986,0.71507883,1001.0603, , , , 
2026-03-20 17:40:57.506,-0.41635114,5.130212,12.543177,-0.68981904,-0.46807513,-0.08124501,-19.06875,-46.537502,-33.675003,0.16017886,0.18287198,0.7155661,1001.0567, , , , 
2026-03-20 17:40:57.526,-0.63170516,4.8191447,13.112668,-0.14981459,-0.1443168,-0.08124501,-19.35,-46.3875,-33.862503,0.1590113,0.17694524,0.7154204,1001.0567, , , , 
2026-03-20 17:40:57.546,-0.80877405,4.278367,10.810773,0.2790125,0.002290743,-0.102014415,-19.85625,-46.350002,-34.162502,0.15959866,0.17681019,0.7146324,1001.0567, , , , 
2026-03-20 17:40:57.566,-1.0336994,4.034299,9.327223,0.27412558,0.021838415,-0.077579826,-20.0625,-46.10625,-34.3875,0.16113684,0.17919925,0.71349406,1001.0567, , , , 
2026-03-20 17:40:57.586,-1.402194,4.1443686,9.126225,0.0065667965,-0.031917684,0.022601997,-19.96875,-45.9,-34.59375,0.16194457,0.18065363,0.7129062,1001.0616, , , , 
2026-03-20 17:40:57.606,-1.1437693,3.952943,9.01137,-0.19257513,-0.053908817,0.12400555,-19.931252,-45.862503,-34.66875,0.16181506,0.17975254,0.7133631,1001.0616, , , , 
2026-03-20 17:40:57.626,-0.9762716,3.7471602,8.815159,-0.30008733,0.06826414,0.14599667,-19.725,-45.84375,-34.575,0.16045862,0.17772476,0.71466565,1001.0616, , , , 
2026-03-20 17:40:57.646,-0.95712906,3.6083765,8.7577305,-0.28053966,0.1989892,0.13500112,-19.59375,-45.787502,-34.537502,0.15769675,0.17618884,0.7163353,1001.0616, , , , 
2026-03-20 17:40:57.666,-0.8805587,3.6323047,8.389236,-0.12171481,0.18188499,0.11178826,-19.59375,-45.61875,-34.518753,0.15479818,0.17572421,0.71788824,1001.0699, , , , 
2026-03-20 17:40:57.686,-0.7800602,3.8141594,6.9152575,0.021227552,0.09392046,0.10445788,-19.5375,-45.375,-34.66875,0.15347625,0.17608619,0.71890235,1001.0699, , , , 
2026-03-20 17:40:57.706,-0.7178468,3.9864426,6.206982,0.005345067,0.1452331,0.12278382,-19.63125,-45.09375,-34.987503,0.15310337,0.17682382,0.7197271,1001.0699, , , , 
2026-03-20 17:40:57.726,-0.43070808,3.9242291,7.1162543,0.07987057,0.2075413,0.1386663,-19.66875,-44.98125,-35.2125,0.1522787,0.17791486,0.72079617,1001.0699, , , , 
2026-03-20 17:40:57.746,-0.22971097,3.7615173,6.5228343,0.2790125,0.23686282,0.103236146,-19.743752,-44.943752,-35.34375,0.15197152,0.18050486,0.7216644,1001.0705, , , , 
2026-03-20 17:40:57.766,-0.4881358,4.278367,6.1208405,0.18249585,0.12812889,0.12034036,-19.875,-44.850002,-35.362503,0.15236638,0.18364286,0.72214156,1001.0705, , , , 
2026-03-20 17:40:57.786,-0.3589234,4.493721,7.0492554,0.009010255,-0.12721258,0.18631376,-19.800001,-44.662502,-35.325,0.15314321,0.18450668,0.7229433,1001.0705, , , , 
2026-03-20 17:40:57.806,0.23928227,4.56072,7.9393854,0.033444848,-0.25793764,0.1802051,-19.837502,-44.5875,-35.4375,0.15501173,0.18294056,0.723841,1001.0705, , , , 
2026-03-20 17:40:57.826,0.79441714,4.776074,7.771888,0.23380849,-0.2848157,0.083688475,-19.85625,-44.60625,-35.49375,0.1580724,0.1817957,0.7241241,1001.0667, , , , 
2026-03-20 17:40:57.846,0.7513463,5.4795637,6.728617,0.3376555,-0.22739442,0.0018325944,-19.725,-44.5875,-35.49375,0.16215537,0.18217914,0.72339183,1001.0667, , , , 
2026-03-20 17:40:57.866,0.83748794,5.7427745,6.541977,0.23503022,-0.06856957,-0.011606431,-19.875,-44.86875,-35.23125,0.16562155,0.18334758,0.7224731,1001.0667, , , , 
2026-03-20 17:40:57.886,0.3684947,5.6757755,8.413164,0.22036947,0.052381653,0.005497783,-20.118752,-45.09375,-34.78125,0.16708554,0.18497394,0.72202325,1001.0667, , , , 
2026-03-20 17:40:57.906,0.36370903,5.532206,8.872586,0.19349141,0.013286309,-0.043371398,-20.212502,-45.24375,-34.4625,0.16837339,0.1868657,0.72162676,1001.0516, , , , 
2026-03-20 17:40:57.926,0.38285163,5.312066,9.542577,0.11896592,0.07192933,-0.1594357,-20.400002,-45.54375,-34.2,0.1690903,0.18836592,0.72084826,1001.0516, , , , 
2026-03-20 17:40:57.946,-0.062213387,6.0346985,9.470792,0.012675445,0.0707076,-0.2669479,-20.53125,-45.6375,-33.9375,0.16865277,0.1898879,0.71948284,1001.0516, , , , 
2026-03-20 17:40:57.966,-0.44985065,6.8578296,9.523434,-0.25854853,0.069485866,-0.23029602,-20.60625,-45.46875,-33.75,0.16718271,0.19009267,0.7180325,1001.0516, , , , 
2026-03-20 17:40:57.986,-1.2442678,6.8817577,11.452049,-0.482125,0.058490302,-0.055588696,-20.550001,-45.525,-33.487503,0.16387214,0.18836239,0.7177336,1001.0467, , , , 
2026-03-20 17:40:58.006,-0.2536392,5.905486,13.7730875,-0.35384342,0.20998476,0.103236146,-20.23125,-45.581253,-33.375,0.1600274,0.18569252,0.7188861,1001.0467, , , , 
2026-03-20 17:40:58.026,0.9619147,4.3262234,14.261223,0.10063997,0.17944153,-0.055588696,-19.9125,-45.54375,-33.6375,0.15723072,0.18557474,0.7200478,1001.0467, , , , 
2026-03-20 17:40:58.046,0.89013004,4.0869412,11.112268,0.34865108,-0.07467822,-0.3035998,-19.706251,-45.6375,-34.125,0.15794727,0.18779622,0.7186704,1001.0467, , , , 
2026-03-20 17:40:58.066,0.4354937,4.412365,8.925228,0.16416991,-0.14920372,-0.3817905,-19.6875,-45.61875,-34.66875,0.16008271,0.18939665,0.715666,1001.0533, , , , 
2026-03-20 17:40:58.086,0.16749759,4.584648,8.56152,0.066431545,0.08781181,-0.33047783,-19.7625,-45.54375,-34.987503,0.16072883,0.1903069,0.7129134,1001.0533,37.88737886,127.73747229,173.986572265625,1.5
2026-03-20 17:40:58.106,0.28713873,4.1587257,8.274381,-0.017867794,0.22708899,-0.27672175,-19.59375,-45.61875,-35.0625,0.15922692,0.19220959,0.7111344,1001.0533, , , , 
2026-03-20 17:40:58.126,0.2536392,3.8907297,7.8484583,-0.2536616,0.019394957,-0.2791652,-19.2,-45.693752,-34.912502,0.1569643,0.1930487,0.7097701,1001.0533, , , , 
2026-03-20 17:40:58.146,0.31106696,3.7567315,8.719446,-0.30863944,-0.04780017,-0.28160867,-18.91875,-45.80625,-34.800003,0.15460841,0.1911323,0.70848775,1001.0563, , , , 
2026-03-20 17:40:58.166,0.1052842,3.6753755,8.82473,-0.03375028,0.04138609,-0.31703883,-18.6,-45.9375,-34.65,0.15270904,0.18982245,0.7069702,1001.0563, , , , 
2026-03-20 17:40:58.186,-0.76570326,3.9433718,7.958528,0.22036947,0.00962112,-0.3035998,-18.1875,-45.91875,-34.425003,0.1523112,0.19109872,0.70475566,1001.0563, , , , 
2026-03-20 17:40:58.206,-0.8757731,3.9673,6.867401,0.39507678,-0.13209951,-0.17776164,-17.925001,-45.881252,-34.3125,0.15412422,0.19318862,0.7023945,1001.0563, , , , 
2026-03-20 17:40:58.226,-0.57427746,4.0007997,5.7379885,0.44638944,-0.07589995,-0.0971275,-17.625,-45.84375,-34.21875,0.15744168,0.19572718,0.7004259,1001.0586, , , , 
2026-03-20 17:40:58.246,-0.66041905,4.0295134,5.436493,0.24480405,-0.08078687,-0.011606431,-17.41875,-45.768753,-34.2,0.16029191,0.19814904,0.69914496,1001.0586, , , , 
2026-03-20 17:40:58.266,-0.19621146,3.8141594,7.140183,0.21303909,-0.13332124,0.07147118,-17.362501,-45.84375,-34.29375,0.16248588,0.19881871,0.6987347,1001.0586, , , , 
2026-03-20 17:40:58.286,0.26799613,3.751946,7.585248,0.5367974,-0.0490219,-0.016493348,-17.25,-46.0875,-34.350002,0.16543841,0.20029879,0.6982754,1001.0586, , , , 
2026-03-20 17:40:58.306,-0.53599226,4.4841495,6.005985,0.69440055,-0.008704823,-0.037262753,-17.212502,-46.40625,-34.256252,0.16967778,0.20449302,0.6967442,1001.0544, , , , 
2026-03-20 17:40:58.326,-0.7465607,4.938786,5.063213,0.49159342,-0.08811724,0.07880156,-17.34375,-46.875,-33.91875,0.1742012,0.20880814,0.6953492,1001.0544, , , , 
2026-03-20 17:40:58.346,-0.0526421,4.981857,5.4412785,0.23258677,-0.0697913,0.15821397,-17.493752,-47.25,-33.5625,0.17775588,0.2106319,0.69513965,1001.0544, , , , 
2026-03-20 17:40:58.366,0.0,4.8095737,6.71426,0.159283,0.27351472,0.11300998,-17.34375,-47.456253,-33.131252,0.17904365,0.21208294,0.69580907,1001.0544, , , , 
2026-03-20 17:40:58.386,-1.1964114,5.393422,8.671589,0.1678351,0.49953467,0.14844014,-17.081251,-47.625,-32.737503,0.1777061,0.21554825,0.69687366,1001.0467, , , , 
2026-03-20 17:40:58.406,-0.9762716,5.8097734,9.485149,0.043218683,0.08048143,0.28038692,-16.837502,-47.550003,-32.550003,0.17621714,0.21876028,0.69859457,1001.0467, , , , 
2026-03-20 17:40:58.426,0.41635114,5.852844,9.45165,-0.15714496,-0.48151416,0.27672175,-16.725,-47.475002,-32.325,0.17781134,0.21671447,0.7003105,1001.0467, , , , 
2026-03-20 17:40:58.446,1.2155539,5.838487,9.078369,-0.22678354,-0.34468046,0.11300998,-17.1,-47.625,-32.11875,0.18067212,0.21149403,0.7012493,1001.0467, , , , 
2026-03-20 17:40:58.466,0.19621146,5.532206,10.222138,-0.2866483,0.37003133,-0.04092794,-17.625,-47.79375,-31.931252,0.17984578,0.2089837,0.70198584,1001.0482, , , , 
2026-03-20 17:40:58.486,-1.1772687,5.0009995,11.810972,-0.3159698,0.5923861,-0.0971275,-17.94375,-47.90625,-31.9125,0.17421104,0.21022087,0.7030525,1001.0482, , , , 
2026-03-20 17:40:58.506,-2.0291135,4.651647,13.217953,-0.23655738,0.31627524,-0.0030543238,-18.13125,-47.90625,-32.0625,0.16829178,0.21139388,0.70415163,1001.0482, , , , 
2026-03-20 17:40:58.526,-1.1533405,4.15394,11.52862,0.0151189035,0.051159926,0.08735366,-18.0,-47.662502,-32.4,0.16598034,0.2115079,0.70506424,1001.0482, , , , 
2026-03-20 17:40:58.546,-0.44985065,4.168297,9.284152,-0.045967575,-0.011148282,0.022601997,-17.60625,-47.34375,-32.79375,0.16591707,0.21152927,0.705568,1001.05396, , , , 
2026-03-20 17:40:58.566,-0.6412765,4.2448673,8.60459,-0.17424917,-0.028252495,-0.026267186,-17.306252,-47.2125,-32.943752,0.16536535,0.21055923,0.70574707,1001.05396, , , , 
2026-03-20 17:40:58.586,-0.93320084,4.072584,8.30788,-0.2084576,0.021838415,0.01282816,-17.1,-47.175003,-33.0,0.16395587,0.20918337,0.7060788,1001.05396, , , , 
2026-03-20 17:40:58.606,-1.0432707,3.8811584,6.8243303,-0.28909177,0.027947064,0.09468404,-17.081251,-47.11875,-33.09375,0.16237925,0.20764087,0.7068578,1001.05396, , , , 
2026-03-20 17:40:58.626,-1.1006985,3.9960139,6.963114,-0.3904953,0.17944153,0.17776164,-17.268751,-47.175003,-33.2625,0.15978104,0.20562683,0.70850235,1001.0603, , , , 
2026-03-20 17:40:58.646,-0.6891329,4.0295134,7.60439,-0.35139996,0.35292712,0.27550003,-17.41875,-47.11875,-33.581253,0.15575877,0.20439753,0.7112029,1001.0603, , , , 
2026-03-20 17:40:58.666,-0.2632105,4.1491547,7.733603,-0.31719154,0.13545926,0.29382595,-17.456251,-46.85625,-34.0125,0.15205683,0.20353986,0.7142202,1001.0603, , , , 
2026-03-20 17:40:58.686,0.41156548,4.0869412,7.944171,-0.26465717,-0.30314165,0.21441354,-17.475,-46.575,-34.350002,0.15101083,0.20048235,0.7165545,1001.0603, , , , 
2026-03-20 17:40:58.706,0.5838487,4.345366,7.365108,-0.048411034,-0.3006982,0.09834923,-17.5125,-46.143753,-34.706253,0.15257879,0.19656524,0.7175436,1001.06775, , , , 
2026-03-20 17:40:58.726,0.5168497,4.508078,6.5276203,0.1678351,-0.03924806,-0.007941242,-17.775002,-45.91875,-35.006252,0.15453745,0.19547029,0.717521,1001.06775, , , , 
2026-03-20 17:40:58.746,-0.02871387,4.910072,6.005985,0.21059564,0.069485866,-0.07024945,-18.225,-45.84375,-35.100002,0.15567909,0.19722582,0.71688634,1001.06775, , , , 
2026-03-20 17:40:58.766,-0.25842485,5.1158547,5.642276,0.08720095,-0.10155627,-0.060475614,-18.6375,-45.787502,-35.0625,0.15666746,0.19882032,0.7160855,1001.06775, , , , 
2026-03-20 17:40:58.786,-0.014356935,5.144569,5.6997037,-0.054519683,-0.15164718,-0.091018856,-18.69375,-45.9,-34.875,0.15786496,0.1983536,0.7153368,1001.06305, , , , 
2026-03-20 17:40:58.806,-0.95712906,5.556134,6.9152575,-0.075289086,0.042607818,-0.1178969,-18.69375,-45.91875,-34.706253,0.1578356,0.19756515,0.714619,1001.06305, , , , 
2026-03-20 17:40:58.826,-2.321038,6.3696938,8.599805,0.033444848,0.15867212,0.04459313,-18.618752,-45.91875,-34.631252,0.15676565,0.19825955,0.7143413,1001.06305, , , , 
2026-03-20 17:40:58.846,-1.1820544,6.1830535,9.853643,0.29367325,0.10491603,0.24373505,-18.31875,-46.03125,-34.706253,0.15669635,0.20023458,0.71524334,1001.06305, , , , 
2026-03-20 17:40:58.866,0.13399807,6.1208405,8.953942,0.3413207,-0.09666935,0.14844014,-18.16875,-46.0125,-34.800003,0.15909699,0.202514,0.7160501,1001.048, , , , 
2026-03-20 17:40:58.886,0.47377887,6.2404814,8.12124,0.14217877,-0.20173809,-0.055588696,-18.112501,-45.956253,-34.725002,0.16230243,0.20340127,0.71567386,1001.048, , , , 
2026-03-20 17:40:58.906,-0.72741807,6.556334,9.786645,-0.10216714,0.018173227,-0.14110976,-18.16875,-46.10625,-34.612503,0.16329631,0.202981,0.7146564,1001.048, , , , 
2026-03-20 17:40:58.926,-1.1533405,6.719046,10.777273,-0.11071924,0.1660025,-0.022601997,-18.46875,-46.350002,-34.36875,0.16184145,0.20297348,0.71428007,1001.048, , , , 
2026-03-20 17:40:58.946,-0.46899325,6.364908,10.944771,-0.2084576,0.101250835,0.03970621,-18.73125,-46.48125,-34.162502,0.15985057,0.20302923,0.71488786,1001.04333, , , , 
2026-03-20 17:40:58.966,-0.23449662,6.2548385,11.877972,-0.22311836,-0.09544762,0.010384701,-18.768751,-46.5,-34.10625,0.15823518,0.20143737,0.7155628,1001.04333, , , , 
2026-03-20 17:40:58.986,0.22013968,5.3216376,11.519048,-0.015424335,-0.11377356,-0.0042760535,-18.6,-46.40625,-34.050003,0.15819255,0.19943915,0.7157541,1001.04333, , , , 
2026-03-20 17:40:59.006,0.55034924,4.709075,10.207782,0.1348484,0.0108428495,-0.04459313,-18.46875,-46.256252,-34.0125,0.15893885,0.19920368,0.7154461,1001.04333, , , , 
2026-03-20 17:40:59.026,0.7752745,4.2352962,8.786445,0.11896592,0.13301581,-0.076358095,-18.300001,-46.10625,-34.03125,0.159362,0.20055772,0.71492946,1001.04376, , , , 
2026-03-20 17:40:59.046,0.3062813,4.23051,8.853444,0.005345067,0.2527453,-0.13377939,-18.16875,-46.050003,-34.068752,0.15830848,0.20227183,0.7144578,1001.04376, , , , 
2026-03-20 17:40:59.066,-0.46899325,4.3501515,9.150154,-0.0386372,0.30894485,-0.08857539,-18.243752,-46.0125,-34.2,0.15588395,0.20415045,0.7141633,1001.04376, , , , 
2026-03-20 17:40:59.086,-0.7513463,4.1108694,8.9108715,-0.07773254,0.1904371,-0.037262753,-18.16875,-45.881252,-34.29375,0.15338846,0.20566398,0.7142552,1001.04376,37.88736851,127.73748214,173.96417236328125,1.47
2026-03-20 17:40:59.106,-0.7704889,4.034299,8.427522,-0.1461494,-0.025809037,0.017715078,-18.13125,-45.956253,-34.29375,0.15184633,0.20559719,0.71451926,1001.05096, , , , 
2026-03-20 17:40:59.126,-0.47377887,3.7854455,7.7479596,-0.13148865,-0.18096869,0.076358095,-17.98125,-46.03125,-34.40625,0.15159258,0.20380642,0.7149763,1001.05096, , , , 
2026-03-20 17:40:59.146,0.10049855,3.4313076,6.5898337,0.0029016077,-0.14676027,0.059253883,-17.625,-46.0875,-34.537502,0.15254794,0.20176521,0.71537644,1001.05096, , , , 
2026-03-20 17:40:59.166,0.55034924,3.225525,5.7427745,0.14095704,0.14767656,-0.009162972,-17.53125,-46.256252,-34.65,0.15339634,0.20171604,0.71545136,1001.05096, , , , 
2026-03-20 17:40:59.186,0.63170516,3.1872396,5.910272,0.29856017,0.3810269,-0.11911863,-17.6625,-46.36875,-34.78125,0.15283622,0.20476508,0.7151178,1001.05035, , , , 
2026-03-20 17:40:59.206,0.46899325,3.1920254,5.613562,0.35475972,0.39446592,-0.22052218,-17.8125,-46.425003,-34.725002,0.15189946,0.21003023,0.71398854,1001.05035, , , , 
