Time,Accel_X,Accel_Y,Accel_Z,Gyro_X,Gyro_Y,Gyro_Z,Mag_X,Mag_Y,Mag_Z,Orient_X,Orient_Y,Orient_Z,Pressure,Lat,Lng,Alt,Speed
2026-03-19 21:12:20.012,-2.833102,4.914858,8.831908,0.016264275,-0.21914774,-0.15821397,-22.95,-12.337501,-49.18125,0.12266047,0.2635363,0.62559944,998.24164,37.88750406,127.73736727,173.3018798828125,1.42
2026-03-19 21:12:20.031,-1.7228323,5.343173,6.936793,-0.43272135,-0.49953467,0.14599667,-23.1,-13.218751,-50.5125,0.12745492,0.25616482,0.6253585,998.2487, , , , 
2026-03-19 21:12:20.050,-1.0624132,5.319245,8.133204,-0.610483,-0.44394597,-0.11362085,-23.362501,-11.512501,-49.500004,0.1271803,0.24975564,0.6264642,998.2487, , , , 
2026-03-19 21:12:20.071,-2.8570302,4.584648,8.9348,-0.6953932,-0.18432845,-0.2602284,-25.29375,-12.337501,-48.937504,0.124413684,0.24345696,0.6260357,998.24945, , , , 
2026-03-19 21:12:20.091,-3.199204,4.505685,8.595019,-0.8065706,0.1962403,-0.010995566,-24.825,-12.150001,-49.162502,0.118976496,0.23910396,0.6262412,998.24945, , , , 
2026-03-19 21:12:20.111,-2.5531418,4.7832522,8.652447,-0.9550107,0.23411393,0.09651663,-23.081251,-10.856251,-50.025,0.11145269,0.23555763,0.6286924,998.25946, , , , 
2026-03-19 21:12:20.131,-2.928815,5.211568,8.377272,-1.0466404,-0.11835505,-0.098960094,-25.0125,-10.200001,-48.16875,0.10367081,0.23084757,0.6314201,998.25946, , , , 
2026-03-19 21:12:20.151,-2.696711,5.048856,7.085148,-1.3936117,-1.1091777,-0.252898,-24.112501,-9.975,-47.662502,0.09709788,0.21774612,0.63246727,998.2614, , , , 
2026-03-19 21:12:20.171,-0.05503492,4.412365,9.731609,-1.7857869,-1.7866268,-0.7672462,-24.562502,-9.28125,-47.49375,0.09367568,0.19776537,0.63080984,998.2614, , , , 
2026-03-19 21:12:20.190,0.1052842,3.3355947,11.516655,-1.5756494,-1.9491168,-1.0928371,-25.0125,-8.700001,-48.24375,0.09106091,0.17423092,0.62558776,998.2756, , , , 
2026-03-19 21:12:20.211,-0.8757731,3.5030923,11.676974,-0.94584775,-1.2753329,-1.5436553,-25.2,-6.61875,-46.65,0.0902057,0.15345159,0.6167695,998.2756, , , , 
2026-03-19 21:12:20.231,-1.5002998,4.6205406,13.256237,-0.50174904,-2.6674938,-1.3041964,-27.018751,-5.4375,-46.21875,0.091986835,0.13914838,0.60495037,998.36884, , , , 
2026-03-19 21:12:20.251,-2.3952155,5.237889,8.999406,-0.4870883,-3.1659594,-0.2516763,-27.825,-5.025,-45.99375,0.10698883,0.11155134,0.5951831,998.36884, , , , 
2026-03-19 21:12:20.271,-3.6011982,4.319045,4.9340005,-1.1431571,-0.38347036,0.8790344,-29.681252,-4.7250004,-44.737503,0.116622254,0.08631976,0.5948908,998.49384, , , , 
2026-03-19 21:12:20.291,-2.629712,3.95055,4.7162533,-2.151084,3.0831873,1.9737041,-29.79375,-3.7500002,-44.175003,0.0988038,0.08596323,0.6074102,998.49384, , , , 
2026-03-19 21:12:20.311,-0.8853444,1.4380864,8.642876,-2.9885795,5.6885257,2.7537785,-27.825,-2.15625,-46.162502,0.055699226,0.10235939,0.63066965,998.51556, , , , 
2026-03-19 21:12:20.333,10.387243,-5.393422,16.926826,-2.8767912,1.0374011,1.6438371,-25.331251,2.0812502,-48.05625,0.004639019,0.11821118,0.65466917,998.51556, , , , 
2026-03-19 21:12:20.350,-3.2087753,3.048456,14.364115,-1.5701516,-3.0615015,0.654847,-23.6625,4.3875003,-50.062504,-0.005756809,0.09373302,0.66572917,998.5607, , , , 
2026-03-19 21:12:20.375,-1.5840486,-1.8831514,11.423335,0.9264528,-2.0108142,0.6847794,-25.687502,6.9,-46.912502,0.017262392,0.06116667,0.67284477,998.5607, , , , 
2026-03-19 21:12:20.391,1.2753744,-3.5820556,10.432707,1.8262566,0.28970262,0.09224058,-27.712502,6.3187504,-46.5,0.030214082,0.05869641,0.67505527,998.6132, , , , 
2026-03-19 21:12:20.412,1.1150553,-1.6534405,12.610175,3.256902,2.8370087,-0.7562506,-26.906252,4.51875,-46.18125,0.038330954,0.0892619,0.6713622,998.6132, , , , 
2026-03-19 21:12:20.431,-0.8542377,1.1820544,17.185253,4.6411214,1.8046473,-0.95844686,-27.300001,2.5125,-47.568752,0.043190368,0.12280246,0.6647149,998.60004, , , , 
2026-03-19 21:12:20.450,-1.7682959,1.9046868,6.4606214,3.6283078,-5.0425363,-1.3603959,-26.2875,-1.125,-47.006252,0.07793189,0.14655979,0.6507183,998.60004, , , , 
2026-03-19 21:12:20.471,-7.1210403,4.7018967,5.056034,2.6442046,-5.240456,-1.1221586,-30.7875,-3.825,-47.30625,0.14515457,0.12737404,0.62572384,998.5622, , , , 
2026-03-19 21:12:20.490,-4.658826,5.3503513,4.8885365,1.5330415,-3.790874,-0.09957096,-33.61875,-6.7500005,-44.53125,0.18768758,0.10897627,0.61042404,998.5622, , , , 
2026-03-19 21:12:20.511,-0.28235307,4.74736,4.278367,0.41210467,-1.31565,0.33719736,-36.862503,-8.7375,-40.66875,0.21203403,0.0951485,0.60474473,998.48627, , , , 
2026-03-19 21:12:20.531,1.5290136,4.9052863,4.0151563,-0.6593522,2.3098323,0.67928165,-37.912502,-8.1,-39.675003,0.21135907,0.09588791,0.60857254,998.48627, , , , 
2026-03-19 21:12:20.551,0.5312066,5.773881,10.246066,-1.0967313,2.4753768,0.71043575,-35.775,-7.8562503,-42.375,0.19101298,0.108021274,0.61963946,998.4511, , , , 
2026-03-19 21:12:20.571,-1.6247265,4.807181,12.873385,-0.24885105,0.43692103,0.844826,-34.068752,-6.6937504,-42.46875,0.17434749,0.114678584,0.6287096,998.4511, , , , 
2026-03-19 21:12:20.591,1.7754744,0.83030945,9.552148,0.43409577,-0.61437726,1.4282019,-34.425003,-5.49375,-41.268753,0.17648141,0.114157096,0.6390026,998.51654, , , , 
2026-03-19 21:12:20.611,2.321038,4.182654,10.612168,0.44325876,-0.64369875,0.7495311,-32.68125,-4.18125,-42.600002,0.18542804,0.10655347,0.64455056,998.51654, , , , 
2026-03-19 21:12:20.631,2.6009982,4.4315076,8.090134,0.528169,-0.34865108,0.1197295,-34.068752,-5.9437504,-42.675003,0.19286934,0.10540069,0.6464535,998.538, , , , 
2026-03-19 21:12:20.652,0.7082755,4.8885365,5.9557357,-0.13461933,0.446084,0.048258316,-33.75,-5.68125,-41.025,0.19571902,0.10723951,0.6465168,998.538, , , , 
2026-03-19 21:12:20.673,1.3926228,4.4075794,10.439885,-0.28489205,0.12721258,-0.08124501,-34.275,-4.6125,-39.9375,0.19022278,0.10885398,0.6479958,998.51776, , , , 
2026-03-19 21:12:20.693,0.25842485,3.952943,9.992428,0.14637847,-0.4714349,-0.106290475,-33.675003,-4.6687503,-41.550003,0.19063511,0.10706442,0.64690197,998.51776, , , , 
2026-03-19 21:12:20.712,0.5599205,4.1635113,8.025527,0.046807513,-0.12812889,0.05986475,-34.7625,-6.2812505,-40.256252,0.1938488,0.10543331,0.64577013,998.5275, , , , 
2026-03-19 21:12:20.732,1.6630118,4.23051,8.020741,-0.17737986,0.3245219,-0.018936807,-33.99375,-5.45625,-41.006252,0.19319299,0.10555136,0.64626354,998.5275, , , , 
2026-03-19 21:12:20.752,1.0313065,3.926622,9.537791,-0.17188208,0.5254964,-0.10445788,-34.143753,-5.5687504,-42.525,0.1889,0.10750296,0.6469141,998.4982, , , , 
2026-03-19 21:12:20.771,0.10289137,3.926622,9.712467,0.041920595,0.055130545,-0.08552107,-33.9,-4.425,-42.61875,0.18567361,0.10968605,0.64693594,998.4982, , , , 
2026-03-19 21:12:20.792,0.69152576,4.0271206,9.085547,0.2618319,-0.4958695,-0.04459313,-32.25,-5.0062504,-43.36875,0.18774983,0.10938232,0.6460001,998.46454, , , , 
2026-03-19 21:12:20.812,0.7752745,3.888337,8.487342,0.20990841,-0.40973756,-0.06291907,-32.5125,-4.05,-42.487503,0.19264089,0.107558735,0.6444131,998.46454, , , , 
2026-03-19 21:12:20.833,2.0315065,4.0773697,8.874979,0.15431972,-0.032833982,-0.05070178,-33.881252,-4.8187504,-40.275,0.19602072,0.10637812,0.6436103,998.4184, , , , 
2026-03-19 21:12:20.853,1.4931214,4.766503,7.8484583,0.06635518,-0.12140937,-0.23151775,-34.125,-5.9812503,-39.412502,0.19731611,0.1073147,0.6423236,998.4184, , , , 
2026-03-19 21:12:20.871,0.61016977,4.3357944,8.520842,-0.18837543,0.23961172,-0.27244568,-34.818752,-5.7937503,-39.35625,0.19719748,0.107257694,0.64039844,998.39325, , , , 
2026-03-19 21:12:20.891,-0.44506502,4.098905,9.257831,0.03886627,-0.31627524,-0.05070178,-33.84375,-5.3250003,-39.787502,0.1958425,0.10765735,0.639115,998.39325, , , , 
2026-03-19 21:12:20.911,0.5407779,3.845266,8.953942,0.052305296,0.01725693,0.12156209,-33.80625,-5.30625,-41.49375,0.19763452,0.106264316,0.6388785,998.36884, , , , 
2026-03-19 21:12:20.931,1.5218352,4.706682,8.834301,0.027259842,0.011148282,0.13805544,-33.675003,-5.175,-39.206253,0.19746898,0.10686984,0.6400225,998.36884, , , , 
2026-03-19 21:12:20.951,1.9142581,4.615755,7.3292155,-0.15661046,0.251829,-0.056199558,-34.612503,-5.4,-38.625,0.19764547,0.1067226,0.6403827,998.3742, , , , 
2026-03-19 21:12:20.971,0.20817557,4.223332,7.716853,-0.474871,0.8846849,-0.07880156,-34.66875,-5.90625,-40.29375,0.19257352,0.10889066,0.64092284,998.3742, , , , 
2026-03-19 21:12:20.991,0.21535404,3.8763726,8.941978,-0.68561935,1.4112504,0.06658426,-34.03125,-4.9500003,-41.49375,0.18141855,0.113537654,0.64349055,998.3742, , , , 
2026-03-19 21:12:21.011,0.047856454,3.804588,10.523634,-0.41195193,0.86819154,0.21380267,-32.850002,-5.0625,-43.3125,0.16602363,0.12000582,0.6482123,998.3659,37.88750406,127.73736727,173.3018798828125,1.42
2026-03-19 21:12:21.031,0.4881358,3.9696927,10.719846,0.057192214,-0.08964441,0.16371176,-32.943752,-5.5687504,-43.575,0.16234702,0.121277004,0.65018517,998.3713, , , , 
2026-03-19 21:12:21.051,0.39720857,3.871587,8.573483,0.26855144,-0.37980518,0.089797124,-31.9125,-3.24375,-42.43125,0.1663978,0.11984485,0.6504587,998.3713, , , , 
2026-03-19 21:12:21.071,0.18664017,3.8811584,8.252846,-0.08025236,0.2243401,0.10140356,-31.425001,-4.5375004,-43.800003,0.16861261,0.11952467,0.6506074,998.3647, , , , 
2026-03-19 21:12:21.092,0.6843473,4.024728,9.616755,-0.18287764,0.45769045,0.082466744,-33.73125,-4.2937503,-42.80625,0.165639,0.12092358,0.6520657,998.3647, , , , 
2026-03-19 21:12:21.112,0.45702913,4.022335,9.875179,0.029092435,0.009315688,-0.06780599,-32.4375,-3.6750002,-41.737503,0.1625255,0.12243685,0.6530276,998.36273, , , , 
2026-03-19 21:12:21.131,-0.37567315,4.0390844,9.001799,0.077961616,-0.23503022,-0.054366965,-31.875002,-5.2125,-42.6375,0.16353104,0.12226219,0.65222275,998.36273, , , , 
2026-03-19 21:12:21.151,-0.5814559,3.7471602,9.2075815,0.064522594,-0.1800524,0.106290475,-33.862503,-4.18125,-42.6375,0.16529527,0.12119334,0.6518339,998.36127, , , , 
2026-03-19 21:12:21.171,0.75613195,4.1443686,9.226724,0.10300707,-0.19532402,0.14966187,-32.9625,-3.35625,-41.850002,0.16694942,0.1203175,0.652516,998.36127, , , , 
2026-03-19 21:12:21.191,1.1892328,4.510471,8.181061,0.08651373,-0.6009382,-0.08735366,-31.706251,-4.33125,-41.925003,0.17022002,0.11834774,0.6521982,998.3486, , , , 
2026-03-19 21:12:21.211,-0.5694918,3.3116665,8.238488,-0.074143715,-0.4329504,-0.091629714,-33.318752,-5.11875,-42.16875,0.17428324,0.114426725,0.6501996,998.3486, , , , 
2026-03-19 21:12:21.231,0.54317075,3.9601214,8.664411,-0.1419497,-0.20998476,0.08429934,-34.050003,-5.71875,-40.21875,0.17474559,0.112109154,0.64993703,998.3371, , , , 
2026-03-19 21:12:21.251,-0.1268196,4.24726,7.0636125,-0.14805835,-0.95462894,0.083688475,-34.0125,-4.9500003,-41.9625,0.17665648,0.1081895,0.6497924,998.3371, , , , 
2026-03-19 21:12:21.271,1.0983056,3.9242291,6.013163,-0.3117701,-1.884976,0.15882485,-32.550003,-4.0687504,-40.612503,0.18361342,0.098035574,0.64846975,998.3046, , , , 
2026-03-19 21:12:21.291,1.9477576,3.3547373,6.65444,-0.50846857,-2.2069018,0.23457208,-34.575,-4.65,-40.537502,0.19392654,0.080981605,0.64629024,998.3046, , , , 
2026-03-19 21:12:21.311,3.1513474,3.426522,6.0251274,-0.61781335,-2.1562,0.4978548,-36.112503,-2.9250002,-40.78125,0.20665908,0.055808466,0.6446409,998.28705, , , , 
2026-03-19 21:12:21.331,5.015356,1.0241281,5.979664,-0.068035066,-1.8580979,0.09834923,-37.3875,-2.4562502,-38.5125,0.21573035,0.03822648,0.64414644,998.28705, , , , 
2026-03-19 21:12:21.351,1.3974084,1.1246266,4.6707897,0.2948186,-2.748128,0.041538805,-37.612503,-2.23125,-39.112503,0.22997396,0.022493184,0.63968945,998.2861, , , , 
2026-03-19 21:12:21.371,-0.8135597,-0.20578274,2.0410776,0.45058912,-3.9759662,0.6560688,-38.49375,-1.4625001,-38.4375,0.252303,0.0014706918,0.6337573,998.2861, , , , 
2026-03-19 21:12:21.393,2.656033,-0.31585258,-0.17228323,0.38400486,-4.822014,1.3151919,-41.86875,-1.3125,-36.5625,0.28865078,-0.036063533,0.6281766,998.2514, , , , 
2026-03-19 21:12:21.411,4.3764725,-0.485743,-1.6414764,0.12133302,-5.2129674,1.2198969,-45.037502,-0.69375,-31.781252,0.31287807,-0.06406179,0.62413,998.2514, , , , 
2026-03-19 21:12:21.431,3.0173492,-1.9262222,-2.5746772,-0.5585595,-5.6136947,1.4117085,-47.287502,0.90000004,-26.081251,0.3438708,-0.105808035,0.615806,998.2441, , , , 
2026-03-19 21:12:21.451,1.5864414,-3.4528432,-1.7850457,-1.5267801,-5.1524916,2.2962408,-51.61875,2.4,-21.075,0.37419173,-0.16760011,0.6044211,998.2441, , , , 
2026-03-19 21:12:21.471,5.0081778,-5.436493,1.4261223,-1.8609232,-3.3363907,2.8240278,-53.062504,3.6937501,-14.19375,0.38303497,-0.2162799,0.60264856,998.2172, , , , 
2026-03-19 21:12:21.491,6.8985076,-5.771488,6.1160545,-1.9513311,-2.960098,3.311498,-50.100002,7.8187504,-10.89375,0.38172692,-0.26007712,0.6055684,998.2172, , , , 
2026-03-19 21:12:21.511,12.617353,-4.910072,5.8863435,-1.3997203,-3.439627,3.2375834,-48.187504,11.1,-6.6375003,0.37894732,-0.30329525,0.6113879,998.23676, , , , 
2026-03-19 21:12:21.531,7.3746796,-4.816752,3.8787656,-1.6281837,-2.8318164,2.913825,-48.487503,14.043751,-5.55,0.3795126,-0.3437467,0.6128757,998.23676, , , , 
2026-03-19 21:12:21.551,7.726424,-6.3960147,3.2590244,-1.9091815,-2.490343,3.4855945,-45.768753,16.78125,-3.2062502,0.37419453,-0.3815039,0.61521983,998.2631, , , , 
2026-03-19 21:12:21.571,10.351351,-6.6927247,4.508078,-1.9635484,-2.17758,3.473988,-45.35625,19.050001,0.1875,0.3633514,-0.4195555,0.618876,998.2631, , , , 
2026-03-19 21:12:21.591,11.119447,-6.95115,3.3116665,-2.0869431,-2.3614504,3.4501643,-43.21875,21.0,0.91875005,0.34762377,-0.4648497,0.6218184,998.29193, , , , 
2026-03-19 21:12:21.612,10.583454,-7.348358,2.8283165,-2.2928045,-1.9961534,3.532631,-41.98125,23.71875,3.5812502,0.33356443,-0.50111157,0.6217203,998.29193, , , , 
2026-03-19 21:12:21.632,9.856036,-8.980264,1.5529419,-2.5786893,-1.7114904,3.8362308,-39.1875,25.987501,4.2375,0.31442928,-0.5359731,0.6214241,998.3234, , , , 
2026-03-19 21:12:21.651,12.437892,-10.229317,3.2733815,-2.724075,-1.7011057,3.9785624,-38.0625,28.931252,7.8,0.2910574,-0.57141674,0.62015635,998.3234, , , , 
2026-03-19 21:12:21.671,12.701102,-10.652846,6.3338017,-2.1962879,-1.3706279,3.7281077,-35.8875,29.00625,10.35,0.26735878,-0.6041077,0.6179046,998.35077, , , , 
2026-03-19 21:12:21.691,11.026127,-11.107483,3.9673,-1.6825507,-1.1611012,3.885711,-33.881252,29.812502,13.8,0.24393335,-0.6299205,0.61860067,998.35077, , , , 
2026-03-19 21:12:21.711,11.117054,-11.478371,1.6319051,-1.5377758,-1.4030037,4.093405,-30.35625,31.518751,16.425001,0.22024183,-0.6526873,0.621197,998.37225, , , , 
2026-03-19 21:12:21.731,12.535997,-12.342179,0.04546363,-1.8047236,-1.5367831,4.3157597,-28.575,30.937502,17.19375,0.19040291,-0.68139476,0.6227613,998.37225, , , , 
2026-03-19 21:12:21.751,17.053646,-11.392229,3.9984066,-1.857258,-0.9833396,3.7262752,-21.31875,34.40625,19.181252,0.16561745,-0.70368767,0.62044495,998.3244, , , , 
2026-03-19 21:12:21.771,14.825929,-10.758131,3.991228,-1.5206715,-0.40423977,3.004844,-19.9125,32.79375,20.6625,0.14258133,-0.7197121,0.617614,998.3244, , , , 
2026-03-19 21:12:21.791,13.450056,-9.650253,2.9742785,-1.2738822,-0.12690715,2.7317872,-17.025002,33.46875,21.862501,0.12116373,-0.73159283,0.6154823,998.29047, , , , 
2026-03-19 21:12:21.811,12.636497,-8.554341,0.97866446,-1.2213478,0.031917684,2.299295,-14.925,32.287502,23.25,0.10094233,-0.7410019,0.6134127,998.29047, , , , 
2026-03-19 21:12:21.831,13.674981,-8.46102,1.3136597,-1.4033855,0.03252855,1.7757839,-15.187501,33.2625,23.38125,0.08326,-0.74989593,0.60933256,998.25385, , , , 
2026-03-19 21:12:21.851,9.839287,-8.891729,4.465007,-0.84688765,0.038026333,1.2443316,-14.1,31.48125,25.368752,0.06667201,-0.7590163,0.6027364,998.25385, , , , 
2026-03-19 21:12:21.871,7.9968133,-8.025527,3.76391,-0.22624904,-0.09636392,1.1875211,-12.975,31.875002,23.7,0.059757262,-0.7616104,0.60187316,998.25287, , , , 
2026-03-19 21:12:21.891,8.398808,-7.568498,0.4019942,0.07979421,-0.057268575,1.197295,-11.75625,30.112501,25.987501,0.04985171,-0.76219386,0.60522807,998.25287, , , , 
2026-03-19 21:12:21.911,8.853444,-7.1688967,-0.25842485,0.0064904382,0.09544762,1.0091486,-12.88125,31.743752,25.3875,0.042357348,-0.76204425,0.6080009,998.2651, , , , 
2026-03-19 21:12:21.931,8.633304,-7.274181,0.44027936,0.040088,0.23167047,0.6401863,-8.512501,33.05625,25.1625,0.03613039,-0.7617907,0.60983604,998.2651, , , , 
2026-03-19 21:12:21.951,8.169097,-7.4919276,0.70588267,0.21113014,0.5218312,0.32559094,-9.375,31.612501,24.562502,0.030226864,-0.7597798,0.6124548,998.24945, , , , 
2026-03-19 21:12:21.971,6.7262244,-7.34118,0.46660042,0.44020444,0.5328268,0.16493349,-10.33125,32.006252,24.6375,0.026436327,-0.75646746,0.6154156,998.24945, , , , 
2026-03-19 21:12:21.991,8.042277,-7.580462,-0.6795616,0.56665343,0.2554942,-0.05986475,-9.58125,31.968752,23.79375,0.025009,-0.75229126,0.61943954,998.23553, , , , 
2026-03-19 21:12:22.011,7.836494,-7.6019974,-1.5026926,0.40538514,0.22128576,-0.4819723,-11.887501,32.9625,24.750002,0.02741456,-0.748547,0.6225888,998.23553,37.88750406,127.73736727,173.3018798828125,1.42
2026-03-19 21:12:22.031,6.7525454,-7.8604226,-1.7419748,0.12805253,0.310472,-0.7195987,-8.981251,33.6375,24.862501,0.031355396,-0.745969,0.6233672,998.2314, , , , 
2026-03-19 21:12:22.051,5.790631,-8.267202,-1.0073783,0.018707734,0.3367392,-0.8118393,-9.65625,34.575,24.2625,0.035551,-0.74458677,0.622002,998.2314, , , , 
2026-03-19 21:12:22.071,4.347759,-8.578269,-0.023928227,0.10789399,0.3715585,-0.5326741,-11.7375,33.61875,23.00625,0.039014444,-0.74329317,0.62064207,998.23846, , , , 
2026-03-19 21:12:22.092,5.8887367,-7.4919276,-0.23449662,0.30581418,0.36422813,-0.46608981,-8.85,30.075,26.75625,0.041238375,-0.7403417,0.6212455,998.23846, , , , 
2026-03-19 21:12:22.111,4.922036,-7.5637126,-1.6007984,0.26610798,0.43325585,-0.5931497,-11.94375,30.750002,27.35625,0.04365949,-0.737212,0.6221434,998.2675, , , , 
2026-03-19 21:12:22.131,5.111069,-6.8865438,-1.9716859,0.16409355,0.21151192,-0.61208653,-12.4125,31.312502,27.375002,0.0457816,-0.7353967,0.62218875,998.2675, , , , 
2026-03-19 21:12:22.151,4.9172506,-6.9702926,-2.5722845,-0.12179117,0.2310596,-0.65667963,-13.387501,30.843752,27.656252,0.051337343,-0.7342715,0.6204368,998.26605, , , , 
2026-03-19 21:12:22.171,4.206582,-6.74776,-0.59581286,-0.15966478,0.0050396346,-0.6071996,-14.7375,29.962502,27.225,0.05447951,-0.7346921,0.61726123,998.26605, , , , 
2026-03-19 21:12:22.191,6.6281185,-6.1591253,-0.031106694,0.014431681,-0.21487169,-0.54489136,-13.387501,30.843752,27.656252,0.05866694,-0.7350781,0.6151186,998.2712, , , , 
2026-03-19 21:12:22.211,6.7501526,-5.6446686,-0.5599205,0.10117448,-0.09269873,-0.7391464,-14.025001,31.275002,26.925001,0.06514678,-0.73463076,0.61371416,998.2712, , , , 
2026-03-19 21:12:22.231,5.369494,-5.0416775,-0.3182454,-0.036880963,-0.21059564,-0.68905544,-13.575001,30.581251,27.075,0.07179326,-0.7341111,0.6117794,998.2878, , , , 
2026-03-19 21:12:22.251,7.3746796,-5.343173,0.9379865,-0.22319472,-0.03649917,-0.3695732,-13.762501,30.431252,27.712502,0.07706264,-0.73479754,0.6092862,998.2878, , , , 
2026-03-19 21:12:22.271,9.506684,-5.8241305,3.1776686,0.024205517,0.16447534,-0.20036365,-13.950001,30.91875,27.093752,0.07940938,-0.73513895,0.6072097,998.3129, , , , 
2026-03-19 21:12:22.291,12.177074,-6.084948,3.4767714,0.40355253,-0.057268575,-0.22785257,-13.70625,30.056252,27.88125,0.081170276,-0.73290557,0.60811144,998.3129, , , , 
2026-03-19 21:12:22.311,14.629718,-5.5968122,4.8454657,0.7077632,-0.47571096,-0.6035344,-14.025001,31.275002,27.225,0.08957677,-0.728387,0.6113034,998.38226, , , , 
2026-03-19 21:12:22.331,15.213567,-6.3720865,6.06102,1.1915681,-0.89354247,-0.91874063,-14.475,31.85625,26.156252,0.1021864,-0.7229847,0.6150786,998.38226, , , , 
2026-03-19 21:12:22.351,15.605989,-6.977471,5.5298133,1.5874085,-1.3070979,-1.273653,-15.8625,30.225,27.487501,0.12104533,-0.71550894,0.6207037,998.45233, , , , 
2026-03-19 21:12:22.372,14.629718,-7.5326056,2.199004,1.7175227,-1.1928662,-1.7446299,-15.843751,32.23125,24.581251,0.15113795,-0.70331043,0.6281381,998.45233, , , , 
2026-03-19 21:12:22.391,13.686946,-7.5517483,1.3495519,1.4817289,-1.030987,-1.9382739,-16.275002,32.831253,22.44375,0.16977303,-0.69566613,0.6310996,998.49457, , , , 
2026-03-19 21:12:22.411,14.036298,-7.393822,1.861616,1.2398264,-0.9607376,-2.2058327,-15.31875,31.687502,21.7875,0.19409984,-0.68600726,0.6326353,998.49457, , , , 
2026-03-19 21:12:22.432,13.414164,-7.3363943,1.1796615,1.128649,-0.7402154,-2.561967,-18.4125,33.73125,21.525002,0.22582108,-0.6734736,0.63140714,998.5048, , , , 
2026-03-19 21:12:22.451,12.861422,-7.7312098,0.62931234,0.8873575,-0.28634286,-2.73362,-19.275002,33.787502,20.7,0.24397634,-0.6652765,0.6293717,998.5048, , , , 
2026-03-19 21:12:22.471,12.167503,-8.255239,0.6029913,0.78167784,-0.14278965,-2.9407032,-21.46875,31.575,19.650002,0.27145487,-0.6505499,0.6241982,998.5131, , , , 
2026-03-19 21:12:22.491,11.9306135,-8.695518,0.45702913,0.6399572,-0.15500695,-3.1606143,-21.993752,31.893751,20.00625,0.29380277,-0.63843185,0.6181757,998.5131, , , , 
2026-03-19 21:12:22.511,11.389835,-8.9348,1.0480564,0.6246856,-0.06459895,-3.3463173,-24.712502,31.368752,18.300001,0.31622198,-0.6256189,0.61055046,998.50214, , , , 
2026-03-19 21:12:22.531,10.207782,-9.004191,1.134198,0.7731257,-0.09697478,-3.4483316,-26.587502,30.056252,18.581251,0.344498,-0.60749084,0.6002163,998.50214, , , , 
2026-03-19 21:12:22.551,8.865408,-8.973084,-0.14356937,0.89590955,-0.3016145,-3.4446664,-27.562502,28.837502,18.13125,0.36826247,-0.5917728,0.591593,998.5068, , , , 
2026-03-19 21:12:22.571,7.5924263,-8.774481,-1.7659031,0.70165455,-0.17211115,-3.3090546,-31.06875,27.487501,19.050001,0.38597357,-0.5801263,0.58460635,998.5068, , , , 
2026-03-19 21:12:22.591,6.652047,-8.250452,-1.4668003,0.27343833,0.3575086,-3.049437,-32.100002,26.643751,18.28125,0.40988111,-0.5619947,0.5722592,998.4943, , , , 
2026-03-19 21:12:22.612,5.345566,-7.568498,-0.19621146,0.22945608,0.72097313,-2.6890268,-36.43125,24.075,17.94375,0.42264944,-0.5475616,0.5637763,998.4943, , , , 
2026-03-19 21:12:22.631,4.800002,-7.0372915,-0.44027936,0.36262462,0.6049088,-2.357938,-35.98125,21.65625,15.1125,0.43258908,-0.53318304,0.5575112,998.4682, , , , 
2026-03-19 21:12:22.651,4.328616,-6.34098,-1.0815558,0.36018115,0.28542656,-2.0818272,-38.643753,20.8875,16.050001,0.44240162,-0.52029335,0.55175954,998.4682, , , , 
2026-03-19 21:12:22.671,3.266203,-6.053841,-0.96909314,0.3229184,-0.116522454,-1.8124357,-39.600002,19.050001,15.937501,0.45256874,-0.5098938,0.5452792,998.45184, , , , 
2026-03-19 21:12:22.691,2.5411777,-5.9413786,-0.85184485,0.28932083,-0.44822204,-1.3970478,-39.54375,18.675001,16.10625,0.4654191,-0.50123143,0.5365792,998.45184, , , , 
2026-03-19 21:12:22.711,1.7706888,-5.8887367,-0.9834501,0.25755587,-0.5771145,-0.9144646,-39.65625,16.66875,16.5375,0.4745902,-0.4977016,0.53040683,998.4416, , , , 
2026-03-19 21:12:22.731,1.4644074,-6.0107703,-1.4069797,0.18730642,-0.47876528,-0.40255988,-40.03125,17.737501,17.2875,0.48123756,-0.49682057,0.5262126,998.4416, , , , 
2026-03-19 21:12:22.752,1.4979069,-6.587441,-2.0003998,-0.044822205,-0.09697478,0.24678937,-40.6875,16.800001,18.806252,0.4837314,-0.49821004,0.5248761,998.435, , , , 
2026-03-19 21:12:22.771,1.9573289,-6.582655,-1.6773686,-0.17432554,0.1547015,0.75930494,-39.84375,17.15625,16.5375,0.48049858,-0.50174016,0.5270484,998.435, , , , 
2026-03-19 21:12:22.791,2.5148566,-6.8889365,-2.0386848,-0.27817255,0.08872811,1.3365722,-39.525,18.16875,17.831251,0.47129205,-0.50957745,0.53319615,998.4306, , , , 
2026-03-19 21:12:22.811,2.754139,-7.692925,-2.2205393,-0.39729118,0.022754714,1.7195843,-39.675003,18.0375,16.931252,0.46397787,-0.51643723,0.5377672,998.4306, , , , 
2026-03-19 21:12:22.831,4.0677986,-7.62114,-1.8855443,-0.57322025,0.042302385,2.0995421,-39.375,18.806252,17.325,0.44848055,-0.531271,0.5463407,998.4189, , , , 
2026-03-19 21:12:22.851,4.4721856,-7.6953177,-0.80877405,-0.7039453,0.170584,2.2064435,-37.40625,19.875,17.04375,0.43711105,-0.5411117,0.55179816,998.4189, , , , 
2026-03-19 21:12:22.871,3.682554,-8.666803,0.66759753,-0.6770672,-0.047494736,2.412916,-36.99375,19.800001,17.625,0.4162215,-0.55806535,0.56100005,998.4167, , , , 
2026-03-19 21:12:22.891,4.101298,-9.769895,1.5601203,-0.42966703,-0.41279188,2.6273293,-35.71875,22.425001,16.575,0.40390542,-0.56899464,0.5667351,998.4167, , , , 
2026-03-19 21:12:22.911,4.74736,-10.803595,1.012164,0.046807513,-0.84345156,2.9071054,-31.987501,23.550001,17.362501,0.3860493,-0.5875374,0.5776467,998.42303, , , , 
2026-03-19 21:12:22.931,5.304888,-11.485549,-0.6723832,0.18547381,-0.8636101,3.2296422,-34.068752,24.075,17.400002,0.3727672,-0.6020338,0.5880112,998.42303, , , , 
2026-03-19 21:12:22.951,6.1399827,-12.279965,-1.3399807,0.01687514,-0.4262309,3.7165012,-30.88125,26.8875,18.28125,0.35616693,-0.6167877,0.5993942,998.42816, , , , 
2026-03-19 21:12:22.972,9.815358,-11.576476,-1.6366907,-0.25801402,0.0019853106,3.9461865,-27.54375,28.44375,21.862501,0.32732493,-0.6353864,0.61448455,998.42816, , , , 
2026-03-19 21:12:22.991,11.160125,-10.707881,-0.9020941,-0.5530617,0.34101525,3.6438084,-24.431252,29.906252,18.975,0.30107653,-0.64928013,0.6244848,998.4311, , , , 
2026-03-19 21:12:23.011,9.676575,-10.624132,0.63888365,-0.6343067,0.46563166,3.501477,-24.0,31.2,17.94375,0.27407485,-0.6617481,0.63226396,998.4311,37.88750406,127.73736727,173.3018798828125,1.42
2026-03-19 21:12:23.031,8.853444,-10.796415,1.2227324,-0.49869475,0.41554075,3.578446,-21.16875,32.34375,19.725,0.24667278,-0.67278713,0.6396874,998.4255, , , , 
2026-03-19 21:12:23.051,9.186047,-10.380065,-0.07178468,-0.44127345,0.31841326,3.668243,-19.575,32.362503,21.88125,0.21942021,-0.68261635,0.6472224,998.4255, , , , 
2026-03-19 21:12:23.072,9.77468,-9.406186,0.078963146,-0.6483566,0.5236638,3.6517496,-16.875,33.393753,20.925001,0.1915953,-0.692177,0.65330356,998.43915, , , , 
2026-03-19 21:12:23.092,9.394221,-9.781859,0.91166544,-0.73204505,0.5505419,3.59555,-13.8,34.0875,21.1875,0.16261779,-0.701265,0.65763164,998.43915, , , , 
2026-03-19 21:12:23.111,9.343972,-10.777273,1.5146568,-0.6000983,0.19013166,3.6609125,-11.1,33.61875,20.775002,0.13410902,-0.7095897,0.661024,998.44183, , , , 
2026-03-19 21:12:23.132,10.54517,-10.423136,1.1318051,-0.3569741,-0.099418245,3.6352563,-8.175,35.90625,21.4125,0.101912335,-0.7180353,0.6654648,998.44183, , , , 
2026-03-19 21:12:23.151,11.97847,-9.738789,0.3684947,-0.3099375,0.028252495,3.4183993,-7.05,34.162502,21.243752,0.08401456,-0.7218011,0.66807115,998.4467, , , , 
2026-03-19 21:12:23.170,12.201003,-9.401401,-0.3469593,-0.46143198,0.28970262,2.972468,-0.61875004,34.706253,19.612501,0.061327364,-0.72592306,0.6702291,998.4467, , , , 
2026-03-19 21:12:23.190,9.336794,-9.068798,0.53599226,-0.66484994,0.72524923,2.544252,0.3375,33.787502,21.09375,0.03406592,-0.73105603,0.6696984,998.44525, , , , 
2026-03-19 21:12:23.211,7.881958,-8.611769,1.753939,-0.5286271,0.8694133,2.4385722,0.075,33.375,23.94375,0.011614539,-0.7344197,0.66839874,998.44525, , , , 
2026-03-19 21:12:23.232,8.006385,-8.106883,1.146162,-0.22502731,0.79366606,2.285856,6.1125,31.893751,21.075,-0.010171592,-0.73571074,0.66837996,998.44916, , , , 
2026-03-19 21:12:23.250,8.896515,-8.013563,-0.17706887,-0.15172353,0.7032581,2.122755,5.7562504,33.09375,22.275002,-0.029958688,-0.73545545,0.6692725,998.44916, , , , 
2026-03-19 21:12:23.270,10.829915,-7.3363943,-0.7178468,-0.15783219,0.43814278,1.739132,7.8187504,31.81875,22.743752,-0.046746027,-0.7351474,0.66966057,998.4682, , , , 
2026-03-19 21:12:23.290,11.717652,-7.348358,-0.9451649,-0.18104506,0.12965605,1.4459169,7.9687505,32.456253,22.3875,-0.056168806,-0.7351709,0.6695612,998.4682, , , , 
2026-03-19 21:12:23.310,14.065011,-6.558727,0.2416751,-0.16027565,-0.28145593,0.87659097,8.56875,29.775002,23.400002,-0.065826684,-0.73619163,0.66876626,998.4743, , , , 
2026-03-19 21:12:23.331,14.794823,-7.068398,0.80159557,-0.043600474,-0.34926194,0.33353218,9.88125,31.031252,21.337502,-0.06600029,-0.7367791,0.66853946,998.4743, , , , 
2026-03-19 21:12:23.351,15.306887,-7.9657063,1.0815558,0.117056966,-0.5111411,-0.10384701,11.64375,30.225,20.268751,-0.06177084,-0.73679996,0.66903347,998.48676, , , , 
2026-03-19 21:12:23.371,17.06561,-7.8436728,1.1892328,0.2514472,-0.61071205,-0.6365211,11.90625,29.268751,19.837502,-0.05307679,-0.73610103,0.6704292,998.48676, , , , 
2026-03-19 21:12:23.390,17.525034,-7.283752,1.2251252,0.29420775,-0.55878854,-1.6029092,14.325001,31.0125,18.4125,-0.03907404,-0.7349928,0.67194957,998.4892, , , , 
2026-03-19 21:12:23.410,15.239887,-8.525627,1.1102697,0.22151484,-0.46105018,-2.39459,11.0625,31.031252,21.375,-0.019390043,-0.7339307,0.6724607,998.4892, , , , 
2026-03-19 21:12:23.430,13.119846,-10.382458,1.9046868,0.16470441,-0.40485063,-2.9926267,9.8625,32.287502,20.19375,0.004348269,-0.732972,0.6713073,998.4936, , , , 
2026-03-19 21:12:23.451,10.7126665,-12.076576,2.9647074,0.38095054,-0.24358234,-3.3011134,5.71875,33.487503,20.25,0.03072715,-0.73091006,0.6693811,998.4936, , , , 
2026-03-19 21:12:23.470,10.305887,-12.720245,1.6127625,0.5941424,0.11194097,-3.4703228,4.875,32.90625,19.59375,0.063372314,-0.72439474,0.66828215,998.50775, , , , 
2026-03-19 21:12:23.490,9.066405,-13.526627,0.40438703,0.51778424,0.0386372,-3.5888305,1.8375001,33.09375,19.29375,0.08882181,-0.71740365,0.6667944,998.50775, , , , 
2026-03-19 21:12:23.510,9.506684,-14.124832,1.6007984,0.35101816,-0.49342602,-3.6902342,-0.54375005,34.350002,19.462502,0.11598324,-0.7110722,0.6629798,998.5046, , , , 
2026-03-19 21:12:23.530,10.949556,-14.431113,3.5174494,0.4475348,-0.800691,-3.9846709,-1.8937501,32.49375,16.462502,0.14667746,-0.7047564,0.65726894,998.5046, , , , 
2026-03-19 21:12:23.551,11.239088,-14.983855,4.5008993,0.70409805,-0.57467103,-4.299877,-6.9375005,33.075,18.65625,0.18038492,-0.6958017,0.65111923,998.52167, , , , 
2026-03-19 21:12:23.570,10.090533,-15.905092,3.4049866,1.1084905,0.35201082,-4.53506,-9.4125,32.9625,16.3125,0.21326934,-0.6817916,0.64629674,998.52167, , , , 
2026-03-19 21:12:23.594,8.236095,-15.66581,0.014356935,1.1622466,1.2756383,-4.219854,-12.356251,31.312502,14.231251,0.2465293,-0.6575624,0.6434508,998.51556, , , , 
2026-03-19 21:12:23.610,8.599805,-14.79243,-0.72741807,0.9203442,2.171777,-4.011549,-16.0125,31.312502,14.00625,0.26425314,-0.63613474,0.6417867,998.51556, , , , 
2026-03-19 21:12:23.631,8.559127,-14.2851515,-0.20817557,0.80427986,2.466214,-3.8551676,-19.575,30.843752,11.00625,0.27526683,-0.6132011,0.63991463,998.4997, , , , 
2026-03-19 21:12:23.651,8.066205,-13.737195,0.20817557,0.8745293,1.8370231,-3.8282895,-22.368752,29.325,10.462501,0.285728,-0.590119,0.636801,998.4997, , , , 
2026-03-19 21:12:23.670,6.6257257,-12.703495,0.92602235,0.97410023,0.7796162,-3.8826566,-24.187502,28.143751,8.700001,0.30100414,-0.5687615,0.6307319,998.4792, , , , 
2026-03-19 21:12:23.690,6.0346985,-12.112468,0.7728817,1.1237621,-0.07192933,-3.7568183,-26.75625,27.750002,9.618751,0.3220571,-0.5499326,0.6217725,998.4792, , , , 
2026-03-19 21:12:23.710,5.9342003,-11.863615,-0.44506502,1.0266346,-0.09880738,-3.6829038,-27.018751,24.88125,7.9500003,0.34601697,-0.53294176,0.6111754,998.46674, , , , 
2026-03-19 21:12:23.730,3.3954153,-10.3441725,-0.55752766,0.73097605,0.29825473,-3.4330602,-30.075,23.56875,7.89375,0.3720359,-0.5119343,0.5970559,998.46674, , , , 
2026-03-19 21:12:23.751,1.8257236,-9.097511,-0.71306115,0.52511466,0.28603745,-3.0323327,-32.53125,21.581251,8.56875,0.38426697,-0.49986762,0.5889526,998.45087, , , , 
2026-03-19 21:12:23.770,1.8592232,-8.169097,-0.033499517,0.41332638,0.0025961753,-2.5491388,-33.73125,18.46875,7.6312504,0.40142432,-0.48352152,0.57585824,998.45087, , , , 
2026-03-19 21:12:23.790,1.5122639,-7.32443,0.2943172,0.43287405,-0.072540194,-2.1710134,-36.375,17.7,7.8,0.4139077,-0.4731166,0.5660935,998.44086, , , , 
2026-03-19 21:12:23.811,0.5766702,-6.9678993,-0.50009996,0.37423104,0.23472479,-1.8057163,-35.756252,16.518751,8.26875,0.42435086,-0.4632445,0.5581611,998.44086, , , , 
2026-03-19 21:12:23.830,-0.15553348,-6.381658,0.009571291,0.28932083,0.42959064,-1.3310744,-38.9625,14.962501,6.3750005,0.43087718,-0.45390365,0.5528845,998.4301, , , , 
2026-03-19 21:12:23.850,0.27517462,-5.797809,-0.21535404,0.34735298,0.25305074,-0.9101885,-40.03125,14.325001,9.918751,0.43473026,-0.44605288,0.5502343,998.4301, , , , 
2026-03-19 21:12:23.870,0.3062813,-5.773881,-1.3686945,0.2862665,-0.101250835,-0.5546652,-40.0875,12.356251,7.5750003,0.43950114,-0.4399963,0.54819226,998.42303, , , , 
2026-03-19 21:12:23.890,0.011964113,-6.735796,-1.9932213,0.025427246,-0.33093598,-0.1386663,-39.35625,13.1625,8.681251,0.4426232,-0.43957245,0.5465007,998.42303, , , , 
2026-03-19 21:12:23.910,0.4546363,-8.066205,-2.1511476,-0.33131778,-0.5600103,0.39278606,-38.98125,12.712501,7.1250005,0.44314256,-0.44425613,0.54520047,998.4101, , , , 
2026-03-19 21:12:23.930,1.4763715,-8.944371,-1.4691931,-0.6886737,-0.53129965,0.87292576,-39.375,12.918751,6.8437505,0.44001323,-0.45398375,0.544615,998.4101, , , , 
2026-03-19 21:12:23.951,1.4668003,-9.513863,-0.29910284,-0.9226349,-0.34681848,1.3213005,-37.256252,14.75625,7.2937503,0.43224657,-0.46652952,0.54570854,998.4084, , , , 
2026-03-19 21:12:23.970,1.3950156,-8.817552,0.5623133,-1.0026581,-0.28634286,1.9022329,-38.287502,13.500001,9.9375,0.42045045,-0.4808704,0.54921484,998.4084, , , , 
2026-03-19 21:12:23.990,2.3425734,-8.9348,1.4045869,-0.94645864,-0.37125307,2.3145666,-38.30625,16.25625,9.31875,0.40593168,-0.4969531,0.5548412,998.4174, , , , 
2026-03-19 21:12:24.011,3.0317063,-9.985249,1.119841,-0.65629786,-0.8312343,2.6945245,-34.8375,18.337502,11.00625,0.38722566,-0.5188457,0.5640901,998.4174,37.88749303,127.73737503,173.09130859375,1.05
2026-03-19 21:12:24.030,3.9170506,-11.334801,-0.52163535,-0.48586658,-1.4304926,3.0335546,-35.831253,18.487501,10.33125,0.37455276,-0.5387902,0.57204336,998.41864, , , , 
2026-03-19 21:12:24.052,5.704489,-12.504891,-1.3064811,-0.62086767,-1.5575525,3.3664758,-31.181252,20.56875,12.0375,0.36241946,-0.5615653,0.5793582,998.41864, , , , 
2026-03-19 21:12:24.070,7.1066833,-13.143775,-0.4211368,-0.80229455,-1.2857176,3.6712973,-29.325,21.75,11.925,0.34667853,-0.58516484,0.58659667,998.4191, , , , 
2026-03-19 21:12:24.090,8.094919,-13.313665,0.6628119,-0.7766382,-1.0877974,3.988947,-27.093752,25.06875,14.75625,0.32678166,-0.60800034,0.594512,998.4191, , , , 
2026-03-19 21:12:24.111,8.702696,-12.909278,0.89491564,-0.63369584,-1.1336123,4.147161,-25.743752,26.587502,13.9125,0.30483168,-0.6293892,0.6031263,998.4328, , , , 
2026-03-19 21:12:24.130,9.02812,-12.545569,0.16510476,-0.5157989,-1.1360558,4.237569,-23.79375,27.018751,15.993751,0.28273854,-0.6490993,0.6117408,998.4328, , , , 
2026-03-19 21:12:24.152,9.092726,-12.480963,-0.40917268,-0.5860484,-0.83917546,4.3127055,-19.40625,28.331251,15.450001,0.25948563,-0.66707796,0.6198819,998.42523, , , , 
2026-03-19 21:12:24.170,9.686146,-12.373286,-0.08135597,-0.65385437,-0.54473865,4.335307,-14.887501,28.29375,16.21875,0.22679473,-0.6872371,0.6287875,998.42523, , , , 
2026-03-19 21:12:24.190,9.944571,-12.466606,0.09332009,-0.6752347,-0.3187187,4.3127055,-14.3625,28.312502,20.175001,0.19861767,-0.7011972,0.6349045,998.42596, , , , 
2026-03-19 21:12:24.214,9.9015,-12.533605,0.11485548,-0.66484994,-0.19593488,4.4159417,-9.975,30.393751,18.975,0.16165137,-0.7162259,0.64138484,998.42596, , , , 
2026-03-19 21:12:24.230,11.897114,-11.944971,0.83748794,-0.6801216,-0.13057235,4.431824,-7.3875003,29.531252,20.15625,0.13849513,-0.7242193,0.6445626,998.4421, , , , 
2026-03-19 21:12:24.250,14.514862,-11.29173,2.1272194,-0.44677123,-0.12751803,4.1086764,-3.5062501,30.675001,20.75625,0.10857967,-0.7328488,0.64814407,998.4421, , , , 
2026-03-19 21:12:24.270,14.971891,-11.212767,1.3328022,0.08895718,-0.22647811,3.4947574,0.1875,31.5375,20.625,0.08328187,-0.73730755,0.65270495,998.4438, , , , 
2026-03-19 21:12:24.290,13.710874,-10.18146,-0.8279166,0.26305366,-0.14278965,3.1135778,1.5,30.056252,21.0375,0.06268967,-0.7382822,0.6584472,998.4438, , , , 
2026-03-19 21:12:24.311,13.103097,-8.616554,-1.8640088,-0.07108939,0.46563166,2.8075345,2.4,30.900002,20.737501,0.037933208,-0.7386509,0.66377574,998.4389, , , , 
2026-03-19 21:12:24.330,12.643675,-7.159325,-0.46181476,-0.34781113,0.90484345,2.5265367,4.7250004,32.25,21.1875,0.015956873,-0.7400931,0.6646774,998.4389, , , , 
2026-03-19 21:12:24.351,13.184453,-7.166504,1.0336994,-0.2042579,0.8810197,2.2253804,5.6062503,30.843752,21.337502,-0.005549202,-0.7412358,0.66453516,998.44794, , , , 
2026-03-19 21:12:24.370,14.206188,-6.8219376,0.6125626,0.22212571,0.49006626,1.8270966,7.7625003,31.312502,21.075,-0.022886356,-0.7401495,0.6661486,998.44794, , , , 
2026-03-19 21:12:24.390,14.641682,-7.094719,-2.0386848,0.35529423,0.077121675,1.3084724,8.418751,30.375002,22.29375,-0.033838954,-0.7373148,0.66953105,998.436, , , , 
2026-03-19 21:12:24.410,14.924035,-6.5515485,-2.4239295,0.04925097,-0.14950916,0.91874063,8.925,29.94375,22.425001,-0.039744653,-0.73550653,0.67179066,998.436, , , , 
2026-03-19 21:12:24.430,15.27578,-7.018149,-0.2632105,-0.2372446,-0.43233955,0.39950556,9.69375,30.13125,22.5,-0.041080035,-0.73655295,0.6710911,998.44183, , , , 
2026-03-19 21:12:24.451,16.06541,-8.46102,1.538585,-0.052763447,-0.7139482,0.05253437,8.8125,30.91875,23.00625,-0.03812632,-0.7377109,0.6702269,998.44183, , , , 
2026-03-19 21:12:24.470,17.697317,-8.922835,1.2969099,0.28321218,-0.89354247,-0.5192351,11.325001,30.937502,22.275002,-0.026770389,-0.7373128,0.67142904,998.4621, , , , 
2026-03-19 21:12:24.491,18.15913,-8.609376,0.44985065,0.25266895,-0.7982476,-1.2895355,10.81875,31.368752,22.143751,-0.012096991,-0.7358438,0.67318296,998.4621, , , , 
2026-03-19 21:12:24.511,16.941185,-9.717253,0.9523434,0.020540329,-0.6333141,-2.2999058,9.056251,30.581251,21.6,0.0075306846,-0.7351506,0.67298317,998.47064, , , , 
2026-03-19 21:12:24.531,14.07219,-11.643475,2.251646,0.037033677,-0.6858484,-3.0372198,10.856251,31.406252,19.987501,0.03920062,-0.7344002,0.6701225,998.47064, , , , 
2026-03-19 21:12:24.550,12.05504,-12.356536,2.455036,0.24900375,-0.8281799,-3.4605489,10.06875,31.706251,18.0375,0.061515756,-0.7326569,0.6682348,998.4838, , , , 
2026-03-19 21:12:24.570,10.923235,-13.30888,1.3328022,0.39622217,-0.77442384,-3.6749625,5.0062504,30.7875,21.393751,0.09340482,-0.7282588,0.665986,998.4838, , , , 
2026-03-19 21:12:24.590,11.093125,-14.14876,-0.2943172,0.25022548,-0.6186533,-3.803244,5.025,34.18125,16.875,0.13335311,-0.7208945,0.6619145,998.4836, , , , 
2026-03-19 21:12:24.610,11.810972,-14.378471,-0.55513483,-0.03810269,-0.39202246,-4.002997,0.61875004,34.331253,20.118752,0.16439839,-0.7150466,0.6558003,998.4836, , , , 
2026-03-19 21:12:24.630,11.988042,-14.55554,0.6221339,-0.21708608,-0.26068655,-4.4196067,-1.725,33.600002,19.63125,0.19515114,-0.70889956,0.64675534,998.47894, , , , 
2026-03-19 21:12:24.650,9.82493,-14.907285,1.5098711,-0.15722132,-0.4555524,-4.816669,-4.93125,35.11875,20.34375,0.22832231,-0.7010036,0.6353683,998.47894, , , , 
2026-03-19 21:12:24.670,8.7984085,-14.940784,1.8520447,0.082848534,-0.6620247,-4.9858785,-7.5750003,33.73125,20.7,0.26346165,-0.69074714,0.62290883,998.49066, , , , 
2026-03-19 21:12:24.690,6.7836523,-14.237295,0.971486,0.30703592,-0.7279981,-4.981602,-12.056251,33.28125,20.8875,0.3005346,-0.677862,0.6099023,998.49066, , , , 
2026-03-19 21:12:24.710,4.792824,-13.485949,-0.8925229,0.24228424,0.14309508,-4.5955358,-14.212501,32.456253,17.1375,0.33474636,-0.6626622,0.59756464,998.4936, , , , 
2026-03-19 21:12:24.730,3.696911,-12.693924,-1.875973,0.019929463,1.1620176,-3.9834492,-18.900002,30.468752,19.44375,0.3635552,-0.64176977,0.5856002,998.4936, , , , 
2026-03-19 21:12:24.750,4.8047876,-12.093326,-1.4500505,-0.07903063,1.4179698,-3.5271332,-20.831251,30.16875,16.893751,0.3739949,-0.6291912,0.5801533,998.48724, , , , 
2026-03-19 21:12:24.770,5.948557,-11.624332,-1.1270195,-2.290743E-4,0.8883501,-3.442834,-24.150002,28.95,17.306252,0.3896228,-0.60904926,0.57074356,998.48724, , , , 
2026-03-19 21:12:24.790,5.113462,-11.150554,-1.18684,0.0730747,0.1913534,-3.4727662,-27.69375,26.831251,19.35,0.4053801,-0.59411645,0.5607328,998.4848, , , , 
2026-03-19 21:12:24.811,3.4480574,-10.466207,-0.79441714,0.0938441,-0.24724752,-3.4049604,-29.306252,25.181252,17.4375,0.42399183,-0.5806826,0.5481802,998.4848, , , , 
2026-03-19 21:12:24.830,1.4141582,-10.387243,-0.33020952,0.14332415,-0.42867437,-3.139234,-30.975,23.643751,19.10625,0.4434069,-0.5685195,0.5344143,998.48773, , , , 
2026-03-19 21:12:24.852,-0.3278167,-10.301102,-0.6939186,0.2917643,-0.56062114,-2.6279402,-32.4375,21.487501,20.15625,0.46155387,-0.55754125,0.52167875,998.48773, , , , 
2026-03-19 21:12:24.870,-0.8207382,-10.447063,-1.8592232,0.28382304,-0.7157808,-1.9798127,-31.44375,19.10625,19.25625,0.48156673,-0.5471997,0.5084006,998.48895, , , , 
2026-03-19 21:12:24.891,-0.8781659,-11.038091,-2.5435705,0.0297033,-0.50991935,-1.4343106,-33.28125,18.7875,19.931252,0.49363384,-0.5424304,0.49965563,998.48895, , , , 
2026-03-19 21:12:24.912,-0.9834501,-11.408978,-1.7084754,-0.2690096,-0.1989892,-0.8136719,-35.381252,16.44375,20.8875,0.5001313,-0.54046327,0.49309632,998.4819, , , , 
2026-03-19 21:12:24.930,-1.1485549,-12.155539,-0.6436693,-0.27145302,-0.16478078,-0.36835146,-34.10625,17.7,21.768751,0.50182956,-0.54092157,0.48914078,998.4819, , , , 
2026-03-19 21:12:24.950,-2.254039,-11.954542,-1.1676974,-0.18409938,-0.045051277,0.25656322,-35.34375,16.6875,22.275002,0.5006827,-0.5435311,0.48831904,998.488, , , , 
2026-03-19 21:12:24.970,-1.9788643,-11.219945,-1.5218352,-0.30199626,0.32696536,1.1123848,-34.987503,16.237501,21.956251,0.49481922,-0.54849774,0.49160898,998.488, , , , 
2026-03-19 21:12:24.990,-0.997807,-10.57149,-1.2658032,-0.38568476,0.46013388,1.7611232,-36.75,16.29375,22.125,0.48315403,-0.5560611,0.4988097,998.48285, , , , 
2026-03-19 21:12:25.011,0.45224348,-10.547563,-0.95473623,-0.38812822,0.3489565,2.2565346,-34.48125,16.650002,22.331251,0.46764112,-0.56624234,0.50830865,998.48285,37.88749928,127.73738671,173.593505859375,1.27
2026-03-19 21:12:25.030,1.8999012,-11.586047,-0.9212367,-0.3276526,0.07467822,2.6737552,-29.85,19.650002,18.28125,0.44559255,-0.5820057,0.5217364,998.4848, , , , 
2026-03-19 21:12:25.052,2.7349963,-12.193824,-0.34217364,-0.24701844,-0.29794928,2.985907,-30.806252,20.79375,19.237501,0.431886,-0.5930702,0.52991354,998.4848, , , , 
2026-03-19 21:12:25.070,4.4410787,-12.887743,-0.19381863,-0.030161448,-0.47693267,3.428173,-29.812502,22.875,19.800001,0.40888098,-0.6134434,0.5439356,998.4909, , , , 
2026-03-19 21:12:25.090,5.45085,-13.24188,-0.68195444,0.07063124,-0.24602579,3.7708683,-27.525002,23.475,21.375,0.38831267,-0.62943727,0.5569313,998.4909, , , , 
2026-03-19 21:12:25.111,6.3314085,-13.339986,-0.91884387,0.07185297,-0.1452331,4.014603,-25.500002,25.312502,19.518751,0.36446103,-0.64453703,0.57138,998.4836, , , , 
2026-03-19 21:12:25.130,6.876972,-13.280166,-0.4833502,0.11522437,-0.20143266,4.2852163,-22.29375,28.987501,20.98125,0.33853132,-0.6591875,0.5857355,998.4836, , , , 
2026-03-19 21:12:25.150,7.944171,-13.177275,-0.41635114,0.13599378,-0.084757484,4.525897,-21.862501,29.775002,21.50625,0.31076068,-0.6730685,0.59998226,998.4765, , , , 
2026-03-19 21:12:25.171,9.525827,-12.607782,-0.6412765,0.10789399,0.20295982,4.554608,-18.150002,28.425001,20.268751,0.27267838,-0.68820125,0.61737466,998.4765, , , , 
2026-03-19 21:12:25.190,10.4351,-12.421143,-1.0767702,-0.049709123,0.31474808,4.3792896,-13.500001,32.4,17.7,0.24092528,-0.69833434,0.62954277,998.47675, , , , 
2026-03-19 21:12:25.210,10.4159565,-12.399607,-0.94277215,-0.2512945,0.3752237,4.309651,-11.71875,33.54375,21.91875,0.20928569,-0.70775443,0.63893235,998.47675, , , , 
2026-03-19 21:12:25.230,11.353944,-11.712867,0.5455636,-0.3814087,0.39538223,4.3041534,-9.543751,34.143753,21.1875,0.17683837,-0.71680105,0.6459955,998.477, , , , 
2026-03-19 21:12:25.250,12.64846,-11.516655,0.8470592,-0.3331504,0.46318823,4.130057,-5.90625,34.893753,22.462502,0.14473063,-0.7244819,0.65170467,998.477, , , , 
2026-03-19 21:12:25.271,13.761123,-11.026127,-0.11246266,-0.41561714,0.75395983,3.812407,-4.425,35.1375,24.618752,0.113478646,-0.7302867,0.656322,998.4841, , , , 
2026-03-19 21:12:25.290,13.270595,-10.135997,-0.11485548,-0.5756637,1.195615,3.3939648,0.52500004,33.318752,21.88125,0.074997365,-0.7361578,0.65917736,998.4841, , , , 
2026-03-19 21:12:25.311,12.430714,-9.315259,0.28713873,-0.6605739,1.5187626,3.2192574,3.1125002,34.4625,20.775002,0.051572304,-0.7391123,0.6595371,998.4819, , , , 
2026-03-19 21:12:25.330,13.002598,-8.6141615,0.7465607,-0.58727014,1.444848,3.0518804,2.49375,33.6375,22.59375,0.012177843,-0.7428087,0.658937,998.4819, , , , 
2026-03-19 21:12:25.350,14.208581,-8.372486,0.5288138,-0.3398699,0.86025035,2.7788239,5.925,32.49375,22.29375,-0.015178448,-0.74421287,0.6586323,998.487, , , , 
2026-03-19 21:12:25.370,15.63231,-7.446464,-0.011964113,-0.11446079,0.32330018,2.3506076,6.7500005,32.4375,24.525002,-0.036012735,-0.74431795,0.6592427,998.487, , , , 
2026-03-19 21:12:25.390,16.689938,-7.0301127,-0.7968099,-0.0075594517,0.07467822,1.8710788,7.8,31.1625,25.25625,-0.05096565,-0.74361414,0.66042185,998.49115, , , , 
2026-03-19 21:12:25.410,16.965113,-6.920043,-0.4833502,0.029092435,-0.17516547,1.3628393,8.868751,31.275002,24.675001,-0.060568247,-0.7428782,0.661465,998.49115, , , , 
2026-03-19 21:12:25.431,17.840885,-6.9942207,0.22492532,0.17447825,-0.47510007,0.813061,9.712501,31.237501,25.81875,-0.0645765,-0.7420843,0.66274244,998.4831, , , , 
2026-03-19 21:12:25.451,18.587446,-7.3363943,0.14596218,0.36567894,-0.6827941,0.14782928,10.78125,29.868752,24.093752,-0.062327955,-0.7406522,0.6650407,998.4831, , , , 
2026-03-19 21:12:25.470,18.778872,-7.8173513,-0.4761717,0.40233082,-0.7768673,-0.686612,11.475,31.800001,23.75625,-0.050742045,-0.73832154,0.6686571,998.4904, , , , 
2026-03-19 21:12:25.490,18.3027,-8.10449,-0.14117654,0.2850448,-0.69623315,-1.5265511,11.71875,31.593752,23.268751,-0.035048574,-0.73710525,0.6704446,998.4904, , , , 
2026-03-19 21:12:25.510,15.8692,-9.540184,0.5383851,0.19219333,-0.4298961,-2.434907,10.5375,31.35,21.4125,-0.014553953,-0.7364199,0.6705595,998.48944, , , , 
2026-03-19 21:12:25.530,13.318451,-11.255837,0.85902333,0.24778202,-0.3999637,-2.9486444,8.418751,32.5125,21.5625,0.009146615,-0.73528457,0.66949064,998.48944, , , , 
2026-03-19 21:12:25.550,11.892328,-12.263216,0.8542377,0.35834855,-0.66507906,-3.2864525,6.5437503,34.162502,23.0625,0.035955362,-0.7329256,0.66803527,998.49384, , , , 
2026-03-19 21:12:25.570,11.397015,-12.976277,0.5814559,0.4163807,-1.0389283,-3.5882196,5.3625,35.41875,21.5625,0.06667186,-0.7293448,0.66608787,998.49384, , , , 
2026-03-19 21:12:25.591,11.566905,-13.9023,0.5694918,0.36384633,-1.3217586,-3.9296932,2.775,35.775,22.275002,0.110572375,-0.7237149,0.6616817,998.4965, , , , 
2026-03-19 21:12:25.610,11.629118,-14.455042,0.6891329,0.29115343,-1.3889538,-4.116007,-1.2,33.28125,20.0625,0.13876018,-0.7197718,0.65751183,998.4965, , , , 
2026-03-19 21:12:25.630,11.382657,-15.299708,1.0432707,0.16959134,-1.3345869,-4.4165525,-4.89375,34.0125,21.16875,0.18714307,-0.7120154,0.6477738,998.5009, , , , 
2026-03-19 21:12:25.650,8.965906,-15.553348,1.875973,0.20868668,-1.4940225,-4.6871653,-8.306251,33.881252,23.23125,0.22724171,-0.70404047,0.63767844,998.5009, , , , 
2026-03-19 21:12:25.670,7.2215385,-14.890535,1.6127625,0.2447277,-1.1519382,-4.5649924,-7.1062503,32.943752,17.925001,0.2672125,-0.6942043,0.6265707,998.5136, , , , 
2026-03-19 21:12:25.691,7.164111,-14.163117,0.83988076,0.23373213,-0.5215258,-4.430602,-12.50625,32.475002,20.831251,0.30261105,-0.68233776,0.6159078,998.5136, , , , 
2026-03-19 21:12:25.710,6.2883377,-13.287344,-0.25603202,0.18913901,0.33124143,-4.201528,-14.887501,31.500002,19.743752,0.33210257,-0.6683025,0.60636634,998.5129, , , , 
2026-03-19 21:12:25.730,5.910272,-12.27518,-1.7994026,0.05413789,0.95310175,-3.9284713,-16.25625,31.875002,18.6375,0.35948145,-0.6485441,0.5965572,998.5129, , , , 
2026-03-19 21:12:25.750,5.84088,-11.873186,-2.0961127,-0.14805835,0.87491107,-3.816683,-21.1875,28.612501,20.268751,0.37675026,-0.6327115,0.5883178,998.4985, , , , 
2026-03-19 21:12:25.770,5.3742795,-11.837294,-1.2083755,-0.24335326,0.27198756,-3.8050766,-23.38125,27.900002,19.9125,0.39450195,-0.6183845,0.577283,998.4985, , , , 
2026-03-19 21:12:25.790,4.615755,-12.224931,-0.3684947,-0.22747077,-0.38652468,-3.7922485,-26.025002,25.743752,20.475,0.4150797,-0.60581136,0.56304264,998.49164, , , , 
2026-03-19 21:12:25.811,2.8378878,-11.988042,0.11006984,-0.19448407,-0.74143714,-3.6688538,-25.66875,26.04375,19.95,0.437756,-0.59457695,0.5464956,998.49164, , , , 
2026-03-19 21:12:25.830,0.95473623,-11.643475,-0.49292147,-0.2543488,-0.47387835,-3.2827873,-26.025002,22.0125,19.9125,0.45932016,-0.5839638,0.5298489,998.4965, , , , 
2026-03-19 21:12:25.850,0.14356937,-11.877972,-1.0480564,-0.41561714,-0.06093376,-2.755611,-27.6,21.487501,19.800001,0.47586268,-0.57387567,0.51540583,998.4965, , , , 
2026-03-19 21:12:25.871,-0.37328035,-12.105289,-0.51445687,-0.5897136,0.030695954,-2.2009459,-31.81875,19.78125,23.737501,0.4868235,-0.5655946,0.5033211,998.4902, , , , 
2026-03-19 21:12:25.890,-0.5599205,-12.004791,1.119841,-0.5616138,0.11866048,-1.5827507,-31.556252,16.59375,21.5625,0.4946676,-0.5589064,0.49108282,998.4902, , , , 
2026-03-19 21:12:25.911,-0.930808,-11.870793,1.8520447,-0.2683987,0.08811724,-1.1435388,-33.7125,16.743752,21.6375,0.4979004,-0.5549204,0.48498732,998.50165, , , , 
2026-03-19 21:12:25.930,-1.4117653,-12.12204,0.95473623,0.0834594,-0.09575305,-0.70860314,-33.75,15.975,22.9125,0.5009161,-0.5519331,0.4819413,998.50165, , , , 
2026-03-19 21:12:25.950,-2.5028925,-11.447264,-0.8111669,0.2013563,-0.07987057,-0.12767074,-32.23125,16.78125,20.85,0.5031637,-0.55070555,0.48180646,998.498, , , , 
2026-03-19 21:12:25.970,-2.6488547,-11.167303,-2.2875385,0.03642281,0.12476913,0.7147118,-34.2,16.66875,23.38125,0.50166345,-0.5523664,0.4847935,998.498, , , , 
2026-03-19 21:12:25.990,-1.7108682,-11.55494,-2.0985055,-0.2323577,0.33796093,1.4734058,-33.61875,14.493751,23.456251,0.49427217,-0.5579388,0.49081314,998.4897, , , , 
2026-03-19 21:12:26.010,-0.4881358,-11.75833,-0.44745782,-0.29833108,0.41554075,2.194837,-31.612501,16.96875,20.94375,0.4807543,-0.5671556,0.49973756,998.4897,37.8875065,127.73739839,173.7037353515625,1.35
2026-03-19 21:12:26.030,2.1702902,-11.832508,0.2847459,-0.12056944,0.33857182,2.8392994,-32.9625,19.050001,22.03125,0.4581073,-0.58209383,0.5151771,998.4887, , , , 
2026-03-19 21:12:26.051,3.6801612,-12.095718,-0.031106694,0.05291616,0.26710063,3.1703882,-33.9375,18.581251,22.0125,0.44296253,-0.5917851,0.52622604,998.4887, , , , 
2026-03-19 21:12:26.071,4.4147577,-12.607782,-0.9619147,0.15309799,0.33429575,3.604713,-30.075,22.462502,21.69375,0.41566002,-0.6082282,0.5465693,998.4804, , , , 
2026-03-19 21:12:26.090,5.1469617,-12.993027,-1.2634103,0.0816268,0.38072148,4.1025677,-29.625002,23.25,22.06875,0.39014646,-0.6219409,0.564078,998.4804, , , , 
2026-03-19 21:12:26.110,6.3314085,-13.083954,-1.0911272,0.023594651,0.20906848,4.4660325,-26.56875,24.45,20.1375,0.3614734,-0.63673276,0.5814981,998.4804, , , , 
2026-03-19 21:12:26.130,9.315259,-12.153146,-0.49292147,0.05169443,-4.581486E-4,4.643794,-24.150002,26.212502,18.69375,0.33135355,-0.65213704,0.5978349,998.4694, , , , 
2026-03-19 21:12:26.151,10.420743,-11.145768,-0.3804588,0.06207913,0.06734784,4.447706,-18.525002,29.38125,19.48125,0.30164912,-0.66601104,0.6125722,998.466, , , , 
2026-03-19 21:12:26.170,9.482756,-10.887343,-0.94277215,-0.02649626,0.38072148,4.2473426,-19.237501,28.706251,17.737501,0.26484442,-0.6800053,0.6286536,998.466, , , , 
2026-03-19 21:12:26.190,8.303095,-11.174481,-1.9334008,-0.3154353,0.92439115,4.381122,-15.1125,30.35625,19.21875,0.2324356,-0.689763,0.6397943,998.4477, , , , 
2026-03-19 21:12:26.210,9.401401,-11.52862,-1.9716859,-0.772973,1.3067925,4.5332274,-12.4875,33.24375,19.3875,0.19431268,-0.6997997,0.6486757,998.4477, , , , 
2026-03-19 21:12:26.230,11.006984,-11.775081,-0.6771688,-1.1003965,1.2328779,4.4642,-8.71875,31.63125,20.625,0.15374026,-0.7105401,0.6538229,998.43964, , , , 
2026-03-19 21:12:26.250,12.602997,-11.559726,0.086141616,-1.2341759,1.0911572,4.1770935,-6.4500003,32.2125,22.987501,0.11439794,-0.72095186,0.6557626,998.43964, , , , 
2026-03-19 21:12:26.270,12.792029,-10.963913,0.7298109,-1.2592214,0.9408845,3.749488,-5.4,32.325,23.325,0.07848741,-0.73037666,0.6550532,998.43475, , , , 
2026-03-19 21:12:26.290,12.265609,-10.872986,0.53599226,-1.3129774,0.9818124,3.3872452,-2.5687501,30.487501,23.90625,0.0383483,-0.7405171,0.65162265,998.43475, , , , 
2026-03-19 21:12:26.310,11.794223,-10.51167,1.4787644,-1.2665517,1.0325142,3.2595744,0.65625,31.837502,22.25625,0.01524829,-0.7459313,0.6484638,998.4345, , , , 
2026-03-19 21:12:26.330,13.004992,-8.922835,2.2636101,-0.98066705,0.9524909,3.1013606,0.80625004,31.331251,24.900002,-0.02185882,-0.7525607,0.6436201,998.4345, , , , 
2026-03-19 21:12:26.350,14.785251,-7.891529,1.8903298,-0.7039453,0.83948094,2.624886,0.31875002,30.393751,25.312502,-0.047865525,-0.75525093,0.6409713,998.4421, , , , 
2026-03-19 21:12:26.370,14.6129675,-7.63789,2.0219352,-0.2702313,0.29825473,2.0256276,0.71250004,29.550001,27.16875,-0.06774903,-0.75616723,0.63951355,998.4421, , , , 
2026-03-19 21:12:26.390,15.014962,-7.5349984,0.9284152,0.16470441,-0.22953244,1.6542218,1.8000001,29.156252,27.54375,-0.08030862,-0.7550998,0.6408057,998.45087, , , , 
2026-03-19 21:12:26.411,16.031912,-7.515856,-0.76331043,0.29115343,-0.51602805,1.2516619,4.0687504,29.5125,27.900002,-0.086484656,-0.7527997,0.6441963,998.45087, , , , 
2026-03-19 21:12:26.430,16.13959,-6.9702926,-1.1581261,0.14393501,-0.5166389,0.71349007,4.59375,28.462502,27.45,-0.08771987,-0.7509684,0.6474792,998.4462, , , , 
2026-03-19 21:12:26.451,16.3358,-7.54457,-0.031106694,0.0712421,-0.4647154,0.08429934,6.0750003,29.250002,26.156252,-0.08501551,-0.7508245,0.64839476,998.4462, , , , 
2026-03-19 21:12:26.471,16.297516,-7.8221374,0.9762716,0.32352927,-0.65164,-0.3921752,6.1687503,26.75625,26.456251,-0.07790962,-0.7504167,0.64973664,998.43866, , , , 
2026-03-19 21:12:26.490,16.888542,-7.4512496,0.3397808,0.53549933,-0.88987726,-0.9663881,8.625,28.0125,25.35,-0.065549396,-0.74869615,0.65280193,998.43866, , , , 
2026-03-19 21:12:26.510,16.80958,-7.645068,0.09332009,0.5635991,-1.0713041,-1.7599014,4.36875,28.800001,27.150002,-0.046726756,-0.7467477,0.6559498,998.45013, , , , 
2026-03-19 21:12:26.530,15.029319,-10.059426,0.13160525,0.44325876,-1.3797908,-2.6407685,6.4875,30.525002,26.212502,-0.0208983,-0.74518234,0.6577802,998.45013, , , , 
2026-03-19 21:12:26.550,13.653446,-13.16531,1.0552348,0.36384633,-1.6583451,-3.2235334,4.18125,29.925001,24.937502,0.011480997,-0.74402255,0.6576246,998.46185, , , , 
2026-03-19 21:12:26.570,12.279965,-15.507884,1.8831514,0.38828093,-1.7218751,-3.5515678,4.40625,30.093752,22.125,0.048307125,-0.7421563,0.65602154,998.46185, , , , 
2026-03-19 21:12:26.590,11.614761,-15.967305,2.1702902,0.43653923,-1.4952443,-3.7659814,3.1312501,31.706251,22.1625,0.095880836,-0.73748267,0.6528815,998.48236, , , , 
2026-03-19 21:12:26.610,11.095519,-15.601204,1.7324036,0.41882417,-1.0884084,-3.9296932,1.9687501,30.975,21.712502,0.12369715,-0.73324853,0.65039325,998.48236, , , , 
2026-03-19 21:12:26.630,10.652846,-15.026926,1.0624132,0.33269224,-0.57894707,-4.0848527,-0.43125,32.9625,22.1625,0.1668115,-0.72410476,0.644892,998.49945, , , , 
2026-03-19 21:12:26.650,10.956735,-14.572289,0.9523434,0.31375542,-0.5410735,-4.4385433,-3.2250001,33.54375,21.6375,0.20010278,-0.71506363,0.6388865,998.49945, , , , 
2026-03-19 21:12:26.671,8.738588,-14.629718,0.5168497,0.24717116,-0.51724976,-4.759858,-8.887501,32.456253,23.38125,0.23558985,-0.7043201,0.6307144,998.50116, , , , 
2026-03-19 21:12:26.690,7.881958,-14.632111,0.7680961,0.20196716,-0.25824308,-4.793456,-10.89375,33.2625,20.925001,0.27034894,-0.69208676,0.620836,998.50116, , , , 
2026-03-19 21:12:26.711,7.190432,-14.423935,0.61016977,0.24228424,-0.07987057,-4.7635236,-14.625001,30.243752,23.643751,0.30292168,-0.67803425,0.6102941,998.50116, , , , 
2026-03-19 21:12:26.730,5.6877394,-13.954942,-1.4596218,0.14332415,0.32085672,-4.4892454,-16.95,30.0375,20.6625,0.33952415,-0.6583451,0.5969976,998.5063, , , , 
2026-03-19 21:12:26.752,5.7379885,-13.387843,-1.8065811,-0.10957387,0.5743656,-4.250397,-19.462502,29.79375,19.087502,0.36328894,-0.64262635,0.5858629,998.5046, , , , 
2026-03-19 21:12:26.770,5.3503513,-12.96192,-1.0648061,-0.20670137,0.47174034,-4.1325,-22.987501,27.16875,22.85625,0.38414252,-0.6273925,0.5735251,998.5046, , , , 
2026-03-19 21:12:26.790,3.8524444,-12.799209,-0.60059845,-0.18654284,0.0368046,-3.952295,-24.862501,26.38125,19.5375,0.40471074,-0.61269474,0.55985975,998.5004, , , , 
2026-03-19 21:12:26.810,2.6775684,-12.559926,-0.60777694,-0.18104506,-0.285732,-3.690845,-25.7625,22.44375,17.85,0.42566487,-0.59941787,0.54492015,998.5004, , , , 
2026-03-19 21:12:26.830,1.4189439,-11.937792,-0.2321038,-0.22197299,-0.35292712,-3.370141,-28.25625,20.41875,19.7625,0.44575003,-0.5877036,0.52936846,998.49774, , , , 
2026-03-19 21:12:26.850,0.3278167,-11.739188,-0.41635114,-0.20120358,-0.102472566,-2.9388704,-29.7,19.03125,19.6875,0.46310043,-0.57686174,0.51488155,998.49774, , , , 
2026-03-19 21:12:26.870,-1.1318051,-12.165111,-1.227518,-0.2635118,0.21578798,-2.3151774,-33.037502,16.44375,20.643751,0.47862998,-0.56424457,0.5009181,998.4948, , , , 
2026-03-19 21:12:26.891,-2.4358935,-12.172289,-0.85184485,-0.35086545,0.20479241,-1.7195843,-32.362503,14.55,18.525002,0.485822,-0.55654263,0.49276823,998.4948, , , , 
2026-03-19 21:12:26.910,-2.8713872,-12.279965,0.15314065,-0.26412266,-0.21670428,-1.188132,-33.16875,13.575001,20.362501,0.48947906,-0.5531536,0.48768818,998.4948, , , , 
2026-03-19 21:12:26.930,-1.6797615,-12.502499,-0.35413775,0.024205517,-0.5728384,-0.54733485,-32.8875,12.1125,20.8875,0.4954241,-0.5525391,0.48089093,998.4958, , , , 
2026-03-19 21:12:26.952,-3.022135,-12.134004,-2.036292,-0.11568252,0.03375028,0.010384701,-30.468752,13.106251,19.95,0.49811995,-0.5540329,0.4786831,998.498, , , , 
2026-03-19 21:12:26.970,-4.3836513,-11.052447,-1.2490535,-0.41867146,0.8187115,0.87475836,-32.100002,12.20625,18.9375,0.4930535,-0.5566541,0.4814,998.498, , , , 
2026-03-19 21:12:26.990,-2.6871397,-11.100305,-0.37328035,-0.46082112,1.1223114,1.6920954,-33.84375,13.762501,19.35,0.479143,-0.5613258,0.48992807,998.49286, , , , 
2026-03-19 21:12:27.010,-0.8757731,-11.102697,0.09810573,-0.33864817,0.947604,2.290132,-34.4625,14.962501,17.79375,0.4601325,-0.568343,0.502479,998.49286,37.88751311,127.73740956,174.00146484375,1.23
2026-03-19 21:12:27.030,0.44985065,-12.18186,-0.17228323,-0.1004109,0.21334453,2.795928,-35.41875,15.450001,20.34375,0.43532225,-0.5810035,0.520023,998.4914, , , , 
2026-03-19 21:12:27.053,1.7922242,-13.416556,-0.5694918,0.06635518,-0.3810269,3.3267696,-33.54375,16.650002,18.84375,0.41682178,-0.5951167,0.5339606,998.4914, , , , 
2026-03-19 21:12:27.070,4.2281175,-14.3689,-0.3062813,0.20196716,-0.5710059,3.8997607,-30.187502,20.118752,17.98125,0.39734796,-0.61171407,0.54860306,998.49164, , , , 
2026-03-19 21:12:27.091,5.771488,-14.732609,-0.30867413,0.3333031,-0.506865,4.286438,-27.31875,21.393751,19.143751,0.37530482,-0.6285526,0.56481534,998.49164, , , , 
2026-03-19 21:12:27.111,8.456235,-14.474184,-0.97866446,0.39255697,-0.40301803,4.621192,-25.5375,22.21875,18.300001,0.3503655,-0.6445093,0.58225584,998.4792, , , , 
2026-03-19 21:12:27.130,10.19821,-13.77548,-0.8063812,0.30581418,-0.2930624,4.6773915,-21.09375,23.79375,16.96875,0.32325754,-0.6593012,0.5991017,998.4792, , , , 
2026-03-19 21:12:27.150,10.688739,-12.952349,0.076570325,0.3180315,-0.21059564,4.585762,-21.993752,25.312502,18.993752,0.29508346,-0.6724106,0.61437404,998.4726, , , , 
2026-03-19 21:12:27.171,10.162318,-12.239287,0.0071784677,0.36934412,0.006872229,4.4745846,-14.85,29.2875,16.78125,0.25961685,-0.6853496,0.63196737,998.4726, , , , 
2026-03-19 21:12:27.190,9.743574,-11.988042,-1.134198,0.2532798,0.56337005,4.553997,-14.418751,30.187502,19.143751,0.2290508,-0.69325227,0.64522016,998.467, , , , 
2026-03-19 21:12:27.211,11.272588,-11.614761,-1.8592232,-0.07903063,1.123533,4.5704904,-11.175,30.7875,16.931252,0.20268469,-0.6985164,0.6542365,998.467, , , , 
2026-03-19 21:12:27.230,12.263216,-11.219945,-1.2107682,-0.4455495,1.2994621,4.254062,-8.418751,31.44375,17.0625,0.15544127,-0.7071051,0.66496605,998.4489, , , , 
2026-03-19 21:12:27.250,12.729816,-10.540383,-0.86141616,-0.6288089,1.1766783,3.952295,-8.606251,32.1375,19.81875,0.11886945,-0.7135854,0.669855,998.4489, , , , 
2026-03-19 21:12:27.270,12.906885,-9.729217,-0.18185452,-0.7412081,0.9757038,3.565007,-4.5,31.331251,17.8875,0.08552033,-0.71979535,0.67187005,998.4484, , , , 
2026-03-19 21:12:27.290,12.468999,-9.420543,0.526421,-0.7412081,0.84009176,3.22109,-0.52500004,32.86875,17.38125,0.048786614,-0.72667474,0.6717335,998.4484, , , , 
2026-03-19 21:12:27.310,13.201202,-8.922835,1.5026926,-0.60376346,0.5865829,3.018283,1.0875001,30.7875,19.03125,0.022758529,-0.73100924,0.67090255,998.45184, , , , 
2026-03-19 21:12:27.330,14.849857,-7.726424,2.1463618,-0.2635118,0.32757625,2.6450446,1.1812501,32.025,19.575,9.0210355E-4,-0.7333469,0.67097807,998.45184, , , , 
2026-03-19 21:12:27.350,14.96232,-7.420143,1.0983056,0.06818778,0.09728022,2.1649048,5.3625,31.087502,20.56875,-0.015601521,-0.73322356,0.6726914,998.4709, , , , 
2026-03-19 21:12:27.370,15.326029,-7.2861447,0.2321038,0.30947936,-0.28817546,1.7629558,4.2000003,30.337502,19.96875,-0.026883924,-0.7315907,0.6755807,998.4709, , , , 
2026-03-19 21:12:27.390,16.950756,-7.094719,-0.5599205,0.44325876,-0.4470003,1.3377938,7.89375,31.218752,20.15625,-0.033344578,-0.7290146,0.67932045,998.47845, , , , 
2026-03-19 21:12:27.411,17.50589,-7.1138616,-1.4979069,0.4004982,-0.46838057,0.77946347,6.8625,31.331251,22.725,-0.03534498,-0.72622913,0.68301153,998.47845, , , , 
2026-03-19 21:12:27.430,17.25943,-6.838687,-1.7180467,0.18669555,-0.344375,0.13988803,8.137501,29.400002,18.525002,-0.032540094,-0.7241203,0.6857847,998.46747, , , , 
2026-03-19 21:12:27.452,16.814365,-7.2933235,-0.7848458,0.106672265,-0.366977,-0.37690356,9.4875,31.650002,17.79375,-0.026754342,-0.72381115,0.68622017,998.46747, , , , 
2026-03-19 21:12:27.471,16.917255,-7.5349984,-0.57427746,0.28565565,-0.70845044,-0.8949169,9.543751,30.525002,18.618752,-0.01638371,-0.7232064,0.6868248,998.4777, , , , 
2026-03-19 21:12:27.490,16.778473,-7.793423,-1.4285151,0.34490952,-1.1391101,-1.5259402,6.58125,31.10625,17.8125,8.5137074E-4,-0.72182935,0.68800634,998.4777, , , , 
2026-03-19 21:12:27.511,15.988841,-8.755338,-1.4859428,0.17692171,-1.3150392,-2.2247696,6.80625,31.500002,18.243752,0.024764882,-0.72076964,0.68795377,998.47235, , , , 
2026-03-19 21:12:27.531,14.591433,-10.789237,-0.63888365,-0.12606722,-1.1812598,-2.9394813,6.0750003,31.5375,18.9375,0.05322611,-0.72050947,0.6853196,998.47235, , , , 
2026-03-19 21:12:27.550,13.2203455,-13.155739,0.40917268,-0.2775617,-0.963181,-3.4025168,4.1062503,30.993752,16.087502,0.08387433,-0.7204879,0.6801069,998.477, , , , 
2026-03-19 21:12:27.570,12.2991085,-14.543576,1.253839,-0.25618142,-0.8532254,-3.6932886,3.24375,31.781252,15.356251,0.11525092,-0.7194859,0.6734247,998.477, , , , 
2026-03-19 21:12:27.590,11.844472,-15.333207,1.5194423,-0.19081889,-0.8972076,-3.9590147,3.05625,30.88125,16.5,0.15592232,-0.7157997,0.6640319,998.49164, , , , 
2026-03-19 21:12:27.610,12.040684,-15.349957,1.4739788,-0.18165591,-0.7841977,-4.204582,-2.4750001,30.31875,16.5,0.18946922,-0.71086395,0.6554892,998.49164, , , , 
2026-03-19 21:12:27.631,11.602797,-15.189638,2.2564318,-0.108963005,-0.8532254,-4.6547894,-6.80625,29.98125,17.118752,0.22422306,-0.703838,0.64560235,998.5041, , , , 
2026-03-19 21:12:27.650,8.882157,-14.914464,1.847259,-0.04054615,-0.8013019,-4.787958,-7.9125004,30.243752,16.612501,0.26132178,-0.6942678,0.6343736,998.5041, , , , 
2026-03-19 21:12:27.670,8.60459,-13.969298,1.2466606,-0.0032833982,-0.41218102,-4.7488627,-9.9375,28.181252,16.48125,0.2960985,-0.6826882,0.62274426,998.5151, , , , 
2026-03-19 21:12:27.691,6.606583,-13.433307,-0.61734825,-0.19998185,0.61712617,-4.5332274,-14.118751,29.250002,16.087502,0.34079784,-0.6616808,0.60532796,998.5151, , , , 
2026-03-19 21:12:27.710,6.4941206,-13.024134,-0.6125626,-0.27328563,0.9989166,-4.401281,-16.050001,26.925001,15.95625,0.35194734,-0.6539761,0.5999601,998.5151, , , , 
2026-03-19 21:12:27.730,6.4151573,-12.21536,-0.5407779,-0.24640758,1.3330597,-4.1990843,-16.5,28.25625,15.150001,0.3741636,-0.6330316,0.5876518,998.5146, , , , 
2026-03-19 21:12:27.750,5.8480587,-11.897114,-1.18684,-0.17615813,0.9683734,-4.1343327,-19.3875,25.48125,14.531251,0.39069486,-0.61538166,0.57739305,998.5129, , , , 
2026-03-19 21:12:27.771,4.8454657,-11.9306135,-1.3567305,-0.21769693,0.45769045,-4.0445356,-20.400002,24.656252,12.375001,0.40884238,-0.59880984,0.5647944,998.5129, , , , 
2026-03-19 21:12:27.791,3.2422748,-11.854043,-0.6628119,-0.22136213,0.09728022,-3.7781987,-23.475,23.325,14.00625,0.42762977,-0.58390015,0.5501837,998.507, , , , 
2026-03-19 21:12:27.810,2.1942184,-11.779866,-0.08135597,-0.1871537,-0.0810923,-3.4776533,-26.85,22.837502,17.00625,0.4456836,-0.5705046,0.5351825,998.507, , , , 
2026-03-19 21:12:27.830,0.51445687,-11.514262,0.5240282,-0.037491824,-0.13362667,-2.9535313,-26.1375,20.41875,15.843751,0.46216732,-0.55840313,0.5211994,998.5119, , , , 
2026-03-19 21:12:27.851,-0.9164511,-11.437693,-0.10049855,0.07612903,-0.045051277,-2.349386,-28.875002,19.3875,17.8875,0.47598135,-0.5474311,0.5099902,998.5119, , , , 
2026-03-19 21:12:27.870,-1.4404793,-11.236695,-1.308874,0.109726585,-0.08353576,-1.6371176,-28.500002,18.31875,16.81875,0.48874626,-0.5367958,0.5003646,998.5163, , , , 
2026-03-19 21:12:27.890,-1.6630118,-11.136196,-1.4787644,0.024205517,-0.101250835,-1.0726786,-31.06875,17.681252,14.812501,0.4954005,-0.5317272,0.49527276,998.5163, , , , 
2026-03-19 21:12:27.911,-2.3377876,-10.887343,-0.91884387,-0.0075594517,-0.17760894,-0.5247328,-32.7,16.3875,17.53125,0.49916008,-0.5297914,0.4920353,998.5146, , , , 
2026-03-19 21:12:27.930,-2.8953154,-10.583454,-0.9451649,0.017486004,-0.08536835,0.07086031,-29.118752,16.518751,14.83125,0.50008714,-0.5306009,0.4913536,998.5146, , , , 
2026-03-19 21:12:27.950,-3.2470603,-9.846465,-1.119841,0.013820816,0.12415826,0.85704327,-30.750002,18.712502,16.575,0.49704516,-0.53364074,0.4944192,998.51776, , , , 
2026-03-19 21:12:27.971,-1.2442678,-10.100104,-1.7898313,3.8179048E-4,0.11133011,1.500284,-33.09375,17.325,17.98125,0.4898115,-0.5394141,0.5011451,998.51776, , , , 
2026-03-19 21:12:27.990,0.5982057,-11.322837,-2.5698915,-0.21586435,-0.025503604,2.0005822,-32.287502,18.4125,17.681252,0.47939312,-0.5485693,0.5096851,998.5207, , , , 
2026-03-19 21:12:28.010,2.7589245,-12.423535,-1.0193424,-0.5310706,-0.11713332,2.5247042,-32.475002,19.7625,18.09375,0.46147323,-0.5656711,0.5203413,998.5207,37.88751882,127.73742075,174.03692626953125,1.24
2026-03-19 21:12:28.030,4.2568316,-13.390236,1.0671989,-0.49991646,-0.099418245,2.940092,-29.94375,20.643751,18.075,0.44313973,-0.582048,0.529659,998.508, , , , 
2026-03-19 21:12:28.051,5.601598,-13.947763,1.39023,-0.22747077,0.04046979,3.3444846,-27.993752,22.331251,17.925001,0.42210817,-0.59820175,0.5417,998.508, , , , 
2026-03-19 21:12:28.070,6.4462643,-14.201403,0.19381863,-0.12728895,0.14126249,3.631591,-24.712502,24.0375,18.112501,0.4048277,-0.6096314,0.55252606,998.508, , , , 
2026-03-19 21:12:28.091,6.977471,-14.081761,-0.42592242,-0.2164752,0.14920372,3.9590147,-23.587502,25.050001,15.31875,0.37289584,-0.6286371,0.57124764,998.51337, , , , 
2026-03-19 21:12:28.110,7.6737823,-13.411771,0.7369894,-0.18409938,-0.13423753,4.218632,-20.493752,27.468752,16.5375,0.3453498,-0.64447993,0.58526474,998.50726, , , , 
2026-03-19 21:12:28.131,8.518449,-12.277573,0.96430755,0.11827869,-0.39385507,4.345692,-18.975,28.48125,17.71875,0.31167436,-0.66321117,0.60212034,998.50726, , , , 
2026-03-19 21:12:28.151,9.109476,-11.581262,-0.19381863,0.2361756,-0.31077746,4.3224792,-16.25625,28.143751,17.1375,0.29220623,-0.67277366,0.6122473,998.5004, , , , 
2026-03-19 21:12:28.170,8.690732,-11.243874,-1.18684,0.07063124,0.0074830935,4.381733,-12.918751,30.975,17.868752,0.2584279,-0.68651134,0.6278735,998.5004, , , , 
2026-03-19 21:12:28.190,10.238888,-11.174481,-1.713261,-0.20181446,0.56398094,4.67617,-9.918751,30.4125,16.2,0.22665569,-0.6968324,0.6389357,998.47943, , , , 
2026-03-19 21:12:28.211,13.718052,-10.112068,-0.48095736,-0.45226902,1.0086905,4.4525933,-6.2625003,31.181252,15.918751,0.19023073,-0.7065107,0.64800113,998.47943, , , , 
2026-03-19 21:12:28.230,13.741981,-9.288938,-0.3924229,-0.4993056,1.0844377,3.9467974,-2.2687502,31.218752,14.887501,0.15447943,-0.71418536,0.6546219,998.4628, , , , 
2026-03-19 21:12:28.251,12.937992,-8.860622,-0.8446664,-0.63919365,1.0929898,3.5442374,-1.9875001,30.712502,18.28125,0.12143972,-0.72035027,0.65891045,998.4628, , , , 
2026-03-19 21:12:28.270,11.68176,-7.9657063,0.1363909,-0.73326683,0.8981239,3.2986698,-0.20625001,30.900002,19.1625,0.090978935,-0.72625977,0.66062164,998.4587, , , , 
2026-03-19 21:12:28.290,12.502499,-7.4010005,0.70588267,-0.6275872,0.7020363,3.1361797,1.03125,30.525002,19.518751,0.056250546,-0.7327207,0.66115886,998.4587, , , , 
2026-03-19 21:12:28.310,14.277973,-7.2550383,0.89730847,-0.43944085,0.38927358,2.9174902,2.53125,29.41875,21.581251,0.037724998,-0.7355526,0.66149485,998.46136, , , , 
2026-03-19 21:12:28.331,16.55594,-6.762117,1.0624132,-0.0655916,0.053908817,2.4898849,4.1625004,30.093752,19.66875,0.013502637,-0.7378679,0.66321963,998.46136, , , , 
2026-03-19 21:12:28.350,18.11606,-6.1710896,0.27756742,0.14393501,0.03008509,1.9730933,5.3625,28.087502,20.2875,-2.274361E-4,-0.73738366,0.6659303,998.4599, , , , 
2026-03-19 21:12:28.371,18.58266,-6.9415784,0.3493521,0.19036074,-0.093309596,1.3390156,6.6937504,27.487501,20.94375,-0.009529201,-0.73611987,0.6685123,998.4599, , , , 
2026-03-19 21:12:28.391,19.968105,-6.95115,0.9762716,0.36995497,-0.47387835,0.74097896,7.6312504,28.44375,20.493752,-0.013224362,-0.73453474,0.671053,998.4677, , , , 
2026-03-19 21:12:28.410,20.52324,-6.5659056,-0.4331009,0.5843685,-0.3755291,-0.060475614,9.31875,29.625002,20.400002,-0.00984098,-0.7317765,0.67456216,998.4677, , , , 
2026-03-19 21:12:28.431,18.312271,-7.23111,-2.766103,0.39683303,0.2622137,-0.8484912,10.40625,29.75625,18.112501,-7.4242085E-4,-0.7276958,0.6780662,998.4704, , , , 
2026-03-19 21:12:28.450,16.790436,-7.7096744,-2.5818555,0.055970486,0.28542656,-1.3475677,9.5625,30.018751,19.893751,0.0075376015,-0.7260704,0.6777704,998.4704, , , , 
2026-03-19 21:12:28.470,16.309479,-8.166703,-0.5814559,-0.08697187,-0.33704466,-1.9462152,9.525001,30.525002,19.706251,0.021043843,-0.72621787,0.6749096,998.4516, , , , 
2026-03-19 21:12:28.491,14.627325,-9.554541,0.6867401,-0.09674571,-0.8446733,-2.674366,8.19375,31.125002,19.2,0.042739473,-0.72670466,0.67073935,998.4516, , , , 
2026-03-19 21:12:28.510,12.526426,-11.066805,1.7060826,-0.041157015,-0.796415,-3.0463827,6.24375,31.687502,19.050001,0.06968848,-0.7265264,0.66549325,998.4526, , , , 
2026-03-19 21:12:28.531,11.770294,-12.153146,2.103291,0.04741838,-0.7359393,-3.2473571,3.05625,31.85625,19.5375,0.09752318,-0.72466964,0.6600107,998.4526, , , , 
2026-03-19 21:12:28.550,12.320643,-13.296915,2.914458,0.17692171,-1.071915,-3.4910922,4.8,33.2625,20.19375,0.1268753,-0.721279,0.6542067,998.4799, , , , 
2026-03-19 21:12:28.570,12.777673,-14.0602255,3.8117664,0.4823541,-1.668119,-3.8472264,0.93750006,32.362503,20.6625,0.16081677,-0.7161326,0.6479921,998.4799, , , , 
2026-03-19 21:12:28.591,10.918449,-14.500505,3.3810585,0.8678098,-2.2441645,-4.3444705,-2.25,32.41875,19.29375,0.21223062,-0.70561665,0.63984966,998.50336, , , , 
2026-03-19 21:12:28.611,8.346166,-14.47897,1.4093726,0.84520775,-2.0547965,-4.291936,-4.65,34.40625,20.5125,0.24597016,-0.6973781,0.6342534,998.50336, , , , 
2026-03-19 21:12:28.630,7.223932,-13.189239,0.22253251,0.6252965,-1.2912154,-3.9107563,-7.55625,33.0,19.5,0.29540077,-0.6826495,0.62408596,998.518, , , , 
2026-03-19 21:12:28.651,8.427522,-12.064611,-0.87338024,0.28137958,-0.4091267,-3.700008,-12.093751,34.518753,20.212502,0.32606226,-0.6705421,0.61608416,998.518, , , , 
2026-03-19 21:12:28.672,8.350951,-11.471191,-1.134198,-0.23968807,0.7649554,-3.7067275,-15.1125,31.85625,19.44375,0.35410908,-0.6548443,0.6055358,998.52606, , , , 
2026-03-19 21:12:28.690,7.7096744,-11.375479,-0.32303107,-0.39790204,1.2957969,-3.6938994,-16.03125,32.268753,18.431252,0.366027,-0.64468896,0.5991479,998.52606, , , , 
2026-03-19 21:12:28.710,7.623533,-11.420942,0.2440679,-0.28489205,1.0667226,-3.7549858,-17.4375,30.900002,15.262501,0.38276863,-0.62610584,0.5884982,998.5246, , , , 
2026-03-19 21:12:28.730,6.9894347,-11.533405,0.36370903,-0.09613484,0.47784898,-3.8557785,-22.5,28.500002,18.243752,0.39476115,-0.614516,0.5809734,998.5246, , , , 
2026-03-19 21:12:28.750,4.948357,-11.282159,0.0023928226,0.11033745,-0.21364996,-3.9125888,-26.250002,26.737501,19.2,0.42039424,-0.59535635,0.5654817,998.52264, , , , 
2026-03-19 21:12:28.771,2.8235307,-10.997413,-0.64606214,0.03214676,-0.30955574,-3.740325,-28.29375,24.656252,19.987501,0.4430436,-0.5808079,0.5510683,998.52264, , , , 
2026-03-19 21:12:28.790,1.0193424,-10.817951,0.047856454,-0.05948296,-0.032223117,-3.342652,-29.1375,23.325,20.15625,0.46278405,-0.5670672,0.536797,998.5202, , , , 
2026-03-19 21:12:28.811,-0.19381863,-10.796415,-0.19621146,9.926553E-4,0.21334453,-2.8405213,-29.60625,23.04375,18.056252,0.4783006,-0.55362606,0.5248728,998.5202, , , , 
2026-03-19 21:12:28.830,-0.7848458,-10.762917,-1.2370893,-0.046654798,0.4271472,-2.2302673,-32.04375,21.393751,21.65625,0.48957264,-0.54119736,0.5161296,998.5236, , , , 
2026-03-19 21:12:28.850,-0.22731815,-11.090733,-1.4069797,-0.102854356,0.39538223,-1.612683,-33.5625,18.88125,20.56875,0.49648008,-0.53137875,0.5100895,998.5236, , , , 
2026-03-19 21:12:28.871,-0.58624154,-10.849058,-1.8640088,-0.17554727,0.37033677,-1.1056652,-33.0,17.831251,18.4125,0.500947,-0.5233968,0.50519025,998.51556, , , , 
2026-03-19 21:12:28.890,-2.0745773,-10.554741,-1.8329022,-0.28305948,0.319635,-0.6035344,-35.53125,17.0625,19.800001,0.5015931,-0.51999694,0.50284857,998.51556, , , , 
2026-03-19 21:12:28.911,-3.1369905,-11.210374,-1.6366907,-0.35636324,0.16264275,0.12034036,-36.600002,16.95,21.0,0.4993208,-0.52039254,0.50221616,998.50555, , , , 
2026-03-19 21:12:28.930,-2.3353949,-10.992627,-0.8039884,-0.43027788,1.527162E-4,1.0024291,-36.45,16.10625,19.95,0.4932715,-0.52590144,0.50425994,998.50555, , , , 
2026-03-19 21:12:28.950,0.31106696,-11.090733,0.18424734,-0.34658942,-0.059712034,1.7910556,-37.143753,16.40625,20.475,0.48340368,-0.5357747,0.5094254,998.5002, , , , 
2026-03-19 21:12:28.970,1.9621146,-11.016556,0.33260235,-0.21891867,0.07589995,2.2534802,-35.025,18.862501,20.1,0.4704447,-0.5475786,0.5178854,998.5002, , , , 
2026-03-19 21:12:28.991,2.8019953,-11.272588,0.033499517,-0.09063706,0.08506292,2.5876231,-35.4,19.3125,21.35625,0.4550879,-0.55975634,0.52904963,998.50165, , , , 
2026-03-19 21:12:29.010,3.2542388,-11.952149,-0.32063824,0.03642281,-0.1886045,3.0317218,-33.35625,20.53125,19.837502,0.43416715,-0.5762372,0.54492,998.50165,37.8875245,127.73743181,174.990478515625,1.23
2026-03-19 21:12:29.030,4.316652,-12.497713,-0.96430755,0.059635673,-0.34620762,3.4532187,-29.906252,22.25625,17.681252,0.4162726,-0.5913842,0.55828124,998.50116, , , , 
2026-03-19 21:12:29.051,5.1589255,-12.839887,-0.44745782,0.04619665,-0.31505352,3.8429503,-28.593752,25.25625,18.75,0.39588767,-0.60773015,0.5720599,998.50116, , , , 
2026-03-19 21:12:29.071,6.1902323,-13.040883,-0.15553348,0.16287182,-0.2961167,4.269334,-27.375002,26.98125,19.7625,0.37254867,-0.6240286,0.58682406,998.49066, , , , 
2026-03-19 21:12:29.091,7.5996046,-12.758531,-0.55752766,0.23312128,-0.3291034,4.5234537,-22.893751,28.706251,18.2625,0.34716284,-0.63971627,0.6021752,998.49066, , , , 
2026-03-19 21:12:29.110,8.922835,-12.201003,-1.1653047,0.07857248,0.11988221,4.6059203,-18.993752,29.118752,16.7625,0.31968334,-0.6543348,0.61701775,998.4853, , , , 
2026-03-19 21:12:29.130,9.734002,-11.68176,-0.31345975,-0.14072797,0.43142325,4.5301733,-18.393751,31.406252,17.79375,0.2882903,-0.6673575,0.63059735,998.4853, , , , 
2026-03-19 21:12:29.150,10.748559,-11.229517,0.49292147,-0.050319985,-0.07925971,4.327977,-13.556251,33.525,16.85625,0.24957724,-0.6818721,0.6444635,998.4797, , , , 
2026-03-19 21:12:29.171,11.033305,-10.949556,-0.7082755,-0.16394083,0.3019199,4.137998,-12.150001,32.662502,19.087502,0.22154734,-0.69166553,0.65333915,998.4797, , , , 
2026-03-19 21:12:29.190,11.600404,-10.432707,-0.9834501,-0.5493965,1.0881029,4.0005536,-8.587501,33.65625,18.65625,0.1897997,-0.7004174,0.66026443,998.4882, , , , 
2026-03-19 21:12:29.210,11.660225,-10.234102,0.23928227,-0.76686436,1.3703225,3.8008006,-3.4125001,35.175003,17.550001,0.15473172,-0.7087417,0.66457415,998.4882, , , , 
2026-03-19 21:12:29.230,12.169896,-9.985249,0.33499518,-0.76197743,1.0850486,3.5301876,-5.7000003,33.675003,21.581251,0.12069838,-0.71605814,0.6670836,998.4714, , , , 
2026-03-19 21:12:29.251,12.540784,-9.305687,0.30867413,-0.7900772,0.77595097,3.225977,-0.35625002,34.706253,22.050001,0.090614215,-0.72263813,0.66788846,998.4714, , , , 
2026-03-19 21:12:29.271,12.569497,-8.650054,1.1030912,-0.68256503,0.5505419,2.9352052,0.09375,32.643753,21.975,0.05846657,-0.7298947,0.66709936,998.47235, , , , 
2026-03-19 21:12:29.291,13.354343,-8.269595,1.1796615,-0.44493863,0.48884454,2.7727153,0.31875002,33.768753,22.96875,0.04137783,-0.73299426,0.6668565,998.47235, , , , 
2026-03-19 21:12:29.312,15.608382,-7.463214,-0.42592242,-0.19753839,0.37094763,2.3817618,3.825,33.018753,22.95,0.015976496,-0.7354526,0.6678002,998.47406, , , , 
2026-03-19 21:12:29.330,16.821543,-6.704689,-0.9212367,-0.15599959,0.037415467,1.9761475,5.7375,31.593752,22.987501,6.0360966E-4,-0.73645365,0.6684949,998.47406, , , , 
2026-03-19 21:12:29.350,17.833708,-6.2237315,-0.94755775,-0.14622575,-0.27962336,1.3225223,8.34375,31.500002,22.556252,-0.00836222,-0.737492,0.6686394,998.4711, , , , 
2026-03-19 21:12:29.371,18.015562,-6.439086,-0.87338024,-0.23846634,-0.10674862,0.68905544,6.3562503,31.143751,24.487501,-0.011993378,-0.7387803,0.66795844,998.4711, , , , 
2026-03-19 21:12:29.391,17.374285,-7.164111,0.11246266,-0.29955283,0.17669263,0.11117739,7.6312504,31.425001,21.243752,-0.012935525,-0.740489,0.6660488,998.4687, , , , 
2026-03-19 21:12:29.411,16.80958,-7.759924,1.2969099,-0.06436988,-0.00962112,-0.43249226,8.231251,30.862501,21.993752,-0.009970363,-0.7419361,0.6636714,998.4687, , , , 
2026-03-19 21:12:29.430,16.788044,-7.745567,1.4117653,0.23128867,-0.48792824,-0.97371846,7.36875,31.0125,23.306252,-0.0012519811,-0.7413336,0.6635663,998.4716, , , , 
2026-03-19 21:12:29.450,16.622938,-7.719246,1.2586247,0.4231002,-0.92347485,-1.6682717,7.33125,30.2625,24.581251,0.0151358,-0.73940796,0.66459346,998.4716, , , , 
2026-03-19 21:12:29.470,15.440885,-9.408579,0.9738788,0.45547605,-1.0951278,-2.41597,7.36875,31.650002,22.35,0.038870238,-0.73661995,0.6653477,998.4831, , , , 
2026-03-19 21:12:29.490,13.246666,-11.487942,1.3040884,0.44020444,-1.0664172,-2.9235988,4.21875,32.8125,22.9125,0.06721321,-0.73315,0.66487074,998.4831, , , , 
2026-03-19 21:12:29.510,12.8686,-12.394821,1.6366907,0.49579313,-1.035874,-3.1337364,6.4875,32.193752,20.25,0.097164385,-0.72856593,0.6635695,998.4875, , , , 
2026-03-19 21:12:29.531,12.940385,-13.088739,1.1030912,0.6112466,-1.0438151,-3.4593272,3.45,34.10625,22.612501,0.12851955,-0.7223136,0.6618763,998.4875, , , , 
2026-03-19 21:12:29.550,12.409178,-13.2921295,-0.6939186,0.541608,-1.0603086,-3.731773,-0.82500005,35.287502,21.75,0.16168112,-0.71452457,0.6592266,998.5024, , , , 
2026-03-19 21:12:29.570,11.808579,-12.997812,-1.5840486,0.12194388,-0.98700476,-4.0445356,-2.325,35.1375,21.91875,0.20458317,-0.7048834,0.6517736,998.5024, , , , 
2026-03-19 21:12:29.590,10.535598,-13.098311,-1.0695918,-0.3502546,-0.6235402,-4.3841767,-7.0125003,35.15625,21.956251,0.23852693,-0.6979917,0.64108765,998.4931, , , , 
2026-03-19 21:12:29.614,7.812566,-13.4763775,1.4524434,-0.5842158,0.14920372,-4.4379325,-7.7812505,34.8375,20.6625,0.27624547,-0.68870515,0.6240443,998.4931, , , , 
2026-03-19 21:12:29.631,7.233503,-13.191631,2.495714,-0.3832413,0.37827802,-4.403724,-12.975,33.80625,20.962502,0.2953773,-0.68117315,0.6145066,998.5151, , , , 
2026-03-19 21:12:29.650,6.1304116,-12.870993,1.6630118,-0.010613776,0.42042768,-4.2064147,-17.493752,32.5875,21.956251,0.31971693,-0.66829604,0.6034955,998.5151, , , , 
2026-03-19 21:12:29.670,6.1878395,-12.35175,0.06699903,0.12316561,0.37216938,-3.9474082,-18.300001,30.750002,22.143751,0.342576,-0.65373355,0.593849,998.5153, , , , 
2026-03-19 21:12:29.690,6.652047,-12.224931,-0.3804588,0.10483967,0.12904519,-3.7922485,-20.79375,30.6375,20.41875,0.3644352,-0.6392382,0.58397156,998.5153, , , , 
2026-03-19 21:12:29.710,6.4343,-11.944971,0.13160525,0.12011129,-0.20143266,-3.7574294,-25.35,29.175001,21.581251,0.38657597,-0.6254091,0.5726795,998.51337, , , , 
2026-03-19 21:12:29.730,5.5776696,-12.062219,0.5694918,0.18364123,-0.47876528,-3.7122252,-24.806252,28.10625,20.5125,0.41570154,-0.6085302,0.5565903,998.51337, , , , 
2026-03-19 21:12:29.750,4.0127635,-11.875579,0.782453,0.2917643,-0.5038107,-3.5491245,-27.31875,26.60625,20.7,0.4390981,-0.5948746,0.54327434,998.51434, , , , 
2026-03-19 21:12:29.771,2.1128623,-10.980663,0.09332009,0.42004588,-0.33887723,-3.1673338,-27.375002,23.362501,20.587502,0.4607617,-0.5808352,0.5313287,998.51434, , , , 
2026-03-19 21:12:29.790,0.64606214,-10.719846,-1.1700903,0.39805475,-0.14584397,-2.724457,-29.325,22.5375,21.300001,0.47937125,-0.5670047,0.5215042,998.51215, , , , 
2026-03-19 21:12:29.810,-0.27038896,-10.892129,-1.6295122,0.31314456,-0.075594515,-2.2198827,-31.837502,20.925001,20.737501,0.49410772,-0.5549128,0.5136004,998.51215, , , , 
2026-03-19 21:12:29.830,-0.5312066,-10.078569,-1.5601203,0.2410625,0.023365578,-1.5864159,-31.95,18.91875,20.868752,0.5047889,-0.5456265,0.50775135,998.5007, , , , 
2026-03-19 21:12:29.850,-1.4548361,-9.698111,-2.4335005,0.1042288,0.29092434,-0.9798271,-35.287502,17.7,22.368752,0.5141603,-0.5354382,0.5032219,998.5007, , , , 
2026-03-19 21:12:29.870,-2.213361,-10.183853,-3.0317063,-0.06620247,0.45707956,-0.5674934,-33.581253,17.38125,21.581251,0.5154981,-0.5321845,0.50274193,998.4936, , , , 
2026-03-19 21:12:29.890,-2.7086751,-11.4903345,-3.318845,-0.42783442,0.53160506,0.14172062,-33.206253,17.681252,19.368752,0.5126011,-0.53139144,0.5038707,998.4936, , , , 
2026-03-19 21:12:29.911,-2.3712873,-11.167303,-1.2514462,-0.66668254,0.46440995,0.99815303,-34.0875,17.7,20.7,0.50398695,-0.53618705,0.506756,998.48846, , , , 
2026-03-19 21:12:29.931,-0.22253251,-10.767702,0.0071784677,-0.5982657,0.44364056,1.7855577,-34.95,17.75625,19.85625,0.49067163,-0.5452276,0.5125762,998.48846, , , , 
2026-03-19 21:12:29.950,1.7204394,-10.234102,0.5072784,-0.44677123,0.46074477,2.227213,-34.03125,17.962502,20.212502,0.47431958,-0.55626315,0.5213954,998.4941, , , , 
2026-03-19 21:12:29.970,3.117848,-10.810773,0.1052842,-0.25923574,0.3752237,2.447735,-33.24375,20.400002,20.456251,0.4565289,-0.5676651,0.5323118,998.4941, , , , 
2026-03-19 21:12:29.990,3.3236306,-11.894721,-1.0145568,-0.1523344,0.16814053,2.7452264,-31.087502,21.618752,20.00625,0.43414596,-0.5825252,0.54701513,998.4875, , , , 
2026-03-19 21:12:30.010,3.7016966,-12.835101,-1.7300107,-0.22380558,-4.581486E-4,3.0891433,-30.206251,22.237501,17.7,0.41996935,-0.5926327,0.5559688,998.4875,37.88753029,127.73744251,175.26129150390625,1.22
2026-03-19 21:12:30.030,4.429115,-13.447663,-0.95712906,-0.3343721,-0.17150028,3.5717263,-30.50625,23.79375,20.268751,0.39351982,-0.6124193,0.5704164,998.4704, , , , 
2026-03-19 21:12:30.050,5.4987063,-13.406985,-0.0741775,-0.2769508,-0.1800524,3.9639015,-26.00625,26.400002,18.112501,0.3695368,-0.62960947,0.5821801,998.4704, , , , 
2026-03-19 21:12:30.071,7.1138616,-12.909278,0.076570325,-0.22624904,0.054519683,4.277886,-23.1,27.581251,16.650002,0.34250006,-0.64607114,0.59502864,998.4714, , , , 
2026-03-19 21:12:30.090,9.253045,-11.722438,0.5312066,-0.18959716,0.38805184,4.326144,-22.44375,28.125002,19.181252,0.31246078,-0.66072,0.6083916,998.4714, , , , 
2026-03-19 21:12:30.110,9.710074,-10.887343,0.6628119,-0.1419497,0.57558733,4.155713,-20.23125,29.812502,21.487501,0.28116727,-0.672601,0.6213787,998.46967, , , , 
2026-03-19 21:12:30.131,8.2049885,-10.547563,0.23688944,-0.09674571,0.6189587,4.02621,-17.268751,30.6375,19.893751,0.24263398,-0.6841078,0.6361801,998.46967, , , , 
2026-03-19 21:12:30.150,8.508878,-10.971092,-0.72263247,-0.19998185,0.69714946,4.2467318,-15.3,32.325,19.125,0.21080406,-0.692202,0.64694357,998.46747, , , , 
2026-03-19 21:12:30.171,11.150554,-10.920842,-0.2416751,-0.37835437,0.69165164,4.246121,-12.6,34.10625,19.35,0.17715128,-0.7003903,0.65575427,998.46747, , , , 
2026-03-19 21:12:30.190,12.313465,-10.423136,0.67477596,-0.39973465,0.44669488,3.924806,-10.725,34.143753,21.9375,0.14530207,-0.7078493,0.66210175,998.4643, , , , 
2026-03-19 21:12:30.210,13.299308,-9.664611,0.96909314,-0.31665704,-0.09025527,3.5863872,-7.8562503,33.825,21.65625,0.11809502,-0.71408147,0.66673636,998.4643, , , , 
2026-03-19 21:12:30.230,14.780465,-8.987442,1.5266209,-0.1749364,-0.41034842,3.1874924,-4.9500003,33.0,21.69375,0.096411645,-0.7192724,0.6700892,998.46136, , , , 
2026-03-19 21:12:30.250,14.634503,-8.097312,1.294517,0.102396205,-0.5270236,2.6798637,-3.8625002,33.35625,22.35,0.07654015,-0.722963,0.6741201,998.46136, , , , 
2026-03-19 21:12:30.270,14.050654,-7.2933235,0.04546363,0.21479532,-0.35353798,2.4385722,0.6,34.3125,20.8875,0.06704517,-0.72358394,0.67696136,998.46234, , , , 
2026-03-19 21:12:30.290,14.122439,-6.6257257,-1.0360922,0.052305296,0.2206749,2.2302673,2.7,33.787502,20.85,0.05028075,-0.7238916,0.6809082,998.46234, , , , 
2026-03-19 21:12:30.311,15.010177,-6.515656,-0.6939186,0.013820816,0.36911505,2.0341797,3.91875,33.300003,20.456251,0.039004367,-0.7242534,0.68227935,998.45355, , , , 
2026-03-19 21:12:30.330,17.405392,-6.513263,-1.7180467,0.16714787,0.0386372,1.5430444,4.7625003,32.49375,21.7875,0.023732692,-0.7239786,0.6845273,998.45355, , , , 
2026-03-19 21:12:30.350,17.855242,-6.1902323,-3.2350962,-0.0063377223,0.014813471,0.89247346,4.7250004,33.0,21.300001,0.017944224,-0.72364825,0.68567353,998.44354, , , , 
2026-03-19 21:12:30.370,17.044075,-6.6975107,-2.8091738,-0.41683885,0.2689332,0.29382595,6.8625,32.71875,21.243752,0.015537426,-0.7253198,0.68397975,998.44354, , , , 
2026-03-19 21:12:30.390,16.4028,-7.8460655,-0.2656033,-0.57199854,0.3593412,-0.23335035,8.25,31.612501,21.018751,0.015097556,-0.72876716,0.6797592,998.4484, , , , 
2026-03-19 21:12:30.410,16.187445,-7.982456,1.2897314,-0.37041312,0.11133011,-0.7147118,7.7812505,33.037502,23.456251,0.01940247,-0.7321329,0.6747925,998.4484, , , , 
2026-03-19 21:12:30.431,16.64926,-8.2456665,2.1631117,0.01809687,-0.534354,-1.5699224,6.6000004,32.30625,22.837502,0.030299867,-0.73280853,0.6724301,998.4721, , , , 
2026-03-19 21:12:30.450,15.510277,-9.437292,2.0338993,0.2325104,-1.0047199,-2.240652,6.5062504,33.91875,21.993752,0.050243266,-0.7315034,0.671177,998.4721, , , , 
2026-03-19 21:12:30.470,13.964513,-10.913664,1.9980069,0.34613127,-1.3370303,-2.7366743,7.18125,33.506252,20.25,0.07040736,-0.72950447,0.670285,998.4721, , , , 
2026-03-19 21:12:30.490,12.459428,-12.459428,2.2420747,0.4841867,-1.4011711,-3.12213,2.9437501,33.581253,20.23125,0.109532095,-0.7242405,0.66831774,998.4875, , , , 
2026-03-19 21:12:30.510,12.047862,-13.205988,1.8233309,0.57398385,-1.3498584,-3.3493717,0.91875005,34.36875,20.081251,0.14254852,-0.7179283,0.66648555,998.49384, , , , 
2026-03-19 21:12:30.530,12.356536,-13.440485,0.8662018,0.54893833,-1.3315325,-3.6694648,-0.5625,35.7,20.00625,0.17664534,-0.71011364,0.6637624,998.49384, , , , 
2026-03-19 21:12:30.550,12.610175,-13.622339,0.39960137,0.39133525,-1.4085015,-4.0634727,-2.5875,35.11875,20.1,0.22169358,-0.69907457,0.6572396,998.49384, , , , 
2026-03-19 21:12:30.571,11.41855,-13.875978,0.8039884,0.25755587,-1.6381866,-4.4483175,-5.9625,35.775,19.181252,0.25090104,-0.691886,0.65091866,998.49384, , , , 
2026-03-19 21:12:30.590,10.695917,-13.454842,1.1509477,0.22579089,-1.645517,-4.6016445,-8.418751,34.518753,19.96875,0.30159146,-0.6784542,0.6371814,998.5024, , , , 
2026-03-19 21:12:30.611,10.396814,-13.24188,0.023928227,0.10911572,-1.279609,-4.7403107,-11.025001,34.65,18.69375,0.33134955,-0.669018,0.62789476,998.5024, , , , 
2026-03-19 21:12:30.631,8.583055,-12.832707,-1.0289137,-0.2286925,-0.3016145,-4.7580256,-13.6125,33.2625,17.6625,0.37541872,-0.6513614,0.6110983,998.4982, , , , 
2026-03-19 21:12:30.650,6.91765,-12.248859,-1.5529419,-0.5164098,0.6006328,-4.53506,-18.525002,31.743752,20.8875,0.40236503,-0.63591516,0.59801495,998.4982, , , , 
2026-03-19 21:12:30.670,6.4558353,-12.0023985,-1.3710874,-0.7057779,1.0257946,-4.3395834,-19.66875,31.743752,20.081251,0.42252487,-0.6198945,0.5855535,998.48846, , , , 
2026-03-19 21:12:30.691,5.4149575,-12.19861,-0.2847459,-0.6813433,1.0899355,-4.1538806,-23.1375,29.04375,18.73125,0.43860167,-0.6034594,0.57317007,998.48846, , , , 
2026-03-19 21:12:30.710,4.2161536,-11.648261,-0.069391854,-0.52251846,1.0929898,-3.8417287,-25.95,27.393751,18.206251,0.45576024,-0.5821878,0.5585818,998.4858, , , , 
2026-03-19 21:12:30.730,3.278167,-11.179267,0.22253251,-0.40339983,1.1143701,-3.5534005,-30.4125,25.800001,20.925001,0.4672821,-0.5648933,0.54812515,998.4858, , , , 
2026-03-19 21:12:30.750,2.1511476,-10.777273,0.86859465,-0.15172353,0.7313579,-3.2357507,-31.893751,23.41875,19.66875,0.47786522,-0.54792446,0.53855115,998.4897, , , , 
2026-03-19 21:12:30.770,1.4356936,-10.212567,0.57427746,0.20563236,-0.12140937,-2.8893905,-35.175003,20.212502,19.575,0.49070024,-0.5329133,0.52871263,998.4897, , , , 
2026-03-19 21:12:30.790,1.0504491,-9.489935,-0.80877405,0.3577377,-0.8672753,-2.5014913,-34.162502,18.6,18.018751,0.50703716,-0.52128804,0.51739156,998.4941, , , , 
2026-03-19 21:12:30.810,0.57427746,-9.487542,-0.9451649,0.29054257,-1.0786345,-2.0977097,-34.818752,18.375,19.800001,0.5241078,-0.51312715,0.5049477,998.4941, , , , 
2026-03-19 21:12:30.831,-0.29671,-9.781859,-0.8925229,0.2551124,-1.0199915,-1.6096287,-36.881252,16.181252,20.1375,0.53916043,-0.5077827,0.4932615,998.49164, , , , 
2026-03-19 21:12:30.850,-1.605584,-9.949356,-2.103291,0.09262237,-0.5337431,-0.8918626,-37.55625,16.59375,22.050001,0.55057055,-0.50456405,0.48437208,998.49164, , , , 
2026-03-19 21:12:30.870,-2.926422,-9.942178,-2.8881369,-0.3001637,0.09300416,-0.040317077,-37.275,15.13125,21.7875,0.55525887,-0.5042129,0.4796761,998.4821, , , , 
2026-03-19 21:12:30.891,-2.7684958,-9.614362,-2.333002,-0.53840095,0.4308124,0.5406153,-35.60625,15.3,20.98125,0.5532982,-0.505787,0.4800264,998.4821, , , , 
2026-03-19 21:12:30.915,0.14117654,-9.846465,0.076570325,-0.63369584,0.85597426,1.7037019,-36.91875,15.4125,21.73125,0.5318917,-0.51801085,0.49098635,998.47943, , , , 
2026-03-19 21:12:30.930,1.39023,-10.258031,0.2847459,-0.45471248,0.69104075,2.087936,-36.881252,16.181252,20.456251,0.51916474,-0.52529716,0.49903262,998.47943, , , , 
2026-03-19 21:12:30.950,2.3808584,-11.284552,-0.40438703,-0.2690096,0.27320927,2.4416265,-36.600002,16.95,21.618752,0.5020466,-0.53670794,0.51084435,998.4753, , , , 
2026-03-19 21:12:30.971,2.7900312,-12.313465,-0.79920274,-0.2115883,-0.2784016,2.8515167,-34.537502,18.28125,19.63125,0.48566595,-0.5510289,0.5223158,998.4753, , , , 
2026-03-19 21:12:30.990,3.7184465,-12.96192,0.08135597,-0.112017326,-0.6687442,3.325548,-31.0125,21.150002,18.0,0.4693104,-0.5688984,0.53302974,998.4694, , , , 
2026-03-19 21:12:31.012,4.5798626,-13.122239,0.13399807,0.06879865,-0.5593994,3.8276787,-29.775002,22.143751,17.831251,0.4514218,-0.5883668,0.5448457,998.4694,37.88753683,127.73745165,175.324462890625,1.2
2026-03-19 21:12:31.030,5.8097734,-12.928421,-0.48095736,0.17569998,-0.19165882,4.331642,-27.69375,23.85,18.900002,0.42355376,-0.61194634,0.5634146,998.46674, , , , 
2026-03-19 21:12:31.050,7.5062847,-12.335001,-0.91405827,0.12866339,-0.0151189035,4.64074,-25.06875,25.237501,18.84375,0.39652508,-0.62986034,0.5799033,998.46674, , , , 
2026-03-19 21:12:31.071,8.484949,-11.662618,-0.7178468,0.092011504,0.023976443,4.725039,-23.175001,28.050001,18.487501,0.36712396,-0.6469204,0.59560525,998.46063, , , , 
2026-03-19 21:12:31.091,8.755338,-11.925828,0.08135597,0.1042288,-0.0377209,4.8050623,-18.806252,29.362501,18.431252,0.3364867,-0.66267866,0.6100024,998.46063, , , , 
2026-03-19 21:12:31.111,9.564112,-12.339787,1.7012969,0.35285076,-0.41706792,4.947394,-14.606251,33.412502,16.96875,0.30577716,-0.67704964,0.6233083,998.45624, , , , 
2026-03-19 21:12:31.131,8.779266,-12.799209,1.4811572,0.88430315,-0.8300125,5.3194103,-12.7875,33.206253,19.893751,0.26934937,-0.6912478,0.64059347,998.45624, , , , 
2026-03-19 21:12:31.150,11.827723,-12.624533,0.27756742,1.200731,-0.91797704,5.57353,-7.93125,33.318752,20.306252,0.24720532,-0.69749033,0.65176415,998.45355, , , , 
2026-03-19 21:12:31.170,15.64906,-11.487942,-1.7898313,1.3711624,-0.6149881,5.0475755,-3.3000002,35.287502,20.94375,0.21107803,-0.70301497,0.66955185,998.45355, , , , 
2026-03-19 21:12:31.190,15.704095,-10.061819,-3.495914,1.3033564,0.099723674,4.1752605,2.1000001,35.5125,15.4125,0.18449536,-0.7031461,0.682041,998.4401, , , , 
2026-03-19 21:12:31.210,14.849857,-8.970692,-5.096712,0.9453896,0.6837104,3.565007,2.8125,35.568752,17.19375,0.15844646,-0.701681,0.6924073,998.4401, , , , 
2026-03-19 21:12:31.230,13.313665,-7.7503524,-5.015356,0.20013458,1.3281728,2.8985534,6.15,35.53125,18.69375,0.13227178,-0.7018934,0.69867533,998.42035, , , , 
2026-03-19 21:12:31.251,12.459428,-6.9966135,-2.7302105,-0.32215482,1.7527238,2.4281876,8.962501,36.206253,16.2,0.10557858,-0.7049062,0.70053726,998.42035, , , , 
2026-03-19 21:12:31.270,11.796616,-7.944171,-0.18424734,-0.33253953,1.4900519,2.0354013,9.4125,33.393753,16.3125,0.073951684,-0.7098938,0.6996183,998.42084, , , , 
2026-03-19 21:12:31.290,13.03849,-8.7266245,0.20578274,0.06146827,0.5120574,1.8258748,8.325001,33.9,17.625,0.055114575,-0.7117461,0.69963527,998.42084, , , , 
2026-03-19 21:12:31.311,15.299708,-9.071191,-0.88295156,0.47868893,-0.479987,1.3573415,9.39375,34.0125,16.425001,0.04534609,-0.7106767,0.7017304,998.4372, , , , 
2026-03-19 21:12:31.330,15.823736,-9.047262,-2.7637103,0.50251263,-0.7451023,0.90285814,12.0,33.9,17.400002,0.043926645,-0.7078402,0.70491034,998.4372, , , , 
2026-03-19 21:12:31.350,16.19941,-9.24826,-3.5796626,0.08468113,-0.40607235,0.27855435,12.7875,33.375,16.575,0.04658469,-0.7061165,0.70654196,998.43304, , , , 
2026-03-19 21:12:31.371,16.331015,-9.533006,-2.3234308,-0.19631667,-0.013897174,-0.25106543,13.575001,33.80625,18.6375,0.050562862,-0.7067709,0.70561,998.43304, , , , 
2026-03-19 21:12:31.391,16.371693,-9.298509,-1.5625132,-0.303218,0.4045452,-1.0134246,12.618751,34.725002,16.66875,0.05583526,-0.70828587,0.7035858,998.4445, , , , 
2026-03-19 21:12:31.410,15.653846,-8.822337,-1.0145568,-0.3606393,0.7038689,-1.8014402,12.431251,33.825,16.743752,0.063626565,-0.70965135,0.70109916,998.4445, , , , 
2026-03-19 21:12:31.430,14.177474,-10.10489,-1.1030912,-0.4644863,0.90362173,-2.6908593,11.981251,33.15,17.60625,0.07819873,-0.71061623,0.69690067,998.46014, , , , 
2026-03-19 21:12:31.450,11.705688,-11.676974,-0.7465607,-0.52251846,1.006247,-3.220479,8.212501,35.5125,17.400002,0.093553,-0.7107465,0.69191456,998.46014, , , , 
2026-03-19 21:12:31.470,10.291531,-12.545569,-0.37567315,-0.47975793,0.90362173,-3.4587164,4.59375,36.600002,19.875,0.11074445,-0.70977056,0.6858598,998.48016, , , , 
2026-03-19 21:12:31.491,9.95175,-12.6987095,-0.043070808,-0.34658942,0.63056517,-3.608989,2.90625,36.80625,18.65625,0.12975927,-0.707332,0.67923146,998.48016, , , , 
2026-03-19 21:12:31.510,10.57149,-13.153346,0.011964113,-0.22380558,0.30619597,-3.7800312,-4.275,34.18125,21.5625,0.15143411,-0.7033053,0.67211163,998.4909, , , , 
2026-03-19 21:12:31.530,11.645867,-13.471592,0.30867413,0.015042545,-0.35659233,-4.172817,-6.0937505,34.518753,20.493752,0.17763872,-0.6976566,0.66410357,998.4909, , , , 
2026-03-19 21:12:31.550,11.050055,-13.99562,0.14596218,0.29237515,-1.0548108,-4.6590657,-7.5375004,37.237503,17.71875,0.2109342,-0.6898293,0.65476805,998.5053, , , , 
2026-03-19 21:12:31.570,9.099904,-13.959727,-2.7110682,0.21479532,-0.6895136,-4.7030478,-12.8625,34.3125,20.1375,0.2583871,-0.67698735,0.6410175,998.5053, , , , 
2026-03-19 21:12:31.590,8.580662,-13.098311,-4.0438704,-0.32948518,0.46746427,-4.5741553,-14.718751,33.6375,18.206251,0.28931326,-0.66583765,0.62838334,998.49164, , , , 
2026-03-19 21:12:31.610,7.479964,-12.669996,-3.5437703,-0.7680861,1.4417936,-4.4122763,-17.79375,33.075,19.5,0.31047383,-0.65414274,0.6145866,998.49164, , , , 
2026-03-19 21:12:31.631,7.1688967,-11.894721,-2.4047868,-0.8719331,1.7569999,-4.1410522,-22.29375,30.375002,19.35,0.3242965,-0.64150673,0.6007323,998.4899, , , , 
2026-03-19 21:12:31.650,7.960921,-11.251052,-2.0171494,-0.7430406,1.5150974,-4.039649,-23.6625,29.250002,18.018751,0.3357858,-0.6280648,0.58686733,998.4899, , , , 
2026-03-19 21:12:31.671,7.5349984,-10.851451,-1.5098711,-0.61659163,1.1039854,-4.120283,-26.362501,27.13125,13.931251,0.34878346,-0.61403257,0.5718949,998.4975, , , , 
2026-03-19 21:12:31.690,6.218946,-10.645668,-0.94277215,-0.42355835,0.6391173,-4.1667085,-28.575,22.9125,15.806251,0.36450118,-0.5996806,0.55522674,998.4975, , , , 
2026-03-19 21:12:31.711,4.642076,-10.803595,-0.7752745,-0.2494619,0.15409064,-4.0909615,-31.031252,21.431252,13.51875,0.38293883,-0.58544147,0.53724277,998.5009, , , , 
2026-03-19 21:12:31.730,3.6849468,-10.944771,-1.1102697,-0.09735657,-0.4384482,-3.803855,-33.825,18.6375,15.825001,0.40849504,-0.56938696,0.5135766,998.5009, , , , 
2026-03-19 21:12:31.751,2.3545375,-10.657632,-1.0959128,0.027259842,-0.90942496,-3.4318383,-34.987503,15.900001,17.643751,0.4300735,-0.5592366,0.49407375,998.5019, , , , 
2026-03-19 21:12:31.770,1.7108682,-9.882358,-2.2947168,0.004657844,-1.0328196,-2.9785767,-36.65625,12.843751,19.06875,0.45112383,-0.5515664,0.47513902,998.5019, , , , 
2026-03-19 21:12:31.790,0.66759753,-10.236495,-3.6897326,-0.34903285,-0.5215258,-2.4324636,-38.11875,11.45625,19.143751,0.46825716,-0.5455571,0.45775765,998.5036, , , , 
2026-03-19 21:12:31.810,-0.1363909,-10.736595,-4.1036906,-0.7583123,0.033139415,-1.9175045,-36.5625,9.637501,18.6375,0.47807646,-0.54067916,0.4432294,998.5036, , , , 
2026-03-19 21:12:31.831,-0.83988076,-11.212767,-2.4430718,-1.0839032,0.48640108,-1.2113448,-38.175003,7.5937505,19.837502,0.4798428,-0.53745794,0.4321112,998.49506, , , , 
2026-03-19 21:12:31.850,-2.0673988,-11.227124,-1.8879371,-1.0136538,0.44486228,-0.505796,-38.2125,7.33125,19.556252,0.47608435,-0.5362098,0.42496195,998.49506, , , , 
2026-03-19 21:12:31.871,-3.4193435,-10.30828,-2.5674987,-1.0154864,0.21578798,0.48441577,-38.925003,6.6562505,18.581251,0.46701363,-0.5401019,0.42125824,998.49774, , , , 
2026-03-19 21:12:31.890,-2.8091738,-10.217353,-2.5435705,-1.1920263,0.17486005,1.4697406,-40.050003,5.53125,20.00625,0.45451736,-0.5491294,0.4225235,998.49774, , , , 
2026-03-19 21:12:31.910,-0.9020941,-10.499705,-2.036292,-1.4241549,0.30436337,2.3328927,-39.54375,6.4687505,18.0375,0.43549967,-0.5627066,0.42788965,998.49384, , , , 
2026-03-19 21:12:31.931,1.375873,-11.327622,-0.80159557,-1.694768,0.5175552,2.8918338,-38.081253,7.2375,18.91875,0.40980873,-0.5790559,0.43634254,998.49384, , , , 
2026-03-19 21:12:31.950,2.4311078,-12.378072,1.6271194,-1.6794964,0.6214022,3.3041675,-38.4,8.56875,18.88125,0.37895462,-0.59607345,0.4467698,998.4992, , , , 
2026-03-19 21:12:31.970,2.4741786,-12.763316,2.565106,-1.2812126,0.30558512,3.709782,-36.54375,10.387501,17.6625,0.34625977,-0.612869,0.45950216,998.4992, , , , 
2026-03-19 21:12:31.990,3.3714871,-13.53859,0.81595254,-0.9562324,-0.18921536,4.2931576,-39.91875,11.26875,19.66875,0.30617762,-0.6348106,0.4792451,998.5163, , , , 
2026-03-19 21:12:32.010,4.575077,-13.88555,0.014356935,-1.0448078,-0.37186393,4.742754,-37.143753,13.293751,18.9375,0.2813277,-0.6493152,0.49207732,998.5163,37.88754305,127.73746286,175.99224853515625,1.37
2026-03-19 21:12:32.031,7.0061846,-14.158332,1.1222339,-1.2311217,-0.18127412,5.1740246,-34.725002,16.650002,19.125,0.23493128,-0.6742316,0.51311433,998.51044, , , , 
2026-03-19 21:12:32.050,9.126225,-14.435899,2.8689942,-1.1260529,-0.07192933,5.337126,-35.34375,18.825,20.90625,0.19381759,-0.6917474,0.5297772,998.51044, , , , 
2026-03-19 21:12:32.071,10.963913,-14.2851515,3.5030923,-0.7711404,-0.16294818,5.3377366,-30.225,20.85,19.48125,0.15304238,-0.705813,0.54683906,998.51434, , , , 
2026-03-19 21:12:32.090,10.9375925,-14.019547,2.1367905,-0.56588984,0.3251328,5.411651,-26.531252,22.575,21.46875,0.11364177,-0.71582997,0.5642604,998.51434, , , , 
2026-03-19 21:12:32.110,12.842279,-13.741981,1.6797615,-0.76197743,1.2536472,5.437918,-25.556252,25.275002,22.29375,0.06981375,-0.721254,0.5811665,998.5109, , , , 
2026-03-19 21:12:32.130,14.689538,-12.830315,3.0580273,-0.81756616,1.3098468,4.83194,-21.075,29.23125,21.300001,0.011579081,-0.72305536,0.59747446,998.5109, , , , 
2026-03-19 21:12:32.150,14.244473,-12.160325,2.6991038,-0.6624065,0.8675807,4.210691,-19.2,29.906252,22.44375,-0.027766915,-0.7228286,0.606979,998.50336, , , , 
2026-03-19 21:12:32.170,13.789837,-11.722438,1.524228,-0.68378675,0.8187115,3.7146688,-18.056252,30.656252,23.362501,-0.061077226,-0.7219515,0.6142295,998.50336, , , , 
2026-03-19 21:12:32.191,13.000205,-11.248659,1.2059826,-0.84872025,0.9818124,3.3090546,-16.575,30.675001,22.743752,-0.091503456,-0.7210563,0.61836505,998.5002, , , , 
2026-03-19 21:12:32.210,12.038291,-10.293923,1.7419748,-1.0417535,1.3984222,3.0659304,-15.450001,32.025,24.562502,-0.12173953,-0.71996546,0.619302,998.5002, , , , 
2026-03-19 21:12:32.230,11.818151,-8.812766,3.1369905,-1.0741293,1.8199189,2.8423538,-12.937501,30.656252,24.525002,-0.153256,-0.7178869,0.61770606,998.4936, , , , 
2026-03-19 21:12:32.250,12.071791,-8.322237,3.9098723,-0.8847613,1.9274311,2.5045457,-9.9375,31.612501,23.081251,-0.18440667,-0.71417606,0.6148036,998.4936, , , , 
2026-03-19 21:12:32.271,11.507084,-8.413164,3.7758741,-0.3661371,1.5364777,2.2571454,-13.125001,30.50625,25.48125,-0.21832536,-0.7070062,0.61240625,998.50165, , , , 
2026-03-19 21:12:32.290,13.191631,-8.051848,2.105684,0.12072215,1.0300708,2.1294746,-9.95625,30.843752,24.056252,-0.23944278,-0.69937927,0.6143274,998.50165, , , , 
2026-03-19 21:12:32.310,15.591632,-7.23111,-0.97866446,0.24778202,0.7948878,1.7470733,-8.55,31.35,24.956251,-0.2553966,-0.69134593,0.6181911,998.49286, , , , 
2026-03-19 21:12:32.331,16.524834,-7.1018977,-2.1918256,0.008323032,0.79244435,1.233336,-8.868751,31.95,24.337502,-0.2645768,-0.68682355,0.61971825,998.49286, , , , 
2026-03-19 21:12:32.350,17.075182,-7.1569324,-0.8709874,-0.28367034,0.80588335,0.59192795,-6.3375,31.35,23.025002,-0.27613303,-0.68341833,0.61750954,998.47284, , , , 
2026-03-19 21:12:32.370,18.778872,-7.372287,0.4953143,-0.16699515,0.62934345,-0.022601997,-8.325001,32.49375,25.181252,-0.28140488,-0.6829597,0.61345434,998.47284, , , , 
2026-03-19 21:12:32.390,19.891535,-7.2095747,0.4881358,0.076739885,0.38988444,-0.86131936,-6.9375005,33.412502,22.66875,-0.28002453,-0.6837485,0.6093814,998.4731, , , , 
2026-03-19 21:12:32.410,19.527826,-7.9680996,-0.57906306,0.13171771,0.39599308,-1.933387,-9.675,33.73125,24.16875,-0.27079347,-0.68630534,0.60435945,998.4731, , , , 
2026-03-19 21:12:32.430,17.111074,-10.662417,-0.9619147,0.055970486,0.7313579,-3.0121741,-11.55,33.05625,23.325,-0.25082773,-0.6924932,0.59257156,998.4704, , , , 
2026-03-19 21:12:32.450,14.294723,-12.866207,-1.3519448,0.17142393,0.9640973,-3.5613418,-15.7875,31.0125,23.41875,-0.23094675,-0.6975725,0.57926154,998.4704, , , , 
2026-03-19 21:12:32.472,12.882957,-14.012369,-2.5746772,0.26855144,1.0655009,-3.8069093,-17.2875,32.34375,24.112501,-0.21478976,-0.70038277,0.5682824,998.4704, , , , 
2026-03-19 21:12:32.490,12.026326,-14.354543,-4.019942,0.23312128,0.9799798,-4.0555315,-20.8875,29.625002,22.48125,-0.18618259,-0.7038172,0.54816663,998.46625, , , , 
2026-03-19 21:12:32.510,12.004791,-14.177474,-3.8787656,0.14271328,0.6849321,-4.251008,-23.868752,27.937502,22.893751,-0.161292,-0.706726,0.5301378,998.4604, , , , 
2026-03-19 21:12:32.531,12.911671,-14.280366,-3.1322048,0.16226095,0.32757625,-4.5704904,-28.237501,26.625002,23.118752,-0.1334276,-0.71031123,0.51042944,998.4604, , , , 
2026-03-19 21:12:32.550,12.643675,-14.986248,-3.4648073,0.30703592,0.03619374,-5.0616255,-29.38125,24.525002,22.59375,-0.100709096,-0.7141254,0.48919097,998.45526, , , , 
2026-03-19 21:12:32.570,9.056833,-15.74238,-4.505685,0.24778202,-0.08170316,-5.348121,-32.568752,21.6,20.625,-0.054014005,-0.718,0.45969358,998.45526, , , , 
2026-03-19 21:12:32.590,7.5230346,-15.218352,-4.6396832,0.057192214,-0.15806127,-5.167916,-34.631252,19.518751,21.5625,-0.017061086,-0.7202842,0.4341552,998.4521, , , , 
2026-03-19 21:12:32.611,7.2789664,-14.017155,-4.534399,-0.14133884,-0.13973531,-4.993209,-37.125,15.0375,20.550001,0.01770613,-0.72206867,0.4074672,998.4521, , , , 
2026-03-19 21:12:32.631,6.1806607,-12.981063,-5.221139,-0.43944085,0.39660397,-4.7464194,-37.21875,13.031251,20.04375,0.049070857,-0.72184,0.3796644,998.44794, , , , 
2026-03-19 21:12:32.651,5.407779,-12.229716,-4.3908296,-0.7253256,0.717308,-4.517956,-39.46875,9.20625,19.893751,0.075205535,-0.718868,0.3506115,998.44794, , , , 
2026-03-19 21:12:32.670,4.9172506,-12.248859,-2.9838498,-0.7558688,0.39660397,-4.350579,-40.237503,4.6312504,20.38125,0.09799273,-0.7145384,0.3209624,998.4455, , , , 
2026-03-19 21:12:32.690,4.342973,-11.947364,-1.9094725,-0.61598074,-0.37308568,-4.1679306,-40.74375,3.4687502,19.10625,0.12104535,-0.7118587,0.2918239,998.4455, , , , 
2026-03-19 21:12:32.710,2.754139,-11.306087,-1.4452649,-0.43211046,-0.8856012,-3.9138107,-38.9625,-1.3312501,20.737501,0.14558241,-0.7121065,0.263897,998.46136, , , , 
2026-03-19 21:12:32.731,0.72741807,-11.018949,-2.2181466,-0.4088976,-0.80679965,-3.3915212,-40.21875,-5.3250003,20.94375,0.17506438,-0.7137363,0.23218949,998.46136, , , , 
2026-03-19 21:12:32.750,-0.71306115,-10.992627,-2.8091738,-0.60070914,-0.42195484,-2.6816964,-39.975002,-7.0312505,20.71875,0.19316731,-0.71406716,0.21036156,998.47504, , , , 
2026-03-19 21:12:32.770,-1.2586247,-10.645668,-2.3688943,-0.8597158,0.03252855,-1.8307618,-40.96875,-10.275001,24.243752,0.2034558,-0.7134216,0.19243746,998.47504, , , , 
2026-03-19 21:12:32.790,-1.3040884,-10.025927,-1.2921243,-1.0185406,0.60002196,-0.99143356,-38.475002,-10.481251,20.587502,0.20580086,-0.7113488,0.1789969,998.47504, , , , 
2026-03-19 21:12:32.810,-0.9164511,-10.195817,-0.76331043,-1.0099885,0.802829,-0.41416633,-40.537502,-13.33125,22.518751,0.20209947,-0.70779866,0.1700567,998.47504, , , , 
2026-03-19 21:12:32.830,-0.4881358,-11.064412,-0.5096712,-0.91286105,0.5829177,0.047647454,-42.75,-13.425,22.59375,0.19470893,-0.7046876,0.1649616,998.4836, , , , 
2026-03-19 21:12:32.850,-1.820938,-10.657632,-0.45942193,-0.7906881,0.22739442,0.6884446,-40.725002,-13.593751,21.618752,0.18509637,-0.7039514,0.16320072,998.4836, , , , 
2026-03-19 21:12:32.870,-1.6701902,-10.30828,-0.8709874,-0.7888555,0.12415826,1.404989,-40.631252,-13.931251,20.400002,0.16846034,-0.7067226,0.166624,998.4902, , , , 
2026-03-19 21:12:32.890,-0.42592242,-10.403993,-1.0025927,-0.94035,0.21273366,2.0622795,-40.65,-14.175,18.712502,0.14934635,-0.71027774,0.17388436,998.4902, , , , 
2026-03-19 21:12:32.911,1.3232309,-10.918449,-0.1794617,-1.0722967,0.32085672,2.615723,-42.131252,-11.981251,20.60625,0.1248827,-0.7138711,0.18390469,998.4931, , , , 
2026-03-19 21:12:32.930,2.1367905,-11.794223,0.7609176,-1.0093777,0.27687445,3.053713,-42.46875,-10.875,18.4125,0.09655095,-0.71695435,0.19650336,998.4931, , , , 
2026-03-19 21:12:32.951,2.914458,-12.490534,1.3639089,-0.79801846,0.06856957,3.541794,-41.86875,-7.9500003,17.868752,0.065801926,-0.720012,0.21261567,998.50726, , , , 
2026-03-19 21:12:32.970,3.9649072,-13.141382,1.146162,-0.53290313,-0.08414663,4.0494227,-43.256252,-6.0937505,17.90625,0.03343354,-0.72307813,0.23318596,998.50726, , , , 
2026-03-19 21:12:32.990,5.938986,-13.8041935,0.57427746,-0.31787875,-0.12873976,4.5869837,-44.362503,-4.9875,19.35,-0.009482451,-0.725474,0.2650369,998.51605, , , , 
2026-03-19 21:12:33.010,8.17149,-13.72523,0.5910272,-0.21464261,-0.26557347,4.794067,-40.21875,-0.675,15.731251,-0.03630801,-0.7258425,0.28627083,998.51605,37.88754891,127.73747551,176.08966064453125,1.21
2026-03-19 21:12:33.030,10.207782,-12.760923,0.67477596,-0.028328855,-0.4977021,4.785515,-40.78125,4.5,15.187501,-0.07969023,-0.72514635,0.3225387,998.50824, , , , 
2026-03-19 21:12:33.050,12.538391,-11.425728,0.31345975,0.15370885,-0.7786999,4.51368,-42.65625,6.39375,19.462502,-0.110910445,-0.7237473,0.35110635,998.50824, , , , 
2026-03-19 21:12:33.070,13.048062,-10.260424,-0.8542377,0.18730642,-0.7903063,4.2094693,-41.34375,10.856251,20.90625,-0.13761745,-0.7221024,0.37767774,998.5019, , , , 
2026-03-19 21:12:33.090,13.481163,-10.191031,-3.2590244,-0.28489205,0.34101525,4.1575456,-41.30625,13.106251,20.00625,-0.1641998,-0.7183582,0.40063053,998.5019, , , , 
2026-03-19 21:12:33.110,13.430914,-10.286744,-1.8735801,-0.9708932,1.5462514,4.0726357,-37.18125,15.39375,20.38125,-0.1977686,-0.709786,0.4163691,998.4838, , , , 
2026-03-19 21:12:33.130,13.392629,-9.939785,0.28953153,-1.274493,2.140012,3.7830856,-37.18125,18.393751,20.362501,-0.24694432,-0.6932201,0.42619988,998.4838, , , , 
2026-03-19 21:12:33.150,13.373486,-8.867801,1.1653047,-1.3032037,1.9976805,3.374417,-36.9375,19.5375,19.95,-0.2850237,-0.67874676,0.4296804,998.4775, , , , 
2026-03-19 21:12:33.170,12.363714,-7.7503524,1.3328022,-1.2683843,1.7289001,2.9297075,-35.175003,21.487501,16.725,-0.31045586,-0.6687971,0.43072787,998.4775, , , , 
2026-03-19 21:12:33.190,10.301102,-7.353144,2.2205393,-1.1272746,1.2542582,2.6224425,-34.10625,22.575,18.5625,-0.3469933,-0.6545197,0.43084097,998.4704, , , , 
2026-03-19 21:12:33.211,11.499906,-7.018149,3.2398818,-0.7399863,0.8962914,2.584569,-32.550003,23.60625,17.25,-0.3716604,-0.6440938,0.4329947,998.4704, , , , 
2026-03-19 21:12:33.230,13.842479,-6.489335,2.5148566,-0.15294527,0.6519454,2.272417,-33.43125,25.125002,18.1875,-0.39105776,-0.6334427,0.43835196,998.4875, , , , 
2026-03-19 21:12:33.251,14.234902,-6.4127645,0.8877372,0.25816673,0.559094,1.816101,-32.41875,26.362501,16.63125,-0.40758923,-0.6202486,0.44656235,998.4875, , , , 
2026-03-19 21:12:33.271,14.254045,-6.745367,-0.8566305,0.39438957,0.4271472,1.5754203,-28.612501,27.018751,15.731251,-0.41441232,-0.61291987,0.4515152,998.4887, , , , 
2026-03-19 21:12:33.290,15.617953,-6.649654,-1.942972,0.32047492,0.22800528,1.2944225,-28.29375,30.150002,16.275002,-0.42265606,-0.6029386,0.4591121,998.4887, , , , 
2026-03-19 21:12:33.310,17.718851,-7.0301127,-1.8592232,0.20929754,0.029474225,0.7984003,-29.23125,30.431252,15.281251,-0.42648813,-0.5981104,0.46318418,998.48334, , , , 
2026-03-19 21:12:33.330,18.202202,-7.668997,-1.3782659,0.18425208,-0.3168861,0.10262528,-28.2,29.062502,14.94375,-0.42576534,-0.59752524,0.4647671,998.48334, , , , 
2026-03-19 21:12:33.350,16.063019,-7.4823565,-1.4883357,0.2691623,-0.63148147,-0.5619956,-25.050001,30.88125,14.812501,-0.41931403,-0.6012006,0.46485645,998.477, , , , 
2026-03-19 21:12:33.370,14.921642,-7.4392858,-2.4119651,0.13171771,-0.5697841,-0.88758653,-26.6625,30.206251,15.4875,-0.4095085,-0.607376,0.46346548,998.477, , , , 
2026-03-19 21:12:33.391,15.160924,-7.984849,-1.4979069,-0.09674571,-0.40668324,-1.4227041,-30.88125,30.281252,15.150001,-0.3992071,-0.6152049,0.45841968,998.4748, , , , 
2026-03-19 21:12:33.410,14.802001,-9.542577,-0.89730847,-0.0655916,-0.5410735,-2.050673,-30.31875,29.56875,16.368752,-0.38633835,-0.62505096,0.44979745,998.4748, , , , 
2026-03-19 21:12:33.430,13.701303,-10.887343,-0.88295156,0.037033677,-0.8544471,-2.6285512,-31.85625,27.7875,17.1,-0.3633877,-0.6407821,0.43673155,998.47723, , , , 
2026-03-19 21:12:33.451,13.392629,-11.5932255,-0.8255238,0.064522594,-0.9796744,-3.0329437,-31.425001,25.706251,18.4125,-0.340417,-0.6553514,0.4249339,998.47723, , , , 
2026-03-19 21:12:33.470,13.689339,-12.423535,-1.146162,0.07185297,-1.0596976,-3.4800966,-34.8375,24.0,18.5625,-0.31416705,-0.67084557,0.41126788,998.4858, , , , 
2026-03-19 21:12:33.491,13.569697,-13.150953,-1.6654046,-0.005726857,-1.0914626,-4.0555315,-35.381252,22.06875,19.35,-0.28449866,-0.68724364,0.39481425,998.4858, , , , 
2026-03-19 21:12:33.510,12.832707,-13.818551,-1.9166509,-0.0900262,-1.0700824,-4.574766,-34.74375,20.1375,18.91875,-0.25160325,-0.7041826,0.37474686,998.4897, , , , 
2026-03-19 21:12:33.531,9.281759,-14.084154,-2.6105695,-0.2775617,-0.7072287,-4.672505,-37.875,15.58125,20.1375,-0.21675932,-0.72050995,0.35119596,998.4897, , , , 
2026-03-19 21:12:33.550,8.049456,-13.3687,-3.0293136,-0.55733776,0.024587307,-4.440987,-38.8125,12.375001,19.331251,-0.17824763,-0.73551375,0.31813368,998.49115, , , , 
2026-03-19 21:12:33.571,7.60439,-12.662817,-2.754139,-0.8413899,0.72402745,-4.2473426,-40.237503,8.3625,21.243752,-0.1590901,-0.7409616,0.29634598,998.49115, , , , 
2026-03-19 21:12:33.590,7.314859,-11.935399,-1.8735801,-0.94706947,1.4472914,-4.0310965,-43.425003,5.4375,18.975,-0.13281013,-0.74377733,0.2579082,998.5004, , , , 
2026-03-19 21:12:33.611,6.73101,-11.626725,-1.2179468,-0.8560506,1.7398956,-3.871661,-42.412502,4.55625,17.98125,-0.114528716,-0.7411198,0.22715025,998.5004, , , , 
2026-03-19 21:12:33.630,5.3072805,-11.523834,-0.6221339,-0.75220364,2.0422738,-3.6603017,-44.175003,-0.69375,15.225,-0.09756417,-0.7350294,0.19768927,998.509, , , , 
2026-03-19 21:12:33.650,3.9888353,-10.79163,0.5383851,-0.4492147,1.74295,-3.4416122,-43.575,-3.8437502,11.94375,-0.08157043,-0.7264205,0.17045361,998.509, , , , 
2026-03-19 21:12:33.670,2.0602202,-10.04507,0.38763726,-0.039935283,0.77534014,-3.32005,-43.55625,-7.33125,12.150001,-0.06359525,-0.71951425,0.14676204,998.5129, , , , 
2026-03-19 21:12:33.690,-0.023928227,-9.427721,-0.5024927,0.22945608,-0.47937614,-3.0146177,-45.7125,-8.55,12.6,-0.03739694,-0.71902573,0.1228492,998.5129, , , , 
2026-03-19 21:12:33.711,-0.1268196,-9.439685,-1.1318051,0.24167338,-0.92652917,-2.6059492,-46.256252,-11.231251,13.106251,-0.021755408,-0.72289133,0.111271106,998.5168, , , , 
2026-03-19 21:12:33.730,0.5886344,-9.475577,-1.2251252,0.05902481,-0.69317883,-2.042121,-46.03125,-12.075001,15.000001,-3.3301633E-4,-0.73043895,0.09541281,998.5168, , , , 
2026-03-19 21:12:33.750,0.69152576,-9.492328,-1.1222339,-0.034437504,-0.15195261,-1.5882484,-45.787502,-14.437501,16.03125,0.011557977,-0.7335052,0.08515337,998.5212, , , , 
2026-03-19 21:12:33.770,0.09810573,-9.262616,-1.8400806,-0.14317143,0.31291547,-1.0739002,-44.34375,-15.281251,16.3875,0.019349454,-0.7332532,0.07726872,998.5212, , , , 
2026-03-19 21:12:33.790,-0.32542387,-9.394221,-2.5627131,-0.32154396,0.4405862,-0.63041246,-45.018753,-16.462502,16.21875,0.022688724,-0.7311238,0.07159381,998.5151, , , , 
2026-03-19 21:12:33.810,0.11964113,-10.614561,-2.78046,-0.56100297,0.2414443,-0.10384701,-46.725002,-19.125,15.618751,0.02076464,-0.7293318,0.067794226,998.5151, , , , 
2026-03-19 21:12:33.830,0.059820566,-11.8588295,-2.213361,-0.76747525,-0.034666575,0.46914417,-43.78125,-17.8125,12.918751,0.013732291,-0.729546,0.066012,998.50824, , , , 
2026-03-19 21:12:33.850,-0.7609176,-11.708081,-0.971486,-0.96295196,0.031917684,1.2082906,-44.53125,-18.6375,13.200001,-0.002337439,-0.73096186,0.06734083,998.50824, , , , 
2026-03-19 21:12:33.870,-0.031106694,-11.473584,0.62452674,-0.9879974,0.21639885,1.915672,-45.768753,-17.400002,14.493751,-0.021724772,-0.7307601,0.0724971,998.50995, , , , 
2026-03-19 21:12:33.890,1.6223338,-11.0811615,1.8927227,-0.7589231,0.32391104,2.512487,-45.975002,-14.925,12.675,-0.045309633,-0.72857064,0.082505815,998.50995, , , , 
2026-03-19 21:12:33.910,3.8069808,-11.389835,1.7682959,-0.37835437,0.24816382,2.819141,-47.5125,-15.20625,13.312501,-0.07001395,-0.72505814,0.09765151,998.5173, , , , 
2026-03-19 21:12:33.931,4.847859,-12.031113,0.12921242,-0.101632625,0.060017463,3.0586,-47.4,-11.83125,12.187501,-0.09381902,-0.7213218,0.11678716,998.5173, , , , 
2026-03-19 21:12:33.950,5.312066,-12.437892,-0.7465607,-0.11934771,-0.021227552,3.310887,-46.125,-9.825001,12.562501,-0.11801795,-0.7177018,0.13835241,998.5141, , , , 
2026-03-19 21:12:33.970,5.7547383,-12.684353,-1.0193424,-0.2201404,-0.07131846,3.5564547,-47.8125,-6.6562505,12.562501,-0.14399238,-0.7136544,0.16099715,998.5141, , , , 
2026-03-19 21:12:33.991,6.2715883,-13.031312,-0.98584294,-0.3899608,-0.13240494,3.881435,-49.068752,-4.3875003,9.618751,-0.17947157,-0.70745504,0.19006146,998.5014, , , , 
2026-03-19 21:12:34.011,7.479964,-12.820744,-0.47856453,-0.5103012,-0.082924895,4.1489935,-47.04375,-0.09375,10.856251,-0.20262906,-0.70299697,0.20790982,998.5014,37.887552,127.73749005,176.26995849609375,1.41
2026-03-19 21:12:34.031,8.970692,-11.767901,0.66041905,-0.6288089,0.37583455,4.305986,-50.30625,2.1750002,13.556251,-0.24388811,-0.6920148,0.23696108,998.49603, , , , 
2026-03-19 21:12:34.050,9.631111,-10.858629,1.308874,-0.6593522,0.7973313,4.2448993,-47.756252,6.0375004,13.368751,-0.27793437,-0.6787752,0.2579006,998.49603, , , , 
2026-03-19 21:12:34.071,9.3200445,-10.490134,1.3040884,-0.5897136,1.006247,4.164265,-46.40625,10.425,11.7375,-0.3111866,-0.6626255,0.27680492,998.4963, , , , 
2026-03-19 21:12:34.090,9.765109,-10.750952,-0.5479564,-0.7088322,1.1840087,4.1660976,-46.6875,12.637501,11.34375,-0.34377027,-0.64435464,0.29451793,998.4963, , , , 
2026-03-19 21:12:34.110,10.372886,-10.133604,-0.2943172,-1.0032691,1.1974477,4.0408707,-44.71875,16.462502,9.675,-0.3770242,-0.62531555,0.3094843,998.48773, , , , 
2026-03-19 21:12:34.131,11.32523,-9.690931,0.74416786,-1.1853068,0.97020596,3.7934704,-46.125,18.4125,12.656251,-0.41762584,-0.60275483,0.3240309,998.48773, , , , 
2026-03-19 21:12:34.150,12.545569,-9.58804,1.9980069,-1.0411427,0.60002196,3.4703228,-39.15,23.643751,8.212501,-0.44664854,-0.58680093,0.33406562,998.47626, , , , 
2026-03-19 21:12:34.170,12.607782,-9.410972,2.050649,-0.6770672,0.21762058,3.1728318,-40.3125,23.868752,11.1,-0.47021267,-0.5729929,0.3447925,998.47626, , , , 
2026-03-19 21:12:34.190,13.124632,-8.295917,0.60777694,-0.41195193,-0.014508039,2.9932375,-36.61875,26.868752,10.087501,-0.48893374,-0.56057113,0.35719058,998.4819, , , , 
2026-03-19 21:12:34.210,14.321044,-7.4536424,-0.13878371,-0.37957612,0.016646065,2.71957,-33.693752,30.393751,9.731251,-0.50483966,-0.54916805,0.36927646,998.4819, , , , 
2026-03-19 21:12:34.231,15.371492,-6.9128647,0.27517462,-0.3661371,0.170584,2.28158,-32.381252,29.79375,10.556251,-0.51895154,-0.5388118,0.37846217,998.477, , , , 
2026-03-19 21:12:34.250,16.244873,-6.62094,0.6436693,-0.15661046,0.07956514,1.8551964,-30.225,32.49375,10.8,-0.5303825,-0.52971846,0.38529795,998.477, , , , 
2026-03-19 21:12:34.272,17.290537,-6.3314085,-0.2656033,0.04925097,-0.022449281,1.3188571,-29.98125,32.8875,10.59375,-0.53754336,-0.5227209,0.39129078,998.47455, , , , 
2026-03-19 21:12:34.291,17.403,-5.9916277,-1.0695918,-0.006948587,0.09666935,0.62674725,-29.737501,32.662502,10.106251,-0.5413834,-0.5180825,0.39521554,998.47455, , , , 
2026-03-19 21:12:34.311,16.883757,-6.0777693,-0.5766702,-0.15294527,0.28420484,-0.033597562,-26.868752,32.98125,8.400001,-0.54225093,-0.5176508,0.39305615,998.4716, , , , 
2026-03-19 21:12:34.330,15.340386,-7.2861447,0.87338024,-0.11323906,0.251829,-0.5687151,-30.112501,33.75,11.175,-0.54083997,-0.52000916,0.3869448,998.4716, , , , 
2026-03-19 21:12:34.350,14.266008,-7.7312098,1.9669002,0.29420775,-0.14950916,-0.9107994,-30.7875,33.300003,10.8,-0.53568494,-0.52434266,0.38081092,998.48334, , , , 
2026-03-19 21:12:34.370,14.847465,-8.025527,1.2514462,0.62407476,-0.8000801,-1.2760966,-31.087502,34.0125,11.26875,-0.5252355,-0.53095883,0.37765107,998.48334, , , , 
