Time,Accel_X,Accel_Y,Accel_Z,Gyro_X,Gyro_Y,Gyro_Z,Mag_X,Mag_Y,Mag_Z,Orient_X,Orient_Y,Orient_Z,Pressure,Lat,Lng,Alt,Speed
2026-03-20 17:27:55.938,-1.6558332,6.1710896,6.393622,-0.085979216,-0.8917862,-0.6336195,-15.675,-54.581253,-16.931252,0.15123212,0.29859138,0.6620779,999.67084,37.88751171,127.73740408,184.475341796875,0.0
2026-03-20 17:27:55.957,-1.591227,5.7140603,8.877372,-0.98578304,-0.3108538,-0.29458955,-11.75625,-55.031254,-20.25,0.1393171,0.2721112,0.6591369,999.6484, , , , 
2026-03-20 17:27:55.977,-1.9764715,5.4867425,8.319844,-0.9295835,-0.6095667,-0.3990474,-11.025001,-54.318752,-20.53125,0.13504046,0.2634876,0.6586108,999.6425, , , , 
2026-03-20 17:27:55.996,-2.1487548,5.4963136,9.032906,-1.0114393,-0.6633228,-0.29031348,-10.875,-55.050003,-20.8125,0.13176553,0.25353438,0.6577221,999.6425, , , , 
2026-03-20 17:27:56.016,-1.9884356,6.204589,9.47797,-1.0792453,-0.6462186,-0.31474808,-10.70625,-54.281254,-21.16875,0.12850392,0.24263111,0.6575584,999.63055, , , , 
2026-03-20 17:27:56.036,-0.33020952,5.572884,8.968299,-1.3480258,-0.43852454,-0.708145,-13.481251,-54.843754,-19.1625,0.12122875,0.22922426,0.6557252,999.63055, , , , 
2026-03-20 17:27:56.056,-0.2943172,5.312066,8.626125,-1.9368995,-0.028634287,-1.3257293,-13.33125,-54.937504,-21.16875,0.10899309,0.21819542,0.65170914,999.6418, , , , 
2026-03-20 17:27:56.076,-1.2346965,4.570291,9.21476,-2.4683518,0.17417282,-1.5731295,-12.0375,-54.412502,-22.10625,0.08966509,0.20649943,0.6459841,999.6418, , , , 
2026-03-20 17:27:56.096,-2.1104696,4.1491547,9.2075815,-3.019352,-0.29924738,-1.4185808,-11.512501,-54.093754,-23.56875,0.06834104,0.18919563,0.64016795,999.6772, , , , 
2026-03-20 17:27:56.116,-2.400001,3.735196,9.075976,-3.3150105,0.0025198173,-0.9268346,-8.08125,-51.225002,-27.956251,0.04459836,0.16930057,0.6369417,999.6772, , , , 
2026-03-20 17:27:56.136,-4.996214,3.5389848,9.942178,-3.4603963,1.3818525,0.28206682,-8.925,-48.937504,-28.781252,0.01529432,0.15343766,0.6395825,999.77045, , , , 
2026-03-20 17:27:56.156,-0.83748794,-1.2155539,16.39562,-3.032791,-0.17096578,1.3804017,-7.2937503,-48.375004,-32.0625,-0.016001996,0.14262936,0.65036523,999.77045, , , , 
2026-03-20 17:27:56.177,-4.2568316,2.1655045,12.782458,-1.8837543,-3.0426412,1.9833252,-7.05,-46.706253,-35.11875,-0.019411774,0.10316719,0.66924375,999.8576, , , , 
2026-03-20 17:27:56.197,0.2440679,-0.51445687,10.427921,-0.52946705,-3.05608,2.4139848,-8.981251,-44.662502,-35.49375,-0.0053145504,0.07491019,0.6865864,999.8576, , , , 
2026-03-20 17:27:56.216,1.416551,-1.9788643,8.930014,0.39843655,-2.51913,2.4597998,-11.625,-43.3125,-36.525,0.014929773,0.054916624,0.7035474,999.8942, , , , 
2026-03-20 17:27:56.236,1.1557333,-0.06699903,10.459028,1.4662281,-1.6559781,2.2203407,-13.762501,-41.643753,-37.331253,0.036608435,0.046358544,0.7185994,999.8942, , , , 
2026-03-20 17:27:56.257,4.6636114,-0.2632105,11.68176,2.4985898,-2.4678173,-1.218828,-17.2875,-42.393753,-36.45,0.069542244,0.05048632,0.7230146,999.8486, , , , 
2026-03-20 17:27:56.276,-0.45702913,1.4620147,12.497713,3.1919212,-3.426875,-2.5120287,-19.368752,-44.49375,-33.80625,0.09930222,0.04834842,0.7092409,999.8486, , , , 
2026-03-20 17:27:56.296,-1.6342978,0.5479564,10.887343,4.4338093,-2.2949426,-2.4381142,-18.6,-44.8125,-30.468752,0.14262263,0.055406313,0.6869903,999.8525, , , , 
2026-03-20 17:27:56.316,-4.5655055,1.591227,6.7812595,4.590191,-3.4195447,-1.9475896,-19.10625,-47.643753,-25.7625,0.18762374,0.07538565,0.6648493,999.8525, , , , 
2026-03-20 17:27:56.336,-2.9742785,3.034099,2.2707887,0.46013388,-2.2503495,-0.102778,-18.975,-49.7625,-24.112501,0.23674837,0.057749964,0.644285,999.8293, , , , 
2026-03-20 17:27:56.357,2.9479575,5.3766723,5.733203,-0.017562363,1.4814235,0.32665995,-20.737501,-49.706253,-23.475,0.2370478,0.059280813,0.6457161,999.8293, , , , 
2026-03-20 17:27:56.376,4.35733,5.2498527,8.961121,0.15592323,2.9004624,0.30955574,-19.0125,-50.531254,-22.368752,0.22268376,0.0761676,0.6533646,999.7448, , , , 
2026-03-20 17:27:56.396,2.2731814,3.8811584,8.889337,0.075289086,2.071519,-0.09911281,-19.81875,-50.11875,-21.84375,0.20769595,0.094529346,0.65958816,999.7448, , , , 
2026-03-20 17:27:56.417,-0.21296121,4.0773697,9.913465,0.35384342,-0.33651012,-0.09789108,-18.1875,-51.562504,-22.706251,0.20376469,0.09998645,0.6587111,999.76117, , , , 
2026-03-20 17:27:56.436,1.4356936,3.885944,7.8436728,0.6232348,-0.20456335,0.38652468,-16.875,-50.287502,-24.768751,0.20836428,0.10061214,0.6586018,999.76117, , , , 
2026-03-20 17:27:56.457,1.3878372,5.2259245,5.501099,-0.10491603,0.6482039,0.3480402,-15.69375,-51.037502,-25.1625,0.20970675,0.10385545,0.66254437,999.77264, , , , 
2026-03-20 17:27:56.476,2.524428,5.029713,8.025527,-0.3620901,0.055665053,0.15439607,-20.175001,-51.15,-21.45,0.20550598,0.10487999,0.66531235,999.77264, , , , 
2026-03-20 17:27:56.497,1.8975084,3.859623,9.001799,-0.19410229,-0.52404565,-0.027030766,-19.2,-51.43125,-21.525002,0.20616814,0.10044908,0.66521245,999.73944, , , , 
2026-03-20 17:27:56.517,0.7178468,3.641876,8.508878,-0.23136504,-0.16058108,0.24602579,-20.04375,-51.99375,-22.48125,0.20741579,0.09632876,0.66522044,999.73944, , , , 
2026-03-20 17:27:56.536,2.7110682,4.024728,9.923036,-0.12751803,-0.21189372,0.2545779,-19.518751,-50.831253,-21.993752,0.2067869,0.093575254,0.6671489,999.74457, , , , 
2026-03-20 17:27:56.556,2.940779,4.058227,10.27478,0.23533566,-0.7867175,-0.011759147,-21.487501,-51.037502,-20.7,0.21040325,0.089830436,0.66712415,999.74457, , , , 
2026-03-20 17:27:56.576,2.1750758,4.125226,7.9657063,0.2640463,-0.7085268,-0.123547405,-19.893751,-50.49375,-21.35625,0.21771018,0.08604538,0.6646915,999.7402, , , , 
2026-03-20 17:27:56.598,1.3016955,4.302295,7.3746796,-0.11346813,-0.26626068,-0.019089524,-21.9375,-49.95,-23.94375,0.22214642,0.08292793,0.6626336,999.7402, , , , 
2026-03-20 17:27:56.618,2.548356,4.024728,9.410972,-0.1226311,-0.35911214,-0.0044287695,-22.21875,-51.112503,-21.225,0.22298,0.07998361,0.6621833,999.71967, , , , 
2026-03-20 17:27:56.636,3.2087753,4.240082,9.379865,0.13087778,-0.78488487,-0.21517712,-23.7,-51.15,-20.306252,0.22682287,0.07619603,0.66020006,999.71967, , , , 
2026-03-20 17:27:56.656,2.3784657,4.3740797,7.9154572,0.10338886,-1.2076033,-0.3837758,-23.362501,-50.86875,-19.575,0.23447742,0.070452414,0.6555608,999.6933, , , , 
2026-03-20 17:27:56.678,1.2658032,3.8548372,7.735996,-0.11041381,-0.68287045,-0.23900084,-24.13125,-50.437504,-21.075,0.24226192,0.06281459,0.6496754,999.6933, , , , 
2026-03-20 17:27:56.698,3.0963125,3.4767714,9.030513,-0.18799363,-0.3194059,-0.18280129,-23.6625,-50.8875,-20.325,0.24361327,0.0591723,0.6478326,999.68085, , , , 
2026-03-20 17:27:56.718,2.9120653,4.3357944,8.006385,-0.20204352,-0.31451902,-0.23777911,-22.331251,-50.250004,-21.73125,0.2443597,0.056338944,0.6458427,999.68085, , , , 
2026-03-20 17:27:56.736,2.1535404,4.354937,7.932207,-0.33887723,-0.41470084,-0.24266604,-20.587502,-49.800003,-24.093752,0.24462825,0.05360742,0.64401686,999.6674, , , , 
2026-03-20 17:27:56.758,1.8161523,4.091727,9.116654,-0.2930624,-0.97730726,-0.102778,-24.093752,-50.193752,-21.09375,0.2463686,0.045987062,0.6406573,999.6674, , , , 
2026-03-20 17:27:56.778,3.022135,3.6370904,9.834501,-0.10674862,-1.1746166,-0.041691523,-25.143751,-51.037502,-20.456251,0.251706,0.037010714,0.63756275,999.6225, , , , 
2026-03-20 17:27:56.798,3.0149565,3.9984066,8.453842,0.07101303,-0.78244144,-0.041691523,-24.6375,-50.625004,-19.462502,0.25769392,0.030167352,0.63488823,999.6225, , , , 
2026-03-20 17:27:56.816,2.696711,4.479364,6.6592255,-0.28695372,-0.44402233,0.013286309,-24.975,-50.156254,-19.7625,0.2613628,0.02519705,0.63318354,999.59906, , , , 
2026-03-20 17:27:56.836,3.290131,4.15394,8.126026,-0.6101012,-0.23021966,0.045051277,-23.19375,-50.2125,-22.10625,0.26064357,0.019929588,0.632577,999.59906, , , , 
2026-03-20 17:27:56.856,2.9240294,3.7328033,10.241281,-0.5380192,-0.18990259,0.014508039,-21.900002,-48.956253,-22.78125,0.2573645,0.014824886,0.6324408,999.5822, , , , 
2026-03-20 17:27:56.877,2.7038896,3.6514473,10.155139,-0.14095704,-0.5942951,0.020616686,-25.125002,-51.037502,-21.862501,0.25749108,0.008745357,0.63140804,999.5822, , , , 
2026-03-20 17:27:56.896,2.7062824,3.749553,9.262616,0.027641632,-0.4067596,0.1452331,-22.40625,-50.850002,-24.468752,0.25956514,0.0058323606,0.63087386,999.6242, , , , 
2026-03-20 17:27:56.917,3.3643086,3.629912,8.482556,-0.14401138,0.30062184,0.18493931,-22.96875,-50.775,-25.35,0.25980002,0.0042649684,0.63219273,999.6242, , , , 
2026-03-20 17:27:56.936,2.6703901,4.0295134,8.664411,-0.24113888,0.3898081,0.17760894,-25.125002,-50.287502,-22.050001,0.2555851,0.0054644197,0.63447803,999.65204,37.88751171,127.73740408,184.475341796875,0.0
2026-03-20 17:27:56.956,2.3377876,3.8835511,8.516056,-0.2509127,0.10453424,0.22464553,-24.056252,-48.675003,-22.25625,0.2524788,0.005242256,0.63637143,999.65204, , , , 
2026-03-20 17:27:56.976,3.1465619,3.6777685,9.008977,-0.10919208,-0.06589704,0.2441932,-25.9125,-49.237503,-23.118752,0.2509716,0.0038083466,0.6381656,999.6562, , , , 
2026-03-20 17:27:56.998,2.9647074,3.4863427,9.169296,0.09483676,-0.36888596,0.10797035,-26.7,-50.193752,-22.66875,0.25238344,0.0014830179,0.63869786,999.6562, , , , 
2026-03-20 17:27:57.017,3.3714871,4.173083,7.3459654,-0.05665771,0.08681916,0.13057235,-27.6375,-50.41875,-22.087502,0.25425142,4.3300035E-5,0.63921136,999.64886, , , , 
2026-03-20 17:27:57.037,2.309074,3.6753755,8.724232,-0.5264127,0.52297664,0.15256348,-27.206251,-51.24375,-22.087502,0.24864994,7.439179E-4,0.64158636,999.64886, , , , 
2026-03-20 17:27:57.057,2.5746772,3.237489,12.212967,-0.11835505,0.2041052,0.2790125,-26.550001,-50.287502,-23.90625,0.24368495,5.6297367E-4,0.6440167,999.623, , , , 
2026-03-20 17:27:57.077,3.4480574,3.6586258,10.4351,0.3507891,0.039171703,0.26801693,-25.987501,-50.98125,-22.6875,0.24398364,0.0017712468,0.64634097,999.623, , , , 
2026-03-20 17:27:57.097,3.603591,4.1347976,8.34138,0.32879797,-0.03718639,0.16722423,-28.462502,-49.612503,-23.75625,0.24664503,0.003495895,0.64785737,999.6296, , , , 
2026-03-20 17:27:57.118,3.5437703,3.8380876,8.642876,0.21823144,0.25053093,0.10430516,-26.5125,-49.29375,-23.5125,0.24843346,0.0051975413,0.64882916,999.6296, , , , 
2026-03-20 17:27:57.136,3.141776,3.5126636,10.155139,0.16997312,0.9408081,0.12568542,-28.087502,-50.475002,-21.581251,0.24645565,0.009665019,0.65085226,999.6132, , , , 
2026-03-20 17:27:57.157,3.9457645,4.019942,10.052248,0.43020153,0.44784024,0.04382955,-25.7625,-48.600002,-23.94375,0.24337392,0.016577635,0.6534755,999.6132, , , , 
2026-03-20 17:27:57.177,3.5509489,4.1276193,7.826923,0.51083565,0.14607304,-0.18341215,-25.2,-50.906254,-24.16875,0.24595818,0.022811674,0.6533646,999.601, , , , 
2026-03-20 17:27:57.197,2.7900312,3.9649072,7.0492554,0.28053966,0.0074067353,-0.23900084,-23.475,-50.23125,-23.625,0.24822319,0.026369117,0.65192586,999.601, , , , 
2026-03-20 17:27:57.217,3.7543387,4.2759743,6.948757,0.14920372,-0.6584359,-0.34651303,-24.4125,-50.456253,-22.125,0.25173315,0.026087623,0.64915305,999.5627, , , , 
2026-03-20 17:27:57.236,3.4911282,4.0295134,6.6017976,0.15592323,-1.4287363,-0.5328268,-23.98125,-49.912502,-23.737501,0.25995556,0.020369021,0.64309436,999.5627, , , , 
2026-03-20 17:27:57.258,2.8594232,3.3882368,6.762117,0.14981459,-1.5203661,-0.47296205,-26.493752,-50.437504,-20.831251,0.27086106,0.0116447285,0.6352596,999.5478, , , , 
2026-03-20 17:27:57.277,2.8354948,2.928815,5.5633125,-0.002290743,-1.0084614,-0.16936226,-27.31875,-50.775,-19.0125,0.2797916,0.003784389,0.6293847,999.5478, , , , 
2026-03-20 17:27:57.296,0.83030945,2.37368,4.8358946,0.12538,-2.007836,0.099418245,-26.19375,-50.4,-20.550001,0.28824586,-0.005293495,0.6249924,999.54974, , , , 
2026-03-20 17:27:57.316,0.10767702,1.4476577,5.1182475,0.59513503,-3.527057,0.40423977,-26.23125,-50.437504,-18.375,0.30662385,-0.023014849,0.618949,999.54974, , , , 
2026-03-20 17:27:57.336,-2.1224337,0.0071784677,0.41156548,1.4735585,-5.5484085,1.0334305,-29.7,-50.79375,-16.59375,0.34042796,-0.049953856,0.6098833,999.5351, , , , 
2026-03-20 17:27:57.357,0.36610186,-1.0959128,-3.211168,1.6256639,-6.1317844,1.4775292,-31.5375,-51.000004,-14.55,0.3967254,-0.09511415,0.5953458,999.5351, , , , 
2026-03-20 17:27:57.378,0.3278167,-1.6366907,-6.8889365,0.87246764,-5.740831,1.9607233,-33.768753,-50.1375,-10.8,0.43745393,-0.13441104,0.5841691,999.4941, , , , 
2026-03-20 17:27:57.399,2.457429,-3.266203,-4.347759,-0.5716167,-4.393874,2.729191,-39.16875,-50.250004,-3.9,0.46536934,-0.1776205,0.57609403,999.4941, , , , 
2026-03-20 17:27:57.416,5.541777,-3.8739798,-1.2586247,-1.0688607,-3.3804493,3.0779948,-37.95,-47.662502,-1.40625,0.47790554,-0.22106282,0.5739862,999.4111, , , , 
2026-03-20 17:27:57.436,6.501299,-4.9316072,0.5168497,-1.37918,-2.3004403,3.424966,-42.91875,-45.318752,0.075,0.4793499,-0.2615207,0.57710123,999.4111, , , , 
2026-03-20 17:27:57.456,9.32483,-5.13739,2.6679974,-1.4848596,-1.6999604,3.7725482,-44.756252,-43.631252,-1.06875,0.46912584,-0.30781728,0.5878823,999.40765, , , , 
2026-03-20 17:27:57.476,11.62194,-5.058427,4.7114677,-1.2826633,-2.496528,3.7841547,-45.1875,-39.84375,0.45000002,0.46009564,-0.3453317,0.5959822,999.40765, , , , 
2026-03-20 17:27:57.497,11.363515,-5.6733823,3.7208393,-1.0676389,-2.754313,3.886169,-47.325,-36.80625,-1.03125,0.45506003,-0.38393286,0.6010216,999.4516, , , , 
2026-03-20 17:27:57.516,12.397214,-6.1806607,1.5960127,-1.2191334,-2.3651922,4.009564,-49.48125,-34.93125,1.5562501,0.4483216,-0.42146012,0.605847,999.4516, , , , 
2026-03-20 17:27:57.536,12.906885,-6.7645097,1.9190438,-1.722486,-1.6174936,3.9570293,-49.8375,-30.862501,1.81875,0.4357926,-0.4577739,0.6101128,999.5058, , , , 
2026-03-20 17:27:57.556,10.772488,-7.4416785,2.7349963,-1.8990259,-0.9889137,4.015672,-49.687504,-27.88125,2.86875,0.41093862,-0.49946,0.6158913,999.5058, , , , 
2026-03-20 17:27:57.576,8.592627,-8.549556,2.8283165,-1.8214461,-1.0139592,4.3614216,-52.162502,-23.925001,5.68125,0.39310807,-0.5233977,0.61996925,999.47894, , , , 
2026-03-20 17:27:57.596,10.025927,-9.573684,2.3904297,-1.5544982,-1.5191443,4.640587,-55.893753,-22.06875,5.9812503,0.36340547,-0.5636458,0.6265669,999.47894, , , , 
2026-03-20 17:27:57.616,11.968899,-10.210175,2.4335005,-1.2368485,-1.5594615,4.5623965,-54.112503,-16.1625,6.0750003,0.3413153,-0.5936978,0.63107467,999.45355, , , , 
2026-03-20 17:27:57.637,11.700903,-10.968699,1.6295122,-0.8972076,-1.3193916,4.468323,-56.60625,-14.56875,7.93125,0.31974527,-0.61919475,0.6359479,999.45355, , , , 
2026-03-20 17:27:57.656,11.722438,-11.38505,1.9381863,-0.7322742,-1.249753,4.491536,-54.9,-9.0375,7.74375,0.29743063,-0.6413667,0.6411468,999.4216, , , , 
2026-03-20 17:27:57.676,14.0291195,-11.667403,0.8279166,-0.4470003,-1.3566543,4.345539,-54.075,-6.24375,9.825001,0.2756637,-0.66047096,0.6464299,999.4216, , , , 
2026-03-20 17:27:57.696,15.55574,-11.992827,0.552742,-0.34559676,-1.511203,3.962527,-52.0875,-2.9250002,9.431251,0.2570965,-0.6767736,0.65021604,999.4025, , , , 
2026-03-20 17:27:57.716,14.136796,-10.537991,-0.083748795,-0.25213444,-0.919886,3.614334,-50.850002,1.0500001,9.993751,0.24057579,-0.6897553,0.65308493,999.4025, , , , 
2026-03-20 17:27:57.736,14.663218,-10.786844,-0.4953143,-0.5209149,-0.011530072,3.2050548,-50.41875,4.18125,13.950001,0.2158411,-0.7027459,0.65580976,999.3776, , , , 
2026-03-20 17:27:57.756,14.483755,-8.836694,0.8566305,-1.0633628,1.0171663,2.5196645,-50.737503,7.51875,11.925,0.18553023,-0.7147099,0.6553765,999.3671, , , , 
2026-03-20 17:27:57.777,14.404793,-8.554341,1.7012969,-1.0450369,1.1594977,2.1177154,-49.74375,8.75625,10.668751,0.16805986,-0.7209477,0.6538885,999.3671, , , , 
2026-03-20 17:27:57.797,13.438092,-7.233503,2.3018954,-0.7884737,1.13995,1.4298817,-48.7125,8.85,11.325001,0.14839461,-0.7269457,0.6519581,999.3671, , , , 
2026-03-20 17:27:57.816,13.026526,-6.582655,1.9932213,-0.49098256,1.009225,0.8214604,-48.3375,9.900001,10.6125,0.13388348,-0.73017764,0.65077525,999.3671, , , , 
2026-03-20 17:27:57.836,11.097912,-6.498906,1.8017955,-0.2790125,1.2132539,0.26496258,-47.100002,11.418751,7.4625,0.123805664,-0.7309197,0.6502844,999.3671, , , , 
2026-03-20 17:27:57.856,9.092726,-6.867401,0.5982057,-0.17211115,1.1051308,0.10063997,-47.15625,10.40625,7.2187505,0.11579652,-0.72988343,0.65056944,999.373, , , , 
2026-03-20 17:27:57.877,8.762517,-6.5276203,0.91166544,-0.13423753,0.97623825,0.0010690134,-47.925003,13.200001,7.9125004,0.107937925,-0.72853655,0.6506079,999.373, , , , 
2026-03-20 17:27:57.897,7.556534,-6.6592255,0.6029913,-0.0065667965,0.87911075,-0.07651082,-47.456253,10.387501,7.2562504,0.10308905,-0.7267451,0.6510492,999.37494, , , , 
2026-03-20 17:27:57.916,6.3792653,-6.599405,-0.04546363,0.048411034,0.6243802,0.067653276,-48.843754,10.743751,7.0687504,0.099261515,-0.72493094,0.65190315,999.37494, , , , 
2026-03-20 17:27:57.936,7.1210403,-6.242874,-0.14117654,0.07040217,0.6048325,0.05054906,-49.162502,12.58125,4.9875,0.0953919,-0.7232861,0.6529347,999.39154,37.88751171,127.73740408,184.475341796875,0.0
2026-03-20 17:27:57.957,5.2019963,-6.936793,-0.23928227,0.17180572,0.60605425,0.04016436,-47.71875,11.868751,5.64375,0.09168327,-0.7212717,0.65398794,999.39154, , , , 
2026-03-20 17:27:57.978,3.7447674,-7.628319,-1.2227324,0.08261946,0.17600541,0.25763223,-51.037502,10.650001,6.0750003,0.08948045,-0.71974415,0.65544736,999.4096, , , , 
2026-03-20 17:27:57.999,4.8622155,-6.8171515,0.26799613,-0.013897174,-0.2296088,0.5080868,-48.6375,13.33125,4.8562503,0.086277135,-0.7202528,0.6563666,999.41425, , , , 
2026-03-20 17:27:58.018,6.73101,-6.836294,1.2203395,0.17974696,-0.42752898,0.45494154,-48.0,11.85,4.59375,0.085760914,-0.72064656,0.6572646,999.41425, , , , 
2026-03-20 17:27:58.038,6.498906,-6.707082,0.6939186,0.4271472,-0.6101776,0.2924515,-48.225002,13.687501,4.9875,0.08815018,-0.7193891,0.66046315,999.4279, , , , 
2026-03-20 17:27:58.058,8.128419,-6.719046,0.30388847,0.38621926,-0.49105892,0.13179408,-49.518753,13.1625,6.8437505,0.09156333,-0.71772087,0.66326845,999.4279, , , , 
2026-03-20 17:27:58.078,9.932607,-6.7334027,1.146162,0.35201082,-0.25526512,-0.310472,-49.66875,11.775001,7.0875,0.09591677,-0.71573883,0.6651599,999.4279, , , , 
2026-03-20 17:27:58.097,9.79143,-7.075577,0.20817557,0.36300638,-0.563141,-0.6342304,-48.787502,13.2375,7.0687504,0.10293571,-0.71313316,0.6664322,999.44525, , , , 
2026-03-20 17:27:58.116,12.583855,-6.613762,-0.25842485,0.15714496,-1.3279437,-0.9805907,-46.425003,13.218751,6.8250003,0.11938314,-0.7117934,0.66532797,999.44525, , , , 
2026-03-20 17:27:58.136,14.306686,-6.5778694,1.9621146,0.01970039,-1.7072906,-1.4387393,-47.381252,10.650001,6.15,0.13424376,-0.7122108,0.6623445,999.47015, , , , 
2026-03-20 17:27:58.156,13.974084,-6.1806607,5.8887367,0.29458955,-1.5356377,-1.7887648,-47.11875,9.918751,7.55625,0.15765105,-0.7114874,0.6570956,999.47015, , , , 
2026-03-20 17:27:58.176,13.818551,-5.7020965,6.0921264,0.9451605,-1.1850014,-1.9872959,-48.693752,9.375,8.212501,0.18752408,-0.703888,0.6567783,999.51337, , , , 
2026-03-20 17:27:58.196,15.347565,-5.393422,3.1489546,1.3318379,-0.8056543,-2.1455097,-47.5875,8.3625,8.925,0.210569,-0.69296455,0.659731,999.51337, , , , 
2026-03-20 17:27:58.217,15.046069,-5.8863435,1.564906,1.3049599,-0.76594806,-2.5315764,-48.393753,5.90625,9.450001,0.2348542,-0.6798906,0.66233134,999.61884, , , , 
2026-03-20 17:27:58.236,15.081961,-6.6687965,0.10289137,1.1064289,-0.9357685,-2.8211262,-49.55625,3.80625,9.69375,0.26186663,-0.6668038,0.6622338,999.61884, , , , 
2026-03-20 17:27:58.256,16.177874,-7.372287,0.5910272,0.8278745,-0.45318532,-3.0630288,-49.425003,2.325,10.387501,0.28838646,-0.6539225,0.65972006,999.6662, , , , 
2026-03-20 17:27:58.276,15.878771,-8.051848,0.3397808,0.5059488,0.34888014,-3.3800676,-50.362503,-0.01875,11.400001,0.316671,-0.6361714,0.65499014,999.6662, , , , 
2026-03-20 17:27:58.298,14.397614,-8.779266,0.55513483,0.11499529,0.96218836,-3.738645,-50.98125,-3.9375002,10.44375,0.33471638,-0.6208176,0.64940584,999.68475, , , , 
2026-03-20 17:27:58.316,13.093526,-9.829716,1.6845472,0.042302385,0.8888846,-3.8736463,-51.975002,-6.76875,9.46875,0.34747115,-0.60898304,0.6437943,999.68475, , , , 
2026-03-20 17:27:58.336,12.038291,-10.30828,2.349752,0.29397866,0.73005974,-3.8962483,-51.16875,-9.525001,6.61875,0.3694841,-0.5876657,0.63369393,999.6994, , , , 
2026-03-20 17:27:58.356,11.531013,-10.427921,1.7778672,0.5780308,0.32139122,-3.956113,-52.36875,-12.281251,9.993751,0.38397944,-0.5736075,0.6275415,999.6994, , , , 
2026-03-20 17:27:58.377,9.942178,-9.970892,0.8470592,0.78511393,-0.49044806,-4.014756,-54.9,-16.1625,10.012501,0.4138575,-0.550057,0.61454123,999.7238, , , , 
2026-03-20 17:27:58.396,7.8029947,-9.664611,0.50009996,0.7979421,-1.0157918,-3.8913615,-53.23125,-19.462502,10.33125,0.44171202,-0.5325613,0.60091317,999.7238, , , , 
2026-03-20 17:27:58.417,7.8053875,-9.58804,-0.38524446,0.71242106,-1.023733,-3.5914268,-51.318752,-25.0125,12.918751,0.4754489,-0.5126376,0.5823552,999.72943, , , , 
2026-03-20 17:27:58.436,8.315059,-9.238688,-0.96430755,0.55970484,-0.9009492,-3.4362671,-51.300003,-27.862501,12.0,0.49948534,-0.49756542,0.56754255,999.72943, , , , 
2026-03-20 17:27:58.456,7.0540414,-9.047262,-0.57906306,0.43508843,-0.5307651,-3.2658358,-49.48125,-28.837502,14.793751,0.5154318,-0.48632807,0.55665946,999.72894, , , , 
2026-03-20 17:27:58.476,3.804588,-8.025527,0.47138608,0.60796314,-0.13125958,-2.673297,-48.318752,-31.06875,14.64375,0.5363036,-0.46675444,0.54254925,999.72894, , , , 
2026-03-20 17:27:58.497,3.3930225,-7.1018977,-1.4500505,0.7270818,-0.24732387,-2.1045818,-44.025,-33.0,14.306251,0.55005056,-0.45247716,0.5351612,999.70306, , , , 
2026-03-20 17:27:58.516,2.0147567,-6.6975107,-2.2995026,0.55115277,-0.34506226,-1.5462514,-45.35625,-33.75,14.343751,0.56176937,-0.44196936,0.5288883,999.68207, , , , 
2026-03-20 17:27:58.536,0.5982057,-6.1495543,-1.5457634,0.48151416,-0.42691812,-0.77656186,-45.84375,-35.41875,15.4125,0.5703753,-0.43616942,0.52432144,999.68207, , , , 
2026-03-20 17:27:58.556,0.45702913,-5.5633125,-1.5481563,0.5700896,-0.3334558,0.041996952,-45.112503,-35.25,17.643751,0.5758231,-0.43427598,0.52329695,999.68207, , , , 
2026-03-20 17:27:58.577,0.23928227,-5.245067,-2.955136,0.42959064,0.11675153,0.67363113,-45.412502,-34.537502,17.79375,0.57730514,-0.43497443,0.5265238,999.65717, , , , 
2026-03-20 17:27:58.597,-0.3469593,-5.111069,-3.4193435,0.025809037,0.55474156,1.2099704,-43.706253,-35.5875,16.425001,0.5727972,-0.43835345,0.5335416,999.65717, , , , 
2026-03-20 17:27:58.616,-0.19142582,-4.9603214,-2.7756743,-0.27351472,0.73922276,1.6320779,-46.2,-34.21875,16.143751,0.5628096,-0.44497192,0.5427586,999.63837, , , , 
2026-03-20 17:27:58.638,0.40677986,-7.094719,-1.8113668,-0.4176788,0.6964622,2.0040946,-48.187504,-32.4375,16.725,0.5421482,-0.45930433,0.5582292,999.62616, , , , 
2026-03-20 17:27:58.656,0.13399807,-8.669196,-1.0600204,-0.36514443,0.49609855,2.3058617,-47.9625,-32.15625,14.981251,0.5307511,-0.4684227,0.5663479,999.62616, , , , 
2026-03-20 17:27:58.678,0.50009996,-10.442278,-0.42592242,-0.15256348,0.015958842,2.9607089,-47.7,-29.2875,16.331251,0.5152991,-0.4833904,0.57780385,999.62616, , , , 
2026-03-20 17:27:58.697,2.2301106,-11.334801,-1.4237294,-0.069485866,-0.3023017,3.5721846,-50.756252,-27.206251,14.062501,0.49908495,-0.50167674,0.59019625,999.60394, , , , 
2026-03-20 17:27:58.717,4.3908296,-12.157932,-2.1559331,-0.27046037,-0.36094472,3.9484773,-50.79375,-25.218752,13.950001,0.4808825,-0.5230322,0.6022873,999.60394, , , , 
2026-03-20 17:27:58.736,5.2498527,-12.799209,-1.2251252,-0.5203041,-0.1966221,4.242914,-51.43125,-21.1875,13.63125,0.459199,-0.5463124,0.6133647,999.60443, , , , 
2026-03-20 17:27:58.756,6.2261243,-12.983456,0.3684947,-0.57650363,0.042836893,4.5697265,-51.91875,-14.6625,13.35,0.42617974,-0.5758331,0.627136,999.60443, , , , 
2026-03-20 17:27:58.776,8.315059,-12.725031,0.4019942,-0.5539016,0.3079522,4.712669,-53.5125,-14.043751,13.293751,0.40358007,-0.59259146,0.6358129,999.58685, , , , 
2026-03-20 17:27:58.797,9.382257,-13.033705,-0.038285162,-0.64919657,0.45089456,4.7187777,-52.143753,-9.431251,13.81875,0.36313125,-0.61820877,0.64930135,999.58685, , , , 
2026-03-20 17:27:58.816,9.671789,-13.148561,0.45702913,-0.67485285,0.26335907,4.743823,-50.943752,-6.3375,14.75625,0.3299768,-0.63764256,0.6578008,999.5876, , , , 
2026-03-20 17:27:58.836,9.961321,-12.784851,0.81834537,-0.59544045,0.22365287,4.781697,-50.100002,-3.0,12.468751,0.2972014,-0.65566504,0.6646051,999.5876, , , , 
2026-03-20 17:27:58.856,10.9375925,-12.57189,0.40438703,-0.58322316,0.41424268,4.7694793,-50.193752,0.84375006,12.4125,0.2634052,-0.6716301,0.67054206,999.56757, , , , 
2026-03-20 17:27:58.876,12.076576,-12.500106,-0.16031912,-0.68890274,0.5749001,4.5972157,-48.206253,5.6625004,13.012501,0.22879604,-0.6858194,0.6749518,999.56757, , , , 
2026-03-20 17:27:58.896,12.5551405,-12.404392,-0.3924229,-0.8874338,0.8253547,4.304611,-49.818752,8.71875,14.700001,0.19420615,-0.69876355,0.67699856,999.54974, , , , 
2026-03-20 17:27:58.916,12.71546,-12.007184,0.26799613,-1.098793,1.1320088,3.9558077,-46.78125,13.406251,11.94375,0.15086839,-0.71373045,0.6760814,999.54974, , , , 
2026-03-20 17:27:58.936,13.217953,-10.607383,0.6436693,-1.1806489,1.2401319,3.5819583,-44.850002,15.712501,12.075001,0.117310435,-0.7244556,0.6732009,999.5185,37.88751171,127.73740408,184.475341796875,0.0
2026-03-20 17:27:58.957,13.232309,-9.123833,0.83030945,-1.3144283,1.2859467,3.113425,-43.6875,18.5625,12.4125,0.08611034,-0.7342646,0.6684574,999.5185, , , , 
2026-03-20 17:27:58.977,12.88535,-8.152347,2.2827528,-1.2851068,1.1527781,2.6363397,-41.34375,19.181252,10.89375,0.05848064,-0.74335897,0.66213,999.5036, , , , 
2026-03-20 17:27:58.997,13.10549,-8.224132,2.359323,-0.9918917,1.0116684,2.3040292,-41.79375,21.375,11.7375,0.034535732,-0.7504187,0.65638286,999.5036, , , , 
2026-03-20 17:27:59.016,13.519448,-8.303095,1.9525433,-0.7005092,0.9365321,2.0010402,-41.68125,21.88125,11.25,0.014006116,-0.755099,0.6521855,999.50946, , , , 
2026-03-20 17:27:59.036,14.07219,-7.9657063,1.550549,-0.5227475,0.94386244,1.641241,-39.825,23.19375,12.825001,-0.003879644,-0.7579292,0.6492458,999.50946, , , , 
2026-03-20 17:27:59.058,15.634703,-7.8628154,1.1557333,-0.36331183,0.79908746,1.0285436,-38.90625,23.925001,10.51875,-0.020913336,-0.7599671,0.64644283,999.5207, , , , 
2026-03-20 17:27:59.076,15.543776,-7.3746796,1.4644074,-0.2093739,0.6243802,0.43783733,-38.2125,25.237501,10.5375,-0.028092029,-0.7607912,0.6448176,999.5207, , , , 
2026-03-20 17:27:59.097,14.699109,-8.059027,1.026521,-0.06704241,0.46922052,-0.13332124,-38.34375,25.35,10.6875,-0.030095452,-0.76085865,0.64397556,999.5234, , , , 
2026-03-20 17:27:59.117,13.8353,-7.635497,1.6773686,0.110108376,0.30428702,-0.38499752,-37.6875,24.91875,10.650001,-0.028616194,-0.7602537,0.6438801,999.5234, , , , 
2026-03-20 17:27:59.137,14.735002,-6.9224358,2.1248264,0.30497423,-0.039629854,-0.8003856,-37.0125,24.393751,7.36875,-0.023412198,-0.7586351,0.6450311,999.5214, , , , 
2026-03-20 17:27:59.156,15.644275,-6.7645097,2.672783,0.51450086,-0.63583386,-1.5028801,-37.96875,23.41875,8.606251,-0.011213633,-0.756102,0.64722586,999.5214, , , , 
2026-03-20 17:27:59.176,14.598611,-7.676175,2.3641088,0.6861539,-1.1837796,-2.4197881,-39.24375,23.643751,9.806251,0.017743276,-0.7514799,0.6508274,999.53485, , , , 
2026-03-20 17:27:59.196,12.528819,-9.363115,4.1347976,0.8009964,-1.2974005,-3.066083,-40.425003,22.1625,9.543751,0.04862033,-0.7466567,0.6530179,999.53485, , , , 
2026-03-20 17:27:59.216,12.08854,-10.674382,4.735396,1.0007492,-1.2002729,-3.423439,-42.300003,19.462502,10.200001,0.082260825,-0.73935825,0.6554889,999.55853, , , , 
2026-03-20 17:27:59.236,11.846865,-12.21536,4.046263,1.3110685,-1.109865,-3.8186684,-44.081253,18.018751,12.337501,0.11811862,-0.7286532,0.65873975,999.55853, , , , 
2026-03-20 17:27:59.258,11.277373,-13.871193,2.1559331,1.38987,-1.1147518,-4.1845765,-46.875,16.275002,9.337501,0.15597303,-0.715221,0.66154206,999.5861, , , , 
2026-03-20 17:27:59.278,11.112268,-15.139389,0.93559366,1.2224932,-1.1807252,-4.3415685,-48.80625,12.69375,11.587501,0.19487372,-0.70072997,0.6620594,999.5861, , , , 
2026-03-20 17:27:59.296,10.813166,-15.268601,0.95712906,1.0777181,-1.2882375,-4.3916597,-46.59375,12.056251,10.78125,0.22440356,-0.6899705,0.66027355,999.6025, , , , 
2026-03-20 17:27:59.316,11.789437,-14.969499,1.4356936,0.8009964,-1.5295291,-4.579195,-49.125004,5.4375,12.656251,0.27431142,-0.67233723,0.65308505,999.6025, , , , 
2026-03-20 17:27:59.336,11.844472,-14.512469,1.253839,0.6189587,-1.3255002,-4.8229303,-46.256252,1.9125,8.700001,0.32490546,-0.6533782,0.6413569,999.61053, , , , 
2026-03-20 17:27:59.356,11.722438,-14.52204,1.1437693,0.5090031,-1.0701587,-4.917614,-50.4,-0.056250002,14.025001,0.34416673,-0.6450746,0.6357938,999.61053, , , , 
2026-03-20 17:27:59.376,9.659825,-14.404793,1.4979069,0.51633346,-0.39454228,-4.9939723,-50.756252,-3.9562502,14.437501,0.39671874,-0.6166375,0.6184472,999.63055, , , , 
2026-03-20 17:27:59.396,8.0614195,-13.6606245,0.9834501,0.6232348,-0.09155336,-4.853473,-49.95,-7.9687505,13.650001,0.42721894,-0.59454584,0.6080219,999.63055, , , , 
2026-03-20 17:27:59.416,7.6977105,-12.777673,0.25124636,0.64705855,0.012293654,-4.755124,-48.35625,-13.89375,13.9875,0.45497215,-0.5710443,0.5978796,999.6442, , , , 
2026-03-20 17:27:59.436,6.15434,-12.375679,0.02871387,0.68126696,-0.21372631,-4.5920234,-49.706253,-17.53125,15.1125,0.4816649,-0.5470692,0.58663076,999.6442, , , , 
2026-03-20 17:27:59.456,5.7403817,-12.19861,-0.11964113,0.6696605,-0.46479174,-4.3635597,-48.093754,-20.587502,13.875001,0.5079378,-0.5241634,0.57386506,999.64716, , , , 
2026-03-20 17:27:59.476,4.0414777,-11.600404,-0.07178468,0.68798643,-0.25587597,-3.987878,-47.925003,-23.94375,14.981251,0.53216106,-0.5020249,0.5610572,999.64716, , , , 
2026-03-20 17:27:59.497,2.0745773,-10.69831,-0.9499506,0.6354521,0.020845762,-3.477195,-46.21875,-26.156252,17.85,0.5521625,-0.48033023,0.5504371,999.642, , , , 
2026-03-20 17:27:59.516,1.3782659,-10.169497,-1.8999012,0.4411971,0.1485165,-2.9090908,-44.1375,-29.156252,15.337501,0.5711094,-0.45636532,0.5397151,999.642, , , , 
2026-03-20 17:27:59.536,0.09810573,-9.611969,-1.9764715,0.23961172,0.20593779,-2.4081817,-43.912502,-31.63125,15.76875,0.58214396,-0.44071743,0.5322932,999.64594, , , , 
2026-03-20 17:27:59.556,-1.1772687,-8.7673025,-1.5194423,0.17669263,0.11247548,-1.8773402,-42.84375,-33.6375,15.618751,0.59019625,-0.42872444,0.52618253,999.64594, , , , 
2026-03-20 17:27:59.576,-1.3950156,-8.925228,-1.7443677,0.12660173,-0.043905906,-1.091768,-42.393753,-34.3125,14.3625,0.5961937,-0.4209979,0.52151346,999.6401, , , , 
2026-03-20 17:27:59.596,-2.603391,-9.628718,-1.5625132,0.13148865,-0.01886045,-0.37461284,-40.537502,-36.0,14.887501,0.59951246,-0.41728684,0.51925236,999.6401, , , , 
2026-03-20 17:27:59.616,-2.9455647,-10.238888,-2.4478576,0.13209951,-0.15569416,0.5496256,-39.693752,-34.78125,14.26875,0.59977067,-0.4184023,0.5204632,999.6401, , , , 
2026-03-20 17:27:59.636,-1.1413764,-10.018748,-2.9718857,-0.09575305,-0.16791146,1.5270092,-39.99375,-36.1875,14.83125,0.5950756,-0.42887115,0.5258075,999.6401, , , , 
2026-03-20 17:27:59.656,0.8327023,-9.387043,-2.7062824,-0.36453354,0.00923933,2.0932808,-42.881252,-34.725002,12.281251,0.5884968,-0.4390753,0.5309718,999.64545, , , , 
2026-03-20 17:27:59.676,2.9048867,-9.442079,-1.4524434,-0.57589275,0.11064288,2.512945,-41.737503,-31.143751,14.418751,0.5721218,-0.46002743,0.54147565,999.64545, , , , 
2026-03-20 17:27:59.696,3.7998023,-9.913465,-0.6149554,-0.55206907,0.10331251,2.7847798,-42.956253,-29.775002,15.562501,0.5563478,-0.47850803,0.5507971,999.64374, , , , 
2026-03-20 17:27:59.716,3.8811584,-10.947164,-0.076570325,-0.48120874,0.11980586,3.1885614,-45.0,-28.368752,15.075001,0.5386465,-0.4977242,0.5612978,999.64374, , , , 
2026-03-20 17:27:59.736,4.833502,-12.033505,0.61734825,-0.39813113,0.01962403,3.7035205,-45.61875,-25.687502,14.062501,0.51867026,-0.51857334,0.5729353,999.6486, , , , 
2026-03-20 17:27:59.756,6.6041903,-12.8518505,1.3974084,-0.21914774,0.08620829,4.2135925,-46.800003,-22.2,13.368751,0.49569002,-0.5406371,0.58623147,999.6486, , , , 
2026-03-20 17:27:59.776,9.506684,-12.68196,0.62931234,0.024587307,0.17539455,4.3540916,-47.737503,-18.16875,12.0,0.46360597,-0.56669664,0.6051305,999.65765, , , , 
2026-03-20 17:27:59.796,9.142975,-12.380465,-0.22253251,0.107054055,0.17722714,4.3540916,-46.40625,-16.556252,13.6125,0.44407198,-0.58065534,0.61625034,999.65765, , , , 
2026-03-20 17:27:59.816,8.312666,-12.423535,-0.5910272,0.042302385,0.21448989,4.5391836,-47.193752,-10.40625,11.962501,0.41711622,-0.5985988,0.63001335,999.65643, , , , 
2026-03-20 17:27:59.836,7.920243,-12.583855,0.3900301,-0.002290743,0.45211628,4.8806567,-46.59375,-7.4812503,11.7375,0.3788331,-0.6207333,0.64638007,999.65643, , , , 
2026-03-20 17:27:59.856,9.049655,-12.354143,0.0,-0.005345067,0.8216895,5.1121745,-46.55625,-3.0,11.15625,0.3439109,-0.63708854,0.659468,999.6503, , , , 
2026-03-20 17:27:59.876,10.978271,-11.710474,-1.3543376,-0.28267768,1.4307216,5.0394816,-47.362503,1.7812501,11.4375,0.30470645,-0.65178216,0.6717199,999.6503, , , , 
2026-03-20 17:27:59.896,11.382657,-11.411371,-1.294517,-0.7341067,1.7086651,4.775588,-46.256252,4.9875,11.45625,0.26253286,-0.6659245,0.68064636,999.6164, , , , 
2026-03-20 17:27:59.916,12.196217,-10.947164,0.5240282,-1.0157154,1.4600432,4.523301,-44.11875,8.212501,9.50625,0.21057932,-0.68366134,0.68574166,999.6164, , , , 
2026-03-20 17:27:59.936,13.840086,-9.937392,0.96430755,-1.022435,1.1008546,4.067596,-44.006252,9.993751,6.4500003,0.17342639,-0.6964154,0.6864098,999.6049,37.88749061,127.73740522,185.8936767578125,1.69
2026-03-20 17:27:59.956,14.0291195,-9.0951185,1.0983056,-0.97173315,0.81741345,3.5275915,-42.1875,14.137501,8.962501,0.1497545,-0.70459116,0.6855155,999.6049, , , , 
2026-03-20 17:27:59.976,13.715659,-8.444271,0.96909314,-1.0028872,0.7050143,2.9295547,-40.66875,17.2875,9.075001,0.117138684,-0.71625024,0.68210006,999.59393, , , , 
2026-03-20 17:27:59.996,13.272987,-8.221739,1.3375878,-1.1140647,1.004949,2.521497,-40.725002,17.025002,9.4125,0.093654945,-0.7247378,0.6778106,999.59393, , , , 
2026-03-20 17:28:00.016,12.880565,-8.489735,2.3186452,-1.0028872,1.1698824,2.2246168,-37.875,19.331251,6.8250003,0.07058772,-0.73222554,0.6730491,999.591, , , , 
2026-03-20 17:28:00.036,13.655839,-8.188239,2.778067,-0.67729634,0.83451766,2.0480769,-36.487503,20.475,6.9187503,0.04966887,-0.7376812,0.66936827,999.591, , , , 
2026-03-20 17:28:00.056,15.194424,-7.446464,2.4741786,-0.2838994,0.41790786,1.7780746,-35.925003,21.65625,6.01875,0.033556286,-0.7403929,0.6679299,999.5959, , , , 
2026-03-20 17:28:00.076,16.744972,-7.1712894,1.0695918,0.08933897,0.008628465,1.1177298,-34.0125,22.706251,8.700001,0.022318348,-0.740406,0.66899914,999.5959, , , , 
2026-03-20 17:28:00.096,16.79283,-7.025327,0.08135597,0.14065161,-0.07506001,0.5270236,-31.95,24.900002,8.962501,0.019769235,-0.7393621,0.67045,999.59467, , , , 
2026-03-20 17:28:00.116,16.721045,-7.5517483,-0.033499517,0.055130545,0.0074067353,-0.012370012,-32.4375,23.00625,6.0375004,0.02105884,-0.73860836,0.6711196,999.59467, , , , 
2026-03-20 17:28:00.136,16.185053,-8.236095,1.1078769,0.074067354,0.07765619,-0.48517936,-33.975002,23.456251,6.9375005,0.025264706,-0.7379288,0.6712295,999.58856, , , , 
2026-03-20 17:28:00.157,15.957734,-8.118847,1.9788643,0.26832235,-0.002367101,-1.0276272,-34.3875,24.4125,8.175,0.03270449,-0.7361392,0.6720367,999.58856, , , , 
2026-03-20 17:28:00.176,15.862021,-7.920243,1.7443677,0.45158178,-0.26748243,-1.6439898,-33.43125,23.8875,6.39375,0.04515751,-0.73281074,0.6737561,999.5915, , , , 
2026-03-20 17:28:00.196,15.163317,-8.69791,2.024328,0.51144654,-0.5362629,-2.370919,-35.8875,22.650002,6.8812504,0.06414873,-0.72836393,0.6753656,999.5915, , , , 
2026-03-20 17:28:00.217,13.730017,-10.186246,2.5938199,0.64278245,-0.6101776,-3.0587528,-36.80625,21.675001,6.58125,0.0959871,-0.7208786,0.67658114,999.5944, , , , 
2026-03-20 17:28:00.236,11.990435,-11.887543,3.562913,0.857196,-0.49411324,-3.4802494,-37.66875,20.475,7.5000005,0.124753,-0.71226794,0.6775227,999.5944, , , , 
2026-03-20 17:28:00.256,10.944771,-12.909278,2.3377876,1.0508401,-0.39393142,-3.7001607,-40.10625,18.46875,7.1062503,0.14704782,-0.7037264,0.6787402,999.61273, , , , 
2026-03-20 17:28:00.276,10.750952,-13.974084,1.3471591,1.0386229,-0.5637518,-3.852877,-41.30625,16.125,6.2812505,0.18521625,-0.687623,0.67966276,999.61273, , , , 
2026-03-20 17:28:00.298,11.91865,-14.086547,1.7515461,0.90606517,-1.0133483,-4.142427,-44.04375,12.731251,6.76875,0.21840562,-0.67459124,0.6775594,999.62396, , , , 
2026-03-20 17:28:00.316,12.150753,-14.330615,1.9094725,0.8364266,-1.1349103,-4.53338,-44.90625,10.5375,5.7375,0.2553465,-0.660784,0.6723423,999.62396, , , , 
2026-03-20 17:28:00.336,10.030712,-14.163117,1.6007984,0.70570153,-0.6950878,-4.827817,-45.7125,6.6937504,7.89375,0.29288518,-0.64513004,0.6647321,999.63763, , , , 
2026-03-20 17:28:00.356,8.568698,-13.7730875,0.79920274,0.54443324,-0.07383828,-4.7826133,-48.787502,3.8812501,8.85,0.32588217,-0.62766665,0.65628237,999.63763, , , , 
2026-03-20 17:28:00.376,7.288538,-12.406785,0.42831525,0.46257734,0.5577959,-4.4472485,-49.162502,-2.3625002,7.8562503,0.358301,-0.6041881,0.64620787,999.6557, , , , 
2026-03-20 17:28:00.396,7.7886376,-11.4903345,0.5479564,0.491288,0.5449678,-4.2700977,-52.29375,-6.9187503,9.375,0.37450227,-0.5894903,0.640556,999.6557, , , , 
2026-03-20 17:28:00.416,8.149954,-11.432906,0.5192425,0.6262891,-0.08605558,-4.32141,-51.35625,-10.3125,8.85,0.4029242,-0.56467396,0.6291937,999.65326, , , , 
2026-03-20 17:28:00.438,7.8556366,-11.499906,0.2656033,0.69287336,-0.5851321,-4.37089,-50.025,-11.15625,6.43125,0.42296222,-0.5500991,0.6200549,999.65326, , , , 
2026-03-20 17:28:00.456,6.111269,-11.464013,0.45702913,0.7863357,-1.3206133,-4.3324056,-53.175003,-18.46875,9.806251,0.46096006,-0.5272019,0.6004792,999.65497, , , , 
2026-03-20 17:28:00.476,4.7832522,-11.224731,0.45224348,0.8339831,-1.6199371,-4.1974044,-48.075,-23.025002,8.45625,0.48489535,-0.5140892,0.58706665,999.65497, , , , 
2026-03-20 17:28:00.498,2.644069,-10.971092,-0.5192425,0.7319687,-1.4953207,-3.838216,-48.24375,-24.31875,12.243751,0.52321166,-0.49287093,0.56403923,999.6584, , , , 
2026-03-20 17:28:00.516,1.5337993,-11.07159,-0.9762716,0.48640108,-1.01457,-3.4203846,-48.80625,-28.275002,15.618751,0.5485425,-0.47720686,0.5468986,999.6584, , , , 
2026-03-20 17:28:00.536,-1.294517,-10.844273,-1.4907285,0.11133011,-0.13736822,-2.5132504,-43.59375,-29.456251,13.743751,0.5685959,-0.4596961,0.53151613,999.65424, , , , 
2026-03-20 17:28:00.556,-1.5433706,-10.442278,-1.7611175,-0.09392046,0.06482802,-1.6733114,-44.568752,-32.175003,13.556251,0.57660604,-0.45004457,0.5240615,999.65424, , , , 
2026-03-20 17:28:00.576,-2.3162522,-10.669596,-1.8281165,-0.27412558,-0.046349365,-0.87002414,-42.825,-34.36875,14.1,0.58041936,-0.445333,0.5190092,999.6523, , , , 
2026-03-20 17:28:00.597,-2.7326035,-10.463814,-0.55752766,-0.31627524,-0.053679742,-0.2102902,-43.800003,-34.2,12.656251,0.5809703,-0.44571534,0.51600426,999.6523, , , , 
2026-03-20 17:28:00.616,-3.2638102,-10.6408825,0.5838487,-0.095142186,0.11491894,0.47937614,-43.21875,-34.03125,14.587501,0.5790294,-0.4480713,0.51665807,999.6716, , , , 
2026-03-20 17:28:00.636,-2.5746772,-9.583255,-0.2536392,0.260992,0.14485131,1.5380048,-42.16875,-33.412502,12.13125,0.57183516,-0.45509928,0.5249979,999.6716, , , , 
2026-03-20 17:28:00.656,0.39960137,-9.8727865,-1.9908284,0.22556181,0.06849321,2.10672,-46.575,-31.7625,15.58125,0.5634456,-0.46454525,0.53541034,999.67523, , , , 
2026-03-20 17:28:00.676,1.875973,-11.356337,-2.7182465,-0.099418245,-0.060399257,2.5844162,-45.16875,-32.23125,13.6125,0.5492031,-0.48171765,0.5488054,999.67523, , , , 
2026-03-20 17:28:00.697,2.754139,-12.679567,-1.2801601,-0.2698495,-0.33467755,3.1341944,-44.41875,-27.69375,14.981251,0.5348396,-0.5004751,0.558688,999.665, , , , 
2026-03-20 17:28:00.716,5.1589255,-13.18206,0.031106694,-0.20143266,-0.6095667,3.610058,-49.0875,-27.431252,16.6875,0.52257305,-0.5169579,0.5662197,999.665, , , , 
2026-03-20 17:28:00.736,8.243274,-13.562519,0.7106683,0.055130545,-0.6107884,3.9729118,-44.850002,-23.25,14.606251,0.5005397,-0.5454963,0.57952464,999.67523, , , , 
2026-03-20 17:28:00.756,9.150154,-13.397414,0.2943172,0.20662501,-0.21616977,4.0950847,-47.006252,-19.48125,14.156251,0.48019144,-0.5660688,0.59227306,999.67523, , , , 
2026-03-20 17:28:00.776,8.451449,-13.016955,-0.526421,0.2695441,0.083764836,4.2508554,-47.025,-16.518751,15.993751,0.4626774,-0.5798406,0.603063,999.6818, , , , 
2026-03-20 17:28:00.796,7.874779,-12.2584305,-1.7228323,0.13881902,0.19127703,4.649139,-47.4,-11.306251,13.425,0.42252555,-0.60682964,0.62441134,999.6818, , , , 
2026-03-20 17:28:00.816,8.068598,-11.897114,-1.7108682,-0.024281874,0.4001928,4.8427835,-49.66875,-7.9500003,15.4875,0.39954722,-0.6207259,0.6340305,999.66595, , , , 
2026-03-20 17:28:00.836,9.102298,-11.471191,-0.8997013,-0.29672757,0.8607848,4.9771733,-50.250004,-3.525,15.13125,0.35563868,-0.64344716,0.6485335,999.66595, , , , 
2026-03-20 17:28:00.856,9.442079,-11.442478,-0.31345975,-0.44455683,1.1937062,4.963124,-49.0125,-0.52500004,12.975,0.32684213,-0.6561309,0.65615827,999.6501, , , , 
2026-03-20 17:28:00.876,10.6815605,-11.212767,-0.3684947,-0.64492047,1.7605886,4.8831005,-47.268753,4.5,13.593751,0.27491304,-0.67522085,0.66716415,999.6501, , , , 
2026-03-20 17:28:00.896,11.01177,-10.975878,0.21535404,-0.8813252,2.0996187,4.662578,-44.925003,6.61875,12.3,0.23016581,-0.6888284,0.6735742,999.6347, , , , 
2026-03-20 17:28:00.916,11.990435,-10.284351,0.3397808,-0.9619593,1.894368,4.432893,-41.775,11.08125,9.09375,0.1857189,-0.7010316,0.67727405,999.6347, , , , 
2026-03-20 17:28:00.936,13.682159,-10.188639,0.45224348,-1.0768019,1.3195443,4.017505,-43.162502,15.0375,8.38125,0.14573292,-0.71215254,0.67777765,999.6193,37.8874819,127.7374116,186.07177734375,0.94
2026-03-20 17:28:00.956,14.421542,-9.2075815,1.4907285,-0.9668462,0.68363404,3.5617998,-42.018753,18.525002,8.681251,0.11314227,-0.7222021,0.67561316,999.6193, , , , 
2026-03-20 17:28:00.976,14.691931,-7.520642,2.0745773,-0.82207125,0.41790786,3.1170902,-39.675003,20.118752,10.05,0.08738589,-0.730136,0.67284805,999.61224, , , , 
2026-03-20 17:28:00.996,15.967305,-7.381858,1.4045869,-0.48792824,0.5968912,2.4878995,-38.9625,22.9125,10.44375,0.061146107,-0.7365385,0.67034554,999.61224, , , , 
2026-03-20 17:28:01.016,16.153946,-7.2287173,-0.047856454,-0.3572032,0.76671165,2.1116068,-38.081253,22.893751,9.1125,0.04710929,-0.73869824,0.66959447,999.6193, , , , 
2026-03-20 17:28:01.036,17.661425,-6.7429743,-0.971486,-0.43783733,0.8613957,1.555109,-34.0875,25.800001,7.74375,0.026604973,-0.7417112,0.66774046,999.6193, , , , 
2026-03-20 17:28:01.056,18.958334,-6.800402,-0.83030945,-0.63209236,0.80030924,0.93691385,-33.525,24.993752,7.425,0.014683751,-0.7448432,0.6645041,999.60956, , , , 
2026-03-20 17:28:01.076,18.168703,-7.3459654,1.7922242,-0.796415,0.5968912,0.061544627,-30.187502,27.6,5.2312503,0.009124333,-0.74907386,0.6593129,999.60956, , , , 
2026-03-20 17:28:01.096,16.73301,-8.166703,5.032106,-0.4243983,0.29145885,-0.62873256,-34.518753,25.25625,9.225,0.011079193,-0.75300735,0.65363574,999.6213, , , , 
2026-03-20 17:28:01.116,16.290337,-7.984849,5.54417,0.09483676,0.027565273,-0.992808,-34.275,24.91875,8.137501,0.016775385,-0.7525891,0.653143,999.6213, , , , 
2026-03-20 17:28:01.136,16.010376,-8.968299,3.1345978,0.6250674,-0.5344303,-1.7081306,-35.381252,25.29375,8.38125,0.034705468,-0.7475823,0.65654993,999.6518, , , , 
2026-03-20 17:28:01.156,15.309279,-10.439885,2.0961127,0.6513346,-1.0054071,-2.3464844,-37.55625,25.44375,9.225,0.057422124,-0.74237794,0.6593779,999.6518, , , , 
2026-03-20 17:28:01.176,13.825729,-12.8111725,3.0293136,0.5346594,-1.4629447,-2.9707882,-38.625,21.712502,10.3125,0.0869674,-0.737234,0.6602572,999.65375, , , , 
2026-03-20 17:28:01.196,12.68196,-14.316257,5.345566,0.69104075,-1.4824924,-3.5291185,-40.18125,18.956251,9.09375,0.13881215,-0.7274261,0.6591624,999.67206, , , , 
2026-03-20 17:28:01.216,12.607782,-14.380864,5.5465627,0.93783015,-1.3969713,-3.7722428,-39.375,18.13125,12.3,0.157044,-0.7224877,0.65914387,999.67206, , , , 
2026-03-20 17:28:01.236,12.557533,-13.983656,3.1130621,1.2573124,-1.3096178,-4.3110256,-42.487503,16.35,9.9375,0.20510058,-0.705495,0.6600097,999.67206, , , , 
2026-03-20 17:28:01.256,11.763116,-14.151154,0.83988076,1.1846195,-1.2668571,-4.732522,-45.393753,11.6625,13.14375,0.23604572,-0.693243,0.65925866,999.6772, , , , 
2026-03-20 17:28:01.276,10.13839,-14.435899,-0.7680961,0.8150463,-0.9339359,-4.9096727,-47.53125,7.4625,12.20625,0.2870638,-0.67201793,0.65365624,999.6772, , , , 
2026-03-20 17:28:01.299,9.293723,-14.14876,0.26081768,0.59391326,-0.3982075,-4.853473,-47.175003,4.78125,11.1,0.3236389,-0.65479994,0.64637315,999.6745, , , , 
2026-03-20 17:28:01.316,9.712467,-13.277773,0.06460621,0.5988002,0.13324489,-4.8461432,-48.018753,1.3312501,11.0625,0.35548225,-0.6357054,0.6391236,999.6745, , , , 
2026-03-20 17:28:01.336,10.042677,-12.784851,-0.9906286,0.56275916,0.36293003,-5.0611672,-50.775,-3.43125,12.712501,0.38440058,-0.61410415,0.6316038,999.6943, , , , 
2026-03-20 17:28:01.356,7.5996046,-13.4763775,-1.0456635,0.49617493,0.40752316,-5.1283627,-51.225002,-6.24375,15.39375,0.41260788,-0.5907172,0.6221062,999.6943, , , , 
2026-03-20 17:28:01.376,5.45085,-13.129417,-0.4761717,0.59085894,0.2474766,-4.789943,-48.187504,-11.231251,9.637501,0.43894452,-0.5668455,0.6117282,999.7038, , , , 
2026-03-20 17:28:01.396,5.3766723,-12.437892,-0.27517462,0.7680097,-0.14103341,-4.486344,-50.1375,-15.675,10.875,0.4706458,-0.53767806,0.59816957,999.7038, , , , 
2026-03-20 17:28:01.416,4.3405805,-11.741581,-0.8853444,0.87491107,-0.43913543,-4.290867,-50.381252,-19.575,13.125001,0.4964777,-0.51471245,0.5862256,999.70404, , , , 
2026-03-20 17:28:01.436,3.3284163,-11.136196,-2.5387847,0.6366738,-0.5955168,-4.0544624,-48.975002,-23.53125,12.58125,0.5217389,-0.49314818,0.5726744,999.70404, , , , 
2026-03-20 17:28:01.456,1.6342978,-11.062019,-2.5914268,0.32207847,-0.52160215,-3.7508624,-48.131252,-26.456251,14.681251,0.54415536,-0.47415158,0.55752385,999.7048, , , , 
2026-03-20 17:28:01.476,-0.74895346,-11.406586,-1.4524434,-0.0010690134,-0.22655447,-3.0111053,-46.96875,-27.956251,15.262501,0.56126475,-0.45831183,0.5432586,999.7048, , , , 
2026-03-20 17:28:01.496,-1.2514462,-11.526227,-0.5982057,-0.03894263,-0.12087487,-2.1436772,-46.40625,-30.88125,15.525001,0.57250136,-0.44631252,0.53244823,999.7077, , , , 
2026-03-20 17:28:01.516,-0.60059845,-11.07159,-0.8446664,-0.018173227,-0.057955798,-1.5364777,-45.487503,-33.6375,14.812501,0.57958376,-0.4382769,0.52538085,999.7077, , , , 
2026-03-20 17:28:01.536,-2.5435705,-10.24846,-1.8975084,-0.18127412,0.22365287,-0.7991638,-44.831253,-34.068752,14.925,0.58361876,-0.43225282,0.5206924,999.7236, , , , 
2026-03-20 17:28:01.556,-3.7974095,-10.963913,-1.6007984,-0.32360563,0.39530587,-0.080176,-44.34375,-34.631252,13.35,0.5824147,-0.43140385,0.5204885,999.7236, , , , 
2026-03-20 17:28:01.576,-3.9720855,-12.246467,-1.3399807,-0.35659233,0.2945132,1.2429571,-44.662502,-33.1875,15.31875,0.57450837,-0.43709353,0.525365,999.7358, , , , 
2026-03-20 17:28:01.597,-1.6007984,-11.913864,-1.4476577,-0.39507678,0.10025818,2.1684172,-45.393753,-34.10625,12.20625,0.5634472,-0.44938818,0.5335776,999.7358, , , , 
2026-03-20 17:28:01.616,1.9238294,-11.253445,-0.86859465,-0.4958695,0.014737112,2.9759805,-47.325,-31.968752,14.437501,0.5487846,-0.46738794,0.5439281,999.7475, , , , 
2026-03-20 17:28:01.636,4.76411,-11.282159,-0.15074782,-0.52580184,0.17478369,3.3284495,-46.48125,-30.000002,13.63125,0.53048134,-0.48780304,0.55599713,999.7475, , , , 
2026-03-20 17:28:01.656,5.3718867,-12.0430765,0.21296121,-0.41034842,0.3116174,3.5141523,-48.093754,-26.41875,12.50625,0.5095519,-0.5079088,0.56946266,999.75214, , , , 
2026-03-20 17:28:01.676,5.0081778,-13.4763775,-0.38524446,-0.23014331,0.17661628,3.8977754,-50.175003,-24.300001,14.306251,0.4811975,-0.5325001,0.5878463,999.75214, , , , 
2026-03-20 17:28:01.699,5.4843497,-14.892928,-0.3900301,-0.16355905,-0.2314414,4.4383907,-47.475002,-20.118752,8.53125,0.457254,-0.55391765,0.60234296,999.7443, , , , 
2026-03-20 17:28:01.716,7.056434,-15.026926,-0.069391854,-0.082924895,-0.43180504,4.8519464,-51.2625,-16.800001,12.3,0.43187833,-0.5769892,0.61619854,999.7443, , , , 
2026-03-20 17:28:01.742,10.04507,-13.854444,0.40438703,0.11377356,-0.42630726,5.0504775,-51.693752,-13.968751,10.78125,0.4047911,-0.599239,0.6298366,999.7387, , , , 
2026-03-20 17:28:01.756,11.057234,-12.631711,0.031106694,0.28359398,-0.34506226,4.9441867,-50.756252,-8.306251,14.062501,0.37738153,-0.6182306,0.6430226,999.7387, , , , 
2026-03-20 17:28:01.776,10.662417,-11.66501,-0.5240282,0.3526217,-0.23938264,4.7511535,-52.162502,-4.3500004,15.375001,0.35027045,-0.63391113,0.655116,999.71893, , , , 
2026-03-20 17:28:01.796,10.301102,-10.96152,-0.7848458,0.28542656,-0.007864884,4.6332564,-47.625,-1.7437501,11.981251,0.32278156,-0.6473943,0.66573644,999.71893, , , , 
2026-03-20 17:28:01.816,10.2317095,-10.279566,-1.8496519,-0.102472566,0.78625935,4.4878707,-46.912502,4.05,12.95625,0.28453234,-0.66244197,0.6768307,999.69086, , , , 
2026-03-20 17:28:01.836,11.956935,-9.942178,-1.9310079,-0.7170025,1.5480077,4.401739,-47.4,8.962501,13.668751,0.24765962,-0.67515063,0.6827498,999.69086, , , , 
2026-03-20 17:28:01.856,14.481362,-9.288938,-0.5288138,-1.1916444,1.8803182,4.012007,-45.300003,12.675,11.53125,0.20812935,-0.68881565,0.68457806,999.65936, , , , 
2026-03-20 17:28:01.876,14.61536,-8.331808,1.2370893,-1.3712387,1.6652937,3.3797622,-41.325,16.10625,7.8187504,0.17152968,-0.7017789,0.6828765,999.65936, , , , 
2026-03-20 17:28:01.897,14.409578,-8.130812,2.0171494,-1.3138174,1.3757439,2.8586946,-43.3875,16.875,9.243751,0.14019006,-0.7131296,0.67921025,999.653, , , , 
2026-03-20 17:28:01.916,13.598412,-8.142776,2.4741786,-1.1824815,1.1515565,2.4170392,-40.575,19.9125,9.225,0.11399945,-0.7226018,0.67479426,999.653, , , , 
2026-03-20 17:28:01.936,12.452249,-7.372287,2.6416762,-1.0193806,1.0843613,2.1928518,-39.6375,22.25625,7.2937503,0.091367975,-0.73028225,0.6705244,999.64935,37.88746847,127.73741746,186.6708984375,2.05
2026-03-20 17:28:01.956,12.983456,-6.472585,2.8666015,-0.81901693,1.1698824,2.02914,-39.318752,21.900002,9.918751,0.064460345,-0.73750186,0.66622776,999.64935, , , , 
2026-03-20 17:28:01.976,14.280366,-6.0418773,3.196811,-0.49403688,0.89743674,1.7157664,-37.29375,22.987501,7.1625004,0.04571364,-0.7410093,0.6641039,999.6596, , , , 
2026-03-20 17:28:01.996,15.840486,-7.1952176,2.172683,-0.018784093,0.21143557,1.2832742,-38.006252,22.40625,8.19375,0.033670988,-0.7417858,0.66434056,999.6596, , , , 
2026-03-20 17:28:02.016,16.654045,-7.6546397,0.5886344,0.28237224,-0.42997244,0.751211,-35.193752,24.075,8.26875,0.029815264,-0.74057436,0.6664679,999.66205, , , , 
2026-03-20 17:28:02.036,16.804794,-7.4344997,0.30149564,0.27382013,-0.6162862,0.23686282,-34.6875,26.60625,8.53125,0.032294877,-0.73890525,0.6687191,999.66205, , , , 
2026-03-20 17:28:02.056,16.663616,-7.4584284,0.94755775,0.26648977,-0.50999576,-0.22983788,-37.068752,25.743752,9.618751,0.038747065,-0.73726964,0.6703189,999.6423, , , , 
2026-03-20 17:28:02.076,16.39562,-7.2550383,1.6749759,0.44180796,-0.37132943,-0.78939,-35.86875,25.125002,9.056251,0.04770167,-0.73467714,0.67222536,999.6423, , , , 
2026-03-20 17:28:02.096,17.343178,-7.618747,1.2610176,0.6091849,-0.5332086,-1.4295763,-35.79375,25.3875,8.26875,0.060666587,-0.7304249,0.6750272,999.6501, , , , 
2026-03-20 17:28:02.116,17.19961,-8.800801,1.0025927,0.6012437,-0.75189817,-2.3959644,-36.862503,25.25625,9.150001,0.08643467,-0.72360164,0.67781645,999.6501, , , , 
2026-03-20 17:28:02.136,15.4217415,-10.707881,2.0985055,0.5719221,-0.9033927,-3.161378,-40.706253,20.775002,8.887501,0.11459018,-0.71726763,0.67809576,999.642, , , , 
2026-03-20 17:28:02.157,13.942978,-12.41875,2.3353949,0.6507237,-0.87956893,-3.6781695,-41.71875,21.6375,10.650001,0.14661062,-0.7090974,0.6773648,999.642, , , , 
2026-03-20 17:28:02.176,12.428321,-13.744373,2.548356,0.7973313,-0.7916044,-4.0666795,-43.48125,17.98125,9.95625,0.18062675,-0.698618,0.6759247,999.64667, , , , 
2026-03-20 17:28:02.197,12.646068,-14.127225,1.7036897,0.80466163,-0.83131063,-4.3146906,-43.068752,16.29375,8.925,0.21546224,-0.6859299,0.6736953,999.64667, , , , 
2026-03-20 17:28:02.216,13.897514,-14.447864,0.93320084,0.69226253,-0.9162208,-4.70992,-47.925003,13.425,10.368751,0.25220415,-0.67188036,0.66904414,999.6447, , , , 
2026-03-20 17:28:02.236,10.669596,-14.97907,1.672583,0.6159044,-1.0689371,-5.1582947,-48.787502,8.981251,9.31875,0.2921641,-0.65636444,0.66074544,999.6447, , , , 
2026-03-20 17:28:02.256,7.9800634,-14.644074,1.134198,0.50961393,-0.6059015,-4.95732,-50.081253,5.6062503,10.89375,0.3305569,-0.63926286,0.65089124,999.65594, , , , 
2026-03-20 17:28:02.276,6.7932234,-12.990634,0.8781659,0.43142325,0.24625486,-4.4478593,-51.281254,1.2375001,12.337501,0.36809564,-0.6166398,0.6397944,999.65594, , , , 
2026-03-20 17:28:02.296,8.085348,-11.631511,-0.009571291,0.30619597,1.1155155,-4.1155486,-50.943752,-2.1937501,11.418751,0.38810346,-0.59726477,0.63366014,999.67914, , , , 
2026-03-20 17:28:02.316,8.415557,-11.050055,-0.0071784677,0.30619597,1.2407427,-4.113716,-52.500004,-6.3375,11.212501,0.40360332,-0.57648796,0.62814265,999.67914, , , , 
2026-03-20 17:28:02.336,7.9561353,-10.999805,0.5072784,0.5517636,0.55535245,-4.25055,-52.875004,-11.1,10.89375,0.4209747,-0.5548831,0.62079954,999.6745, , , , 
2026-03-20 17:28:02.356,5.979664,-10.975878,0.0741775,0.6885973,-0.18684827,-4.295143,-51.393753,-15.543751,8.83125,0.44345468,-0.53331894,0.6102838,999.6745, , , , 
2026-03-20 17:28:02.376,3.9457645,-10.8251295,-0.36610186,0.6672171,-0.6248383,-4.0434666,-55.518753,-19.087502,11.325001,0.47495222,-0.5085326,0.59324974,999.6674, , , , 
2026-03-20 17:28:02.397,3.0987053,-10.473385,-1.0073783,0.5371029,-0.65538156,-3.6842782,-54.91875,-23.15625,13.500001,0.49851966,-0.49090487,0.5786935,999.6674, , , , 
2026-03-20 17:28:02.416,2.8474588,-10.633704,-1.1174482,0.31719154,-0.63400126,-3.3440266,-51.600002,-24.187502,13.368751,0.518997,-0.47548693,0.56405896,999.66693, , , , 
2026-03-20 17:28:02.436,2.3904297,-10.633704,-1.026521,0.08811724,-0.73418313,-2.9597926,-51.843754,-28.312502,13.481251,0.53669906,-0.46262968,0.54923356,999.66693, , , , 
2026-03-20 17:28:02.456,0.8207382,-10.387243,-0.8757731,-0.032223117,-0.79954565,-2.5218024,-50.86875,-31.331251,14.156251,0.55205554,-0.45282337,0.5344476,999.6513, , , , 
2026-03-20 17:28:02.476,-0.13399807,-9.796216,-0.2105684,-0.10308343,-0.50571966,-1.8199189,-48.225002,-31.931252,15.468751,0.56377125,-0.44608596,0.521817,999.6513, , , , 
2026-03-20 17:28:02.498,-1.2514462,-9.8632145,-0.2105684,-0.10430516,0.08926262,-1.0795507,-45.9375,-35.0625,16.1625,0.57103807,-0.43956506,0.513149,999.65497, , , , 
2026-03-20 17:28:02.516,-1.457229,-11.073983,-0.6795616,-0.016951498,0.28473935,-0.32757625,-46.78125,-35.86875,13.06875,0.57137954,-0.43650308,0.51243424,999.65497, , , , 
2026-03-20 17:28:02.536,-1.2658032,-11.212767,-1.8879371,0.06368265,0.07948878,0.5270236,-46.66875,-36.112503,12.6,0.5690537,-0.4378903,0.5155409,999.6552, , , , 
2026-03-20 17:28:02.556,-0.34456646,-10.408778,-2.8402805,-0.072540194,-0.05184715,1.261283,-46.59375,-35.49375,15.0375,0.56561595,-0.4428785,0.51941234,999.6552, , , , 
2026-03-20 17:28:02.576,1.0169497,-9.564112,-2.0985055,-0.36819875,0.12652537,2.0627377,-47.79375,-33.61875,13.650001,0.5542141,-0.4576766,0.5286585,999.642, , , , 
2026-03-20 17:28:02.596,2.9455647,-9.583255,-0.9523434,-0.45433068,0.31772605,2.5514295,-47.175003,-33.318752,15.431251,0.5395872,-0.47280478,0.5391062,999.642, , , , 
2026-03-20 17:28:02.616,4.369294,-10.200603,-0.57906306,-0.32788166,0.25480697,2.8568618,-48.54375,-30.712502,14.025001,0.5225704,-0.48887134,0.5512921,999.6508, , , , 
2026-03-20 17:28:02.636,4.6468616,-10.973485,-0.9284152,-0.22769985,0.049556404,3.1299183,-48.43125,-28.2,11.56875,0.50511473,-0.5057143,0.56394637,999.6508, , , , 
2026-03-20 17:28:02.657,4.8765726,-11.866008,-1.1629118,-0.18738277,-0.22288929,3.4897177,-49.93125,-26.23125,11.137501,0.48719475,-0.52419865,0.5763679,999.6545, , , , 
2026-03-20 17:28:02.677,5.070391,-12.815958,-1.2873386,-0.18616104,-0.18684827,4.026668,-50.4,-19.81875,11.75625,0.46212184,-0.5497089,0.5922205,999.6545, , , , 
2026-03-20 17:28:02.697,5.733203,-13.684553,-1.2083755,-0.23136504,-0.038408123,4.6607456,-52.406254,-17.925001,14.475,0.43713215,-0.5713582,0.6063063,999.6552, , , , 
2026-03-20 17:28:02.716,7.688139,-13.552947,-0.6795616,-0.25579962,-0.08727731,5.055364,-53.362503,-14.137501,11.7375,0.40792897,-0.59399533,0.620698,999.6552, , , , 
2026-03-20 17:28:02.736,10.6408825,-12.736995,-0.047856454,-0.22220206,-0.14042254,5.064527,-53.662502,-9.825001,11.981251,0.37718478,-0.6158916,0.63377655,999.6552, , , , 
2026-03-20 17:28:02.757,11.499906,-11.88515,0.23449662,-0.16050471,-0.053068876,4.7652035,-53.531254,-4.7250004,13.387501,0.346984,-0.6347086,0.64508927,999.6552, , , , 
2026-03-20 17:28:02.776,10.085748,-11.3683,-0.16031912,-0.114079,-0.083612114,4.396852,-50.812504,-1.5562501,11.38125,0.31856018,-0.6501992,0.6545316,999.6452, , , , 
2026-03-20 17:28:02.799,8.843872,-10.918449,-0.6628119,-0.21792601,-0.09033163,4.3852453,-50.943752,3.6375,12.31875,0.2910854,-0.66416967,0.66197294,999.6452, , , , 
2026-03-20 17:28:02.816,9.724431,-10.6408825,-0.069391854,-0.3254382,0.10392337,4.504975,-49.18125,7.2937503,12.712501,0.25433487,-0.68092734,0.669037,999.6213, , , , 
2026-03-20 17:28:02.836,12.172289,-10.777273,0.47856453,-0.3639227,-0.010308343,4.440223,-48.24375,8.38125,13.1625,0.22415692,-0.69314945,0.67299837,999.6213, , , , 
2026-03-20 17:28:02.857,15.395421,-10.255638,0.75613195,-0.21548255,-0.13675736,4.017505,-46.275,13.8,13.875001,0.19687092,-0.7032207,0.6756107,999.60956, , , , 
2026-03-20 17:28:02.876,15.747166,-8.865408,0.23449662,-0.24846925,0.16562071,3.4335182,-46.818752,16.35,15.187501,0.17280826,-0.7105935,0.67745584,999.60956, , , , 
2026-03-20 17:28:02.897,15.50549,-7.240681,0.83988076,-0.30527967,0.5095376,2.8770204,-42.1875,19.575,13.89375,0.15057918,-0.71656716,0.6781414,999.5998, , , , 
2026-03-20 17:28:02.916,15.093925,-6.6975107,0.11485548,-0.32299474,0.905378,2.4414737,-40.65,20.60625,13.368751,0.12942985,-0.72110546,0.67853385,999.5998, , , , 
2026-03-20 17:28:02.936,15.972091,-6.769295,0.13399807,-0.37675086,1.2193625,2.141539,-40.256252,21.150002,13.293751,0.10842703,-0.72509414,0.67833173,999.58954,37.88745355,127.73742288,186.17333984375,1.45
2026-03-20 17:28:02.958,17.551353,-6.242874,0.3924229,-0.24358234,1.2773947,1.5697697,-37.912502,22.518751,12.356251,0.08397256,-0.7286221,0.67804796,999.58954, , , , 
2026-03-20 17:28:02.976,18.223738,-5.910272,-0.03589234,-0.15195261,1.1020764,0.97112226,-37.893753,23.268751,11.38125,0.06974266,-0.7298098,0.6781404,999.5832, , , , 
2026-03-20 17:28:02.996,17.25943,-6.1208405,-0.40677986,-0.17883067,0.82963073,0.25396705,-34.7625,24.73125,8.8125,0.062258724,-0.73038477,0.67773217,999.5832, , , , 
2026-03-20 17:28:03.016,16.244873,-7.3028946,0.15553348,-0.16539164,0.53885907,-0.21823144,-36.881252,25.25625,9.9375,0.06077229,-0.73077697,0.67691225,999.5683, , , , 
2026-03-20 17:28:03.036,15.582061,-7.905886,0.9499506,0.10399973,0.13935353,-0.6342304,-39.75,24.956251,11.325001,0.064262,-0.7301333,0.67624855,999.5683, , , , 
2026-03-20 17:28:03.056,15.988841,-7.908279,1.227518,0.3263545,-0.32429284,-0.9934189,-39.46875,25.48125,9.88125,0.07288574,-0.7277349,0.6771395,999.5639, , , , 
2026-03-20 17:28:03.076,16.08934,-8.295917,0.8805587,0.48701194,-0.9021709,-1.7038546,-40.18125,23.306252,9.0,0.089041404,-0.7237863,0.6786203,999.5639, , , , 
2026-03-20 17:28:03.098,14.61536,-9.68136,1.2658032,0.41309732,-1.1318561,-2.4179554,-41.1375,23.0625,11.118751,0.118568264,-0.71784586,0.67902803,999.5776, , , , 
2026-03-20 17:28:03.116,14.057833,-10.717453,2.2157538,0.38499752,-0.9962441,-2.7863069,-42.61875,20.925001,11.85,0.14571728,-0.7122704,0.6779292,999.5776, , , , 
2026-03-20 17:28:03.136,13.63191,-11.485549,2.5028925,0.364839,-0.6181188,-3.2230754,-42.975002,18.50625,12.806251,0.17335026,-0.7051761,0.6761583,999.58417, , , , 
2026-03-20 17:28:03.156,13.138989,-12.459428,2.6895328,0.3996583,-0.46051568,-3.6280787,-44.362503,17.38125,11.775001,0.20139384,-0.69622344,0.6737114,999.58417, , , , 
2026-03-20 17:28:03.176,12.1866455,-13.177275,2.603391,0.52793986,-0.55825406,-4.0092583,-45.881252,15.6,11.887501,0.2314869,-0.6851753,0.67040545,999.5944, , , , 
2026-03-20 17:28:03.196,11.349157,-13.509876,1.820938,0.58108515,-0.55703235,-4.2365,-48.037502,12.375001,13.9875,0.26327944,-0.672022,0.6661424,999.5944, , , , 
2026-03-20 17:28:03.217,10.6408825,-13.47877,1.820938,0.59818935,-0.3615556,-4.394103,-49.350002,9.39375,12.750001,0.30271167,-0.6532615,0.6592303,999.59955, , , , 
2026-03-20 17:28:03.236,9.750752,-13.122239,1.5768701,0.6336195,-0.14714205,-4.504059,-47.737503,5.6062503,10.33125,0.32544184,-0.64044696,0.654649,999.59955, , , , 
2026-03-20 17:28:03.256,9.6071825,-12.378072,0.94277215,0.6366738,0.1155298,-4.5376563,-50.812504,2.79375,11.2875,0.3540212,-0.6216372,0.6481942,999.61957, , , , 
2026-03-20 17:28:03.276,9.595219,-12.016755,0.31585258,0.5352703,0.34032804,-4.668381,-52.275,-0.73125005,12.4125,0.3871971,-0.59597707,0.6387265,999.61957, , , , 
2026-03-20 17:28:03.298,8.147561,-12.531212,1.0456635,0.5719221,0.35254532,-4.7172503,-52.0125,-5.4,10.012501,0.41224003,-0.5738909,0.62970084,999.64056, , , , 
2026-03-20 17:28:03.316,5.7260246,-11.806187,0.60777694,0.75701416,-0.01886045,-4.480846,-50.1375,-10.575001,10.89375,0.44338876,-0.54512954,0.61744535,999.64056, , , , 
2026-03-20 17:28:03.336,5.0751767,-10.894522,-0.4211368,0.7600685,-0.23938264,-4.2792606,-51.35625,-15.168751,10.668751,0.46225005,-0.52844656,0.60914713,999.65643, , , , 
2026-03-20 17:28:03.356,4.0510488,-10.21496,-0.971486,0.5419898,-0.029245151,-4.0263624,-51.000004,-19.987501,10.125,0.48557767,-0.5071834,0.5972237,999.65643, , , , 
2026-03-20 17:28:03.376,2.3688943,-9.896714,-0.45942193,0.40759954,0.27801985,-3.6207483,-50.437504,-20.56875,13.031251,0.50845087,-0.48174107,0.58329564,999.66205, , , , 
2026-03-20 17:28:03.397,1.294517,-9.743574,-1.0839486,0.3996583,0.20593779,-3.1259477,-51.2625,-26.1375,13.743751,0.5229117,-0.46300182,0.5738202,999.66205, , , , 
2026-03-20 17:28:03.416,0.6987042,-9.370294,-1.3208381,0.3006982,0.022067491,-2.60488,-48.750004,-28.987501,12.262501,0.53534335,-0.44758987,0.56483084,999.6667, , , , 
2026-03-20 17:28:03.436,0.5288138,-9.470792,-1.3256238,0.20601414,-0.15447243,-2.081369,-48.037502,-29.906252,11.625,0.5458682,-0.43597722,0.55637,999.6667, , , , 
2026-03-20 17:28:03.456,0.14596218,-9.339187,-1.3974084,0.14370593,-0.25954118,-1.5523602,-49.65,-32.68125,13.031251,0.55445796,-0.42800474,0.548971,999.6674, , , , 
2026-03-20 17:28:03.476,-0.4881358,-9.79143,-1.6558332,0.03497201,-0.18745913,-0.90545434,-46.987503,-33.393753,11.868751,0.5605542,-0.42344573,0.5433657,999.6674, , , , 
2026-03-20 17:28:03.496,-1.6342978,-10.396814,-1.8831514,-0.052381653,0.0049632764,-0.14004076,-48.037502,-32.756252,11.475,0.56263626,-0.42224145,0.5411568,999.6706, , , , 
2026-03-20 17:28:03.516,-2.132005,-10.470992,-1.8329022,-0.14767656,-0.017027855,0.7854194,-48.15,-32.41875,13.781251,0.5602536,-0.42574757,0.5429328,999.6706, , , , 
2026-03-20 17:28:03.536,0.10049855,-9.956535,-1.579263,-0.25396705,-0.11293363,1.7744094,-45.61875,-31.7625,10.5375,0.5517659,-0.43834132,0.54972553,999.675, , , , 
2026-03-20 17:28:03.556,1.8951155,-9.02812,-1.2346965,-0.3584249,6.8722287E-4,2.310138,-49.162502,-31.7625,12.618751,0.5408658,-0.45287713,0.5579254,999.675, , , , 
2026-03-20 17:28:03.576,3.694518,-9.212367,-0.56470615,-0.41951138,0.14118612,2.616792,-52.85625,-30.281252,14.45625,0.526679,-0.46890354,0.5678341,999.67865, , , , 
2026-03-20 17:28:03.599,4.65404,-10.913664,-0.23449662,-0.34376416,0.08987348,2.873966,-52.36875,-27.993752,13.200001,0.5106418,-0.48554274,0.5787083,999.67865, , , , 
2026-03-20 17:28:03.616,4.6875396,-11.992827,-0.67477596,-0.28267768,-0.11598795,3.1714573,-52.143753,-24.618752,14.681251,0.49385285,-0.5032797,0.5899334,999.68646, , , , 
2026-03-20 17:28:03.636,4.898108,-13.03849,-0.6556334,-0.20998476,-0.3523926,3.6998553,-53.60625,-22.63125,11.94375,0.47599137,-0.5230935,0.60120386,999.68646, , , , 
2026-03-20 17:28:03.656,5.5537415,-13.763515,-0.62931234,-0.123852834,-0.42630726,4.2306967,-53.437504,-18.65625,14.325001,0.45602745,-0.5445585,0.6131248,999.696, , , , 
2026-03-20 17:28:03.676,7.003792,-13.96212,-0.49292147,-0.038331766,-0.38660106,4.7102256,-55.031254,-14.212501,14.55,0.42682615,-0.572228,0.6290926,999.696, , , , 
2026-03-20 17:28:03.696,9.080762,-13.708481,-0.83988076,-0.013286309,-0.15691589,4.933802,-54.54375,-10.425,14.2875,0.3999438,-0.593373,0.642178,999.69574, , , , 
2026-03-20 17:28:03.716,11.16491,-12.722638,-1.1294123,-0.08720095,0.014126248,4.8287334,-54.956253,-5.86875,14.3625,0.37815177,-0.6080331,0.65138614,999.69574, , , , 
2026-03-20 17:28:03.736,11.227124,-11.571691,-2.103291,-0.39935285,-0.037797257,4.4163995,-53.86875,-2.025,13.425,0.34269863,-0.6301973,0.6628857,999.69086, , , , 
2026-03-20 17:28:03.758,10.561919,-11.444871,-1.2083755,-0.8941533,0.05688678,4.247801,-52.425003,1.7062501,16.29375,0.30811405,-0.6526704,0.6677576,999.69086, , , , 
2026-03-20 17:28:03.776,10.437492,-11.054841,0.4761717,-1.1360558,0.4661662,4.2539096,-52.031254,4.2562504,14.418751,0.28559953,-0.6664832,0.66856736,999.6667, , , , 
2026-03-20 17:28:03.797,11.148161,-10.5690975,1.253839,-1.3009893,1.135674,4.2080946,-46.85625,7.18125,11.38125,0.25137174,-0.6837577,0.6692368,999.6667, , , , 
2026-03-20 17:28:03.816,12.437892,-10.009177,2.0003998,-1.3773474,1.5535055,3.9967356,-49.3875,11.493751,14.343751,0.21391307,-0.6993032,0.6690244,999.6713, , , , 
2026-03-20 17:28:03.836,13.093526,-8.894122,2.1942184,-1.2851068,1.5596142,3.4866633,-47.8875,15.262501,13.81875,0.16816959,-0.7150898,0.66748863,999.6713, , , , 
2026-03-20 17:28:03.856,13.330415,-7.735996,2.658426,-1.1372775,1.0513747,3.1983352,-46.631252,17.00625,12.656251,0.14435686,-0.7229632,0.66573757,999.6701, , , , 
2026-03-20 17:28:03.876,14.273187,-6.9128647,3.926622,-0.77503467,0.42829257,2.760956,-42.84375,19.03125,11.0625,0.11289518,-0.733228,0.6627772,999.6701, , , , 
2026-03-20 17:28:03.898,13.785051,-6.5754766,4.2664027,-0.26801693,0.07093667,2.3327398,-42.84375,20.53125,11.587501,0.09506336,-0.7375824,0.6624393,999.6684, , , , 
2026-03-20 17:28:03.916,13.49552,-6.0825553,3.2470603,0.2988656,0.03367392,2.0150902,-39.24375,23.643751,9.4875,0.08150151,-0.7381776,0.66504294,999.6684, , , , 
2026-03-20 17:28:03.936,14.91925,-6.135197,0.4019942,0.5358811,0.24320054,1.7383684,-38.79375,23.8125,10.9875,0.06933431,-0.7358491,0.6700141,999.6779,37.88743997,127.73742417,186.6370849609375,1.46
2026-03-20 17:28:03.956,16.31905,-6.8099732,-2.1224337,0.34773478,0.3501019,1.2508984,-37.912502,23.775002,10.425,0.056771647,-0.73261195,0.67535806,999.6779, , , , 
2026-03-20 17:28:03.976,16.627724,-6.4941206,-2.2636101,-0.004734202,0.3342194,0.73960453,-37.237503,27.187502,11.25,0.050347757,-0.73199296,0.6766429,999.6635, , , , 
2026-03-20 17:28:03.996,16.515263,-6.6448684,-0.5312066,-0.26557347,0.33666286,0.13912445,-36.487503,27.2625,11.475,0.047571607,-0.7330953,0.6754221,999.6635, , , , 
2026-03-20 17:28:04.016,16.457834,-7.24786,0.715454,-0.23686282,0.22976151,-0.29397866,-37.03125,25.987501,10.368751,0.048558753,-0.73434967,0.67342496,999.64886, , , , 
2026-03-20 17:28:04.036,17.59921,-8.575876,1.2777673,-0.027336199,-0.22044583,-0.8785763,-36.975002,26.23125,10.03125,0.05480683,-0.73447114,0.6720505,999.64886, , , , 
2026-03-20 17:28:04.057,18.735802,-8.961121,2.0075781,0.1913534,-0.86490816,-1.6348269,-39.16875,27.112501,11.606251,0.06909711,-0.73305684,0.67141765,999.6545, , , , 
2026-03-20 17:28:04.076,17.79303,-9.8321085,2.9503503,0.33796093,-1.244866,-2.5407393,-39.375,25.987501,10.6125,0.09325933,-0.7298692,0.67085135,999.6545, , , , 
2026-03-20 17:28:04.097,15.704095,-12.201003,4.0151563,0.5676461,-1.1764492,-3.3018768,-38.90625,24.150002,12.675,0.13228293,-0.72238183,0.67005,999.6689, , , , 
2026-03-20 17:28:04.116,14.79243,-13.658232,3.426522,0.8309288,-0.9052252,-3.7282605,-40.6875,21.73125,11.925,0.16571115,-0.71252316,0.67025155,999.6689, , , , 
2026-03-20 17:28:04.136,14.277973,-14.263616,2.3018954,0.9439388,-0.78244144,-4.0746207,-44.86875,19.2,11.56875,0.19991024,-0.6997804,0.6703908,999.696, , , , 
2026-03-20 17:28:04.156,13.174882,-14.203795,1.3016955,0.9195042,-0.79404783,-4.4008226,-49.031254,15.281251,12.243751,0.23553371,-0.68517363,0.66895896,999.696, , , , 
2026-03-20 17:28:04.176,10.954342,-14.203795,0.75613195,0.8278745,-0.7592286,-4.557204,-46.66875,11.043751,12.075001,0.27146688,-0.669439,0.665414,999.7133, , , , 
2026-03-20 17:28:04.197,9.104691,-13.964513,0.2632105,0.6653845,-0.68592477,-4.6408925,-48.656254,9.20625,13.1625,0.30693743,-0.6528922,0.65970695,999.7133, , , , 
2026-03-20 17:28:04.216,9.288938,-13.246666,1.0719845,0.4356993,-0.27908885,-4.596299,-52.612503,3.5812502,14.512501,0.33953762,-0.6362094,0.65201855,999.71747, , , , 
2026-03-20 17:28:04.236,9.846465,-12.205789,0.7920243,0.3856084,0.3287216,-4.745961,-53.062504,2.04375,14.19375,0.36847803,-0.61790365,0.643763,999.71747, , , , 
2026-03-20 17:28:04.256,9.123833,-11.9306135,0.040677983,0.25060728,0.88094336,-4.895623,-51.43125,-3.8812501,12.187501,0.39346662,-0.5969361,0.63542,999.72845, , , , 
2026-03-20 17:28:04.276,6.7501526,-12.184253,0.73459655,0.27320927,1.040379,-4.8290386,-53.156254,-8.137501,10.6125,0.41967052,-0.56792974,0.62453216,999.72845, , , , 
2026-03-20 17:28:04.298,5.505885,-11.547762,0.59581286,0.62751085,0.290848,-4.6085167,-54.412502,-15.000001,12.056251,0.44686648,-0.53805083,0.61211634,999.7338, , , , 
2026-03-20 17:28:04.316,5.1493545,-10.899307,0.08853444,0.6977603,-0.14408773,-4.501004,-54.318752,-16.837502,9.825001,0.46501186,-0.5206615,0.60308516,999.7338, , , , 
2026-03-20 17:28:04.337,3.8835511,-10.480563,-0.21296121,0.70753413,-0.42080948,-4.3006406,-51.937504,-19.59375,10.200001,0.48993245,-0.49834597,0.58927274,999.72577, , , , 
2026-03-20 17:28:04.356,2.8642087,-10.145568,-1.1988041,0.6214022,-0.41775516,-4.018421,-53.756252,-24.656252,14.231251,0.51365644,-0.47733006,0.5746203,999.72577, , , , 
2026-03-20 17:28:04.376,1.7180467,-10.009177,-2.751746,0.16019928,-0.3267363,-3.4875798,-52.537502,-28.7625,13.725,0.53820175,-0.45460978,0.5560096,999.717, , , , 
2026-03-20 17:28:04.396,0.63170516,-10.085748,-1.6582261,-0.159283,-0.24732387,-2.9151995,-50.1375,-29.1375,14.56875,0.5524798,-0.44095555,0.541355,999.717, , , , 
2026-03-20 17:28:04.416,0.18664017,-10.10489,-0.23688944,-0.11957678,-0.2955822,-2.2542439,-49.65,-33.318752,13.687501,0.56295043,-0.43074784,0.52894104,999.70135, , , , 
2026-03-20 17:28:04.436,-0.51445687,-9.896714,-0.65084773,0.011759147,-0.15386157,-1.5566362,-45.318752,-35.9625,12.450001,0.5707401,-0.42321625,0.52016604,999.70135, , , , 
2026-03-20 17:28:04.456,-1.5720844,-9.504292,-1.442872,0.014813471,0.059941106,-0.82726365,-46.66875,-36.75,13.875001,0.57474554,-0.41825137,0.5160038,999.707, , , , 
2026-03-20 17:28:04.476,-2.132005,-10.191031,-1.6773686,-0.012675445,-0.083612114,0.009010255,-47.90625,-37.74375,13.743751,0.5755,-0.41729054,0.51519823,999.707, , , , 
2026-03-20 17:28:04.496,-1.9812572,-11.459228,-2.0961127,0.0074830935,-0.42875072,0.8611666,-47.943752,-37.987503,13.312501,0.5744085,-0.42207104,0.5166388,999.70966, , , , 
2026-03-20 17:28:04.517,-0.45942193,-12.124433,-2.8570302,-0.19288056,-0.43913543,1.7566944,-47.737503,-37.612503,14.64375,0.57048965,-0.4333068,0.5206012,999.70966, , , , 
2026-03-20 17:28:04.536,1.4045869,-11.803794,-1.9812572,-0.59177524,-0.00481056,2.6632178,-47.41875,-34.4625,15.525001,0.55678743,-0.45473385,0.53046346,999.70526, , , , 
2026-03-20 17:28:04.557,3.5796626,-12.026326,-0.6771688,-0.768926,0.32444555,3.1751225,-48.468754,-34.068752,13.593751,0.5431282,-0.4699403,0.5392138,999.70526, , , , 
2026-03-20 17:28:04.576,5.5776696,-12.653246,0.27756742,-0.6253728,0.42829257,3.539198,-48.80625,-30.73125,11.90625,0.5152436,-0.4961612,0.55688417,999.69916, , , , 
2026-03-20 17:28:04.596,5.8624153,-13.416556,-0.078963146,-0.3828595,0.17172936,3.786598,-51.037502,-30.093752,12.8625,0.49208146,-0.51691467,0.5720496,999.69916, , , , 
2026-03-20 17:28:04.616,5.3359947,-14.433506,-0.6628119,-0.17944153,-0.17463097,4.264294,-51.956253,-23.94375,11.08125,0.46915877,-0.53852403,0.5870391,999.7087, , , , 
2026-03-20 17:28:04.636,5.9294147,-14.888143,-1.1078769,-0.12507457,-0.2711476,4.760927,-54.45,-20.868752,13.63125,0.444592,-0.5614802,0.60219574,999.7087, , , , 
2026-03-20 17:28:04.656,6.991828,-14.636896,-1.1318051,-0.14095704,-0.18257222,5.2044153,-54.881252,-18.0375,12.13125,0.41655344,-0.5849721,0.6175563,999.69867, , , , 
2026-03-20 17:28:04.676,8.73141,-14.112868,-1.0504491,-0.15439607,-0.046349365,5.4102764,-54.80625,-11.175,11.26875,0.37679246,-0.6131797,0.6359748,999.69867, , , , 
2026-03-20 17:28:04.696,10.760524,-13.677374,-0.6125626,-0.15867212,-0.26626068,5.4182177,-55.725002,-6.9375005,13.275001,0.3438184,-0.63400966,0.64844316,999.6943, , , , 
2026-03-20 17:28:04.716,11.916257,-13.289737,-0.0526421,-0.053603385,-0.53931725,5.277108,-55.218754,-2.15625,13.575001,0.3128128,-0.65265,0.6582431,999.6943, , , , 
2026-03-20 17:28:04.736,11.933006,-13.153346,0.1268196,0.06856957,-0.45929396,5.205637,-52.406254,2.23125,13.181251,0.2828436,-0.66825706,0.666597,999.6818, , , , 
2026-03-20 17:28:04.756,13.1078825,-12.382857,0.18903299,0.06918044,-0.26626068,5.10179,-51.581253,8.55,13.05,0.25202578,-0.681273,0.6738652,999.6818, , , , 
2026-03-20 17:28:04.776,15.550955,-10.463814,-0.2009971,-0.1886045,0.35071275,4.6521935,-49.968754,11.55,14.55,0.22033775,-0.6922778,0.67922074,999.6623, , , , 
2026-03-20 17:28:04.796,15.969698,-8.992228,0.13878371,-0.48365217,1.1869866,3.926486,-45.35625,17.75625,14.793751,0.18777248,-0.7017174,0.6822349,999.6623, , , , 
2026-03-20 17:28:04.816,13.5481615,-7.975278,1.174876,-0.6052143,1.6084833,3.1775658,-46.3125,18.65625,12.843751,0.14730532,-0.7114575,0.68349624,999.64496, , , , 
2026-03-20 17:28:04.836,11.662618,-7.946564,0.15792629,-0.62781626,1.2523491,2.8721335,-42.506252,20.79375,12.31875,0.11856472,-0.71779275,0.6831692,999.64496, , , , 
2026-03-20 17:28:04.858,11.313266,-7.520642,0.10049855,-0.751211,0.9811252,2.6277876,-41.53125,24.13125,11.868751,0.09359894,-0.72422945,0.68094486,999.6347, , , , 
2026-03-20 17:28:04.876,11.172089,-7.2550383,1.0336994,-0.77442384,0.87605643,2.4304783,-39.05625,24.768751,11.26875,0.071067765,-0.7305151,0.6775127,999.6347, , , , 
2026-03-20 17:28:04.897,12.538391,-7.60439,2.024328,-0.5044216,0.42829257,2.286925,-36.5625,25.518751,12.0375,0.051341865,-0.73549026,0.6744345,999.62225, , , , 
2026-03-20 17:28:04.916,15.345172,-7.4010005,1.9645073,-0.16661337,-0.029856017,2.047466,-33.84375,27.300001,10.875,0.036412958,-0.7379349,0.67325824,999.62225, , , , 
2026-03-20 17:28:04.936,18.652052,-7.1545396,0.44506502,0.1357647,-0.3652208,1.3358085,-35.0625,27.675001,9.900001,0.02828322,-0.73791367,0.6740272,999.62787,37.88742847,127.73742817,186.57415771484375,1.38
2026-03-20 17:28:04.956,19.113867,-7.0540414,-0.8111669,0.08689552,-0.3756055,0.5679515,-34.143753,30.243752,11.681251,0.026751561,-0.7370756,0.6751451,999.62787, , , , 
2026-03-20 17:28:04.976,19.221544,-7.975278,-0.97866446,-0.11713332,-0.12698352,-0.22495095,-33.6375,30.54375,11.606251,0.031324252,-0.737169,0.6748286,999.62885, , , , 
2026-03-20 17:28:04.998,19.491934,-8.717052,-0.17706887,-0.19104797,6.8722287E-4,-1.00136,-35.49375,30.112501,12.13125,0.03902394,-0.7379696,0.6733574,999.62885, , , , 
2026-03-20 17:28:05.016,19.211973,-8.920443,0.4953143,-0.1763872,0.0043524117,-1.7295109,-35.86875,29.062502,13.462501,0.0517105,-0.73823655,0.67169166,999.6232, , , , 
2026-03-20 17:28:05.036,17.479568,-9.667004,1.2562319,-0.12079851,0.094760396,-2.7575963,-37.275,27.91875,13.218751,0.07032587,-0.7372942,0.6698625,999.6232, , , , 
2026-03-20 17:28:05.056,15.192031,-11.4018,1.7611175,-0.05421425,0.2523635,-3.477195,-37.78125,26.025002,11.681251,0.09352286,-0.73464787,0.6676024,999.63715, , , , 
2026-03-20 17:28:05.076,13.653446,-13.27538,2.696711,0.22495095,0.00923933,-3.8516552,-40.74375,24.468752,12.69375,0.1200088,-0.72954386,0.6653132,999.63715, , , , 
2026-03-20 17:28:05.096,13.311273,-14.026727,3.0029924,0.5835286,-0.44157887,-4.091114,-43.7625,22.650002,13.725,0.15053684,-0.7212099,0.6637963,999.66156, , , , 
2026-03-20 17:28:05.116,13.514663,-14.505291,2.2205393,0.8205441,-0.63583386,-4.4448047,-46.612503,18.6375,12.8625,0.18505298,-0.7096449,0.66256523,999.66156, , , , 
2026-03-20 17:28:05.136,12.4426775,-15.017355,2.0171494,1.033125,-0.89972746,-4.881573,-49.125004,13.406251,12.50625,0.23296785,-0.6910402,0.65964377,999.68134, , , , 
2026-03-20 17:28:05.156,11.148161,-15.4313135,1.9716859,1.2218822,-1.6590323,-5.3000154,-50.156254,11.175,12.58125,0.27661422,-0.67304844,0.6549995,999.68134, , , , 
2026-03-20 17:28:05.176,9.042477,-15.594026,1.0001999,1.1693479,-2.2674537,-5.3006263,-51.525,5.925,13.33125,0.3259158,-0.6537289,0.64658797,999.68427, , , , 
2026-03-20 17:28:05.196,7.7383885,-14.344972,1.4261223,1.00136,-1.8624504,-5.072163,-51.300003,1.2375001,13.425,0.37308705,-0.63412344,0.63544625,999.68427, , , , 
2026-03-20 17:28:05.216,6.9320073,-12.650853,0.4953143,0.82665277,-0.6590467,-4.645779,-49.74375,-3.8625002,16.03125,0.4120055,-0.6133184,0.6252968,999.6999, , , , 
2026-03-20 17:28:05.236,6.664011,-11.30848,-1.0289137,0.5871938,0.4899899,-4.298808,-51.318752,-6.525,17.118752,0.43974006,-0.59123886,0.618408,999.6999, , , , 
2026-03-20 17:28:05.256,7.2765737,-10.353744,-1.5960127,0.30130905,0.95730144,-4.182133,-51.037502,-9.58125,16.03125,0.45922363,-0.5687889,0.61311376,999.7128, , , , 
2026-03-20 17:28:05.276,6.216553,-10.202995,-0.9451649,0.17363831,0.5162571,-4.2646,-54.131252,-13.05,19.48125,0.48156923,-0.5412302,0.60348976,999.7128, , , , 
2026-03-20 17:28:05.296,4.24726,-10.325029,-0.5623133,0.21517712,-0.19173518,-4.1558657,-51.61875,-18.975,15.543751,0.50216556,-0.5204722,0.591742,999.6916, , , , 
2026-03-20 17:28:05.316,3.1489546,-10.473385,-0.45702913,0.22189663,-0.41958773,-3.9176285,-53.68125,-21.9375,16.5375,0.52372813,-0.5014255,0.5777875,999.6916, , , , 
2026-03-20 17:28:05.336,2.5196424,-10.626525,-1.0169497,0.117438756,-0.39332056,-3.5101817,-50.86875,-23.775002,18.206251,0.5433924,-0.4840421,0.5637164,999.6757, , , , 
2026-03-20 17:28:05.357,1.6893328,-11.109876,-1.5194423,-0.06887501,-0.23205225,-3.0807438,-48.91875,-27.300001,17.118752,0.5596796,-0.46879733,0.55028427,999.6757, , , , 
2026-03-20 17:28:05.376,0.54317075,-11.277373,-2.1367905,-0.33521205,-0.043905906,-2.5077527,-48.187504,-30.206251,17.362501,0.5715124,-0.45636955,0.53839105,999.6623, , , , 
2026-03-20 17:28:05.400,-0.43070808,-11.6339035,-1.1533405,-0.5398517,0.10942116,-1.7435608,-48.54375,-32.737503,16.78125,0.5794171,-0.4463587,0.52655035,999.64716, , , , 
2026-03-20 17:28:05.416,-1.0025927,-11.124232,-0.02632105,-0.5111411,0.23098324,-1.0343468,-44.456253,-33.54375,16.237501,0.58097243,-0.4423751,0.52082366,999.64716, , , , 
2026-03-20 17:28:05.436,-1.1964114,-10.439885,0.4331009,-0.3291034,0.39591673,-0.37461284,-45.525,-35.15625,16.44375,0.57925135,-0.4408843,0.5193723,999.64716, , , , 
2026-03-20 17:28:05.457,-1.7874385,-10.60499,-0.86859465,-0.11835505,0.4747183,0.2319759,-46.0125,-37.050003,13.81875,0.5751535,-0.44106978,0.52220124,999.6528, , , , 
2026-03-20 17:28:05.476,-2.8139594,-11.062019,-3.1202407,-0.20693044,0.3287216,1.1165081,-46.162502,-36.43125,13.500001,0.5689218,-0.44508106,0.5277888,999.6528, , , , 
2026-03-20 17:28:05.496,-1.9453648,-11.363515,-3.0436704,-0.55878854,0.2022726,2.120159,-47.04375,-34.050003,15.450001,0.55857205,-0.4561104,0.5351968,999.65814, , , , 
2026-03-20 17:28:05.516,0.9834501,-11.109876,-0.46181476,-0.70661783,0.28962627,2.9607089,-47.1375,-34.66875,13.650001,0.54241395,-0.47381857,0.54496944,999.65814, , , , 
2026-03-20 17:28:05.536,4.558327,-11.578869,1.3639089,-0.44211337,0.349491,3.4518442,-47.550003,-31.087502,11.793751,0.51638556,-0.49868345,0.5615992,999.6479, , , , 
2026-03-20 17:28:05.556,5.8743796,-12.413964,0.08135597,-0.092087865,0.3165043,3.6357145,-47.5125,-27.975,12.075001,0.49464732,-0.5171962,0.577327,999.6479, , , , 
2026-03-20 17:28:05.576,6.2524457,-13.820944,-2.0147567,-0.10674862,0.1918879,3.8892233,-50.737503,-25.181252,10.70625,0.4723843,-0.5356128,0.59317833,999.6591, , , , 
2026-03-20 17:28:05.596,7.207182,-14.799608,-1.7419748,-0.3394881,-0.045127634,4.2508554,-52.29375,-21.768751,13.762501,0.4482698,-0.5565425,0.6072037,999.6591, , , , 
2026-03-20 17:28:05.616,8.62134,-14.275579,1.2011969,-0.2215912,-0.41164652,4.61432,-55.4625,-18.487501,15.150001,0.422819,-0.57921076,0.6194714,999.6606, , , , 
2026-03-20 17:28:05.636,10.133604,-13.119846,1.9525433,0.2432769,-0.42936158,4.776199,-52.85625,-13.725,13.218751,0.3972908,-0.5998164,0.6323397,999.6606, , , , 
2026-03-20 17:28:05.656,10.827522,-11.504691,0.96909314,0.59391326,-0.26137376,4.704117,-55.36875,-7.9125004,14.531251,0.37165543,-0.615933,0.6466694,999.67426, , , , 
2026-03-20 17:28:05.676,10.3681,-10.358529,-1.0217353,0.62812173,-0.11415535,4.442056,-52.537502,-3.4875002,12.13125,0.34011948,-0.631022,0.66389465,999.67426, , , , 
2026-03-20 17:28:05.696,8.303095,-10.542776,-2.2492533,0.3006982,0.011682789,4.43778,-50.437504,0.45000002,13.387501,0.3142872,-0.6422418,0.6747812,999.6789, , , , 
2026-03-20 17:28:05.716,8.420342,-11.069198,-2.754139,-0.13423753,-0.03657553,4.7884164,-50.41875,3.43125,13.837501,0.28550562,-0.6556225,0.68230915,999.6789, , , , 
2026-03-20 17:28:05.736,11.655439,-10.844273,-1.6797615,-0.53129965,0.2212094,4.803077,-47.53125,8.85,11.3625,0.2539959,-0.6708379,0.6860583,999.6435, , , , 
2026-03-20 17:28:05.756,14.045869,-10.269995,-0.39481574,-0.77564555,0.8369611,4.3357654,-47.0625,12.843751,14.325001,0.2207805,-0.6851273,0.68727076,999.6435, , , , 
2026-03-20 17:28:05.776,13.617554,-9.025727,-1.6223338,-0.9338595,1.5822161,3.6491535,-42.412502,16.725,9.918751,0.18676977,-0.6969336,0.6874235,999.6125, , , , 
2026-03-20 17:28:05.796,12.772887,-8.7266245,-2.4215364,-1.6058108,1.8137339,3.289354,-42.35625,17.71875,10.3125,0.14402106,-0.7124228,0.68286526,999.6125, , , , 
2026-03-20 17:28:05.816,13.706088,-8.221739,0.52163535,-1.9423972,1.465541,3.0205736,-43.518753,20.71875,10.25625,0.119508214,-0.723438,0.6763627,999.5854, , , , 
2026-03-20 17:28:05.836,15.007784,-7.3100734,4.924429,-1.5160136,0.6787471,2.5221078,-39.318752,21.88125,10.368751,0.087441675,-0.73963636,0.6644283,999.5854, , , , 
2026-03-20 17:28:05.856,15.80938,-6.687939,5.3718867,-0.6858484,0.37514734,2.0963352,-37.050003,22.987501,10.6875,0.06955659,-0.7465395,0.6594649,999.57904, , , , 
2026-03-20 17:28:05.876,17.120646,-6.4271216,2.8929226,0.023365578,0.26030475,1.6534582,-37.78125,24.525002,11.75625,0.05639577,-0.7479478,0.65962195,999.57904, , , , 
2026-03-20 17:28:05.896,18.333807,-6.2524457,-0.53359944,0.28848088,0.099036455,1.0016655,-35.2125,26.175001,9.075001,0.04835701,-0.7464992,0.66217816,999.6176, , , , 
2026-03-20 17:28:05.916,18.608982,-6.2524457,-1.8329022,0.12110394,-0.10804671,0.4677697,-38.662502,25.29375,12.58125,0.046017252,-0.7452361,0.66385597,999.6176, , , , 
2026-03-20 17:28:05.936,19.324436,-7.24786,-0.6436693,-0.038331766,-0.40065095,-0.25671592,-38.081253,24.50625,11.175,0.04982937,-0.74521893,0.6635458,999.6186,37.88741837,127.73743271,186.335205078125,1.33
2026-03-20 17:28:05.956,19.08276,-7.7647095,0.46660042,0.03924806,-0.47639817,-0.9439388,-37.8375,25.0125,11.887501,0.059743874,-0.7448132,0.6629253,999.6186, , , , 
2026-03-20 17:28:05.976,18.70948,-8.508878,0.9212367,0.06918044,-0.35544693,-1.8241949,-38.775,24.056252,12.056251,0.07904206,-0.7427071,0.6623637,999.6142, , , , 
2026-03-20 17:28:05.996,16.871792,-10.748559,1.39023,0.066126116,-0.34872743,-2.6348126,-37.29375,23.212502,10.70625,0.100207485,-0.7397812,0.6612413,999.6142, , , , 
2026-03-20 17:28:06.016,14.892928,-12.691531,2.07697,0.18646647,-0.6462186,-3.1088436,-39.61875,21.862501,10.725,0.1261532,-0.7353076,0.65960616,999.6352, , , , 
2026-03-20 17:28:06.036,15.701702,-13.727624,3.2973096,0.4705186,-1.1312453,-3.6427393,-44.11875,18.75,13.837501,0.15740635,-0.72854555,0.65791494,999.6352, , , , 
2026-03-20 17:28:06.058,14.892928,-14.567504,2.5124638,0.6507237,-1.1514038,-4.2218394,-42.6375,17.53125,15.6,0.19392966,-0.71843725,0.65620184,999.653, , , , 
2026-03-20 17:28:06.076,13.196417,-15.081961,1.8041883,0.6348412,-0.7861066,-4.643336,-44.15625,13.406251,13.5375,0.23232011,-0.7055464,0.65340114,999.653, , , , 
2026-03-20 17:28:06.096,11.79183,-15.244673,1.5577276,0.6366738,-0.27603453,-4.9341073,-45.581253,10.762501,14.606251,0.26915172,-0.6901006,0.6495943,999.67426, , , , 
2026-03-20 17:28:06.116,11.296515,-15.213567,1.4261223,0.76129025,-0.1465312,-5.208386,-46.050003,6.8625,13.012501,0.30425856,-0.6716837,0.6451875,999.67426, , , , 
2026-03-20 17:28:06.136,9.559326,-14.931213,0.7106683,0.95126915,-0.5093849,-5.330559,-48.675003,3.3750002,12.88125,0.35037327,-0.6447589,0.63763,999.6894, , , , 
2026-03-20 17:28:06.156,8.370093,-13.816158,-1.1724831,0.911563,-0.42752898,-5.168069,-48.675003,-1.10625,12.20625,0.38721123,-0.6216904,0.62970114,999.6894, , , , 
2026-03-20 17:28:06.176,7.001399,-12.457035,-2.8139594,0.37827802,0.5950587,-4.8656907,-50.49375,-4.275,12.731251,0.41756064,-0.59864086,0.62102395,999.7089, , , , 
2026-03-20 17:28:06.196,6.4175506,-11.997613,-2.0195422,-0.056046844,1.3513093,-4.5596476,-50.643753,-9.168751,14.56875,0.43817392,-0.57630104,0.61257285,999.7089, , , , 
2026-03-20 17:28:06.216,5.7020965,-11.406586,-0.57427746,-0.091477,1.4679844,-4.3464556,-52.312504,-13.293751,11.7375,0.4526912,-0.55405384,0.60444856,999.7077, , , , 
2026-03-20 17:28:06.236,4.752146,-11.009377,0.06460621,0.110108376,1.0568724,-4.20107,-51.206253,-14.418751,11.231251,0.46631494,-0.531487,0.59590214,999.7077, , , , 
2026-03-20 17:28:06.258,3.2159536,-10.904093,0.050249275,0.38011062,0.4014145,-3.9390087,-51.487503,-20.2875,10.05,0.48637182,-0.50421387,0.5832366,999.7143, , , , 
2026-03-20 17:28:06.276,2.0745773,-10.619347,-0.30388847,0.5254964,-0.10377065,-3.559051,-52.331253,-24.581251,8.53125,0.50432944,-0.48457888,0.5718656,999.7143, , , , 
2026-03-20 17:28:06.296,1.9549361,-10.315458,-0.9236295,0.5065596,-0.28458664,-3.1827583,-51.281254,-28.500002,12.337501,0.5220754,-0.4674398,0.5601259,999.7138, , , , 
2026-03-20 17:28:06.316,1.4333007,-10.267602,-1.1533405,0.37094763,-0.26503897,-2.7905831,-50.156254,-32.5875,9.675,0.5376548,-0.45260584,0.54877377,999.7138, , , , 
2026-03-20 17:28:06.336,0.30149564,-10.114461,-1.4261223,0.20051636,-0.21678063,-2.2334743,-46.162502,-32.53125,7.70625,0.55013406,-0.44036508,0.5386293,999.71356, , , , 
2026-03-20 17:28:06.356,-0.50488555,-9.911072,-1.4093726,0.050243627,-0.18196134,-1.6665919,-44.79375,-34.275,9.20625,0.55909216,-0.43167612,0.53028816,999.71356, , , , 
2026-03-20 17:28:06.376,-0.9379865,-9.370294,-0.83988076,-0.048716467,-0.09705114,-0.8956805,-45.1875,-35.325,12.093751,0.5642265,-0.4268899,0.52466565,999.70917, , , , 
2026-03-20 17:28:06.396,-1.4045869,-9.195618,-0.9523434,-0.049327333,0.015958842,-0.22556181,-45.206253,-35.34375,12.39375,0.56586003,-0.42541552,0.5224672,999.70917, , , , 
2026-03-20 17:28:06.416,-0.64606214,-9.899107,-2.0434706,-0.10797035,0.025121814,0.41951138,-44.8875,-37.537502,11.418751,0.5643677,-0.42739668,0.5236249,999.7026, , , , 
2026-03-20 17:28:06.436,-0.701097,-10.6815605,-2.5052853,-0.39263335,-0.023136504,1.2502875,-45.318752,-35.9625,12.450001,0.5577882,-0.436516,0.52820545,999.7026, , , , 
2026-03-20 17:28:06.457,0.8566305,-11.30848,-1.3208381,-0.63025975,-0.050014555,2.070679,-47.8875,-35.60625,12.69375,0.5473173,-0.45045555,0.5344142,999.7021, , , , 
2026-03-20 17:28:06.476,2.8905299,-11.176874,0.44985065,-0.64492047,0.0410043,2.8189883,-46.10625,-34.162502,10.425,0.53231865,-0.46845475,0.54350543,999.7021, , , , 
2026-03-20 17:28:06.496,4.7976093,-11.497513,1.4237294,-0.38896814,0.12286018,3.231322,-46.3875,-30.468752,11.00625,0.5141069,-0.48765418,0.5556896,999.6989, , , , 
2026-03-20 17:28:06.516,5.032106,-12.05504,0.73459655,-0.07742711,0.091706075,3.546528,-48.881252,-29.1,9.95625,0.4947465,-0.5061136,0.5703663,999.6989, , , , 
2026-03-20 17:28:06.536,5.601598,-12.971492,-0.72502524,0.027641632,-0.021914775,3.9686358,-50.081253,-24.993752,9.075001,0.46909183,-0.52941227,0.5904156,999.71014, , , , 
2026-03-20 17:28:06.556,6.1591253,-13.445271,-0.43070808,0.006261364,-0.1514181,4.300946,-53.86875,-21.150002,9.731251,0.45234084,-0.54444444,0.6022519,999.71014, , , , 
2026-03-20 17:28:06.576,7.243074,-13.457234,0.32303107,0.1339321,-0.23816091,4.7047276,-54.05625,-18.31875,11.7375,0.4220712,-0.5701446,0.6217538,999.7172, , , , 
2026-03-20 17:28:06.596,8.666803,-12.765709,0.16271193,0.3110829,-0.14042254,4.865996,-54.787502,-13.293751,10.9125,0.3957042,-0.5890601,0.637798,999.7172, , , , 
2026-03-20 17:28:06.616,9.224331,-11.992827,-1.3256238,0.31902415,0.102090776,4.7566514,-54.2625,-8.512501,11.512501,0.36811006,-0.6053436,0.65325665,999.72675, , , , 
2026-03-20 17:28:06.636,8.042277,-11.696117,-2.7062824,-0.055435978,0.37026042,4.7010627,-53.081253,-4.78125,11.64375,0.33867252,-0.6203999,0.6664416,999.72675, , , , 
2026-03-20 17:28:06.656,7.5661054,-12.014362,-2.605784,-0.6308706,0.6066651,4.9240284,-49.93125,0.41250002,9.168751,0.3058809,-0.6368904,0.67601734,999.7233, , , , 
2026-03-20 17:28:06.676,9.765109,-12.547962,-0.552742,-1.0829105,0.8400154,5.191587,-49.48125,3.43125,9.5625,0.26783258,-0.6556629,0.6819272,999.7233, , , , 
2026-03-20 17:28:06.696,12.751352,-12.533605,2.1463618,-1.0847431,0.6170498,5.083464,-49.4625,7.8,9.150001,0.21801998,-0.6784227,0.6854025,999.7028, , , , 
2026-03-20 17:28:06.716,14.316257,-11.717652,2.3449662,-0.7823651,0.38858637,4.7468777,-45.91875,13.875001,10.59375,0.1908807,-0.6893353,0.6866651,999.7028, , , , 
2026-03-20 17:28:06.736,14.9096775,-10.593026,0.33020952,-0.6357575,0.2438114,4.0956955,-44.756252,15.993751,9.58125,0.15206596,-0.70272,0.6878913,999.696, , , , 
2026-03-20 17:28:06.756,14.304294,-10.253245,-0.09571291,-0.7542653,0.19738568,3.665036,-43.725002,20.325,9.375,0.12557176,-0.7118382,0.6865768,999.696, , , , 
2026-03-20 17:28:06.776,13.710874,-9.678967,1.3375878,-0.6656899,-0.12576179,3.3614361,-41.831253,21.018751,9.6,0.10241353,-0.72010285,0.6837762,999.69037, , , , 
2026-03-20 17:28:06.796,14.830715,-8.183454,1.7060826,-0.42562005,-0.2192241,3.0981534,-36.206253,23.34375,8.418751,0.078057446,-0.72743773,0.68090373,999.69037, , , , 
2026-03-20 17:28:06.816,16.591833,-7.367501,1.713261,-0.28634286,-0.117820546,2.7530148,-36.61875,24.525002,11.493751,0.06515631,-0.73018605,0.6798309,999.68964, , , , 
2026-03-20 17:28:06.836,18.623339,-6.407979,2.132005,0.041080657,-0.067118764,1.8110614,-34.4625,26.475,11.925,0.049310658,-0.7319659,0.6795352,999.68964, , , , 
2026-03-20 17:28:06.856,18.97269,-6.802795,1.4763715,0.30497423,-0.0457385,1.0835214,-33.525,27.337502,10.06875,0.044228423,-0.7310776,0.68085927,999.68475, , , , 
2026-03-20 17:28:06.876,18.55634,-7.5062847,0.14117654,0.46624255,-0.04696023,0.24663666,-34.537502,29.19375,14.1,-0.042727374,0.7275215,-0.6847518,999.68475, , , , 
2026-03-20 17:28:06.896,17.187645,-7.668997,-0.47856453,0.44913834,-0.020693045,-0.4149299,-33.825,29.025002,12.937501,0.04680163,-0.7241101,0.68809104,999.6762, , , , 
2026-03-20 17:28:06.916,17.00579,-8.152347,-0.75613195,0.39538223,0.17661628,-0.8553634,-33.09375,30.35625,11.55,0.053504955,-0.7207993,0.69100976,999.6762, , , , 
2026-03-20 17:28:06.936,16.98904,-8.425129,-1.160519,0.25732678,0.25725043,-1.3837614,-36.600002,28.25625,11.587501,0.0622059,-0.7176944,0.69324934,999.6691,37.88740834,127.73744041,186.7786865234375,1.49
2026-03-20 17:28:06.956,16.634903,-8.705089,-0.09332009,0.08078687,-0.016416991,-2.0532691,-34.5,27.73125,11.231251,0.07540323,-0.7152604,0.69383126,999.6691, , , , 
2026-03-20 17:28:06.976,15.97927,-10.169497,1.7443677,0.054519683,-0.41958773,-2.9121451,-35.456253,27.150002,8.587501,0.10171863,-0.71176106,0.69254744,999.6613, , , , 
2026-03-20 17:28:06.996,14.218152,-11.956935,3.0532417,0.20173809,-0.6645445,-3.5162904,-37.3875,24.956251,10.6125,0.1301403,-0.7068467,0.6908314,999.6613, , , , 
2026-03-20 17:28:07.016,12.839887,-13.2610235,3.438486,0.43631017,-0.64010996,-3.8363836,-39.61875,21.112501,9.825001,0.16138431,-0.6989899,0.6894499,999.66425, , , , 
2026-03-20 17:28:07.036,13.533805,-14.42872,2.955136,0.6189587,-0.7421244,-4.1485353,-42.6375,20.681252,10.33125,0.19413984,-0.6883217,0.6881188,999.66425, , , , 
2026-03-20 17:28:07.056,13.79223,-15.199209,2.4119651,0.7374665,-1.0298417,-4.5828605,-44.5875,17.625,10.40625,0.23051354,-0.67508495,0.68556315,999.685, , , , 
2026-03-20 17:28:07.076,13.646268,-16.046268,1.4404793,0.7234166,-1.4134648,-5.150354,-45.73125,11.793751,9.0,0.27134463,-0.6596171,0.68038684,999.685, , , , 
2026-03-20 17:28:07.096,11.487942,-16.457834,1.5888343,0.6317869,-1.8655046,-5.573683,-47.8125,8.418751,14.512501,0.31662494,-0.64245737,0.6711049,999.7048, , , , 
2026-03-20 17:28:07.116,9.276974,-16.13241,1.9812572,0.5401572,-1.841681,-5.605448,-46.893753,4.0687504,11.26875,0.3634922,-0.62396526,0.6580801,999.7048, , , , 
2026-03-20 17:28:07.136,7.3579297,-14.16551,1.0552348,0.4637991,-0.78427404,-5.2047205,-47.71875,0.73125005,11.700001,0.4142327,-0.59845847,0.64168894,999.7148, , , , 
2026-03-20 17:28:07.157,7.2095747,-12.516855,-0.8470592,0.20112723,0.6964622,-4.8082695,-51.15,-4.4812503,14.512501,0.44179726,-0.5762839,0.6322739,999.7148, , , , 
2026-03-20 17:28:07.176,6.4869423,-11.60519,-1.3471591,-0.084757484,1.569388,-4.520552,-49.48125,-10.78125,12.993751,0.45834023,-0.5532135,0.6257525,999.74506, , , , 
2026-03-20 17:28:07.196,5.4221363,-10.719846,-0.6436693,-0.099418245,1.2181407,-4.2975864,-51.318752,-12.69375,12.225,0.47123322,-0.5305093,0.61872715,999.74506, , , , 
2026-03-20 17:28:07.216,5.1158547,-10.51167,0.35174492,0.014813471,0.51992226,-4.191296,-51.000004,-17.643751,12.31875,0.48611978,-0.50929904,0.60879844,999.74457, , , , 
2026-03-20 17:28:07.236,3.7328033,-10.250853,0.8662018,0.27931792,-0.16424626,-4.0135345,-50.23125,-22.5375,12.0375,0.50959146,-0.4844112,0.5926208,999.74457, , , , 
2026-03-20 17:28:07.258,2.5316064,-10.447063,0.06699903,0.44669488,-0.42813987,-3.631744,-49.612503,-24.468752,13.481251,0.5293513,-0.46556953,0.57910454,999.747, , , , 
2026-03-20 17:28:07.276,1.7994026,-10.837093,-1.6486548,0.29275694,-0.45746136,-3.2096362,-47.49375,-27.750002,13.762501,0.5473981,-0.4490027,0.5657779,999.747, , , , 
2026-03-20 17:28:07.296,0.701097,-10.951949,-1.6007984,0.0013744457,-0.35422522,-2.6971207,-46.95,-30.16875,13.218751,0.56170005,-0.4359445,0.55293816,999.7546, , , , 
2026-03-20 17:28:07.316,-0.37567315,-10.947164,-1.2323036,-0.19837834,-0.21433719,-2.0215042,-47.11875,-32.325,14.75625,0.5714392,-0.426643,0.54208106,999.7546, , , , 
2026-03-20 17:28:07.336,-0.526421,-11.351551,-0.29671,-0.18921536,-0.07628174,-1.209665,-46.85625,-32.53125,13.968751,0.5768347,-0.4211084,0.53453237,999.7497, , , , 
2026-03-20 17:28:07.356,-0.28953153,-12.064611,-1.134198,-0.101250835,0.045280352,-0.4967858,-45.28125,-34.237503,13.743751,0.5788951,-0.41859627,0.53122073,999.7497, , , , 
2026-03-20 17:28:07.376,-0.16749759,-12.535997,-2.3306093,-0.29061893,0.06971494,0.1660025,-45.412502,-35.49375,14.437501,0.5775848,-0.41988918,0.531316,999.7619, , , , 
2026-03-20 17:28:07.396,-1.0671989,-11.205588,-2.0745773,-0.7310524,0.010461059,0.9534072,-43.65,-34.93125,12.225,0.5706064,-0.4291728,0.533445,999.7619, , , , 
2026-03-20 17:28:07.416,-0.7322037,-10.762917,0.086141616,-0.93508124,0.027565273,1.7298163,-46.518753,-33.0,14.418751,0.559883,-0.44292796,0.53698003,999.759, , , , 
2026-03-20 17:28:07.436,0.39481574,-10.526027,1.7371893,-0.8544471,0.20044,2.5056145,-45.46875,-34.36875,13.6125,0.5445447,-0.46020493,0.5443554,999.759, , , , 
2026-03-20 17:28:07.457,2.6344976,-10.79163,2.7589245,-0.4641045,0.30611962,3.0847144,-45.91875,-31.781252,10.575001,0.5257886,-0.4784218,0.55641687,999.76556, , , , 
2026-03-20 17:28:07.476,4.615755,-11.181661,1.2753744,0.06734784,0.12530364,3.3974771,-49.48125,-29.04375,11.868751,0.5067303,-0.49574018,0.57162464,999.76556, , , , 
2026-03-20 17:28:07.496,4.883751,-12.045469,-0.88295156,0.2432769,-0.053068876,3.6723664,-48.375004,-26.437502,11.45625,0.48409998,-0.5170897,0.591413,999.79144, , , , 
2026-03-20 17:28:07.516,4.8047876,-13.543376,-2.536392,0.048411034,-0.012751802,4.139067,-51.768753,-23.587502,13.650001,0.4689236,-0.5311572,0.6031776,999.79144, , , , 
2026-03-20 17:28:07.536,5.5130634,-14.756537,-1.6701902,-0.21181737,-0.07200569,4.785362,-53.775,-21.806252,14.531251,0.44426844,-0.55285054,0.61839783,999.8017, , , , 
2026-03-20 17:28:07.556,8.815159,-14.6536455,-0.66041905,-0.1262963,-0.29802567,5.255728,-52.725002,-13.837501,12.731251,0.4159121,-0.5768605,0.63293403,999.8017, , , , 
2026-03-20 17:28:07.576,13.16531,-12.780066,-2.1391835,-0.1348484,-0.116598815,5.1445503,-53.925003,-10.9875,13.481251,0.3787323,-0.60467,0.649621,999.80536, , , , 
2026-03-20 17:28:07.596,13.081561,-11.162518,-2.7732813,-0.615599,0.24197881,4.570338,-52.068752,-4.0687504,12.1125,0.34124908,-0.6290107,0.66065365,999.80536, , , , 
2026-03-20 17:28:07.616,10.882557,-10.923235,-1.4763715,-1.026711,0.73616844,4.4945903,-51.075,-2.1000001,11.587501,0.31692502,-0.64331967,0.6646559,999.80536, , , , 
2026-03-20 17:28:07.636,10.758131,-10.8251295,0.11246266,-1.2557852,0.9065997,4.4573274,-49.95,2.7562501,11.8125,0.28122446,-0.6621121,0.66829026,999.80536, , , , 
2026-03-20 17:28:07.656,11.289337,-10.521241,0.6939186,-1.3009893,0.89865845,4.350426,-49.987503,6.8437505,11.7375,0.24490581,-0.6797655,0.66996324,999.7917, , , , 
2026-03-20 17:28:07.676,12.031113,-9.942178,0.89491564,-1.3278673,0.83451766,4.2080946,-50.1375,9.69375,11.2875,0.20920199,-0.6958356,0.66995496,999.7917, , , , 
2026-03-20 17:28:07.696,12.782458,-9.805787,1.6630118,-1.2307398,0.55657417,3.9301512,-48.318752,11.400001,9.450001,0.17581356,-0.71022165,0.6682652,999.78436, , , , 
2026-03-20 17:28:07.716,13.8688,-9.600004,1.4356936,-1.08963,0.20166174,3.5575237,-45.45,13.931251,8.700001,0.14706382,-0.7223374,0.6656429,999.78436, , , , 
2026-03-20 17:28:07.736,14.534005,-8.932407,1.4715859,-1.0230458,0.0074067353,3.078606,-42.54375,16.087502,9.95625,0.11793956,-0.7349988,0.6609799,999.7729, , , , 
2026-03-20 17:28:07.756,14.488541,-8.099705,1.8711873,-0.97112226,0.18516839,2.8360925,-42.43125,19.800001,13.293751,0.09750017,-0.7435327,0.65670496,999.7729, , , , 
2026-03-20 17:28:07.776,15.591632,-6.7334027,2.914458,-0.87460566,0.6494256,2.4982843,-40.612503,19.368752,13.743751,0.07684416,-0.7506371,0.65256673,999.769, , , , 
2026-03-20 17:28:07.796,16.728224,-5.6685967,4.2999024,-0.47204575,0.6604212,1.9955425,-38.98125,21.4125,11.137501,0.05751619,-0.7553194,0.6497491,999.769, , , , 
2026-03-20 17:28:07.816,17.706888,-5.6207404,3.9649072,0.10338886,0.21815509,1.4769183,-38.325,23.34375,11.887501,0.044355504,-0.75601393,0.6503785,999.77216, , , , 
2026-03-20 17:28:07.836,18.350557,-6.530013,1.4380864,0.66416276,-0.43485937,0.6675225,-39.45,24.975,11.606251,0.039991386,-0.7519448,0.6558399,999.77216, , , , 
2026-03-20 17:28:07.856,18.144773,-7.479964,0.15553348,0.7179188,-0.5625301,0.18066326,-36.600002,26.00625,11.71875,0.0426491,-0.7484513,0.65985894,999.7841, , , , 
2026-03-20 17:28:07.876,18.199808,-7.4249287,0.5168497,0.55970484,-0.29863653,-0.40576693,-37.66875,23.775002,13.181251,0.051285304,-0.7431412,0.6651898,999.7841, , , , 
2026-03-20 17:28:07.896,18.458235,-6.9296145,0.06699903,0.4705186,0.13752094,-1.0569488,-37.4625,24.562502,10.33125,0.06016248,-0.73895246,0.66848797,999.76654, , , , 
2026-03-20 17:28:07.916,17.273787,-7.628319,0.6843473,0.36300638,0.4570032,-2.0050108,-39.375,25.237501,10.5,0.07187557,-0.7347713,0.67042875,999.76654, , , , 
2026-03-20 17:28:07.936,14.914464,-9.162118,0.53599226,0.2988656,0.4502837,-2.7307184,-39.318752,22.63125,10.481251,0.088094644,-0.7298466,0.6712244,999.7441,37.88739981,127.73744816,185.8111572265625,1.2
2026-03-20 17:28:07.956,12.837494,-10.652846,2.239682,0.3678933,0.21387903,-3.1241152,-40.59375,22.0125,8.962501,0.1083588,-0.72410816,0.6707328,999.7441, , , , 
2026-03-20 17:28:07.976,13.438092,-11.830115,3.792624,0.8107703,-0.19051345,-3.4570365,-43.893753,19.44375,8.83125,0.13926154,-0.7134919,0.670922,999.73944, , , , 
2026-03-20 17:28:07.996,14.22533,-12.744173,2.9336007,1.1858412,-0.5423716,-3.9677196,-45.05625,16.706251,10.200001,0.16981764,-0.700754,0.67226833,999.73944, , , , 
2026-03-20 17:28:08.016,12.988241,-13.471592,1.294517,1.2933534,-0.9040035,-4.4784026,-46.3125,13.968751,8.325001,0.2062291,-0.6852751,0.672312,999.75555, , , , 
2026-03-20 17:28:08.036,11.162518,-13.818551,0.5288138,1.1748457,-1.1514038,-4.6628838,-48.300003,9.918751,8.137501,0.24591699,-0.6688515,0.6693329,999.75555, , , , 
2026-03-20 17:28:08.056,11.796616,-13.481163,0.33499518,0.92439115,-1.3230567,-4.760011,-50.156254,5.7562504,7.5000005,0.28595772,-0.6526316,0.6629171,999.76044, , , , 
2026-03-20 17:28:08.076,11.942577,-13.339986,0.39481574,0.7130319,-1.2106576,-4.8840165,-50.343754,4.21875,9.918751,0.32628644,-0.63620144,0.6531099,999.76044, , , , 
2026-03-20 17:28:08.096,11.186446,-12.820744,0.3804588,0.4393645,-0.4428006,-4.9530444,-49.55625,-0.54375005,9.4875,0.36279973,-0.61846524,0.64163005,999.7609, , , , 
2026-03-20 17:28:08.116,9.827323,-12.466606,0.91884387,0.26160285,0.28779367,-4.9292207,-48.675003,-4.93125,9.01875,0.392609,-0.5987859,0.6301522,999.7609, , , , 
2026-03-20 17:28:08.136,8.2456665,-12.007184,1.713261,0.42164943,0.3287216,-4.760622,-51.656254,-10.106251,11.493751,0.42412868,-0.5715472,0.616522,999.78876, , , , 
2026-03-20 17:28:08.156,7.786245,-11.478371,1.6127625,0.69165164,-0.07750347,-4.636616,-51.99375,-13.9875,10.5,0.44945568,-0.54859096,0.6052871,999.78876, , , , 
2026-03-20 17:28:08.176,7.1688967,-10.796415,0.6891329,0.8535308,-0.3756055,-4.578584,-49.800003,-17.643751,11.26875,0.47654143,-0.52513814,0.5926763,999.811, , , , 
2026-03-20 17:28:08.196,5.771488,-10.492527,-0.2656033,0.81810063,-0.36460993,-4.5187197,-51.2625,-21.900002,11.962501,0.5035115,-0.5012097,0.57873833,999.811, , , , 
2026-03-20 17:28:08.216,3.818945,-10.837093,-0.5910272,0.71242106,-0.25954118,-4.2560477,-47.1375,-23.962502,12.1125,0.52815324,-0.47733092,0.5642906,999.82294, , , , 
2026-03-20 17:28:08.236,1.9716859,-10.939985,-1.6247265,0.5780308,-0.36949682,-3.684889,-48.73125,-28.237501,12.056251,0.5494897,-0.45542115,0.55027187,999.82294, , , , 
2026-03-20 17:28:08.256,1.8544376,-10.865808,-2.1966112,0.3159698,-0.5112175,-3.0190465,-46.443752,-30.50625,13.8,0.5675862,-0.43824312,0.53646183,999.8239, , , , 
2026-03-20 17:28:08.276,1.7443677,-10.619347,-2.0793629,0.03375028,-0.27175847,-2.437503,-44.11875,-33.506252,14.043751,0.5813881,-0.42550418,0.5238343,999.8239, , , , 
2026-03-20 17:28:08.297,0.930808,-10.509277,-1.5194423,-0.25763223,0.26763514,-1.7295109,-44.4,-33.525,13.293751,0.590607,-0.41336796,0.5127241,999.8212, , , , 
2026-03-20 17:28:08.316,-0.46660042,-10.741381,-1.0193424,-0.34742934,0.30062184,-1.1943934,-43.987503,-36.581253,12.656251,0.59263766,-0.40669283,0.5077526,999.8212, , , , 
2026-03-20 17:28:08.336,-1.8664017,-11.212767,-0.7369894,-0.29856017,-0.03718639,-0.3349066,-44.53125,-36.28125,13.6125,0.5925209,-0.40477717,0.5048906,999.82733, , , , 
2026-03-20 17:28:08.357,-2.3569303,-11.408978,-0.9667004,-0.15317434,-0.32307112,0.67790717,-43.443752,-38.90625,13.500001,0.590464,-0.4104976,0.5048992,999.82733, , , , 
2026-03-20 17:28:08.376,-1.4189439,-11.509477,-1.8783658,-0.19165882,-0.30352345,1.5105159,-44.11875,-37.21875,13.1625,0.5871977,-0.4181904,0.5077055,999.83636, , , , 
2026-03-20 17:28:08.396,0.9906286,-10.990234,-2.1774685,-0.6510291,0.31589344,2.607629,-45.525,-36.131252,14.025001,0.57046986,-0.44167393,0.52057284,999.85443, , , , 
2026-03-20 17:28:08.416,2.1678972,-11.023734,-1.4620147,-0.84222984,0.6280454,2.9759805,-47.175003,-36.300003,14.212501,0.56109005,-0.45107722,0.52694607,999.85443, , , , 
2026-03-20 17:28:08.436,3.1250265,-11.624332,0.03589234,-0.8678861,0.9102649,3.4823873,-47.49375,-32.831253,12.95625,0.53152245,-0.47592178,0.5461923,999.85443, , , , 
2026-03-20 17:28:08.457,3.3954153,-12.660424,0.12203395,-0.6846267,0.7569378,3.949088,-49.875004,-30.093752,13.368751,0.5046882,-0.4967412,0.5638309,999.8691, , , , 
2026-03-20 17:28:08.476,4.302295,-13.550554,-0.39481574,-0.4922043,0.38797548,4.4444995,-51.787502,-28.275002,10.21875,0.4769866,-0.51928884,0.58194804,999.8691, , , , 
2026-03-20 17:28:08.496,6.0490556,-14.155939,-1.0073783,-0.40423977,0.034284785,4.8733263,-54.112503,-23.04375,10.1625,0.44856453,-0.54347384,0.59947497,999.89276, , , , 
2026-03-20 17:28:08.516,7.1377897,-14.057833,-0.64606214,-0.30711228,-0.22105668,5.1750937,-55.143753,-19.425001,11.15625,0.4193874,-0.5682918,0.615706,999.89276, , , , 
2026-03-20 17:28:08.536,8.176275,-13.710874,-0.39720857,-0.1385136,-0.3334558,5.3779006,-55.65,-15.993751,12.243751,0.38943803,-0.5922715,0.63090736,999.8908, , , , 
2026-03-20 17:28:08.559,8.846265,-13.828122,-1.0695918,-0.019394957,-0.3334558,5.534893,-54.281254,-8.118751,8.71875,0.3585735,-0.61412007,0.64534426,999.8908, , , , 
2026-03-20 17:28:08.576,10.205389,-13.797015,-1.3710874,-0.091477,-0.33651012,5.705324,-53.23125,-5.6625004,10.63125,0.317565,-0.6390914,0.6612415,999.89105, , , , 
2026-03-20 17:28:08.596,13.186846,-13.471592,-0.7369894,-0.13912445,-0.30535603,5.662564,-50.5875,-0.65625,9.13125,0.2835992,-0.6574581,0.67102456,999.89105, , , , 
2026-03-20 17:28:08.616,14.627325,-12.550355,-0.1363909,-0.08048143,-0.58757555,5.202583,-51.206253,5.2312503,11.793751,0.25206134,-0.67270666,0.67809516,999.88104, , , , 
2026-03-20 17:28:08.636,15.964912,-11.669796,-1.3998013,0.07467822,-0.5435933,4.6638,-49.7625,8.7375,11.45625,0.22500414,-0.6843736,0.683105,999.88104, , , , 
2026-03-20 17:28:08.656,15.859629,-10.904093,-3.8763726,-0.29489496,0.07582359,4.1635017,-45.975002,13.837501,13.06875,0.1991928,-0.6937693,0.68620545,999.8566, , , , 
2026-03-20 17:28:08.676,15.3356,-9.877572,-4.314259,-1.1525491,0.9346995,3.7572765,-42.24375,17.60625,11.231251,0.17079394,-0.7049652,0.6848155,999.8566, , , , 
2026-03-20 17:28:08.696,15.986448,-8.571091,-1.2179468,-1.8953607,1.5614468,3.2074983,-41.025,20.71875,10.3125,0.13143179,-0.72340536,0.6753199,999.8261, , , , 
2026-03-20 17:28:08.716,15.414563,-7.367501,1.4380864,-1.9613341,1.497306,2.6198463,-38.98125,22.9125,10.743751,0.10224286,-0.73804975,0.6646736,999.8261, , , , 
2026-03-20 17:28:08.736,14.773287,-6.7836523,3.1537402,-1.6992731,1.3018292,2.1458154,-35.5875,23.025002,10.387501,0.077859394,-0.75024533,0.654304,999.7956, , , , 
2026-03-20 17:28:08.757,15.476777,-7.192825,4.2017965,-1.2179116,1.0788635,1.8471024,-34.2,24.150002,11.400001,0.05739983,-0.75901634,0.64625937,999.7956, , , , 
2026-03-20 17:28:08.776,17.764315,-7.4679995,3.9744785,-0.48731738,0.3916407,1.4231622,-35.68125,24.750002,11.231251,0.042227753,-0.7636183,0.64209247,999.7963, , , , 
2026-03-20 17:28:08.796,19.470398,-6.903293,2.754139,-0.053603385,-0.29313874,0.8000801,-34.66875,25.575,13.06875,0.035742603,-0.76465607,0.64150685,999.7963, , , , 
2026-03-20 17:28:08.816,19.850857,-7.0875406,2.7206392,0.10949751,-0.4586831,0.091477,-33.16875,25.63125,11.212501,0.037749957,-0.76404124,0.6423036,999.8166, , , , 
2026-03-20 17:28:08.836,20.338993,-7.3340015,3.1920254,0.44180796,-0.25587597,-0.71425366,-34.893753,26.437502,11.19375,0.04731872,-0.7609421,0.64507645,999.8166, , , , 
2026-03-20 17:28:08.856,19.17608,-7.2622166,1.5553347,0.64522594,-0.020693045,-1.5639665,-35.325,26.5125,11.400001,0.05997495,-0.75580615,0.64917374,999.8212, , , , 
2026-03-20 17:28:08.876,17.032112,-8.003992,0.92602235,0.5847503,-0.10377065,-2.383747,-37.443752,24.91875,13.875001,0.07809959,-0.74988234,0.65246403,999.8212, , , , 
2026-03-20 17:28:08.896,15.744773,-10.006784,2.4335005,0.6024654,-0.59307337,-3.0489788,-37.050003,23.625,9.731251,0.10255173,-0.7434112,0.6542399,999.8222, , , , 
2026-03-20 17:28:08.916,15.747166,-11.727223,3.5676985,0.80405074,-0.80259997,-3.5602727,-37.36875,22.2,11.38125,0.13320695,-0.7349134,0.65560454,999.8222, , , , 
2026-03-20 17:28:08.936,14.4693985,-13.66541,2.7326035,1.051451,-0.6645445,-4.1332636,-41.23125,19.81875,12.243751,0.16779828,-0.7229928,0.6572719,999.80634,37.88739115,127.73745714,185.80572509765625,1.4
2026-03-20 17:28:08.956,12.8686,-14.565111,1.3016955,1.0819943,-0.4134791,-4.425257,-44.7,16.35,10.950001,0.20324185,-0.7082397,0.65841264,999.80634, , , , 
2026-03-20 17:28:08.976,12.454642,-14.634503,0.12921242,0.90301085,-0.3578904,-4.5889688,-48.075,14.156251,10.650001,0.24648568,-0.68809545,0.65705967,999.80634, , , , 
2026-03-20 17:28:08.996,14.014762,-14.476577,0.42831525,0.79000086,-0.6627119,-4.87913,-47.23125,9.618751,11.137501,0.2824983,-0.6714778,0.65234524,999.80634, , , , 
2026-03-20 17:28:09.016,14.098511,-14.756537,0.78723866,0.77106404,-0.76411545,-5.3140655,-50.531254,4.93125,11.4375,0.32153994,-0.6529897,0.64444685,999.79144, , , , 
2026-03-20 17:28:09.036,12.354143,-14.935999,0.8470592,0.79122263,-0.47456557,-5.665313,-51.206253,1.725,13.856251,0.36090073,-0.6312709,0.63457537,999.79144, , , , 
2026-03-20 17:28:09.057,9.262616,-14.512469,0.2632105,0.7362448,0.1344666,-5.5932307,-52.593754,-4.5,12.337501,0.39701915,-0.60655713,0.62407476,999.79364, , , , 
2026-03-20 17:28:09.076,8.298309,-14.273187,-0.078963146,0.74540776,0.35376707,-5.3311696,-51.825,-8.025001,11.85,0.42777383,-0.5801416,0.6140016,999.79364, , , , 
2026-03-20 17:28:09.096,7.372287,-13.600804,-0.42831525,0.8174898,0.26396993,-5.0880456,-53.662502,-12.58125,14.00625,0.45573306,-0.5531941,0.6035683,999.80536, , , , 
2026-03-20 17:28:09.116,6.195018,-12.602997,-0.25842485,0.8944588,-0.042684175,-4.7991066,-52.800003,-17.831251,13.293751,0.4888176,-0.519791,0.5893255,999.80536, , , , 
2026-03-20 17:28:09.136,4.9674997,-11.676974,-0.27038896,1.0630574,-0.6132319,-4.593245,-52.987503,-20.1,14.512501,0.5162172,-0.4941265,0.57593876,999.8049, , , , 
2026-03-20 17:28:09.157,4.0941195,-11.006984,-1.3998013,1.0160209,-0.9369902,-4.368447,-50.006252,-24.150002,14.437501,0.54463255,-0.47013173,0.5601551,999.8049, , , , 
2026-03-20 17:28:09.176,2.737389,-10.956735,-2.5028925,0.67943436,-0.76106113,-4.0843945,-48.037502,-27.31875,16.25625,0.5704732,-0.4479117,0.5431801,999.8073, , , , 
2026-03-20 17:28:09.200,0.63170516,-11.090733,-2.3018954,0.2451095,-0.45929396,-3.4668102,-48.975002,-32.025,15.8625,0.5907789,-0.42833525,0.5268968,999.8073, , , , 
2026-03-20 17:28:09.216,-0.5599205,-10.762917,-2.050649,-0.06826414,-0.24732387,-2.7142248,-44.943752,-34.36875,18.1875,0.6050538,-0.4128604,0.5128321,999.799, , , , 
2026-03-20 17:28:09.236,-0.66041905,-10.334601,-1.3112668,-0.22220206,-0.0994946,-1.9268203,-41.287502,-35.325,15.39375,0.61391807,-0.40209433,0.50187343,999.799, , , , 
2026-03-20 17:28:09.258,-1.1270195,-9.805787,-0.90448695,-0.24969098,0.09109521,-1.2298235,-44.831253,-36.075,16.575,0.6184612,-0.3952442,0.4947028,999.79095, , , , 
2026-03-20 17:28:09.276,-2.5004997,-9.303294,-1.5122639,-0.31810784,0.37270388,-0.4320341,-41.737503,-36.75,16.143751,0.61870456,-0.3910623,0.4916856,999.79095, , , , 
2026-03-20 17:28:09.296,-2.9479575,-9.851251,-2.3018954,-0.47571096,0.44967285,0.28023422,-40.331253,-38.475002,16.556252,0.6157221,-0.3916319,0.4928736,999.79803, , , , 
2026-03-20 17:28:09.316,-2.7086751,-10.042677,-2.359323,-0.75304353,0.32749987,1.3333651,-40.6875,-39.73125,13.25625,0.6053747,-0.40081978,0.4985812,999.79803, , , , 
2026-03-20 17:28:09.336,-0.34217364,-10.155139,-1.1102697,-0.9534072,0.20532693,2.3645048,-40.21875,-39.675003,12.13125,0.59219956,-0.4164449,0.506027,999.8073, , , , 
2026-03-20 17:28:09.358,2.2875385,-10.30828,0.4881358,-0.95462894,0.2890154,3.0382886,-43.95,-38.456253,13.9875,0.57465446,-0.4367768,0.5166278,999.8073, , , , 
2026-03-20 17:28:09.376,4.6755753,-11.203196,0.9738788,-0.7854194,0.46372274,3.4359617,-44.23125,-34.875,13.200001,0.55359095,-0.4587147,0.53042454,999.81537, , , , 
2026-03-20 17:28:09.396,5.3718867,-12.107682,0.6269195,-0.58322316,0.3916407,3.6632035,-46.425003,-33.46875,11.64375,0.53066164,-0.4802938,0.5463023,999.81537, , , , 
2026-03-20 17:28:09.416,5.3647084,-13.18206,-0.14356937,-0.39446592,0.028176138,3.9973464,-49.143753,-30.2625,11.75625,0.50771815,-0.5023993,0.5623156,999.8254, , , , 
2026-03-20 17:28:09.436,5.907879,-14.49572,-1.2418749,-0.3999637,-0.28580835,4.5196357,-47.9625,-25.3875,8.7375,0.47845316,-0.53302157,0.5812304,999.8254, , , , 
2026-03-20 17:28:09.457,6.7118673,-14.986248,-0.57427746,-0.5196932,-0.23877177,5.078577,-53.437504,-23.118752,13.031251,0.4512331,-0.55998534,0.59590435,999.84076, , , , 
2026-03-20 17:28:09.476,8.049456,-15.08914,0.58624154,-0.43417215,-0.12454005,5.6191926,-52.18125,-17.025002,12.243751,0.4190579,-0.5872261,0.6113825,999.84076, , , , 
2026-03-20 17:28:09.496,10.559526,-14.49572,0.61016977,-0.2093739,-0.092164226,5.818334,-52.7625,-10.481251,12.243751,0.38384703,-0.61243904,0.6272456,999.8332, , , , 
2026-03-20 17:28:09.516,11.607583,-13.739588,0.66999036,-0.051159926,-0.24488042,5.6680617,-54.862503,-7.70625,12.618751,0.34880602,-0.6342483,0.6416762,999.8332, , , , 
2026-03-20 17:28:09.536,10.69831,-13.383057,0.40677986,0.23716825,-0.59979284,5.427992,-51.112503,-0.112500004,12.243751,0.3170271,-0.6523292,0.65379715,999.8327, , , , 
2026-03-20 17:28:09.556,10.700703,-13.481163,-0.6867401,0.36728245,-0.6944769,5.390118,-52.162502,3.61875,15.243751,0.2868686,-0.66718763,0.6644633,999.8327, , , , 
2026-03-20 17:28:09.576,11.176874,-12.918849,-2.4598217,0.1754709,-0.6413317,5.362018,-49.218754,9.28125,12.6,0.24986859,-0.68330514,0.67431796,999.8034, , , , 
2026-03-20 17:28:09.596,13.545769,-12.191431,-2.5962126,-0.39935285,0.051999863,5.27833,-46.5,12.675,13.500001,0.21682224,-0.6965589,0.67792314,999.8034, , , , 
2026-03-20 17:28:09.616,16.304693,-10.973485,-0.12921242,-0.8294017,0.80153096,4.7731447,-42.412502,16.95,13.14375,0.18042581,-0.71005994,0.6776208,999.778, , , , 
2026-03-20 17:28:09.636,16.295122,-9.958928,1.4644074,-0.77625644,0.8705587,3.864178,-38.775,20.325,11.175,0.14621936,-0.72111857,0.6756493,999.778, , , , 
2026-03-20 17:28:09.657,15.170496,-9.379865,1.0911272,-0.6534726,0.70440346,3.380373,-38.60625,21.956251,12.0,0.11782858,-0.72921354,0.6733379,999.7775, , , , 
2026-03-20 17:28:09.676,16.096518,-8.62134,1.0169497,-0.4732675,0.70195997,2.9827,-37.96875,25.125002,12.825001,0.09295563,-0.73535174,0.6710208,999.7775, , , , 
2026-03-20 17:28:09.696,17.527426,-7.7886376,0.13878371,-0.28878632,0.83329594,2.4805691,-34.0875,25.406252,10.856251,0.06562642,-0.7401263,0.6692192,999.7729, , , , 
2026-03-20 17:28:09.716,18.833906,-7.2646093,-0.485743,-0.3065014,1.0898591,1.9472842,-30.843752,26.98125,11.6625,0.046522565,-0.74277544,0.6679131,999.7729, , , , 
2026-03-20 17:28:09.736,20.049461,-6.3744793,-0.20817557,-0.3187187,1.1454479,1.2686135,-32.49375,28.181252,10.5375,0.030859398,-0.74513596,0.66617733,999.76215, , , , 
2026-03-20 17:28:09.756,20.343779,-6.4534426,0.5072784,-0.2784016,0.96218836,0.3688096,-33.28125,28.725,11.512501,0.021864716,-0.74696696,0.6643957,999.76215, , , , 
2026-03-20 17:28:09.776,18.783657,-7.5062847,1.5625132,0.09544762,0.60055643,-0.46807513,-34.443752,28.725,11.793751,0.020629162,-0.7472207,0.66389215,999.74384, , , , 
2026-03-20 17:28:09.796,18.424734,-7.649854,0.57188463,0.46807513,0.14973822,-1.0795507,-32.831253,28.5375,8.55,0.026267787,-0.7446783,0.6660836,999.74384, , , , 
2026-03-20 17:28:09.816,17.840885,-8.195417,-0.5838487,0.53343767,-0.25282165,-1.6873612,-32.71875,27.675001,8.887501,0.039647415,-0.7405392,0.66934127,999.7336, , , , 
2026-03-20 17:28:09.836,17.101503,-9.674182,0.16749759,0.36728245,-0.6077341,-2.4539964,-37.40625,27.056252,11.118751,0.060289335,-0.7365459,0.671197,999.7336, , , , 
2026-03-20 17:28:09.857,16.22573,-11.301301,2.4861426,0.37094763,-0.73479396,-3.1815364,-36.506252,25.556252,8.793751,0.09408397,-0.730928,0.67142516,999.7282, , , , 
2026-03-20 17:28:09.876,15.261423,-12.772887,3.333202,0.7154754,-0.52709997,-3.7869034,-37.85625,24.0375,10.40625,0.12547454,-0.72310686,0.67212796,999.7282, , , , 
2026-03-20 17:28:09.896,12.930814,-13.880764,1.3782659,0.89262617,-0.100105464,-4.2163415,-42.037502,20.85,11.175,0.15761422,-0.7113675,0.673769,999.72723, , , , 
2026-03-20 17:28:09.917,11.459228,-14.713467,0.39720857,0.79244435,0.048334677,-4.430755,-42.225002,18.993752,9.0,0.1889451,-0.69796824,0.6740196,999.72723, , , , 
2026-03-20 17:28:09.936,12.433106,-15.244673,0.849452,0.7191406,-0.39515316,-4.661051,-46.6875,15.900001,10.725,0.22142914,-0.6840714,0.67161864,999.7128,37.8873817,127.73746736,185.62384033203125,1.39
2026-03-20 17:28:09.957,12.626925,-15.345172,1.550549,0.7502947,-1.2845722,-5.1057606,-45.862503,11.15625,8.7375,0.25940022,-0.6692365,0.6658234,999.7128, , , , 
2026-03-20 17:28:09.976,10.963913,-15.24228,1.9740787,0.7881683,-1.8392375,-5.395921,-48.73125,8.625,9.4875,0.3044823,-0.65299124,0.65596807,999.7194, , , , 
2026-03-20 17:28:09.996,9.001799,-14.627325,1.6630118,0.811992,-1.5820634,-5.4356275,-50.1375,2.60625,12.3,0.3617841,-0.6296658,0.6404507,999.7194, , , , 
2026-03-20 17:28:10.016,9.176475,-13.820944,-0.05742774,0.6006328,-0.7244093,-5.2651963,-49.256252,-1.03125,12.1125,0.39184567,-0.6140906,0.63113844,999.7509, , , , 
2026-03-20 17:28:10.036,9.853643,-13.150953,-0.34456646,0.2658789,0.19249876,-5.1918926,-50.643753,-6.3,14.400001,0.43158683,-0.5863556,0.61605465,999.7509, , , , 
2026-03-20 17:28:10.058,9.073584,-12.935599,-0.016749758,0.22800528,0.38736463,-5.179675,-50.475002,-11.26875,14.83125,0.45792517,-0.5623366,0.60377103,999.757, , , , 
2026-03-20 17:28:10.076,6.9990063,-12.9547415,-0.10289137,0.28053966,0.2163225,-5.0287914,-51.300003,-13.950001,13.668751,0.4829892,-0.53745455,0.59037834,999.757, , , , 
2026-03-20 17:28:10.096,6.216553,-12.60539,-0.33020952,0.28053966,0.09842559,-4.8088803,-52.631252,-19.06875,14.26875,0.5067456,-0.51293474,0.5759582,999.7568, , , , 
2026-03-20 17:28:10.116,4.692325,-12.323036,-0.39960137,0.25793764,0.0025198173,-4.6127925,-50.437504,-22.706251,14.400001,0.5290231,-0.48904055,0.5605941,999.7568, , , , 
2026-03-20 17:28:10.136,2.2636101,-11.564512,-1.5864414,0.14676027,-0.22105668,-4.1265445,-48.525,-27.093752,13.368751,0.5544276,-0.46147338,0.5404436,999.76434, , , , 
2026-03-20 17:28:10.156,0.98584294,-11.638689,-1.3686945,-0.020616686,-0.39209884,-3.50896,-48.506252,-30.35625,16.1625,0.5718936,-0.44367796,0.52382624,999.76434, , , , 
2026-03-20 17:28:10.176,-0.038285162,-11.243874,-0.38285163,-0.07437278,-0.38293585,-2.7698135,-45.318752,-33.73125,13.25625,0.58565813,-0.43009445,0.5089866,999.7631, , , , 
2026-03-20 17:28:10.196,-1.3854443,-10.112068,-0.09332009,0.023976443,0.015347977,-1.9225441,-43.350002,-36.28125,13.650001,0.59527576,-0.41931832,0.49834874,999.7631, , , , 
2026-03-20 17:28:10.216,-2.1798615,-9.695718,-0.8805587,-0.018784093,0.38186684,-1.2927426,-45.28125,-35.60625,13.81875,0.59988654,-0.41041476,0.49339923,999.7924, , , , 
2026-03-20 17:28:10.236,-2.024328,-10.447063,-1.5625132,-0.07498365,0.36231917,-0.46135563,-42.9,-37.706253,12.3,0.60032934,-0.4050253,0.49265808,999.7924, , , , 
2026-03-20 17:28:10.256,-1.4333007,-11.344372,-2.428715,-0.18066326,-0.055512335,0.26740605,-43.275,-38.006252,13.743751,0.5987614,-0.4055114,0.49372464,999.7978, , , , 
2026-03-20 17:28:10.276,-1.8329022,-10.315458,-1.847259,-0.3828595,-0.23510659,1.1971422,-41.775,-40.0875,13.087501,0.59381497,-0.4156408,0.496488,999.7978, , , , 
