Time,Accel_X,Accel_Y,Accel_Z,Gyro_X,Gyro_Y,Gyro_Z,Mag_X,Mag_Y,Mag_Z,Orient_X,Orient_Y,Orient_Z,Pressure,Latitude,Longitude,Altitude,Speed
2025-04-06 16:19:16.384,0.2416751,4.692325,8.597412,0.067195125,0.00320704,-0.051541716,-12.450001,-41.8875,-25.125002,0.17234597,0.1638606,0.6907141,997.2785,37.88838774,127.73986635,140.660400390625,0.0
2025-04-06 16:19:16.404,0.19621146,4.5822554,8.568698,0.018936807,0.033139415,-0.07108939,-12.562501,-41.68125,-25.087502,0.17324011,0.16446356,0.69021356,997.27997,37.88838774,127.73986635,140.660400390625,0.0
2025-04-06 16:19:16.424,0.12203395,4.587041,8.743374,-0.010384701,0.075289086,-0.0655916,-12.731251,-41.53125,-25.425001,0.17312662,0.16502693,0.6898065,997.27997,37.88838774,127.73986635,140.660400390625,0.0
2025-04-06 16:19:16.444,0.10049855,4.613362,8.82473,0.015882485,0.03497201,-0.060093824,-12.900001,-42.05625,-25.25625,0.17254667,0.16556138,0.6895053,997.2807,37.88838774,127.73986635,140.660400390625,0.0
2025-04-06 16:19:16.464,0.07178468,4.658826,8.5016985,0.033597562,1.527162E-4,-0.0655916,-12.88125,-41.943752,-24.900002,0.17255661,0.1662357,0.68894583,997.2807,37.88838774,127.73986635,140.660400390625,0.0
2025-04-06 16:19:16.484,0.06699903,4.6636114,8.355737,-0.008552107,7.6358096E-4,-0.077198036,-12.656251,-41.775,-24.6375,0.17290752,0.16683933,0.6883375,997.2763,37.88838774,127.73986635,140.660400390625,0.0
2025-04-06 16:19:16.504,0.11246266,4.5224347,8.559127,-0.06597339,0.031306818,-0.10468695,-12.356251,-41.79375,-24.337502,0.17285717,0.1670634,0.6877653,997.2763,37.88838774,127.73986635,140.660400390625,0.0
2025-04-06 16:19:16.524,-0.10767702,4.5248275,9.138189,-0.064140804,0.07223476,-0.08697187,-12.187501,-41.4,-24.393751,0.17163104,0.16709423,0.6872989,997.27655,37.88838774,127.73986635,140.660400390625,0.0
2025-04-06 16:19:16.544,-0.2009971,4.4817567,9.202796,-0.01527162,0.10827578,-0.053985175,-12.31875,-41.625,-24.69375,0.1698951,0.16731822,0.6870813,997.27655,37.88838774,127.73986635,140.660400390625,0.0
2025-04-06 16:19:16.564,-0.11246266,4.4410787,9.190832,0.019547673,0.055130545,-0.024663666,-11.981251,-41.4375,-24.843752,0.16843678,0.16784078,0.6869991,997.27655,37.88838774,127.73986635,140.660400390625,0.0
2025-04-06 16:19:16.584,-0.043070808,4.517649,9.013762,0.05864302,0.03008509,-0.010613776,-12.262501,-41.68125,-24.6375,0.16780753,0.16810419,0.6869556,997.27655,37.88838774,127.73986635,140.660400390625,0.0
2025-04-06 16:19:16.604,-0.2440679,4.57747,8.611769,0.03848448,0.07834341,0.008933897,-12.3,-41.8125,-24.73125,0.16765453,0.1687159,0.68689495,997.28217,37.88838774,127.73986635,140.660400390625,0.0
2025-04-06 16:19:16.624,-0.24646074,4.508078,8.623733,-0.0042760535,0.07589995,0.040698867,-12.01875,-41.550003,-24.187502,0.16695863,0.17001182,0.68705195,997.28217,37.88838774,127.73986635,140.660400390625,0.0
2025-04-06 16:19:16.644,0.22253251,4.4578285,8.8701935,0.013439025,0.003817905,0.025427246,-12.31875,-41.5875,-24.0375,0.16651453,0.17031105,0.6874219,997.2753,37.88838774,127.73986635,140.660400390625,0.0
2025-04-06 16:19:16.665,0.11485548,4.486542,8.776874,0.04092794,-0.024281874,-0.0045051277,-12.187501,-41.30625,-24.337502,0.16683312,0.16995361,0.6875704,997.2753,37.88838774,127.73986635,140.660400390625,0.0
2025-04-06 16:19:16.684,0.0023928226,4.610969,8.544769,0.028099779,-0.024281874,-0.005726857,-12.39375,-41.381252,-24.35625,0.16734797,0.169904,0.6874463,997.27386,37.88838774,127.73986635,140.660400390625,0.0
2025-04-06 16:19:16.704,0.086141616,4.733003,8.520842,-0.0097738365,0.012370012,3.8179048E-4,-12.4125,-41.53125,-24.525002,0.16773704,0.17007148,0.6873321,997.27386,37.88838774,127.73986635,140.660400390625,0.0
2025-04-06 16:19:16.724,0.15314065,4.7162533,8.547162,-0.032375835,0.019089524,-0.03138318,-12.243751,-41.625,-24.956251,0.16796663,0.17017074,0.6872915,997.2724,37.88838774,127.73986635,140.660400390625,0.0
2025-04-06 16:19:16.744,0.033499517,4.651647,8.592627,-0.043371398,-0.013286309,-0.042378742,-11.83125,-41.79375,-24.862501,0.16799387,0.170106,0.6870861,997.2724,37.88838774,127.73986635,140.660400390625,0.0
2025-04-06 16:19:16.764,-0.02871387,4.6636114,8.705089,-0.042760536,0.00320704,-0.04176788,-11.418751,-41.8125,-24.862501,0.1678863,0.16987678,0.68683714,997.2673,37.88838774,127.73986635,140.660400390625,0.0
2025-04-06 16:19:16.784,-0.148355,4.6468616,8.559127,-0.051923506,0.028863361,-0.03565923,-11.19375,-42.0,-25.2,0.16749628,0.16990003,0.6866367,997.2673,37.88838774,127.73986635,140.660400390625,0.0
2025-04-06 16:19:16.805,-0.069391854,4.6372905,8.755338,-0.07269291,0.0129808765,-0.042989608,-11.34375,-42.131252,-24.862501,0.16690812,0.16997418,0.6864636,997.269,37.88838774,127.73986635,140.660400390625,0.0
2025-04-06 16:19:16.824,0.06699903,4.584648,8.705089,-0.07147118,0.0050396346,-0.072921984,-11.700001,-41.8875,-24.956251,0.16640298,0.16970922,0.68622404,997.269,37.88838774,127.73986635,140.660400390625,0.0
2025-04-06 16:19:16.844,-0.08853444,4.496114,8.702696,-0.11423171,0.009315688,-0.10529782,-11.94375,-41.9625,-24.862501,0.16579045,0.16933706,0.68577594,997.2736,37.88838774,127.73986635,140.660400390625,0.0
2025-04-06 16:19:16.864,-0.25842485,4.4004006,9.035298,-0.11178826,-0.013286309,-0.08086322,-12.168751,-41.8875,-24.69375,0.16437949,0.16863611,0.68516964,997.2736,37.88838774,127.73986635,140.660400390625,0.0
2025-04-06 16:19:16.885,-0.2536392,4.4147577,9.253045,-0.05253437,-0.043218683,-0.03199404,-12.0375,-41.756252,-24.656252,0.16334315,0.16790402,0.68488485,997.2741,37.88838774,127.73986635,140.660400390625,0.0
2025-04-06 16:19:16.906,0.009571291,4.4913282,9.099904,0.0140498895,-0.0707076,-0.010002911,-12.187501,-41.98125,-24.187502,0.16312636,0.16727741,0.684766,997.2741,37.88838774,127.73986635,140.660400390625,0.0
2025-04-06 16:19:16.924,0.2943172,4.5655055,8.989835,0.016493348,-0.10430516,-0.049709123,-12.13125,-42.09375,-24.337502,0.16388473,0.16657716,0.6845497,997.2751,37.88838774,127.73986635,140.660400390625,0.0
2025-04-06 16:19:16.945,-0.014356935,4.615755,9.856036,0.010995566,-0.13729186,-0.08452842,-12.13125,-42.0,-24.468752,0.16486023,0.16566738,0.6840456,997.2751,37.88838774,127.73986635,140.660400390625,0.0
2025-04-06 16:19:16.966,0.5192425,4.0151563,8.784052,0.045814857,0.048411034,-0.131565,-12.075001,-42.09375,-24.6,0.16571982,0.1649431,0.68326545,997.27997,37.88838774,127.73986635,140.660400390625,0.0
2025-04-06 16:19:16.984,-0.5288138,4.644469,8.834301,0.03970621,0.08994984,-0.101632625,-11.94375,-42.037502,-24.7875,0.16542464,0.16547094,0.6826871,997.27997,37.88838774,127.73986635,140.660400390625,0.0
2025-04-06 16:19:17.004,-0.6580262,4.6564326,8.781659,0.0537561,0.09300416,-0.024663666,-11.6625,-41.7,-24.750002,0.16450515,0.16720904,0.68208367,997.27875,37.88838774,127.73986635,140.660400390625,0.0
2025-04-06 16:19:17.025,-0.27996024,4.7138605,8.784052,0.10079269,-0.018173227,0.0058795735,-11.793751,-41.831253,-24.31875,0.16418274,0.16922246,0.68174034,997.27875,37.88838774,127.73986635,140.660400390625,0.0
2025-04-06 16:19:17.044,-0.18903299,4.6803613,8.63809,0.10262528,-0.057268575,-0.021609342,-11.606251,-41.568752,-24.0375,0.16512734,0.1700392,0.6813957,997.2692,37.88838774,127.73986635,140.660400390625,0.0
2025-04-06 16:19:17.064,-0.35653058,4.546363,8.315059,0.033597562,-0.032223117,-0.0112246405,-11.606251,-41.7,-23.962502,0.16603163,0.17069331,0.68092173,997.2692,37.88838774,127.73986635,140.660400390625,0.0
2025-04-06 16:19:17.084,-0.3804588,4.546363,8.724232,-0.031154104,0.010537418,0.011988222,-11.75625,-41.79375,-23.8875,0.16585727,0.17112061,0.6807865,997.2646,37.88838774,127.73986635,140.660400390625,0.0
2025-04-06 16:19:17.104,-0.016749758,4.436293,9.183653,-0.009162972,0.039858926,0.0064904382,-11.606251,-41.625,-23.831251,0.16521788,0.17101605,0.68100995,997.2646,37.88838774,127.73986635,140.660400390625,0.0
2025-04-06 16:19:17.124,-0.10767702,4.4482574,8.922835,0.04459313,0.022754714,-0.025885396,-11.793751,-41.756252,-23.98125,0.164951,0.1709726,0.6810394,997.26874,37.88838774,127.73986635,140.660400390625,0.0
2025-04-06 16:19:17.144,-0.20578274,4.517649,8.662018,0.023823727,0.0716239,-0.023441937,-12.0375,-41.8875,-23.831251,0.16482677,0.17128684,0.680921,997.26874,37.88838774,127.73986635,140.660400390625,0.0
2025-04-06 16:19:17.165,-0.30867413,4.5296135,8.539984,-0.02443459,0.1339321,-0.0051159924,-11.981251,-41.86875,-23.775002,0.16388515,0.17245117,0.6809158,997.279,37.88838774,127.73986635,140.660400390625,0.0
2025-04-06 16:19:17.185,-0.3924229,4.496114,8.707481,-0.034819294,0.107054055,-2.290743E-4,-12.150001,-41.625,-23.8875,0.16270915,0.1732847,0.681094,997.279,37.88838774,127.73986635,140.660400390625,0.0
2025-04-06 16:19:17.204,-0.37088752,4.479364,8.733803,-0.015882485,0.060017463,0.016264275,-12.225,-41.662502,-23.831251,0.16165152,0.17389977,0.68127716,997.2758,37.88838774,127.73986635,140.660400390625,0.0
2025-04-06 16:19:17.224,-0.4354937,4.421936,8.628518,-0.013439025,0.028252495,0.03092503,-11.925,-41.568752,-24.056252,0.16103542,0.17424472,0.6814694,997.2758,37.88838774,127.73986635,140.660400390625,0.0
2025-04-06 16:19:17.244,-0.51445687,4.345366,8.817552,-0.05253437,0.027030766,0.090178914,-12.150001,-41.756252,-24.225,0.16017531,0.17437667,0.6819661,997.27826,37.88838774,127.73986635,140.660400390625,0.0
2025-04-06 16:19:17.264,-0.14596218,4.3525443,9.104691,-0.039095346,-0.033444848,0.11950042,-11.8125,-41.79375,-24.4125,0.15961957,0.17406322,0.68256915,997.27826,37.88838774,127.73986635,140.660400390625,0.0
2025-04-06 16:19:17.284,0.021535404,4.347759,9.238688,0.01282816,-0.09269873,0.11339177,-11.925,-41.7,-24.243752,0.15977177,0.17282775,0.6834377,997.27045,37.88838774,127.73986635,140.660400390625,0.0
2025-04-06 16:19:17.304,0.26799613,4.3740797,9.150154,0.03604102,-0.045051277,0.10117448,-11.981251,-41.737503,-24.13125,0.16086277,0.17122872,0.6843706,997.27045,37.88838774,127.73986635,140.660400390625,0.0
2025-04-06 16:19:17.324,0.18664017,4.5798626,8.88455,0.033597562,0.06856957,0.093233235,-11.925,-41.71875,-24.0,0.1613534,0.17081967,0.68515575,997.2719,37.88838774,127.73986635,140.660400390625,0.0
2025-04-06 16:19:17.345,0.1794617,4.7138605,8.743374,0.017104214,0.052076224,0.0730747,-12.056251,-41.9625,-23.7,0.16165583,0.17102882,0.68587714,997.2719,37.88838774,127.73986635,140.660400390625,0.0
2025-04-06 16:19:17.364,0.15792629,4.7401814,8.695518,0.010384701,1.527162E-4,0.04864011,-11.7375,-42.1875,-23.90625,0.1622266,0.17113093,0.6863712,997.26874,37.88838774,127.73986635,140.660400390625,0.0
2025-04-06 16:19:17.384,-0.031106694,4.8239303,8.63809,0.016493348,-0.020616686,0.044364054,-11.53125,-41.943752,-23.775002,0.16297166,0.17112271,0.686626,997.26874,37.88838774,127.73986635,140.660400390625,0.0
2025-04-06 16:19:17.404,0.0023928226,4.7712884,8.671589,0.012217295,-0.0108428495,0.043142326,-11.493751,-41.8875,-24.093752,0.16372904,0.17125487,0.6867993,997.27655,37.88838774,127.73986635,140.660400390625,0.0
2025-04-06 16:19:17.424,-0.059820566,4.733003,8.69791,0.0024434591,-0.0035124724,0.04864011,-11.75625,-41.643753,-24.150002,0.16436921,0.17143558,0.6870756,997.27655,37.88838774,127.73986635,140.660400390625,0.0
2025-04-06 16:19:17.444,0.09810573,4.6971107,8.886943,-0.0024434591,-0.0108428495,0.050472703,-12.13125,-41.49375,-24.393751,0.1646134,0.17141168,0.6873088,997.27216,37.88838774,127.73986635,140.660400390625,0.0
2025-04-06 16:19:17.464,0.10289137,4.6301117,8.970692,0.028099779,-0.029168794,0.023594651,-12.168751,-41.737503,-24.7875,0.16531195,0.1709566,0.6876418,997.27216,37.88838774,127.73986635,140.660400390625,0.0
2025-04-06 16:19:17.484,-0.11485548,4.5942197,8.779266,0.037873615,-0.0029016077,0.03459022,-12.13125,-41.625,-24.225,0.1658273,0.17082043,0.6877655,997.27094,37.88838774,127.73986635,140.660400390625,0.0
2025-04-06 16:19:17.504,0.09332009,4.5918264,8.831908,0.033597562,0.020311253,0.04741838,-11.75625,-41.737503,-24.0,0.16605829,0.17108971,0.6879914,997.27094,37.88838774,127.73986635,140.660400390625,0.0
2025-04-06 16:19:17.525,0.11485548,4.735396,8.669196,0.043982264,0.05329795,-0.008781182,-11.925,-41.71875,-23.7,0.16637373,0.1713192,0.6882195,997.2653,37.88838774,127.73986635,140.660400390625,0.0
2025-04-06 16:19:17.544,-0.083748795,4.74736,8.415557,-0.005497783,0.052687086,-0.046043932,-12.375001,-41.662502,-23.19375,0.16655432,0.17198034,0.68809575,997.2653,37.88838774,127.73986635,140.660400390625,0.0
2025-04-06 16:19:17.564,-0.27996024,4.7425747,8.453842,-0.06597339,0.042302385,-0.051541716,-12.637501,-41.925003,-23.23125,0.16625582,0.17263833,0.6877769,997.269,37.88838774,127.73986635,140.660400390625,0.0
2025-04-06 16:19:17.584,-0.36610186,4.625326,8.776874,-0.103236146,0.041691523,-0.02527453,-12.900001,-41.943752,-23.5125,0.16507638,0.17294817,0.687541,997.269,37.88838774,127.73986635,140.660400390625,0.0
2025-04-06 16:19:17.604,-0.34456646,4.5631127,9.300901,-0.07391464,0.055130545,0.011988222,-12.39375,-41.775,-23.643751,0.16372329,0.17282458,0.68766606,997.27264,37.88838774,127.73986635,140.660400390625,0.0
2025-04-06 16:19:17.624,-0.15074782,4.558327,9.425328,0.03848448,0.052687086,0.030314164,-11.775001,-41.79375,-24.35625,0.16264158,0.172787,0.68801,997.27264,37.88838774,127.73986635,140.660400390625,0.0
2025-04-06 16:19:17.644,-0.10289137,4.5942197,8.997013,0.09346231,0.034361143,0.019929463,-11.606251,-41.662502,-24.675001,0.16249995,0.17317383,0.688232,997.2658,37.88838774,127.73986635,140.660400390625,0.0
2025-04-06 16:19:17.664,-0.14117654,4.6468616,8.477771,0.058032155,0.06429352,-0.010002911,-11.512501,-41.568752,-24.975,0.16290689,0.17398559,0.6882106,997.2658,37.88838774,127.73986635,140.660400390625,0.0
2025-04-06 16:19:17.684,-0.21774685,4.627719,8.484949,-0.023212861,0.084452055,-0.030161448,-11.64375,-41.831253,-24.862501,0.16280787,0.17497092,0.68809354,997.2653,37.88838774,127.73986635,140.660400390625,0.0
2025-04-06 16:19:17.704,-0.47856453,4.486542,8.9013,-0.045814857,0.102778,-0.018555017,-11.775001,-41.568752,-24.562502,0.1615427,0.17572473,0.68803936,997.2653,37.88838774,127.73986635,140.660400390625,0.0
2025-04-06 16:19:17.724,-0.46660042,4.395615,9.056833,-0.0140498895,0.083230324,0.02481638,-11.4375,-41.5125,-24.45,0.16045907,0.17612568,0.68815714,997.2587,37.88838774,127.73986635,140.660400390625,0.0
2025-04-06 16:19:17.744,-0.3804588,4.465007,8.906086,0.046425723,0.025809037,0.06513346,-11.26875,-41.68125,-24.2625,0.15945014,0.1766011,0.6886167,997.2587,37.88838774,127.73986635,140.660400390625,0.0
2025-04-06 16:19:17.764,-0.18903299,4.570291,8.657232,0.023212861,7.6358096E-4,0.06024654,-11.493751,-41.7,-24.581251,0.15957914,0.17689969,0.6890133,997.25604,37.88838774,127.73986635,140.660400390625,0.0
2025-04-06 16:19:17.784,-0.12921242,4.5391846,8.7673025,-0.012217295,0.039858926,0.03459022,-11.53125,-41.71875,-24.45,0.15977378,0.17688972,0.6893728,997.25604,37.88838774,127.73986635,140.660400390625,0.0
2025-04-06 16:19:17.804,-0.30388847,4.5128636,8.819944,-0.015882485,0.08506292,0.037033677,-11.925,-41.662502,-24.750002,0.15935913,0.17700185,0.6897361,997.257,37.88838774,127.73986635,140.660400390625,0.0
2025-04-06 16:19:17.824,-0.22013968,4.599005,8.896515,-0.0067195124,0.056352276,0.05108357,-12.243751,-41.5125,-24.50625,0.15866001,0.17741533,0.6901634,997.257,37.88838774,127.73986635,140.660400390625,0.0
2025-04-06 16:19:17.844,-0.11485548,4.5894337,9.068798,0.049480047,0.0013744457,0.03642281,-12.075001,-41.456253,-24.300001,0.15853505,0.17753531,0.69054973,997.26337,37.88838774,127.73986635,140.660400390625,0.0
2025-04-06 16:19:17.864,-0.17467605,4.5415773,8.750552,0.08857539,-0.046883874,0.043142326,-12.281251,-41.625,-24.393751,0.1593648,0.17759207,0.6907279,997.26337,37.88838774,127.73986635,140.660400390625,0.0
2025-04-06 16:19:17.884,-0.13878371,4.558327,8.580662,0.055588696,-0.012675445,0.06391173,-12.262501,-41.8125,-24.225,0.16025522,0.177782,0.690885,997.2614,37.88838774,127.73986635,140.660400390625,0.0
2025-04-06 16:19:17.905,-0.076570325,4.5631127,8.788837,0.02443459,0.033139415,0.058413945,-11.94375,-41.737503,-24.2625,0.16075632,0.17791979,0.6912573,997.2614,37.88838774,127.73986635,140.660400390625,0.0
2025-04-06 16:19:17.924,-0.08135597,4.558327,8.894122,0.032375835,0.06185006,0.05413789,-12.0375,-41.737503,-24.16875,0.16081986,0.17805101,0.6917106,997.2641,37.88838774,127.73986635,140.660400390625,0.0
2025-04-06 16:19:17.944,-0.2536392,4.6229334,8.784052,0.045814857,0.06307179,0.05108357,-12.056251,-41.9625,-24.243752,0.16067453,0.17848001,0.6921514,997.2641,37.88838774,127.73986635,140.660400390625,0.0
2025-04-06 16:19:17.964,-0.25124636,4.6875396,8.623733,0.034208428,0.014202606,0.045585785,-12.168751,-41.79375,-24.018751,0.16076465,0.17907634,0.6924488,997.2607,37.88838774,127.73986635,140.660400390625,0.0
2025-04-06 16:19:17.984,-0.29910284,4.6468616,8.748159,0.010384701,-0.011453714,0.046807513,-12.3,-42.018753,-23.98125,0.16103385,0.17937052,0.6926393,997.2607,37.88838774,127.73986635,140.660400390625,0.0
2025-04-06 16:19:18.004,-0.22731815,4.5535417,8.889337,0.023212861,0.00320704,0.04741838,-12.337501,-41.8875,-24.0375,0.1611508,0.17938897,0.69297,997.2524,37.88838774,127.73986635,140.660400390625,0.0
2025-04-06 16:19:18.024,-0.11485548,4.627719,8.592627,0.027488915,0.029474225,0.043753188,-12.337501,-41.737503,-23.962502,0.1612566,0.17952864,0.693268,997.2524,37.88838774,127.73986635,140.660400390625,0.0
2025-04-06 16:19:18.044,-0.09571291,4.634897,8.535198,-0.014660755,0.0716239,0.014431681,-12.281251,-41.68125,-23.98125,0.16135131,0.1798431,0.693535,997.2524,37.88838774,127.73986635,140.660400390625,0.0
2025-04-06 16:19:18.064,-0.16031912,4.610969,8.669196,-0.042760536,0.0923933,0.00160352,-12.31875,-41.5875,-23.962502,0.16085151,0.18019071,0.6937658,997.2524,37.88838774,127.73986635,140.660400390625,0.0
2025-04-06 16:19:18.084,-0.24646074,4.5894337,8.7673025,-0.03176497,0.10033454,0.0077121677,-12.075001,-41.625,-23.831251,0.15992272,0.18048438,0.69402033,997.2575,37.88838774,127.73986635,140.660400390625,0.0
2025-04-06 16:19:18.104,-0.2321038,4.6301117,8.566305,-0.025045456,0.09666935,0.013209951,-12.093751,-41.475002,-23.98125,0.15909837,0.18093127,0.69429755,997.2575,37.88838774,127.73986635,140.660400390625,0.0
2025-04-06 16:19:18.124,-0.17706887,4.6468616,8.585447,-0.056810424,0.07834341,0.007101303,-12.168751,-41.568752,-24.187502,0.15843877,0.18135764,0.6945563,997.258,37.88838774,127.73986635,140.660400390625,0.0
2025-04-06 16:19:18.144,-0.1698904,4.618148,8.755338,-0.067195125,0.066126116,-0.0051159924,-12.375001,-41.568752,-24.187502,0.15750588,0.18142734,0.6948642,997.258,37.88838774,127.73986635,140.660400390625,0.0
2025-04-06 16:19:18.164,-0.2727818,4.5798626,8.803194,-0.045814857,0.034361143,-0.0026725335,-12.675,-41.775,-24.206251,0.15684672,0.18127769,0.6950319,997.26044,37.88838774,127.73986635,140.660400390625,0.0
2025-04-06 16:19:18.184,-0.09571291,4.587041,8.91805,-0.035430156,0.020922119,0.005268709,-12.58125,-42.037502,-24.150002,0.1564313,0.18110514,0.69517845,997.26044,37.88838774,127.73986635,140.660400390625,0.0
2025-04-06 16:19:18.204,-0.0741775,4.6301117,8.963513,-0.02932151,0.04535671,-0.009392046,-12.525001,-42.05625,-24.16875,0.15618935,0.1807811,0.6953479,997.26215,37.88838774,127.73986635,140.660400390625,0.0
2025-04-06 16:19:18.224,-0.20817557,4.699504,8.848659,-0.018936807,0.09117157,-0.019165883,-12.337501,-41.756252,-24.468752,0.15574095,0.18085212,0.69545466,997.26215,37.88838774,127.73986635,140.660400390625,0.0
2025-04-06 16:19:18.244,-0.15792629,4.792824,8.707481,-0.025045456,0.064904384,-0.038713556,-12.1125,-41.475002,-24.69375,0.15517755,0.18139449,0.69546145,997.2587,37.88838774,127.73986635,140.660400390625,0.0
2025-04-06 16:19:18.264,-0.25842485,4.6707897,8.788837,-0.050090913,0.037415467,-0.075976305,-12.281251,-41.362503,-24.487501,0.1548762,0.18166788,0.69513756,997.2587,37.88838774,127.73986635,140.660400390625,0.0
2025-04-06 16:19:18.284,-0.37567315,4.5535417,8.949157,-0.067195125,0.057574004,-0.06864593,-11.981251,-41.268753,-24.4125,0.15433542,0.18170324,0.6948848,997.2609,37.88838774,127.73986635,140.660400390625,0.0
2025-04-06 16:19:18.304,-0.38285163,4.4745784,9.037691,-0.03848448,0.093615025,-0.058261227,-11.94375,-41.643753,-24.712502,0.15282795,0.18181743,0.69467103,997.2609,37.88838774,127.73986635,140.660400390625,0.0
2025-04-06 16:19:18.324,-0.5694918,4.4674,8.913264,0.0018325944,0.062460925,-0.036880963,-11.7375,-41.68125,-24.73125,0.151713,0.18220071,0.6945195,997.258,37.88838774,127.73986635,140.660400390625,0.0
2025-04-06 16:19:18.344,-0.5623133,4.453043,8.7266245,0.017104214,0.03924806,-0.019776747,-11.700001,-41.662502,-24.956251,0.15100019,0.18272212,0.69436646,997.258,37.88838774,127.73986635,140.660400390625,0.0
2025-04-06 16:19:18.364,-0.485743,4.496114,8.678768,0.010995566,0.022143848,-0.019776747,-11.64375,-41.90625,-24.825,0.15066926,0.18315776,0.6942313,997.26166,37.88838774,127.73986635,140.660400390625,0.0
2025-04-06 16:19:18.384,-0.485743,4.4745784,8.578269,-0.01282816,0.013591741,-0.027107125,-11.118751,-41.850002,-24.806252,0.15040338,0.1834968,0.69407046,997.26166,37.88838774,127.73986635,140.660400390625,0.0
2025-04-06 16:19:18.404,-0.48095736,4.465007,8.733803,-0.03970621,0.028252495,-0.018555017,-11.231251,-41.943752,-24.656252,0.15002587,0.1836112,0.6939356,997.26483,37.88838774,127.73986635,140.660400390625,0.0
2025-04-06 16:19:18.424,-0.47856453,4.5320063,8.973084,-0.04459313,0.061239194,-0.0026725335,-11.025001,-41.90625,-24.35625,0.14929742,0.18360162,0.69397295,997.26483,37.88838774,127.73986635,140.660400390625,0.0
2025-04-06 16:19:18.444,-0.4426722,4.5678983,9.044869,-0.018936807,0.052687086,0.0077121677,-11.306251,-41.737503,-24.2625,0.14834663,0.18370739,0.69419765,997.2587,37.88838774,127.73986635,140.660400390625,0.0
2025-04-06 16:19:18.464,-0.34456646,4.599005,9.013762,-0.0024434591,0.017867794,0.0028252497,-11.75625,-41.86875,-23.925001,0.14804341,0.183777,0.6943405,997.2587,37.88838774,127.73986635,140.660400390625,0.0
2025-04-06 16:19:18.484,-0.40438703,4.6396832,8.961121,0.019547673,-0.0035124724,-0.0020616686,-11.681251,-41.68125,-24.018751,0.14810468,0.1837786,0.6943555,997.26385,37.88838774,127.73986635,140.660400390625,0.0
2025-04-06 16:19:18.504,-0.5455636,4.6205406,8.889337,0.028710645,0.012370012,9.926553E-4,-11.8125,-41.831253,-24.4125,0.14834559,0.1839629,0.6942825,997.26385,37.88838774,127.73986635,140.660400390625,0.0
2025-04-06 16:19:18.524,-0.5407779,4.57747,8.9348,0.023823727,0.06856957,0.020540329,-11.775001,-41.850002,-24.675001,0.14826642,0.184455,0.6942897,997.25995,37.88838774,127.73986635,140.660400390625,0.0
2025-04-06 16:19:18.545,-0.55034924,4.551149,8.927621,0.041538805,0.0697913,0.035201084,-11.64375,-41.60625,-24.712502,0.14783911,0.18514167,0.69449615,997.25995,37.88838774,127.73986635,140.660400390625,0.0
2025-04-06 16:19:18.564,-0.4331009,4.570291,8.776874,0.056199558,0.025198173,0.026648976,-12.0375,-41.756252,-24.656252,0.14773917,0.18581034,0.6947112,997.2536,37.88838774,127.73986635,140.660400390625,0.0
2025-04-06 16:19:18.585,-0.42592242,4.496114,8.7266245,0.046425723,0.009926553,9.926553E-4,-11.981251,-41.7,-24.618752,0.1481535,0.18629402,0.6947624,997.2536,37.88838774,127.73986635,140.660400390625,0.0
2025-04-06 16:19:18.604,-0.5240282,4.4482574,8.583055,0.023212861,0.045967575,-0.0075594517,-11.7375,-41.643753,-24.6,0.14825122,0.18665493,0.6947071,997.2458,37.88838774,127.73986635,140.660400390625,0.0
2025-04-06 16:19:18.624,-0.68195444,4.4985065,8.580662,-0.015882485,0.09850194,0.017486004,-11.887501,-41.831253,-24.843752,0.14761358,0.18734916,0.6947766,997.2458,37.88838774,127.73986635,140.660400390625,0.0
2025-04-06 16:19:18.644,-0.6029913,4.54397,8.9013,6.108648E-4,0.050243627,0.037033677,-11.71875,-41.8125,-25.050001,0.14678182,0.18794416,0.6950571,997.24115,37.88838774,127.73986635,140.660400390625,0.0
2025-04-06 16:19:18.666,-0.5072784,4.54397,8.772088,0.05497783,-0.03894263,0.043753188,-11.4375,-41.831253,-25.181252,0.14678389,0.18809588,0.6952927,997.24115,37.88838774,127.73986635,140.660400390625,0.0
2025-04-06 16:19:18.686,-0.3469593,4.5655055,8.499306,0.034208428,-0.029168794,0.021762058,-11.34375,-41.925003,-25.35,0.14775044,0.1880302,0.69542485,997.236,37.88838774,127.73986635,140.660400390625,0.0
2025-04-06 16:19:18.704,-0.4139583,4.5655055,8.372486,-0.010384701,0.04291325,0.0193186,-11.55,-41.7,-25.1625,0.148126,0.18816492,0.69551796,997.236,37.88838774,127.73986635,140.660400390625,0.0
2025-04-06 16:19:18.724,-0.29910284,4.5822554,8.303095,-0.023212861,0.0594066,0.020540329,-11.400001,-41.7,-24.7875,0.14802231,0.18841453,0.6956859,997.2365,37.88838774,127.73986635,140.660400390625,0.0
2025-04-06 16:19:18.744,-0.19621146,4.601398,7.9561353,-0.033597562,-0.004123337,0.011988222,-11.64375,-41.625,-24.750002,0.14820655,0.18860734,0.6959262,997.2365,37.88838774,127.73986635,140.660400390625,0.0
2025-04-06 16:19:18.765,-0.2105684,4.4434714,7.537391,-0.07086031,-0.105526894,-0.010613776,-11.512501,-41.49375,-25.031252,0.14895962,0.18824899,0.69593674,997.2338,37.88838774,127.73986635,140.660400390625,0.0
2025-04-06 16:19:18.785,-0.3493521,4.0869412,7.429714,-0.07880156,-0.3168861,0.022983788,-11.25,-41.25,-25.06875,0.15013757,0.18704307,0.69572765,997.2338,37.88838774,127.73986635,140.660400390625,0.0
2025-04-06 16:19:18.804,-0.14356937,3.4432719,7.2789664,0.05986475,-0.74388057,0.13232858,-11.231251,-41.325,-25.25625,0.1530117,0.18385309,0.6955032,997.23895,37.88838774,127.73986635,140.660400390625,0.0
2025-04-06 16:19:18.824,-0.11485548,2.8833513,6.3314085,0.2706131,-1.1818706,0.2966512,-11.306251,-41.68125,-25.2,0.15993728,0.17808136,0.6952556,997.23895,37.88838774,127.73986635,140.660400390625,0.0
2025-04-06 16:19:18.844,0.18424734,2.333002,4.240082,0.4318814,-1.6491822,0.58375764,-11.962501,-41.568752,-24.975,0.17192377,0.17048423,0.6951453,997.2314,37.88838774,127.73986635,140.660400390625,0.0
2025-04-06 16:19:18.865,0.29671,1.6438692,2.2851455,0.3121519,-1.9515603,0.91118115,-12.675,-41.86875,-24.35625,0.19145659,0.15793294,0.69624895,997.2314,37.88838774,127.73986635,140.660400390625,0.0
2025-04-06 16:19:18.884,0.2416751,1.2059826,1.3447664,0.14782928,-2.3333507,1.1995094,-13.650001,-41.98125,-24.243752,0.20438439,0.14771698,0.69789255,997.2236,37.88838774,127.73986635,140.660400390625,0.0
2025-04-06 16:19:18.904,0.8853444,0.65324056,0.42831525,-0.07696896,-2.9478807,1.5232676,-14.906251,-41.381252,-23.75625,0.22382237,0.12940599,0.70094866,997.2236,37.88838774,127.73986635,140.660400390625,0.0
2025-04-06 16:19:18.924,2.2277179,-0.09571291,-0.02871387,-0.4630355,-3.6454883,1.8036547,-16.63125,-41.2125,-22.575,0.25228465,0.096801005,0.7050257,997.2111,37.88838774,127.73986635,140.660400390625,0.0
2025-04-06 16:19:18.944,3.103491,-0.78723866,0.5886344,-0.8344413,-4.0688176,2.0363941,-18.54375,-40.706253,-22.237501,0.27655283,0.06270077,0.707747,997.2111,37.88838774,127.73986635,140.660400390625,0.0
2025-04-06 16:19:18.965,3.6251264,-1.7587247,2.053042,-0.9498947,-4.4267845,2.2905138,-20.90625,-39.975002,-21.1875,0.3008961,0.023320979,0.70977795,997.2006,37.88838774,127.73986635,140.660400390625,0.0
2025-04-06 16:19:18.984,4.7784667,-2.1966112,1.6773686,-1.0506874,-4.790249,2.7034585,-23.8875,-39.375,-19.931252,0.33297512,-0.030827763,0.7110559,997.2006,37.88838774,127.73986635,140.660400390625,0.0
2025-04-06 16:19:19.004,6.5347986,-2.5938199,1.6941184,-1.5100577,-4.648528,3.012556,-27.31875,-37.85625,-18.6375,0.3514616,-0.06637703,0.71149415,997.19794,37.88838774,127.73986635,140.660400390625,0.0
2025-04-06 16:19:19.024,8.355737,-3.0197423,3.0867412,-2.122755,-4.188547,3.2104762,-31.29375,-35.98125,-17.081251,0.3702197,-0.11678667,0.7121734,997.19794,37.88838774,127.73986635,140.660400390625,0.0
2025-04-06 16:19:19.044,9.327223,-3.2829528,4.74736,-2.3878703,-3.9374816,3.3418121,-35.49375,-33.6375,-15.525001,0.38364533,-0.18149172,0.71246266,997.1965,37.88838774,127.73986635,140.660400390625,0.0
2025-04-06 16:19:19.064,11.107483,-4.3645086,6.101698,-2.3335035,-4.1299043,3.3540294,-39.825,-30.487501,-13.89375,0.39151433,-0.23334086,0.7107052,997.1965,37.88838774,127.73986635,140.660400390625,0.0
2025-04-06 16:19:19.084,12.155539,-5.089534,6.8745794,-2.2058327,-4.094474,3.3473098,-43.912502,-27.45,-11.94375,0.39911923,-0.28410664,0.7065901,997.2143,37.88838774,127.73986635,140.660400390625,0.0
2025-04-06 16:19:19.104,12.576675,-5.6374903,8.087741,-1.9107851,-3.949699,3.3454773,-47.193752,-24.13125,-9.1875,0.40550068,-0.33204535,0.70117384,997.2143,37.88838774,127.73986635,140.660400390625,0.0
2025-04-06 16:19:19.126,12.303894,-5.4795637,7.8867435,-1.1716386,-3.8562367,3.3094363,-49.912502,-20.8125,-5.55,0.41305053,-0.38504764,0.6943125,997.23724,37.88838774,127.73986635,140.660400390625,0.0
2025-04-06 16:19:19.144,12.256038,-5.8624153,6.352944,-0.8362739,-3.5532477,3.3216536,-51.300003,-17.53125,-1.2750001,0.41826543,-0.4124044,0.6908103,997.23724,37.88838774,127.73986635,140.660400390625,0.0
2025-04-06 16:19:19.165,11.705688,-6.0323057,3.5533416,-0.61514086,-2.7444627,3.342423,-51.750004,-14.625001,2.8125,0.42391574,-0.4513383,0.6871129,997.2641,37.88838774,127.73986635,140.660400390625,0.0
2025-04-06 16:19:19.185,11.49512,-6.6927247,2.239682,-0.8148936,-2.10672,3.3857944,-50.831253,-11.6625,6.1687503,0.42257303,-0.4786139,0.68592376,997.2641,37.88838774,127.73986635,140.660400390625,0.0
2025-04-06 16:19:19.204,11.839686,-7.192825,2.4263222,-1.070846,-1.5899283,3.374188,-49.55625,-8.64375,8.793751,0.41317874,-0.51131696,0.6847075,997.2773,37.88838774,127.73986635,140.660400390625,0.0
2025-04-06 16:19:19.224,11.827723,-7.515856,2.6153553,-1.106887,-1.2991567,3.3473098,-47.9625,-6.24375,9.375,0.40508825,-0.5298917,0.6838727,997.2773,37.88838774,127.73986635,140.660400390625,0.0
2025-04-06 16:19:19.244,12.136396,-8.152347,2.0195422,-1.1924081,-0.7157808,3.2495716,-46.74375,-3.825,9.0375,0.38771868,-0.5584011,0.68301344,997.27997,37.88838774,127.73986635,140.660400390625,0.0
2025-04-06 16:19:19.265,12.083755,-8.877372,1.7754744,-1.3426808,-0.35903576,3.2013133,-46.706253,-1.1625,9.13125,0.3749419,-0.57441384,0.6825029,997.27997,37.88838774,127.73986635,140.660400390625,0.0
2025-04-06 16:19:19.285,12.224931,-9.001799,2.4885356,-1.3701698,-0.25641048,3.1603854,-46.875,1.66875,9.337501,0.35063335,-0.6001023,0.6810751,997.29144,37.88838774,127.73986635,140.660400390625,0.0
2025-04-06 16:19:19.306,13.122239,-8.848659,2.8235307,-1.2357794,-0.38224864,3.0266058,-47.30625,4.5750003,10.25625,0.33166897,-0.6190342,0.67928785,997.29144,37.88838774,127.73986635,140.660400390625,0.0
2025-04-06 16:19:19.327,13.981263,-8.338987,2.536392,-1.0690134,-0.40423977,2.6936846,-47.550003,7.7250004,11.7375,0.31478766,-0.6356166,0.6771096,997.28973,37.88838774,127.73986635,140.660400390625,0.0
2025-04-06 16:19:19.344,14.000405,-7.8987074,2.2348964,-1.0256419,-0.3101666,2.3491569,-47.41875,10.21875,12.262501,0.3001512,-0.64977735,0.6744194,997.28973,37.88838774,127.73986635,140.660400390625,0.0
2025-04-06 16:19:19.364,13.785051,-7.1976104,2.2420747,-1.0403028,-0.040775225,1.919108,-46.7625,12.337501,12.675,0.2869677,-0.66190016,0.6712165,997.29047,37.88838774,127.73986635,140.660400390625,0.0
2025-04-06 16:19:19.384,13.222738,-6.5659056,2.617748,-1.0146464,0.32085672,1.4035382,-46.256252,14.400001,13.087501,0.27464202,-0.6719984,0.6678384,997.29047,37.88838774,127.73986635,140.660400390625,0.0
2025-04-06 16:19:19.406,12.49532,-6.2141604,2.928815,-0.9004147,0.64461505,0.88919,-45.393753,15.750001,13.14375,0.26057503,-0.681366,0.6641377,997.29,37.88838774,127.73986635,140.660400390625,0.0
2025-04-06 16:19:19.426,11.88515,-5.9150577,2.8283165,-0.72570735,0.830318,0.43776098,-44.850002,16.7625,13.70625,0.25099462,-0.6860066,0.6620189,997.29,37.88838774,127.73986635,140.660400390625,0.0
2025-04-06 16:19:19.446,10.662417,-6.0825553,2.3952155,-0.5247328,0.8956805,9.926553E-4,-44.831253,17.1375,13.70625,0.24363573,-0.6882,0.6606109,997.2917,37.88838774,127.73986635,140.660400390625,0.0
2025-04-06 16:19:19.464,9.647861,-6.13759,2.210968,-0.36224282,0.82115495,-0.18409938,-44.775,17.4375,13.556251,0.23849246,-0.68858343,0.6597438,997.2917,37.88838774,127.73986635,140.660400390625,0.0
2025-04-06 16:19:19.484,8.817552,-6.0394845,1.9453648,-0.15821397,0.60857403,-0.2842812,-44.86875,17.681252,13.1625,0.23539147,-0.6876868,0.6594741,997.2861,37.88838774,127.73986635,140.660400390625,0.0
2025-04-06 16:19:19.504,8.338987,-6.003592,1.7036897,-0.025045456,0.42897978,-0.30199626,-45.16875,17.7,12.50625,0.23415262,-0.6860271,0.6596914,997.2861,37.88838774,127.73986635,140.660400390625,0.0
2025-04-06 16:19:19.524,8.279166,-5.879165,1.6701902,0.13439025,0.2866483,-0.3087158,-45.206253,17.868752,11.775001,0.23441356,-0.6837575,0.66042143,997.28217,37.88838774,127.73986635,140.660400390625,0.0
2025-04-06 16:19:19.544,8.26481,-5.723632,1.2059826,0.2858847,0.17486005,-0.3429242,-45.693752,17.56875,11.137501,0.23584095,-0.68068606,0.6618512,997.28217,37.88838774,127.73986635,140.660400390625,0.0
2025-04-06 16:19:19.564,8.420342,-5.8217373,0.8853444,0.34269515,0.08811724,-0.41317368,-45.99375,17.268751,10.5375,0.23840207,-0.6770984,0.6635651,997.278,37.88838774,127.73986635,140.660400390625,0.0
2025-04-06 16:19:19.584,8.585447,-6.32423,0.7848458,0.35796675,0.0056504994,-0.49258608,-46.162502,17.175001,10.481251,0.24207982,-0.6723411,0.66543376,997.278,37.88838774,127.73986635,140.660400390625,0.0
2025-04-06 16:19:19.604,8.729017,-6.728617,0.782453,0.3921752,-0.084757484,-0.5475639,-46.59375,16.85625,10.5,0.24804887,-0.6684237,0.6666653,997.2763,37.88838774,127.73986635,140.660400390625,0.0
2025-04-06 16:19:19.624,8.915657,-6.573084,0.72023964,0.4147772,-0.062155493,-0.6300307,-46.29375,17.081251,10.05,0.25356838,-0.6642426,0.66785586,997.2763,37.88838774,127.73986635,140.660400390625,0.0
2025-04-06 16:19:19.644,8.891729,-6.680761,0.64606214,0.40194902,0.026419902,-0.7894664,-46.275,16.85625,10.1625,0.25951642,-0.6595876,0.6688909,997.2795,37.88838774,127.73986635,140.660400390625,0.0
2025-04-06 16:19:19.664,8.8701935,-7.32443,0.65084773,0.38973173,0.09728022,-0.953789,-46.425003,16.368752,9.88125,0.26576555,-0.654437,0.66965175,997.2795,37.88838774,127.73986635,140.660400390625,0.0
2025-04-06 16:19:19.684,8.6548395,-7.6737823,0.72741807,0.41905323,0.113162704,-1.0423644,-46.3875,16.03125,9.46875,0.27245063,-0.6488318,0.67020214,997.2751,37.88838774,127.73986635,140.660400390625,0.0
2025-04-06 16:19:19.704,8.209774,-7.6067834,0.4354937,0.49846566,0.14126249,-1.138881,-46.6875,15.1125,9.712501,0.28142005,-0.6409213,0.67107975,997.2751,37.88838774,127.73986635,140.660400390625,0.0
2025-04-06 16:19:19.724,7.5517483,-7.259824,0.12203395,0.51618075,0.23838998,-1.2402846,-46.987503,14.250001,8.94375,0.28699422,-0.6356967,0.6716559,997.2839,37.88838774,127.73986635,140.660400390625,0.0
2025-04-06 16:19:19.744,6.257231,-7.125826,-0.4211368,0.48319405,0.3581195,-1.2922081,-47.100002,13.33125,8.2875,0.29583955,-0.62627584,0.6725959,997.2839,37.88838774,127.73986635,140.660400390625,0.0
2025-04-06 16:19:19.764,5.144569,-7.298109,-0.6891329,0.3988947,0.31352636,-1.1737003,-47.475002,12.4875,8.025001,0.30217993,-0.6190649,0.67302257,997.28265,37.88838774,127.73986635,140.660400390625,0.0
2025-04-06 16:19:19.784,4.5415773,-7.312466,-0.62452674,0.35674503,0.2206749,-0.99654955,-47.71875,11.71875,7.36875,0.30770448,-0.6129315,0.673152,997.28265,37.88838774,127.73986635,140.660400390625,0.0
2025-04-06 16:19:19.804,4.395615,-7.281359,-0.64845496,0.33902994,0.047189303,-0.76686436,-48.281254,10.856251,7.36875,0.3125946,-0.60801315,0.6732396,997.2797,37.88838774,127.73986635,140.660400390625,0.0
2025-04-06 16:19:19.824,4.7712884,-7.52782,-0.8255238,0.2773326,-0.18555018,-0.54023355,-48.843754,10.06875,7.65,0.3173377,-0.6044405,0.6731453,997.2797,37.88838774,127.73986635,140.660400390625,0.0
2025-04-06 16:19:19.845,5.3742795,-7.826923,-0.782453,0.21013749,-0.3498728,-0.3661371,-48.787502,9.3,7.7625003,0.32211575,-0.60241675,0.67253345,997.27484,37.88838774,127.73986635,140.660400390625,0.0
2025-04-06 16:19:19.864,5.871987,-7.800602,-0.8255238,0.11117739,-0.35048366,-0.24640758,-49.18125,8.4375,8.175,0.32653472,-0.6016796,0.6715387,997.27484,37.88838774,127.73986635,140.660400390625,0.0
2025-04-06 16:19:19.884,6.1160545,-7.580462,-0.8853444,-0.06475167,-0.1574504,-0.20547964,-49.068752,8.118751,8.6625,0.33031815,-0.6019434,0.66990006,997.278,37.88838774,127.73986635,140.660400390625,0.0
2025-04-06 16:19:19.904,5.95095,-7.436893,-0.8327023,-0.2357938,0.027641632,-0.19448407,-49.0875,7.5750003,8.625,0.3312664,-0.6028641,0.66820365,997.278,37.88838774,127.73986635,140.660400390625,0.0
2025-04-06 16:19:19.924,5.790631,-7.448857,-0.46660042,-0.4318814,0.18219042,-0.14439316,-49.36875,7.2937503,8.868751,0.33034128,-0.60458744,0.6660722,997.27094,37.88838774,127.73986635,140.660400390625,0.0
2025-04-06 16:19:19.944,5.4460645,-7.3052874,0.17228323,-0.51190466,0.2310596,-0.033826638,-49.125004,6.95625,8.775001,0.32799187,-0.60703844,0.6637034,997.27094,37.88838774,127.73986635,140.660400390625,0.0
2025-04-06 16:19:19.964,5.3766723,-7.176075,0.6053841,-0.47708538,0.23655738,0.10361794,-49.143753,6.7312503,8.775001,0.3246408,-0.60989255,0.66165584,997.2685,37.88838774,127.73986635,140.660400390625,0.0
2025-04-06 16:19:19.984,5.5250273,-6.8889365,0.8350951,-0.36468628,0.20662501,0.28321218,-49.0125,6.7500005,8.775001,0.32053038,-0.61271524,0.66049194,997.2685,37.88838774,127.73986635,140.660400390625,0.0
2025-04-06 16:19:20.004,5.663811,-6.704689,0.8662018,-0.2498437,0.13148865,0.428598,-48.99375,6.525,8.25,0.31610063,-0.6153772,0.6602636,997.2675,37.88838774,127.73986635,140.660400390625,0.0
2025-04-06 16:19:20.024,5.9820566,-6.6592255,0.63170516,-0.1508836,0.0013744457,0.57520556,-49.10625,6.9187503,8.212501,0.3117885,-0.6179902,0.66078883,997.2675,37.88838774,127.73986635,140.660400390625,0.0
2025-04-06 16:19:20.044,6.4031935,-6.582655,0.3469593,-0.1197295,-0.12996148,0.7108175,-49.406254,6.9,8.043751,0.3067536,-0.6216316,0.66194195,997.2692,37.88838774,127.73986635,140.660400390625,0.0
2025-04-06 16:19:20.064,6.802795,-6.6568327,0.22731815,-0.1594357,-0.22281294,0.7609084,-49.443752,7.425,8.34375,0.30293193,-0.6251198,0.6627202,997.2692,37.88838774,127.73986635,140.660400390625,0.0
2025-04-06 16:19:20.084,7.140183,-6.771688,0.30867413,-0.20402883,-0.25702137,0.7926734,-49.350002,8.118751,8.625,0.2992451,-0.6291626,0.66304713,997.27826,37.88838774,127.73986635,140.660400390625,0.0
2025-04-06 16:19:20.104,7.2957163,-6.7525454,0.43788654,-0.23823726,-0.22953244,0.85070556,-49.350002,8.75625,9.09375,0.2953164,-0.63355416,0.6631373,997.27826,37.88838774,127.73986635,140.660400390625,0.0
2025-04-06 16:19:20.124,7.475178,-6.491728,0.6029913,-0.26328272,-0.14950916,0.89835304,-48.881252,9.637501,9.50625,0.29068688,-0.63806313,0.66328484,997.2758,37.88838774,127.73986635,140.660400390625,0.0
2025-04-06 16:19:20.144,7.8723865,-6.32423,0.71306115,-0.2773326,-0.025503604,0.88002706,-48.675003,10.275001,9.525001,0.2838121,-0.64348114,0.6636969,997.2758,37.88838774,127.73986635,140.660400390625,0.0
2025-04-06 16:19:20.164,8.350951,-6.5922265,0.7178468,-0.2913825,0.03252855,0.7749583,-48.656254,10.931251,9.637501,0.278021,-0.64736414,0.66400665,997.28265,37.88838774,127.73986635,140.660400390625,0.0
2025-04-06 16:19:20.184,8.465807,-6.862615,0.7178468,-0.28160867,0.025809037,0.6662244,-48.187504,11.6625,9.4875,0.27275327,-0.6508498,0.6640433,997.28265,37.88838774,127.73986635,140.660400390625,0.0
2025-04-06 16:19:20.204,8.26481,-6.690332,0.8135597,-0.24923283,-0.053603385,0.5794816,-47.831253,12.4875,9.09375,0.2683701,-0.65400654,0.66383517,997.28705,37.88838774,127.73986635,140.660400390625,0.0
2025-04-06 16:19:20.224,8.295917,-6.4606214,0.90448695,-0.19792019,-0.08720095,0.54221886,-47.53125,13.05,8.8125,0.26490116,-0.65685236,0.66355824,997.28705,37.88838774,127.73986635,140.660400390625,0.0
2025-04-06 16:19:20.244,8.683554,-6.2261243,0.81834537,-0.13988803,-0.0065667965,0.48724103,-46.96875,13.575001,8.64375,0.2618664,-0.65915483,0.66353273,997.2851,37.88838774,127.73986635,140.660400390625,0.0
2025-04-06 16:19:20.264,9.2793665,-5.73081,0.47377887,-0.07269291,0.18280129,0.30275986,-47.2125,14.08125,8.55,0.2580406,-0.6606601,0.66412705,997.2851,37.88838774,127.73986635,140.660400390625,0.0
2025-04-06 16:19:20.284,9.377472,-5.977271,0.11724831,-0.07391464,0.22372922,0.11339177,-47.100002,14.493751,8.512501,0.2557227,-0.6608636,0.6645387,997.2873,37.88838774,127.73986635,140.660400390625,0.0
2025-04-06 16:19:20.306,8.896515,-6.4534426,0.05742774,-0.09346231,0.15531237,-0.013668099,-47.362503,14.64375,8.53125,0.25454044,-0.66085106,0.66436887,997.2873,37.88838774,127.73986635,140.660400390625,0.0
2025-04-06 16:19:20.326,8.578269,-6.4558353,0.076570325,-0.05497783,0.14309508,0.007101303,-47.5875,14.85,8.53125,0.25389466,-0.66085035,0.66402,997.28754,37.88838774,127.73986635,140.660400390625,0.0
2025-04-06 16:19:20.345,8.575876,-6.3050876,-0.1268196,-0.03604102,0.14492767,0.0193186,-47.268753,14.85,8.56875,0.25314695,-0.66068953,0.6639743,997.28754,37.88838774,127.73986635,140.660400390625,0.0
2025-04-06 16:19:20.364,8.444271,-6.262017,-0.26081768,-0.064140804,0.1443168,0.019929463,-47.943752,14.6625,8.981251,0.2523724,-0.66056114,0.66390896,997.2812,37.88838774,127.73986635,140.660400390625,0.0
2025-04-06 16:19:20.385,8.23131,-6.1974106,0.043070808,-0.077579826,0.08384119,0.044364054,-47.7,14.868751,8.64375,0.25158447,-0.66071725,0.6636094,997.2812,37.88838774,127.73986635,140.660400390625,0.0
2025-04-06 16:19:20.404,8.090134,-5.797809,0.567099,0.022601997,-0.0377209,0.06207913,-47.68125,14.793751,8.625,0.2511482,-0.6609105,0.66339815,997.2846,37.88838774,127.73986635,140.660400390625,0.0
2025-04-06 16:19:20.424,8.111669,-5.367101,0.6891329,0.20525056,-0.1867719,0.027259842,-48.187504,14.775001,8.400001,0.25188088,-0.66050893,0.66375947,997.2846,37.88838774,127.73986635,140.660400390625,0.0
2025-04-06 16:19:20.444,8.161918,-5.096712,0.27517462,0.36346453,-0.26923865,-0.05337431,-47.79375,14.83125,8.118751,0.25424728,-0.6590848,0.6648426,997.2797,37.88838774,127.73986635,140.660400390625,0.0
2025-04-06 16:19:20.464,8.054241,-5.156533,-0.40438703,0.42027497,-0.2423606,-0.14683662,-48.018753,14.700001,8.56875,0.25879845,-0.6561575,0.66668916,997.2797,37.88838774,127.73986635,140.660400390625,0.0
2025-04-06 16:19:20.484,7.9776707,-5.326423,-0.89730847,0.37690356,-0.22098033,-0.18776456,-48.300003,14.6625,8.606251,0.2627668,-0.6535766,0.66803783,997.2812,37.88838774,127.73986635,140.660400390625,0.0
2025-04-06 16:19:20.504,8.003992,-5.5274205,-1.2179468,0.21624613,-0.23136504,-0.2323577,-48.24375,14.7375,8.681251,0.26670876,-0.65150756,0.66869813,997.2812,37.88838774,127.73986635,140.660400390625,0.0
2025-04-06 16:19:20.524,7.9130645,-5.642276,-1.0217353,0.023212861,-0.21792601,-0.26656613,-48.35625,14.812501,8.868751,0.27053326,-0.65047175,0.6681526,997.2741,37.88838774,127.73986635,140.660400390625,0.0
2025-04-06 16:19:20.544,7.793423,-5.656633,-0.30867413,-0.08002329,-0.16172644,-0.27450737,-48.318752,15.0375,8.981251,0.2738958,-0.65037537,0.66658485,997.2741,37.88838774,127.73986635,140.660400390625,0.0
2025-04-06 16:19:20.564,7.6833534,-5.773881,0.22013968,-0.040317077,-0.05421425,-0.2598466,-48.075,14.981251,9.356251,0.2771594,-0.65028584,0.66465026,997.278,37.88838774,127.73986635,140.660400390625,0.0
2025-04-06 16:19:20.584,7.597212,-5.7020965,0.23688944,0.034819294,0.0368046,-0.21464261,-47.98125,14.64375,9.84375,0.27900055,-0.6495195,0.66397476,997.278,37.88838774,127.73986635,140.660400390625,0.0
2025-04-06 16:19:20.604,8.025527,-5.6685967,-0.2009971,0.062308207,0.09544762,-0.15599959,-48.093754,14.250001,9.76875,0.2800484,-0.6482804,0.6640437,997.27826,37.88838774,127.73986635,140.660400390625,0.0
2025-04-06 16:19:20.625,8.9348,-5.5465627,-0.08135597,0.017715078,-0.04382955,-0.16332997,-48.131252,13.856251,9.543751,0.28114873,-0.64738566,0.6639047,997.27826,37.88838774,127.73986635,140.660400390625,0.0
2025-04-06 16:19:20.644,9.303294,-5.797809,0.27517462,0.016493348,-0.15806127,-0.22319472,-48.318752,13.8,9.1875,0.2834805,-0.6468275,0.6630787,997.28094,37.88838774,127.73986635,140.660400390625,0.0
2025-04-06 16:19:20.666,9.556933,-6.32423,0.40677986,-0.009162972,-0.12935062,-0.24152066,-48.281254,13.650001,8.887501,0.28639197,-0.6462946,0.6619971,997.28094,37.88838774,127.73986635,140.660400390625,0.0
2025-04-06 16:19:20.686,9.700503,-6.6855464,0.72023964,0.011606431,-0.06704241,-0.16210824,-48.225002,13.500001,9.1875,0.28923798,-0.64556277,0.6608949,997.28705,37.88838774,127.73986635,140.660400390625,0.0
2025-04-06 16:19:20.704,10.124033,-6.6424756,0.94755775,0.05864302,-0.12873976,-0.09735657,-48.05625,13.5375,9.337501,0.29052892,-0.6450882,0.660592,997.28705,37.88838774,127.73986635,140.660400390625,0.0
2025-04-06 16:19:20.724,10.817951,-6.4055862,1.1126626,0.1386663,-0.25885394,-0.08025236,-47.737503,13.33125,9.76875,0.29267234,-0.64438945,0.66042423,997.2941,37.88838774,127.73986635,140.660400390625,0.0
2025-04-06 16:19:20.744,11.351551,-6.099305,1.2011969,0.22418737,-0.3254382,-0.16394083,-47.79375,13.2375,10.106251,0.2968809,-0.6429962,0.66037416,997.2941,37.88838774,127.73986635,140.660400390625,0.0
2025-04-06 16:19:20.764,11.394622,-5.802595,1.2131611,0.2950477,-0.26557347,-0.30627233,-47.568752,13.293751,9.993751,0.30129278,-0.64103717,0.6604889,997.29095,37.88838774,127.73986635,140.660400390625,0.0
2025-04-06 16:19:20.785,10.863415,-4.8693943,1.3734802,0.37384924,-0.13362667,-0.44432777,-47.8875,13.031251,10.51875,0.30617616,-0.6380519,0.6609011,997.29095,37.88838774,127.73986635,140.660400390625,0.0
2025-04-06 16:19:20.804,10.317851,-3.804588,1.5625132,0.46181378,0.0019853106,-0.57077676,-48.112503,12.806251,10.743751,0.3112081,-0.63368636,0.66192424,997.2939,37.88838774,127.73986635,140.660400390625,0.0
2025-04-06 16:19:20.824,10.396814,-3.5820556,1.6917256,0.582765,0.091782436,-0.88537216,-48.037502,12.637501,10.96875,0.31679264,-0.62765574,0.66350716,997.2939,37.88838774,127.73986635,140.660400390625,0.0
2025-04-06 16:19:20.844,9.908679,-4.508078,1.8257236,0.7703005,-0.06826414,-1.1761438,-48.487503,12.431251,11.3625,0.32448807,-0.61971647,0.66512895,997.2944,37.88838774,127.73986635,140.660400390625,0.0
2025-04-06 16:19:20.864,9.5353985,-5.534599,1.5337993,0.9975422,-0.39935285,-1.3563489,-48.3375,11.887501,11.418751,0.33842605,-0.60781,0.6668221,997.2944,37.88838774,127.73986635,140.660400390625,0.0
2025-04-06 16:19:20.884,9.286545,-6.218946,0.9906286,1.1093304,-0.6852376,-1.3911681,-48.3375,11.4375,11.3625,0.34900224,-0.6000859,0.66752386,997.30316,37.88838774,127.73986635,140.660400390625,0.0
2025-04-06 16:19:20.904,9.65504,-6.687939,0.043070808,1.0806198,-0.96990055,-1.355738,-48.318752,10.5375,11.493751,0.36907637,-0.5876456,0.6675467,997.30316,37.88838774,127.73986635,140.660400390625,0.0
2025-04-06 16:19:20.924,10.049855,-6.5946193,-0.46660042,0.8411608,-1.0499239,-1.3209187,-48.35625,9.1875,11.64375,0.38585204,-0.5791061,0.66582435,997.3044,37.88838774,127.73986635,140.660400390625,0.0
2025-04-06 16:19:20.944,11.437693,-5.898308,-0.17706887,0.51251554,-0.981507,-1.3746748,-48.300003,7.9500003,12.39375,0.40170234,-0.57230556,0.6622356,997.3044,37.88838774,127.73986635,140.660400390625,0.0
2025-04-06 16:19:20.964,12.784851,-5.2737813,0.5072784,0.29199335,-0.8666644,-1.6935463,-48.075,6.5062504,13.406251,0.41721132,-0.566179,0.656677,997.29364,37.88838774,127.73986635,140.660400390625,0.0
2025-04-06 16:19:20.984,12.727424,-5.276174,0.7800602,0.16798781,-0.48976085,-2.1865141,-47.850002,5.26875,14.2875,0.43295836,-0.5586543,0.6498381,997.29364,37.88838774,127.73986635,140.660400390625,0.0
2025-04-06 16:19:21.004,11.540584,-5.2977095,0.32542387,0.10445788,-0.051159926,-2.5084398,-47.381252,3.9750001,15.450001,0.4479011,-0.54864997,0.6428868,997.29974,37.88838774,127.73986635,140.660400390625,0.0
2025-04-06 16:19:21.024,10.60499,-5.1900325,0.021535404,-0.021380268,0.25427246,-2.760116,-47.081253,2.34375,16.2,0.46450216,-0.53351575,0.63422585,997.29974,37.88838774,127.73986635,140.660400390625,0.0
2025-04-06 16:19:21.044,9.626326,-5.197211,0.062213387,-0.05070178,0.36239552,-2.909167,-47.2125,-0.09375,16.96875,0.47667745,-0.52005184,0.6267767,997.2985,37.88838774,127.73986635,140.660400390625,0.0
2025-04-06 16:19:21.065,8.803194,-5.35753,0.05503492,-0.031154104,0.29764387,-3.0258424,-47.4375,-2.7375002,17.306252,0.4889023,-0.5056204,0.6185865,997.2985,37.88838774,127.73986635,140.660400390625,0.0
2025-04-06 16:19:21.084,7.216753,-5.383851,0.14117654,0.022601997,0.2035707,-3.0398922,-47.34375,-5.45625,17.4375,0.50162476,-0.4906026,0.60944295,997.29315,37.88838774,127.73986635,140.660400390625,0.0
2025-04-06 16:19:21.104,5.3766723,-5.1756754,-0.2416751,0.06108648,0.13026692,-2.827922,-47.2125,-8.45625,17.268751,0.5142001,-0.47566128,0.6000298,997.29315,37.88838774,127.73986635,140.660400390625,0.0
2025-04-06 16:19:21.124,4.1850467,-4.7449675,-0.2321038,0.031154104,0.090560704,-2.4113123,-46.893753,-10.931251,17.0625,0.52807844,-0.45894447,0.5887647,997.28485,37.88838774,127.73986635,140.660400390625,0.0
2025-04-06 16:19:21.144,3.8500516,-4.6085763,-0.1794617,0.032375835,0.12721258,-2.1578035,-46.331253,-13.5375,16.9125,0.5349917,-0.45007625,0.58272207,997.28485,37.88838774,127.73986635,140.660400390625,0.0
2025-04-06 16:19:21.166,3.4695928,-4.6061835,-0.22013968,0.047647454,0.07345649,-1.7027092,-45.956253,-15.937501,16.575,0.54428077,-0.4372078,0.57430416,997.2917,37.88838774,127.73986635,140.660400390625,0.0
2025-04-06 16:19:21.184,3.4743786,-5.1493545,-0.8446664,0.03604102,0.039858926,-1.3038145,-45.768753,-17.75625,16.3125,0.55024856,-0.42933857,0.5687878,997.2917,37.88838774,127.73986635,140.660400390625,0.0
2025-04-06 16:19:21.204,3.2709885,-6.108876,-1.2346965,-0.15271619,0.028252495,-0.7161626,-45.2625,-19.706251,16.25625,0.55391747,-0.42433152,0.5648102,997.29047,37.88838774,127.73986635,140.660400390625,0.0
2025-04-06 16:19:21.226,2.9383862,-6.2237315,-0.83748794,-0.2809978,0.006872229,-0.1523344,-44.943752,-20.925001,16.331251,0.5545801,-0.42360476,0.5623963,997.29047,37.88838774,127.73986635,140.660400390625,0.0
2025-04-06 16:19:21.246,3.4767714,-6.896115,-0.4642076,-0.38117963,0.053908817,0.6259073,-44.381252,-21.9375,16.181252,0.55083853,-0.42839798,0.5627047,997.28925,37.88838774,127.73986635,140.660400390625,0.0
2025-04-06 16:19:21.264,3.696911,-7.810173,-0.4881358,-0.43493572,0.15225805,1.2349395,-44.081253,-22.44375,16.66875,0.54410017,-0.43599382,0.5660405,997.28925,37.88838774,127.73986635,140.660400390625,0.0
2025-04-06 16:19:21.284,4.254439,-9.267402,-0.8853444,-0.47586367,0.19379686,1.820148,-44.175003,-22.275002,16.63125,0.53676176,-0.44384855,0.5704677,997.2861,37.88838774,127.73986635,140.660400390625,0.0
2025-04-06 16:19:21.304,4.6372905,-10.578669,-1.4931214,-0.5876519,0.14187334,2.5898376,-44.53125,-21.6375,16.462502,0.52377325,-0.45780283,0.57861555,997.2861,37.88838774,127.73986635,140.660400390625,0.0
2025-04-06 16:19:21.324,4.883751,-10.760524,-1.8855443,-0.9279036,-0.057268575,3.5611126,-45.5625,-20.41875,16.59375,0.501627,-0.48281643,0.5910238,997.2873,37.88838774,127.73986635,140.660400390625,0.0
2025-04-06 16:19:21.344,5.7690954,-9.793823,-0.5383851,-1.2449424,-0.21792601,4.2672725,-46.275,-18.618752,15.8625,0.47863114,-0.50934595,0.6008563,997.2873,37.88838774,127.73986635,140.660400390625,0.0
2025-04-06 16:19:21.364,7.140183,-9.286545,1.2634103,-1.314581,-0.26068655,4.719312,-47.04375,-15.843751,15.39375,0.45162886,-0.5389819,0.610167,997.2907,37.88838774,127.73986635,140.660400390625,0.0
2025-04-06 16:19:21.384,9.401401,-9.889536,2.8019953,-1.0097594,-0.13545926,4.8744717,-47.625,-12.6,14.94375,0.42195228,-0.5677368,0.61989343,997.2907,37.88837509,127.73985943,140.60888671875,1.96
2025-04-06 16:19:21.405,11.227124,-10.281959,2.8689942,-0.44287696,0.12538,4.598972,-47.7,-8.55,14.118751,0.38420615,-0.5971832,0.6338999,997.2961,37.88837509,127.73985943,140.60888671875,1.96
2025-04-06 16:19:21.425,11.911471,-10.928021,1.4763715,-0.056199558,0.3178024,4.0595784,-47.831253,-4.3125,13.63125,0.35591,-0.6135544,0.64626735,997.2961,37.88837509,127.73985943,140.60888671875,1.96
2025-04-06 16:19:21.444,11.217552,-11.23191,-0.14356937,-0.06352994,0.39843655,3.6417468,-48.037502,-0.3,12.562501,0.3365335,-0.62270886,0.65494096,997.2968,37.88837509,127.73985943,140.60888671875,1.96
2025-04-06 16:19:21.464,9.738789,-10.523634,-1.375873,-0.45020735,0.53099424,3.4474916,-48.018753,3.6750002,11.71875,0.30529577,-0.63700265,0.6657665,997.2968,37.88837509,127.73985943,140.60888671875,1.96
2025-04-06 16:19:21.484,9.044869,-9.662218,-1.4596218,-1.1844668,0.84253526,3.4444375,-48.15,7.1062503,10.837501,0.27782777,-0.65065986,0.6701374,997.28265,37.88837509,127.73985943,140.60888671875,1.96
2025-04-06 16:19:21.505,9.336794,-8.800801,0.41156548,-1.8246531,1.2628102,3.3082147,-48.037502,10.275001,9.8625,0.24677855,-0.66678154,0.67029935,997.28265,37.88837509,127.73985943,140.60888671875,1.96
2025-04-06 16:19:21.524,9.458828,-8.195417,2.210968,-2.0036364,1.6391029,3.0699773,-47.625,13.012501,9.543751,0.21323122,-0.6832197,0.66748935,997.278,37.88837509,127.73985943,140.60888671875,1.96
2025-04-06 16:19:21.544,9.353543,-7.60439,3.4624143,-1.8380921,1.8614577,2.754771,-46.987503,15.806251,9.20625,0.17882144,-0.6974843,0.6637597,997.278,37.88837509,127.73985943,140.60888671875,1.96
2025-04-06 16:19:21.566,8.618947,-7.200003,3.7160535,-1.4453061,1.7588325,2.4878232,-46.350002,18.13125,9.056251,0.14607848,-0.7082348,0.66059613,997.2819,37.88837509,127.73985943,140.60888671875,1.96
2025-04-06 16:19:21.584,8.003992,-7.2358956,3.2231321,-0.9816597,1.245706,2.4151304,-45.693752,20.1375,8.887501,0.11693902,-0.7156258,0.65898114,997.2819,37.88837509,127.73985943,140.60888671875,1.96
2025-04-06 16:19:21.604,8.29113,-7.0301127,2.3306093,-0.560163,0.56398094,2.4737732,-44.68125,22.5375,8.2875,0.08702107,-0.7218135,0.6594622,997.29144,37.88837509,127.73985943,140.60888671875,1.96
2025-04-06 16:19:21.624,9.272188,-6.8315086,1.9980069,-0.33841908,0.24755295,2.4969862,-43.818752,24.075,7.8375,0.06702823,-0.72526944,0.66124946,997.29144,37.88837509,127.73985943,140.60888671875,1.96
2025-04-06 16:19:21.644,10.387243,-6.245267,2.2564318,-0.09346231,0.017867794,2.3766458,-42.6375,25.893751,7.3875003,0.049574196,-0.7273918,0.6638976,997.2817,37.88837509,127.73985943,140.60888671875,1.96
2025-04-06 16:19:21.664,11.375479,-5.979664,2.455036,0.27672175,-0.21181737,2.1353543,-41.325,27.712502,6.8812504,0.03559477,-0.7274975,0.6679175,997.2817,37.88837509,127.73985943,140.60888671875,1.96
2025-04-06 16:19:21.684,11.8588295,-5.814559,1.9166509,0.7159335,-0.3688096,1.8616868,-39.73125,29.212502,6.9375005,0.025642717,-0.72486603,0.67412597,997.2775,37.88837509,127.73985943,140.60888671875,1.96
2025-04-06 16:19:21.704,12.746566,-5.568098,0.6867401,0.916908,-0.18921536,1.5556436,-38.34375,31.031252,6.675,0.018366572,-0.71983176,0.68207735,997.2775,37.88837509,127.73985943,140.60888671875,1.96
2025-04-06 16:19:21.724,12.9021,-5.0775695,-0.47138608,0.75747234,-0.058490302,1.0962732,-36.91875,32.5875,6.3750005,0.012492589,-0.7141577,0.68963915,997.2692,37.88837509,127.73985943,140.60888671875,1.96
2025-04-06 16:19:21.744,12.433106,-5.723632,-0.88295156,0.30482152,-0.08720095,0.58864456,-35.53125,33.862503,6.3,0.008661368,-0.709501,0.6953798,997.2692,37.88837509,127.73985943,140.60888671875,1.96
2025-04-06 16:19:21.764,13.339986,-7.0636125,0.19142582,-0.12522727,-0.5129737,0.073685564,-34.93125,34.987503,5.7562504,0.009502948,-0.7090714,0.69614226,997.2646,37.88837509,127.73985943,140.60888671875,1.96
2025-04-06 16:19:21.786,14.266008,-7.795816,1.2299109,-0.32131487,-1.0242676,-0.43088874,-33.975002,35.71875,5.6625004,0.016800134,-0.7110055,0.6943105,997.2646,37.88837509,127.73985943,140.60888671875,1.96
2025-04-06 16:19:21.806,14.888143,-9.568898,2.2731814,-0.47280934,-1.4329361,-1.1236094,-33.412502,36.1875,5.5875,0.031634208,-0.71433616,0.69057226,997.2548,37.88837509,127.73985943,140.60888671875,1.96
2025-04-06 16:19:21.824,14.301901,-11.023734,3.65384,-0.4092794,-1.2466223,-1.636125,-33.61875,36.2625,6.1687503,0.051539514,-0.7176499,0.68566847,997.2548,37.88837509,127.73985943,140.60888671875,1.96
2025-04-06 16:19:21.844,13.232309,-10.827522,4.5415773,-0.19853105,-0.787252,-1.9586616,-33.787502,35.831253,7.2375,0.07220798,-0.7190307,0.6812663,997.2685,37.88837509,127.73985943,140.60888671875,1.96
2025-04-06 16:19:21.864,12.658031,-10.7844515,4.3501515,0.16676609,-0.2997819,-2.3984842,-34.78125,34.96875,8.00625,0.09213175,-0.7172968,0.6785327,997.2685,37.88837509,127.73985943,140.60888671875,1.96
2025-04-06 16:19:21.884,12.102897,-11.263016,4.0390844,0.49235702,-0.18066326,-2.8309765,-35.925003,33.7125,9.075001,0.11841299,-0.7105728,0.67724794,997.29,37.88837509,127.73985943,140.60888671875,1.96
2025-04-06 16:19:21.904,11.286944,-12.081362,3.5653057,0.88819736,-0.38896814,-3.2145996,-36.862503,32.287502,9.1875,0.1426957,-0.7016799,0.677473,997.29,37.88837509,127.73985943,140.60888671875,1.96
2025-04-06 16:19:21.924,11.270195,-13.043276,2.6823542,1.1905755,-0.83673203,-3.487656,-38.34375,30.487501,9.31875,0.17120774,-0.69008994,0.6782436,997.30096,37.88837509,127.73985943,140.60888671875,1.96
2025-04-06 16:19:21.944,10.928021,-14.096118,1.3208381,1.2712096,-1.3358085,-3.7564366,-39.881252,28.406252,9.4125,0.20445147,-0.6768051,0.67814195,997.30096,37.88837509,127.73985943,140.60888671875,1.96
2025-04-06 16:19:21.965,9.934999,-13.694124,0.8709874,1.1087196,-1.5795436,-3.8444011,-41.4,25.9125,9.675,0.24086101,-0.6632465,0.67558485,997.3039,37.88837509,127.73985943,140.60888671875,1.96
2025-04-06 16:19:21.985,9.829716,-12.4426775,0.9834501,0.9156863,-1.5709915,-3.93542,-43.425003,23.04375,10.06875,0.27770203,-0.6500684,0.67024523,997.3039,37.88837509,127.73985943,140.60888671875,1.96
2025-04-06 16:19:22.004,8.922835,-11.7463665,1.1006985,0.7073814,-1.3419172,-4.0685887,-44.662502,20.456251,10.125,0.31381005,-0.63656026,0.6625292,997.3066,37.88837509,127.73985943,140.60888671875,1.96
2025-04-06 16:19:22.025,7.838887,-11.298908,1.3447664,0.56138474,-0.83795375,-4.129675,-45.54375,17.53125,10.650001,0.3552626,-0.6183545,0.6509557,997.3066,37.88837509,127.73985943,140.60888671875,1.96
2025-04-06 16:19:22.044,7.4273214,-11.516655,1.3184453,0.54733485,-0.3969094,-4.0557604,-46.65,14.175,11.493751,0.38404998,-0.602091,0.64181733,997.3112,37.88837509,127.73985943,140.60888671875,1.96
2025-04-06 16:19:22.064,6.9726853,-11.107483,1.0648061,0.5894845,-0.108581215,-3.9073203,-46.93125,10.8,12.431251,0.40912768,-0.5843737,0.6335971,997.3112,37.88837509,127.73985943,140.60888671875,1.96
2025-04-06 16:19:22.084,6.4701924,-10.2723875,0.526421,0.6395754,0.014202606,-3.7894232,-47.362503,7.0687504,14.043751,0.43168414,-0.56560034,0.6259993,997.311,37.88837509,127.73985943,140.60888671875,1.96
2025-04-06 16:19:22.106,5.9676995,-9.631111,-0.2321038,0.56810427,0.026419902,-3.7472737,-47.831253,3.1125002,15.50625,0.45287582,-0.5462825,0.61814487,997.311,37.88837509,127.73985943,140.60888671875,1.96
2025-04-06 16:19:22.124,5.2666025,-9.355937,-0.15553348,0.4422661,-0.1311832,-3.7124543,-48.037502,-0.45000002,16.143751,0.47322702,-0.52726424,0.6062431,997.3083,37.88837509,127.73985943,140.60888671875,1.96
2025-04-06 16:19:22.146,4.7282176,-9.408579,0.28713873,0.39950556,-0.45982847,-3.6037204,-48.281254,-4.14375,16.800001,0.4935784,-0.50930554,0.59761363,997.3083,37.88837509,127.73985943,140.60888671875,1.96
2025-04-06 16:19:22.166,3.790231,-9.219545,0.16749759,0.3420843,-0.56367546,-3.3514333,-48.2625,-8.19375,17.081251,0.5190336,-0.48857096,0.5815708,997.2985,37.88837509,127.73985943,140.60888671875,1.96
2025-04-06 16:19:22.185,3.3355947,-9.341579,0.11724831,0.2950477,-0.47754353,-3.1052547,-47.737503,-11.53125,17.15625,0.53744483,-0.4732142,0.5687001,997.2985,37.88837509,127.73985943,140.60888671875,1.96
2025-04-06 16:19:22.204,2.7996025,-9.626326,-0.17467605,0.24678937,-0.38774642,-2.7149122,-46.706253,-14.700001,17.6625,0.5531241,-0.4590646,0.5570329,997.29803,37.88837509,127.73985943,140.60888671875,1.96
2025-04-06 16:19:22.225,2.440679,-9.707682,-0.3684947,0.13316852,-0.44272426,-2.1749077,-45.46875,-17.53125,18.4125,0.56608325,-0.4472652,0.54664737,997.29803,37.88837509,127.73985943,140.60888671875,1.96
2025-04-06 16:19:22.244,2.2157538,-9.738789,-0.6939186,0.03054324,-0.5062542,-1.6336815,-44.456253,-19.800001,18.73125,0.5765951,-0.43887836,0.5373076,997.3,37.88837509,127.73985943,140.60888671875,1.96
2025-04-06 16:19:22.264,1.9860427,-9.743574,-0.8207382,-0.12156209,-0.4732675,-1.0582469,-43.36875,-21.862501,18.993752,0.58440614,-0.43430716,0.5293376,997.3,37.88837509,127.73985943,140.60888671875,1.96
2025-04-06 16:19:22.284,1.6917256,-9.533006,-0.79920274,-0.27977607,-0.23625195,-0.3985129,-42.206253,-23.5125,18.712502,0.5884986,-0.4334615,0.5237439,997.289,37.88837509,127.73985943,140.60888671875,1.96
2025-04-06 16:19:22.306,1.6390835,-9.889536,-0.95473623,-0.41233373,0.10644319,0.28870997,-41.381252,-24.6375,18.45,0.5876917,-0.43594876,0.52198356,997.289,37.88837509,127.73985943,140.60888671875,1.96
2025-04-06 16:19:22.326,1.1294123,-9.195618,-0.9499506,-0.605367,0.38011062,1.2978586,-40.443752,-25.2,18.431252,0.57933515,-0.44401824,0.5256569,997.29047,37.88837509,127.73985943,140.60888671875,1.96
2025-04-06 16:19:22.344,1.9190438,-8.9348,-0.701097,-0.7128792,0.4876228,1.9038365,-40.631252,-25.575,18.075,0.5668032,-0.45548582,0.5327336,997.29047,37.88837509,127.73985943,140.60888671875,1.96
2025-04-06 16:19:22.364,3.4337006,-8.8701935,-0.014356935,-0.81122845,0.60002196,2.6264894,-41.23125,-24.73125,18.09375,0.5495778,-0.47079617,0.542709,997.28973,37.88837509,127.73985943,140.60888671875,1.96
2025-04-06 16:19:22.384,5.326423,-9.4636135,0.5168497,-0.7189878,0.62567824,3.10724,-42.2625,-23.7,17.75625,0.5288386,-0.4883335,0.55492,997.28973,37.88836261,127.739862,140.1141357421875,1.84
2025-04-06 16:19:22.404,6.300302,-10.145568,0.3397808,-0.5216785,0.5218312,3.3583055,-43.818752,-21.993752,17.081251,0.5064371,-0.50649244,0.56854814,997.2817,37.88836261,127.739862,140.1141357421875,1.84
2025-04-06 16:19:22.424,6.786045,-10.875379,-0.35413775,-0.34697118,0.28542656,3.5605018,-45.018753,-19.63125,16.81875,0.4839183,-0.5246672,0.58258575,997.2817,37.88836261,127.739862,140.1141357421875,1.84
2025-04-06 16:19:22.445,6.867401,-11.160125,-1.2107682,-0.36407542,0.0129808765,3.7657523,-45.84375,-17.1,16.40625,0.46180144,-0.5434931,0.59583336,997.2751,37.88836261,127.739862,140.1141357421875,1.84
2025-04-06 16:19:22.464,6.829116,-10.561919,-1.1844472,-0.5839867,-0.101250835,4.0534697,-46.443752,-13.9125,15.8625,0.43297517,-0.56914043,0.6099947,997.2751,37.88836261,127.739862,140.1141357421875,1.84
2025-04-06 16:19:22.484,7.200003,-10.284351,-0.567099,-0.8179479,-0.072540194,4.283766,-46.93125,-10.40625,14.775001,0.40722093,-0.59117913,0.6194216,997.2775,37.88836261,127.739862,140.1141357421875,1.84
2025-04-06 16:19:22.504,7.9011,-10.028319,0.52163535,-0.93951005,0.00320704,4.4786315,-47.568752,-6.7500005,14.043751,0.3786854,-0.6136936,0.627475,997.2775,37.88836261,127.739862,140.1141357421875,1.84
2025-04-06 16:19:22.524,9.066405,-9.614362,1.4668003,-0.9474513,0.22800528,4.563542,-48.281254,-3.1125002,13.406251,0.34760153,-0.6352142,0.6348572,997.2768,37.88836261,127.739862,140.1141357421875,1.84
2025-04-06 16:19:22.546,10.468599,-9.2075815,2.2037897,-0.81061757,0.6892082,4.4328165,-48.675003,0.4875,12.525001,0.3144144,-0.6540446,0.6421876,997.2768,37.88836261,127.739862,140.1141357421875,1.84
2025-04-06 16:19:22.564,10.758131,-9.025727,1.5026926,-0.68905544,1.1907282,4.277657,-48.881252,4.2000003,12.187501,0.27934662,-0.66888106,0.65020645,997.2751,37.88836261,127.739862,140.1141357421875,1.84
2025-04-06 16:19:22.584,10.662417,-8.671589,0.28713873,-0.82405657,1.7722714,4.174421,-48.468754,7.9687505,11.6625,0.2420422,-0.68071085,0.6581379,997.2751,37.88836261,127.739862,140.1141357421875,1.84
2025-04-06 16:19:22.606,11.770294,-8.805588,0.2009971,-1.3695588,2.4008512,4.024148,-47.775,11.6625,10.743751,0.18932939,-0.69429463,0.66497076,997.2695,37.88836261,127.739862,140.1141357421875,1.84
2025-04-06 16:19:22.624,12.593426,-7.999206,2.8019953,-1.3762784,1.937205,3.6765661,-47.4375,15.13125,10.21875,0.14675777,-0.7049753,0.66627795,997.2695,37.88836261,127.739862,140.1141357421875,1.84
2025-04-06 16:19:22.644,13.217953,-6.9942207,4.0534415,-0.7147118,0.8321505,3.2098653,-46.143753,18.225,9.65625,0.112155125,-0.7130426,0.66699296,997.267,37.88836261,127.739862,140.1141357421875,1.84
2025-04-06 16:19:22.664,13.289737,-6.7166533,2.8354948,-0.24312419,0.2102902,2.777373,-44.71875,21.1875,8.775001,0.08783849,-0.71736586,0.6695059,997.267,37.88836261,127.739862,140.1141357421875,1.84
2025-04-06 16:19:22.684,13.287344,-7.4344997,1.4452649,-0.023212861,-0.116522454,2.3454916,-43.59375,23.75625,8.45625,0.07101925,-0.7194145,0.6728318,997.2692,37.88836261,127.739862,140.1141357421875,1.84
2025-04-06 16:19:22.704,13.46202,-7.879565,1.0648061,0.031154104,-0.18432845,2.0809872,-41.775,26.400002,7.74375,0.058029585,-0.72056603,0.6759002,997.2692,37.88836261,127.739862,140.1141357421875,1.84
2025-04-06 16:19:22.724,14.187045,-7.9968133,0.8255238,0.053145237,-0.16294818,1.7816635,-40.237503,28.612501,7.5937505,0.044721566,-0.72121567,0.67923534,997.2541,37.88836261,127.739862,140.1141357421875,1.84
2025-04-06 16:19:22.744,15.771094,-7.8891363,0.50488555,-0.03848448,-0.098196514,1.3619994,-38.86875,30.487501,7.6687503,0.03661208,-0.7215444,0.6810401,997.2541,37.88836261,127.739862,140.1141357421875,1.84
2025-04-06 16:19:22.764,16.283157,-6.948757,0.8566305,-0.20891576,0.17302746,0.807945,-37.40625,32.0625,7.18125,0.030940369,-0.7223395,0.681288,997.24725,37.88836261,127.739862,140.1141357421875,1.84
2025-04-06 16:19:22.784,16.290337,-6.6568327,1.9669002,-0.3103193,0.549931,0.0193186,-36.375,33.225002,7.7250004,0.027367316,-0.723495,0.67991096,997.24725,37.88836261,127.739862,140.1141357421875,1.84
2025-04-06 16:19:22.804,15.653846,-7.8317084,2.751746,-0.124616414,0.67576915,-0.68195415,-35.662502,34.050003,7.8187504,0.027005238,-0.7239594,0.67792445,997.25116,37.88836261,127.739862,140.1141357421875,1.84
2025-04-06 16:19:22.826,13.289737,-8.073383,2.5674987,0.17592905,0.6006328,-1.0417535,-35.23125,34.275,7.8187504,0.030559456,-0.7223551,0.67705464,997.25116,37.88836261,127.739862,140.1141357421875,1.84
2025-04-06 16:19:22.846,12.311072,-8.149954,2.009971,0.5913171,-0.12935062,-1.3374121,-35.41875,34.3125,7.74375,0.040794417,-0.7174956,0.6785019,997.25604,37.88836261,127.739862,140.1141357421875,1.84
2025-04-06 16:19:22.864,13.189239,-8.985049,1.7347964,0.7874047,-1.0651954,-1.735085,-35.60625,33.693752,7.2000003,0.0573017,-0.71263576,0.6806591,997.25604,37.88836261,127.739862,140.1141357421875,1.84
2025-04-06 16:19:22.884,13.634303,-10.042677,1.5050855,0.80511975,-1.9191844,-2.2854743,-36.45,32.831253,6.9750004,0.083255365,-0.7077027,0.68211293,997.25824,37.88836261,127.739862,140.1141357421875,1.84
2025-04-06 16:19:22.904,13.701303,-11.559726,1.6151553,0.6334668,-2.3748896,-2.7882159,-37.518753,31.968752,6.8812504,0.108369015,-0.70442724,0.68080115,997.25824,37.88836261,127.739862,140.1141357421875,1.84
2025-04-06 16:19:22.924,13.3687,-13.103097,2.5603201,0.40561423,-2.3632832,-3.3276095,-38.68125,30.45,7.7250004,0.15615629,-0.69935024,0.6761204,997.25946,37.88836261,127.739862,140.1141357421875,1.84
2025-04-06 16:19:22.945,12.1148615,-13.138989,3.6131623,0.39584038,-1.9411756,-3.741165,-40.425003,28.931252,8.925,0.19538026,-0.693862,0.66938967,997.25946,37.88836261,127.739862,140.1141357421875,1.84
2025-04-06 16:19:22.964,11.236695,-12.614961,3.888337,0.5558869,-1.5789328,-4.0087237,-41.775,26.831251,10.125,0.23360258,-0.6853816,0.6623902,997.2719,37.88836261,127.739862,140.1141357421875,1.84
2025-04-06 16:19:22.984,9.722038,-12.1866455,3.1728828,0.763581,-1.1965314,-4.264676,-43.36875,24.16875,11.625,0.27084938,-0.6730317,0.65603024,997.2719,37.88836261,127.739862,140.1141357421875,1.84
2025-04-06 16:19:23.004,8.647661,-11.784652,2.388037,0.8814779,-0.89170986,-4.3245406,-44.7,21.581251,12.69375,0.30642763,-0.6575835,0.65002954,997.2775,37.88836261,127.739862,140.1141357421875,1.84
2025-04-06 16:19:23.025,7.8580294,-11.102697,1.7060826,1.0702351,-0.78908455,-4.3489757,-45.525,18.487501,13.44375,0.34869528,-0.6348739,0.6427707,997.2775,37.88836261,127.739862,140.1141357421875,1.84
2025-04-06 16:19:23.044,7.60439,-10.810773,0.8350951,1.1001675,-0.7542653,-4.3477535,-46.537502,15.39375,14.26875,0.38175282,-0.6147398,0.6364137,997.29095,37.88836261,127.739862,140.1141357421875,1.84
2025-04-06 16:19:23.064,7.1856465,-10.561919,0.031106694,0.9639446,-0.64492047,-4.363636,-46.85625,12.13125,14.85,0.41351685,-0.5937606,0.6287421,997.29095,37.88836261,127.739862,140.1141357421875,1.84
2025-04-06 16:19:23.084,6.6711893,-10.760524,-0.22492532,0.7867938,-0.5539016,-4.3306494,-46.893753,8.2875,15.8625,0.44335607,-0.57260764,0.6194222,997.27924,37.88836261,127.739862,140.1141357421875,1.84
2025-04-06 16:19:23.104,5.4795637,-10.839486,-0.2943172,0.61452997,-0.4885391,-4.066756,-46.66875,4.6312504,16.81875,0.47078452,-0.5518666,0.6088885,997.27924,37.88836261,127.739862,140.1141357421875,1.84
2025-04-06 16:19:23.124,4.6636114,-10.195817,-0.1268196,0.49113527,-0.46715885,-3.7564366,-46.74375,0.75,18.056252,0.4951051,-0.53247064,0.5978152,997.28485,37.88836261,127.739862,140.1141357421875,1.84
2025-04-06 16:19:23.144,4.290331,-9.372686,-0.27756742,0.2773326,-0.26496258,-3.2897358,-46.912502,-3.1312501,19.25625,0.5206736,-0.51065916,0.5841381,997.28485,37.88836261,127.739862,140.1141357421875,1.84
2025-04-06 16:19:23.164,4.211368,-9.102298,-0.15074782,0.12522727,-0.028557928,-3.0136251,-46.912502,-6.6375003,19.9125,0.53296894,-0.49876517,0.5765201,997.29095,37.88836261,127.739862,140.1141357421875,1.84
2025-04-06 16:19:23.184,3.7160535,-8.7266245,-0.038285162,0.012217295,0.24572036,-2.7314055,-46.78125,-10.05,20.4375,0.545887,-0.48378962,0.5675619,997.29095,37.88836261,127.739862,140.1141357421875,1.84
2025-04-06 16:19:23.204,2.8761728,-8.894122,-0.23449662,-0.062308207,0.48456848,-2.3703845,-46.143753,-13.06875,20.475,0.5572536,-0.46618792,0.5586499,997.2939,37.88836261,127.739862,140.1141357421875,1.84
2025-04-06 16:19:23.224,2.0458634,-9.052048,-0.55752766,-0.16249003,0.59818935,-1.8810817,-45.15,-15.731251,20.1,0.5627148,-0.45403567,0.5535285,997.2939,37.88836261,127.739862,140.1141357421875,1.84
2025-04-06 16:19:23.244,1.847259,-9.145369,-0.63888365,-0.3121519,0.62689996,-1.2311217,-44.456253,-18.0,19.650002,0.56469864,-0.4450755,0.5503429,997.2983,37.88836261,127.739862,140.1141357421875,1.84
2025-04-06 16:19:23.265,1.7730815,-8.664411,-0.18185452,-0.38912088,0.5346594,-0.69111717,-44.0625,-19.9125,19.2,0.5637362,-0.43989864,0.54873383,997.2983,37.88836261,127.739862,140.1141357421875,1.84
2025-04-06 16:19:23.284,2.440679,-9.104691,-0.17228323,-0.38117963,0.50106186,-0.18776456,-43.818752,-21.4125,18.525002,0.5607359,-0.43813136,0.5486068,997.3044,37.88836261,127.739862,140.1141357421875,1.84
2025-04-06 16:19:23.304,2.4358935,-10.155139,-1.1629118,-0.46364638,0.653778,0.31497714,-43.725002,-22.3125,18.16875,0.5553917,-0.43902797,0.55073965,997.3044,37.88836261,127.739862,140.1141357421875,1.84
2025-04-06 16:19:23.324,1.1246266,-9.891929,-1.8376877,-0.8032872,0.8150463,1.2172245,-43.518753,-22.96875,17.325,0.5428341,-0.4452318,0.55713505,997.3073,37.88836261,127.739862,140.1141357421875,1.84
2025-04-06 16:19:23.346,2.359323,-9.564112,-1.0863415,-1.1478149,0.8804089,2.0205116,-43.8375,-23.212502,16.575,0.5263324,-0.45657042,0.56498337,997.3073,37.88836261,127.739862,140.1141357421875,1.84
2025-04-06 16:19:23.366,4.1850467,-9.410972,0.39481574,-1.2669336,0.8822415,2.5403576,-44.2125,-22.893751,15.843751,0.5050057,-0.47219834,0.5745297,997.30804,37.88836261,127.739862,140.1141357421875,1.84
2025-04-06 16:19:23.384,5.2235317,-9.408579,0.91884387,-1.2211187,0.8468113,2.6723044,-44.625,-22.35,15.39375,0.4933782,-0.48069382,0.5797268,997.30804,37.88835362,127.7398681,139.87091064453125,1.33
2025-04-06 16:19:23.406,6.410372,-9.875179,0.79920274,-0.79534596,0.59085894,2.7401104,-46.3875,-20.41875,13.9125,0.45390823,-0.509004,0.5984904,997.3105,37.88835362,127.7398681,139.87091064453125,1.33
2025-04-06 16:19:23.424,5.4293146,-10.334601,-0.44745782,-0.7073814,0.41920596,2.891605,-47.25,-18.243752,13.012501,0.43826273,-0.520483,0.60640764,997.3105,37.88835362,127.7398681,139.87091064453125,1.33
2025-04-06 16:19:23.444,4.6229334,-10.238888,-1.3328022,-0.87170404,0.17363831,3.3906813,-48.05625,-15.637501,12.356251,0.41670364,-0.53749305,0.6165103,997.30194,37.88835362,127.7398681,139.87091064453125,1.33
2025-04-06 16:19:23.464,5.4221363,-9.992428,-0.9236295,-1.0830632,0.022754714,3.8384452,-48.318752,-12.356251,11.700001,0.3928031,-0.55767596,0.6257198,997.30194,37.88835362,127.7398681,139.87091064453125,1.33
2025-04-06 16:19:23.484,7.051648,-9.592826,0.016749758,-1.2247839,-0.1244637,4.101117,-48.825,-8.75625,9.8625,0.35965642,-0.5856432,0.6355437,997.2963,37.88835362,127.7398681,139.87091064453125,1.33
2025-04-06 16:19:23.507,8.7673025,-9.281759,0.91405827,-1.2034036,-0.15500695,4.0852346,-49.537502,-5.1375003,9.28125,0.33211964,-0.6078753,0.641839,997.2963,37.88835362,127.7398681,139.87091064453125,1.33
2025-04-06 16:19:23.524,9.06162,-9.111869,1.253839,-1.111163,-0.09636392,3.9563422,-49.781254,-0.95625,8.512501,0.30487576,-0.6280795,0.64708334,997.30096,37.88835362,127.7398681,139.87091064453125,1.33
2025-04-06 16:19:23.544,9.217153,-9.080762,1.0456635,-1.0286963,0.01970039,3.91236,-49.8375,2.8500001,7.4625,0.27782568,-0.6459131,0.65176845,997.30096,37.88835362,127.7398681,139.87091064453125,1.33
2025-04-06 16:19:23.565,9.966106,-9.253045,1.012164,-1.0684025,0.07101303,3.915414,-49.7625,6.2250004,7.89375,0.25000483,-0.6621491,0.6558309,997.2966,37.88835362,127.7398681,139.87091064453125,1.33
2025-04-06 16:19:23.586,11.353944,-9.276974,1.0815558,-1.147204,0.10338886,3.7706392,-49.218754,9.46875,7.4812503,0.22206138,-0.6774565,0.65844965,997.2966,37.88835362,127.7398681,139.87091064453125,1.33
2025-04-06 16:19:23.606,12.313465,-8.776874,1.6414764,-1.291979,0.5413789,3.38274,-48.412502,12.356251,7.4062505,0.18752095,-0.69482046,0.65916175,997.2885,37.88835362,127.7398681,139.87091064453125,1.33
2025-04-06 16:19:23.624,12.143575,-8.300702,2.0027926,-1.3775,1.0209078,3.085249,-47.925003,14.868751,8.2875,0.15908726,-0.70665693,0.65811116,997.2885,37.88835362,127.7398681,139.87091064453125,1.33
2025-04-06 16:19:23.644,11.636296,-7.9513497,2.5052853,-1.4868449,1.5523602,2.832351,-46.74375,17.7,8.64375,0.12877327,-0.7166887,0.65592885,997.2785,37.88835362,127.7398681,139.87091064453125,1.33
2025-04-06 16:19:23.665,11.502298,-7.331609,4.168297,-1.2669336,1.5089887,2.619159,-45.506252,20.38125,8.6625,0.09787295,-0.7249923,0.6530764,997.2785,37.88835362,127.7398681,139.87091064453125,1.33
2025-04-06 16:19:23.684,12.342179,-6.8578296,4.833502,-0.7153227,1.1754565,2.4505603,-44.456253,22.6875,8.15625,0.07025406,-0.7302426,0.6518813,997.27875,37.88835362,127.7398681,139.87091064453125,1.33
2025-04-06 16:19:23.704,13.433307,-6.8482585,2.7589245,-0.021991132,0.7148645,2.0852633,-43.068752,24.618752,7.3125005,0.048353195,-0.7313074,0.65420246,997.27875,37.88835362,127.7398681,139.87091064453125,1.33
2025-04-06 16:19:23.724,13.866407,-6.8171515,0.44506502,0.19730933,0.27320927,1.7529528,-41.831253,26.56875,7.0687504,0.03244839,-0.72994244,0.6595649,997.28656,37.88835362,127.7398681,139.87091064453125,1.33
2025-04-06 16:19:23.745,14.907285,-7.070791,-0.44985065,0.017715078,-0.09086613,1.3797145,-40.4625,28.10625,6.61875,0.019511307,-0.728662,0.6628122,997.28656,37.88835362,127.7398681,139.87091064453125,1.33
2025-04-06 16:19:23.764,15.804593,-7.2287173,-0.0071784677,-0.24373505,-0.31505352,0.88063794,-39.600002,29.493752,6.1687503,0.014595568,-0.72969246,0.66347337,997.2692,37.88835362,127.7398681,139.87091064453125,1.33
2025-04-06 16:19:23.784,16.64926,-8.953942,0.9619147,-0.46364638,-0.47204575,0.25083634,-38.662502,30.88125,6.0750003,0.014416056,-0.73235905,0.6614746,997.2692,37.88835362,127.7398681,139.87091064453125,1.33
2025-04-06 16:19:23.804,15.613168,-8.774481,3.237489,-0.40561423,-0.76220655,-0.3001637,-37.987503,31.35,6.01875,0.01955268,-0.73583186,0.65785426,997.2546,37.88835362,127.7398681,139.87091064453125,1.33
2025-04-06 16:19:23.824,15.589239,-8.106883,4.4147577,-0.13133593,-0.87216216,-0.7161626,-37.65,31.9125,6.15,0.029456265,-0.7380877,0.65503585,997.2546,37.88835362,127.7398681,139.87091064453125,1.33
2025-04-06 16:19:23.844,16.106089,-8.958728,4.4315076,0.12705988,-0.72372204,-1.3771182,-37.575,31.875002,7.1250005,0.043801077,-0.7380147,0.65357196,997.2641,37.88835362,127.7398681,139.87091064453125,1.33
2025-04-06 16:19:23.864,15.263816,-10.334601,4.5726843,0.49907652,-0.5526799,-2.1834598,-37.631252,31.48125,7.7812505,0.06227379,-0.7353978,0.6528375,997.2641,37.88835362,127.7398681,139.87091064453125,1.33
2025-04-06 16:19:23.884,13.629518,-11.078769,3.926622,0.81061757,-0.57467103,-2.7478988,-38.175003,30.993752,8.25,0.0851598,-0.7296781,0.653195,997.27997,37.88835362,127.7398681,139.87091064453125,1.33
2025-04-06 16:19:23.904,12.7082815,-11.906686,3.1058838,1.0403028,-0.5545125,-3.2103236,-39.018753,29.681252,8.75625,0.11887966,-0.718986,0.654176,997.27997,37.88835362,127.7398681,139.87091064453125,1.33
2025-04-06 16:19:23.924,11.729616,-12.1148615,2.5698915,1.1649191,-0.38835728,-3.5249188,-39.787502,28.10625,8.53125,0.14807978,-0.70788777,0.6546502,997.28046,37.88835362,127.7398681,139.87091064453125,1.33
2025-04-06 16:19:23.944,10.669596,-11.454442,2.3282163,1.2400556,-0.18066326,-3.7472737,-41.30625,26.250002,8.19375,0.17756781,-0.69463253,0.6545817,997.28046,37.88835362,127.7398681,139.87091064453125,1.33
2025-04-06 16:19:23.964,9.702896,-11.112268,2.0578275,1.3261875,-0.023060145,-3.9916196,-42.675003,23.90625,8.0625,0.20703135,-0.6791455,0.65384865,997.2775,37.88835362,127.7398681,139.87091064453125,1.33
2025-04-06 16:19:23.984,8.276773,-10.899307,1.7515461,1.4489713,0.14553854,-4.092412,-44.4375,21.487501,7.33125,0.23658937,-0.6614481,0.652437,997.2775,37.88835362,127.7398681,139.87091064453125,1.33
2025-04-06 16:19:24.004,7.728817,-10.789237,1.012164,1.5161663,0.28115052,-4.074086,-45.54375,19.0125,6.8812504,0.26488385,-0.64158857,0.65089375,997.28217,37.88835362,127.7398681,139.87091064453125,1.33
2025-04-06 16:19:24.024,7.1018977,-10.408778,0.35653058,1.5155555,0.3978257,-3.971461,-46.987503,16.25625,6.5437503,0.29161194,-0.6203396,0.64892375,997.28217,37.88835362,127.7398681,139.87091064453125,1.33
2025-04-06 16:19:24.044,6.9152575,-9.925428,-0.29910284,1.4117085,0.44364056,-3.859062,-48.093754,12.993751,5.6625004,0.3164374,-0.59853095,0.6462215,997.2895,37.88835362,127.7398681,139.87091064453125,1.33
2025-04-06 16:19:24.064,6.6041903,-9.547362,-0.35413775,1.2492185,0.32391104,-3.795532,-48.225002,9.450001,5.30625,0.34549052,-0.5717666,0.6407314,997.2895,37.88835362,127.7398681,139.87091064453125,1.33
2025-04-06 16:19:24.084,5.948557,-9.437292,0.06460621,1.1808016,0.0056504994,-3.7094,-49.125004,5.5875,5.86875,0.36849788,-0.5513039,0.63418484,997.29755,37.88835362,127.7398681,139.87091064453125,1.33
2025-04-06 16:19:24.106,5.1732826,-9.164511,0.03589234,1.1362085,-0.23564109,-3.578675,-49.331253,1.5937501,6.3,0.39191943,-0.53189236,0.6260777,997.29755,37.88835362,127.7398681,139.87091064453125,1.33
2025-04-06 16:19:24.126,4.6061835,-8.719446,-0.20817557,0.9902118,-0.2961167,-3.3593745,-49.36875,-1.95,7.18125,0.41489205,-0.5138405,0.6167412,997.3029,37.88835362,127.7398681,139.87091064453125,1.33
2025-04-06 16:19:24.144,4.3262234,-8.650054,-0.43070808,0.7984003,-0.17944153,-3.1449609,-49.687504,-5.4375,8.306251,0.4355463,-0.49687374,0.60698444,997.3029,37.88835362,127.7398681,139.87091064453125,1.33
2025-04-06 16:19:24.164,4.0151563,-9.064013,-0.59342,0.57665634,-0.09880738,-2.8847325,-49.612503,-8.85,8.6625,0.4532204,-0.481207,0.59711915,997.3027,37.88835362,127.7398681,139.87091064453125,1.33
2025-04-06 16:19:24.185,3.2877383,-9.212367,-0.44985065,0.35430157,-0.10491603,-2.4730096,-49.031254,-12.356251,9.31875,0.47099385,-0.46454272,0.58506685,997.3027,37.88835362,127.7398681,139.87091064453125,1.33
2025-04-06 16:19:24.204,2.7565317,-9.2075815,-0.39960137,0.24373505,-0.17577635,-2.006309,-48.61875,-15.900001,9.675,0.48223558,-0.45428535,0.57623786,997.3139,37.88835362,127.7398681,139.87091064453125,1.33
2025-04-06 16:19:24.225,3.1800613,-9.80818,-0.72502524,0.14416409,-0.23564109,-1.5438844,-48.018753,-18.84375,9.76875,0.49110034,-0.44699764,0.5687129,997.3139,37.88835362,127.7398681,139.87091064453125,1.33
2025-04-06 16:19:24.244,2.940779,-10.126426,-1.2969099,-0.018325943,-0.2545779,-1.0948987,-46.8375,-21.46875,10.05,0.4976041,-0.44277695,0.56249297,997.31415,37.88835362,127.7398681,139.87091064453125,1.33
2025-04-06 16:19:24.264,2.184647,-9.9015,-1.550549,-0.24556763,-0.20021093,-0.57016593,-46.275,-22.893751,9.731251,0.5010864,-0.44188106,0.55766225,997.31415,37.88835362,127.7398681,139.87091064453125,1.33
2025-04-06 16:19:24.284,2.0602202,-10.382458,-1.7754744,-0.50885034,-0.107359484,0.1042288,-45.54375,-23.775002,9.88125,0.5006119,-0.44465885,0.5548007,997.31586,37.88835362,127.7398681,139.87091064453125,1.33
2025-04-06 16:19:24.305,0.7178468,-9.815358,-1.6821543,-0.8686497,-0.06398808,0.9020182,-45.037502,-24.243752,9.806251,0.49551323,-0.45175052,0.55423385,997.31586,37.88835362,127.7398681,139.87091064453125,1.33
2025-04-06 16:19:24.324,1.0839486,-9.030513,-0.526421,-1.1716386,-0.06704241,1.7908264,-45.112503,-24.056252,9.262501,0.4850245,-0.46445027,0.5561409,997.31586,37.88835362,127.7398681,139.87091064453125,1.33
2025-04-06 16:19:24.344,2.589034,-8.580662,1.4811572,-1.1624757,-0.06398808,2.5458553,-45.487503,-23.962502,8.981251,0.46486264,-0.48647404,0.5624625,997.31586,37.88835362,127.7398681,139.87091064453125,1.33
2025-04-06 16:19:24.364,4.8622155,-9.19801,2.548356,-0.7703005,-0.10797035,2.908709,-46.2,-22.66875,8.6625,0.44623202,-0.50518435,0.5709718,997.31805,37.88835362,127.7398681,139.87091064453125,1.33
2025-04-06 16:19:24.384,5.881558,-10.234102,2.1511476,-0.22357652,-0.2441932,3.1188464,-46.8375,-20.90625,8.493751,0.42842683,-0.52230746,0.5822118,997.31805,37.88833868,127.73987452,139.6326904296875,1.45
2025-04-06 16:19:24.404,5.7858453,-11.157732,0.76331043,0.20402883,-0.47204575,3.391292,-47.68125,-18.65625,8.56875,0.41229212,-0.53772664,0.5956688,997.3288,37.88833868,127.73987452,139.6326904296875,1.45
2025-04-06 16:19:24.424,5.6183476,-11.413764,-0.9523434,0.36468628,-0.8061888,3.875097,-48.112503,-15.4875,8.981251,0.39701566,-0.55342364,0.61013514,997.3288,37.88833868,127.73987452,139.6326904296875,1.45
2025-04-06 16:19:24.444,6.6017976,-11.229517,-2.120041,0.1386663,-0.8825469,4.2972045,-48.187504,-12.31875,8.64375,0.38042644,-0.570976,0.6242701,997.3188,37.88833868,127.73987452,139.6326904296875,1.45
2025-04-06 16:19:24.464,8.12124,-10.607383,-2.1128623,-0.31520623,-0.75915223,4.4987903,-48.750004,-8.606251,8.606251,0.36029607,-0.5906369,0.6365214,997.3188,37.88833868,127.73987452,139.6326904296875,1.45
2025-04-06 16:19:24.484,9.583255,-9.5760765,-0.7728817,-0.69272065,-0.59727305,4.423043,-49.143753,-4.4625,9.01875,0.33680516,-0.61155283,0.64558405,997.3034,37.88833868,127.73987452,139.6326904296875,1.45
2025-04-06 16:19:24.504,10.145568,-8.645268,0.6221339,-0.8692606,-0.08170316,4.1518188,-48.91875,-0.1875,8.8125,0.30467036,-0.6361274,0.6533042,997.3034,37.88833868,127.73987452,139.6326904296875,1.45
2025-04-06 16:19:24.524,10.234102,-8.63809,1.052842,-0.92362756,0.585972,3.9404597,-49.125004,3.9750001,8.962501,0.2760948,-0.652556,0.6586103,997.2902,37.88833868,127.73987452,139.6326904296875,1.45
2025-04-06 16:19:24.544,10.303494,-9.377472,1.253839,-0.90957767,0.73807734,3.9270205,-49.0125,7.7250004,9.3,0.24477755,-0.6664291,0.66378635,997.2902,37.88833868,127.73987452,139.6326904296875,1.45
2025-04-06 16:19:24.564,11.480763,-9.396614,2.0147567,-0.754418,0.35139996,3.893423,-48.750004,10.950001,9.1125,0.21387579,-0.6789091,0.66821533,997.2812,37.88833868,127.73987452,139.6326904296875,1.45
2025-04-06 16:19:24.584,12.88535,-8.310273,2.6775684,-0.32681265,-0.18188499,3.6081493,-48.43125,13.81875,9.20625,0.18741335,-0.6892401,0.67221725,997.2812,37.88833868,127.73987452,139.6326904296875,1.45
2025-04-06 16:19:24.604,13.227524,-7.2382884,2.1415763,0.026267186,-0.2527453,3.1561093,-47.550003,16.5,9.525001,0.16645059,-0.6960759,0.6767781,997.2819,37.88833868,127.73987452,139.6326904296875,1.45
2025-04-06 16:19:24.624,12.68196,-6.9535427,1.3423735,0.25106543,0.07223476,2.741943,-46.050003,19.556252,9.375,0.1444795,-0.7000461,0.68334377,997.2819,37.88833868,127.73987452,139.6326904296875,1.45
2025-04-06 16:19:24.644,12.220145,-6.6305118,0.2656033,0.26816964,0.5028944,2.5012622,-44.5875,22.29375,9.39375,0.12686335,-0.70084584,0.689,997.27924,37.88833868,127.73987452,139.6326904296875,1.45
2025-04-06 16:19:24.666,12.856636,-6.1495543,-0.16510476,0.16187917,0.6983712,2.244699,-43.5,24.88125,9.637501,0.108370386,-0.70097494,0.69403464,997.27924,37.88833868,127.73987452,139.6326904296875,1.45
2025-04-06 16:19:24.684,13.076776,-5.7930236,-0.11485548,0.020158539,0.65499973,1.8867322,-42.018753,27.2625,9.20625,0.091299504,-0.7012258,0.6975531,997.2629,37.88833868,127.73987452,139.6326904296875,1.45
2025-04-06 16:19:24.704,13.674981,-5.948557,0.85902333,-0.02687805,0.41859508,1.4597378,-40.85625,28.7625,8.775001,0.077816375,-0.70187694,0.6994375,997.2629,37.88833868,127.73987452,139.6326904296875,1.45
2025-04-06 16:19:24.724,14.483755,-7.2693954,1.5816557,0.16126831,-0.114689864,0.9453896,-39.768753,30.206251,8.34375,0.070176676,-0.70187336,0.70098406,997.24506,37.88833868,127.73987452,139.6326904296875,1.45
2025-04-06 16:19:24.744,14.620147,-8.068598,0.7178468,0.37384924,-0.65591604,0.46280643,-38.287502,31.29375,7.65,0.0699481,-0.7004443,0.7032193,997.24506,37.88833868,127.73987452,139.6326904296875,1.45
2025-04-06 16:19:24.764,15.51267,-8.504091,-0.47856453,0.2046397,-0.69195706,3.8179048E-4,-37.55625,32.11875,7.8,0.07492229,-0.6986717,0.7051404,997.23676,37.88833868,127.73987452,139.6326904296875,1.45
2025-04-06 16:19:24.784,15.756737,-9.334401,0.06460621,-0.15577053,-0.46043932,-0.5475639,-37.0125,32.8125,8.0625,0.08279285,-0.6983664,0.7046705,997.23676,37.88833868,127.73987452,139.6326904296875,1.45
2025-04-06 16:19:24.804,14.392828,-8.963513,1.9357935,-0.3121519,-0.11530073,-1.1297181,-36.1875,33.225002,8.26875,0.09422063,-0.69953567,0.70110524,997.2338,37.88833868,127.73987452,139.6326904296875,1.45
2025-04-06 16:19:24.825,13.88555,-8.848659,3.1848469,-0.15699224,-0.17088942,-1.617799,-36.300003,33.15,8.775001,0.10520824,-0.69963866,0.6978816,997.2338,37.88833868,127.73987452,139.6326904296875,1.45
2025-04-06 16:19:24.844,13.543376,-9.21476,3.7591243,0.1838703,-0.3205513,-2.141921,-36.393753,32.68125,8.962501,0.12028818,-0.6974353,0.69553334,997.2402,37.88833868,127.73987452,139.6326904296875,1.45
2025-04-06 16:19:24.864,12.643675,-10.035499,3.0963125,0.4667007,-0.5270236,-2.6171737,-36.862503,31.800001,9.075001,0.14003411,-0.6921984,0.6943718,997.2402,37.88833868,127.73987452,139.6326904296875,1.45
2025-04-06 16:19:24.884,12.035898,-10.875379,2.3832514,0.6090322,-0.72860897,-2.9445972,-37.7625,30.750002,9.01875,0.17071867,-0.68263507,0.6929823,997.2536,37.88833868,127.73987452,139.6326904296875,1.45
2025-04-06 16:19:24.904,11.023734,-11.315659,2.143969,0.6707295,-0.8874338,-3.2176538,-38.831253,29.2875,9.168751,0.19140722,-0.6758438,0.69155645,997.2536,37.88833868,127.73987452,139.6326904296875,1.45
2025-04-06 16:19:24.924,10.454242,-10.748559,1.9764715,0.6695078,-0.9008728,-3.3691483,-40.518753,27.7875,9.150001,0.22013982,-0.6658892,0.6887642,997.2553,37.88833868,127.73987452,139.6326904296875,1.45
2025-04-06 16:19:24.944,10.24846,-10.102497,1.7874385,0.6524036,-0.82268214,-3.6483135,-42.318752,25.462502,9.1125,0.24947862,-0.65490067,0.68477553,997.2553,37.88833868,127.73987452,139.6326904296875,1.45
2025-04-06 16:19:24.964,8.76491,-9.8321085,1.7467605,0.6212495,-0.68218327,-3.8511207,-43.78125,22.85625,9.075001,0.28708705,-0.6391275,0.67787576,997.2568,37.88833868,127.73987452,139.6326904296875,1.45
2025-04-06 16:19:24.984,7.891529,-9.60479,1.7252251,0.6310233,-0.36147922,-3.876777,-45.15,20.15625,9.225,0.3152739,-0.6248725,0.6717142,997.2568,37.88833868,127.73987452,139.6326904296875,1.45
2025-04-06 16:19:25.004,7.164111,-9.102298,1.4883357,0.7031054,-0.2686278,-3.8279078,-46.36875,16.85625,9.84375,0.34167552,-0.60910344,0.665483,997.2751,37.88833868,127.73987452,139.6326904296875,1.45
2025-04-06 16:19:25.024,7.30768,-8.939586,1.0671989,0.6878337,-0.17944153,-3.7668214,-47.04375,13.950001,10.59375,0.36651644,-0.59233165,0.6590882,997.2751,37.88833868,127.73987452,139.6326904296875,1.45
2025-04-06 16:19:25.044,7.3770723,-8.88455,0.92602235,0.7177661,-0.1886045,-3.7851472,-47.8125,10.5,11.45625,0.39030483,-0.5748727,0.6520491,997.2944,37.88833868,127.73987452,139.6326904296875,1.45
2025-04-06 16:19:25.065,6.664011,-9.004191,0.26799613,0.68111426,-0.240528,-3.7973645,-48.2625,6.7875004,12.337501,0.41966504,-0.5520149,0.6419146,997.2944,37.88833868,127.73987452,139.6326904296875,1.45
2025-04-06 16:19:25.084,6.192625,-9.255438,-0.53599226,0.50152,-0.2490801,-3.6721373,-48.3375,2.98125,13.63125,0.44218114,-0.5341203,0.6323148,997.30536,37.88833868,127.73987452,139.6326904296875,1.45
2025-04-06 16:19:25.104,5.7786665,-9.30808,-0.35174492,0.26572618,-0.19837834,-3.4937646,-48.3375,-0.84375006,14.587501,0.46238938,-0.51764107,0.6214794,997.30536,37.88833868,127.73987452,139.6326904296875,1.45
2025-04-06 16:19:25.124,5.6063833,-9.401401,0.13878371,0.15149446,-0.24785839,-3.2958446,-48.2625,-4.36875,15.7875,0.48029602,-0.5025957,0.6099186,997.3117,37.88833868,127.73987452,139.6326904296875,1.45
2025-04-06 16:19:25.144,5.261817,-9.726824,0.05742774,0.06291907,-0.22220206,-3.1156394,-48.225002,-7.7812505,16.125,0.49661043,-0.48865297,0.5980085,997.3117,37.88833868,127.73987452,139.6326904296875,1.45
2025-04-06 16:19:25.164,3.897908,-9.980463,0.009571291,-0.050090913,-0.13668099,-2.7436228,-47.8125,-10.96875,15.918751,0.5138436,-0.47273496,0.583564,997.3188,37.88833868,127.73987452,139.6326904296875,1.45
2025-04-06 16:19:25.185,3.141776,-10.226924,0.09810573,-0.07941242,-0.1434005,-2.237216,-47.475002,-14.025001,15.712501,0.5246695,-0.46218038,0.5732997,997.3188,37.88833868,127.73987452,139.6326904296875,1.45
2025-04-06 16:19:25.204,3.2303107,-10.183853,0.021535404,-0.08918626,-0.1244637,-1.7466915,-47.15625,-16.650002,15.525001,0.53100795,-0.45607847,0.566862,997.3195,37.88833868,127.73987452,139.6326904296875,1.45
2025-04-06 16:19:25.224,3.129812,-10.183853,-0.55752766,-0.15210533,0.008704823,-1.1401027,-46.537502,-19.0125,15.637501,0.5380098,-0.44902405,0.5590798,997.3195,37.88833868,127.73987452,139.6326904296875,1.45
2025-04-06 16:19:25.246,1.8329022,-10.57149,-1.146162,-0.3933969,0.19074252,-0.3105484,-45.24375,-21.393751,15.262501,0.5398631,-0.44598112,0.5542294,997.31903,37.88833868,127.73987452,139.6326904296875,1.45
2025-04-06 16:19:25.264,1.6773686,-10.906486,-1.2801601,-0.4648681,0.23350306,-0.05948296,-44.943752,-22.03125,15.093751,0.53851944,-0.44671312,0.55381817,997.31903,37.88833868,127.73987452,139.6326904296875,1.45
2025-04-06 16:19:25.284,0.37567315,-10.619347,-1.3160524,-0.6853903,0.30008733,0.7303652,-44.41875,-22.9125,14.625001,0.5324089,-0.4515406,0.5550625,997.32587,37.88833868,127.73987452,139.6326904296875,1.45
2025-04-06 16:19:25.304,0.14596218,-9.712467,-0.2009971,-0.8289435,0.27320927,1.6778165,-44.381252,-23.2875,14.26875,0.52140296,-0.46172988,0.5592075,997.32587,37.88833868,127.73987452,139.6326904296875,1.45
2025-04-06 16:19:25.326,1.9932213,-9.413364,1.1724831,-0.7061597,0.26710063,2.5702899,-44.756252,-23.2875,14.062501,0.5059257,-0.4763597,0.5668803,997.32245,37.88833868,127.73987452,139.6326904296875,1.45
2025-04-06 16:19:25.346,4.546363,-9.590433,1.5625132,-0.39278606,0.11804962,3.013167,-45.300003,-22.143751,14.00625,0.4879512,-0.49298915,0.57778174,997.32245,37.88833868,127.73987452,139.6326904296875,1.45
2025-04-06 16:19:25.364,6.1710896,-9.870394,0.90448695,-0.009162972,-0.021838415,3.1542766,-46.050003,-20.38125,13.931251,0.4702949,-0.5093281,0.5904291,997.33466,37.88833868,127.73987452,139.6326904296875,1.45
2025-04-06 16:19:25.384,6.4773707,-10.19821,-0.57906306,0.21074834,-0.13545926,3.2214718,-46.518753,-18.1875,13.81875,0.4539638,-0.5241905,0.60380566,997.33466,37.8883279,127.73988341,139.21856689453125,1.39
2025-04-06 16:19:25.404,5.9246287,-9.875179,-2.428715,0.076358095,-0.13729186,3.4175594,-46.725002,-15.4125,13.51875,0.43367618,-0.54246217,0.6199059,997.34906,37.8883279,127.73988341,139.21856689453125,1.39
2025-04-06 16:19:25.424,5.9413786,-9.561719,-3.3212378,-0.4092794,-0.06582068,3.7126071,-47.25,-12.337501,13.312501,0.41446376,-0.5592794,0.6310625,997.34906,37.8883279,127.73988341,139.21856689453125,1.39
2025-04-06 16:19:25.445,6.6855464,-9.379865,-2.2851455,-0.9969313,0.061239194,4.0046005,-47.568752,-9.056251,12.525001,0.3909469,-0.57937413,0.6395947,997.3332,37.8883279,127.73988341,139.21856689453125,1.39
2025-04-06 16:19:25.464,7.661818,-9.102298,-0.44506502,-1.2712096,0.10216714,4.165258,-48.375004,-5.4187503,12.1125,0.3635816,-0.60156125,0.64569676,997.3332,37.8883279,127.73988341,139.21856689453125,1.39
2025-04-06 16:19:25.484,8.906086,-8.7673025,1.0097711,-1.2870921,0.19929464,4.2019095,-48.91875,-1.40625,12.075001,0.33410212,-0.6236656,0.6502548,997.3305,37.8883279,127.73988341,139.21856689453125,1.39
2025-04-06 16:19:25.504,10.372886,-8.831908,1.2107682,-1.2870921,0.6189587,4.1169996,-48.99375,2.4750001,11.212501,0.2949632,-0.6483239,0.65532094,997.3305,37.8883279,127.73988341,139.21856689453125,1.39
2025-04-06 16:19:25.525,10.971092,-9.025727,1.7659031,-1.2705988,0.75945765,4.0479717,-48.975002,6.05625,10.875,0.26160437,-0.66538596,0.6587946,997.3276,37.8883279,127.73988341,139.21856689453125,1.39
2025-04-06 16:19:25.544,12.4115715,-8.920443,2.201397,-1.1392628,0.48395762,4.142045,-48.581253,9.525001,10.40625,0.228678,-0.68085414,0.66151565,997.3276,37.8883279,127.73988341,139.21856689453125,1.39
2025-04-06 16:19:25.564,14.414364,-8.082955,2.3186452,-1.084285,0.5933024,3.9306858,-48.187504,12.468751,9.675,0.19704436,-0.6945789,0.6634476,997.31903,37.8883279,127.73988341,139.21856689453125,1.39
2025-04-06 16:19:25.584,14.708681,-6.6089764,2.4717858,-1.1074978,0.97203857,3.3601382,-47.475002,15.187501,9.88125,0.1664123,-0.70585036,0.66424894,997.31903,37.8883279,127.73988341,139.21856689453125,1.39
2025-04-06 16:19:25.604,14.407186,-5.558527,3.6897326,-0.9834923,1.0428989,2.8848853,-46.331253,18.09375,9.7875,0.13762742,-0.71489865,0.6637991,997.3205,37.8883279,127.73988341,139.21856689453125,1.39
2025-04-06 16:19:25.624,14.778072,-4.682754,4.3836513,-0.4838049,0.85780686,2.3100615,-44.475002,20.98125,9.69375,0.10717129,-0.721922,0.664047,997.3205,37.8883279,127.73988341,139.21856689453125,1.39
2025-04-06 16:19:25.644,14.572289,-4.6492543,3.5772698,-0.06597339,0.79244435,1.7541746,-42.99375,23.34375,9.5625,0.088914834,-0.7233678,0.6663159,997.31415,37.8883279,127.73988341,139.21856689453125,1.39
2025-04-06 16:19:25.664,13.96212,-5.3647084,2.2372892,0.17898338,0.70692325,1.2728131,-41.850002,25.743752,9.075001,0.075350694,-0.722182,0.66978794,997.31415,37.8883279,127.73988341,139.21856689453125,1.39
2025-04-06 16:19:25.684,13.785051,-6.0777693,1.4356936,0.24251331,0.47662723,0.91484636,-40.96875,27.393751,8.700001,0.06579525,-0.72000134,0.67333484,997.3095,37.8883279,127.73988341,139.21856689453125,1.39
2025-04-06 16:19:25.704,14.304294,-7.4273214,1.0241281,0.21746786,0.1547015,0.4890736,-40.2,28.743752,7.8562503,0.060480893,-0.71790177,0.67614716,997.3095,37.8883279,127.73988341,139.21856689453125,1.39
2025-04-06 16:19:25.724,15.158531,-8.922835,0.7393822,0.1875355,-0.22892158,0.16042836,-39.61875,29.925001,6.95625,0.059998155,-0.716312,0.6779182,997.2956,37.8883279,127.73988341,139.21856689453125,1.39
2025-04-06 16:19:25.745,16.173088,-9.889536,0.9738788,0.14599667,-0.7811433,-0.29894194,-38.9625,30.50625,6.8625,0.06532124,-0.71546113,0.67852294,997.2956,37.8883279,127.73988341,139.21856689453125,1.39
2025-04-06 16:19:25.764,16.469799,-9.212367,1.7300107,0.14782928,-0.9955569,-0.8267291,-38.5875,30.73125,7.0125003,0.076475374,-0.7149817,0.67804706,997.27704,37.8883279,127.73988341,139.21856689453125,1.39
2025-04-06 16:19:25.784,16.254444,-8.793623,2.4622145,0.16187917,-0.8000801,-1.4919609,-38.8875,30.393751,7.6312504,0.09207207,-0.71387166,0.67627186,997.27704,37.8883279,127.73988341,139.21856689453125,1.39
2025-04-06 16:19:25.804,14.569897,-9.765109,3.318845,0.30054548,-0.5239693,-2.2934155,-38.98125,30.0375,8.175,0.115668856,-0.7103312,0.67415494,997.28094,37.8883279,127.73988341,139.21856689453125,1.39
2025-04-06 16:19:25.826,13.153346,-10.719846,3.5988052,0.58032155,-0.57650363,-2.6819255,-39.768753,29.025002,8.56875,0.13778812,-0.7047289,0.67239445,997.28094,37.8883279,127.73988341,139.21856689453125,1.39
2025-04-06 16:19:25.846,11.842079,-11.66501,3.062813,1.1117738,-1.0706933,-3.027675,-40.875,27.806252,8.8125,0.1709824,-0.6933914,0.6719247,997.29266,37.8883279,127.73988341,139.21856689453125,1.39
2025-04-06 16:19:25.864,11.196017,-11.52862,1.8664017,1.2815943,-1.4689771,-3.2677448,-41.8875,26.5125,9.01875,0.19460845,-0.6847053,0.67198837,997.29266,37.8883279,127.73988341,139.21856689453125,1.39
2025-04-06 16:19:25.884,10.052248,-11.059627,1.2131611,1.2547163,-1.8251113,-3.4900997,-43.48125,24.393751,9.31875,0.22968003,-0.67228603,0.67056715,997.2983,37.8883279,127.73988341,139.21856689453125,1.39
2025-04-06 16:19:25.904,9.877572,-10.729417,1.5170496,1.1300999,-1.9149084,-3.5585165,-44.90625,22.21875,9.675,0.26705948,-0.6596836,0.66665196,997.2983,37.8883279,127.73988341,139.21856689453125,1.39
2025-04-06 16:19:25.924,9.913465,-9.68136,1.9238294,1.084285,-1.8471024,-3.7747626,-45.693752,20.23125,10.78125,0.31375772,-0.6428915,0.6591391,997.2973,37.8883279,127.73988341,139.21856689453125,1.39
2025-04-06 16:19:25.945,9.221938,-9.456435,0.89730847,0.9266819,-1.2741113,-3.9598546,-46.443752,17.737501,11.962501,0.3499916,-0.62736017,0.6518274,997.2973,37.8883279,127.73988341,139.21856689453125,1.39
2025-04-06 16:19:25.964,8.4347,-9.073584,0.2727818,0.5247328,-0.3376555,-3.9305332,-46.987503,14.94375,13.575001,0.38068497,-0.61075985,0.6439758,997.3117,37.8883279,127.73988341,139.21856689453125,1.39
2025-04-06 16:19:25.985,7.8029947,-8.896515,1.1988041,0.31459537,0.5254964,-3.9348092,-47.006252,12.187501,14.418751,0.40385792,-0.59335566,0.63658583,997.3117,37.8883279,127.73988341,139.21856689453125,1.39
2025-04-06 16:19:26.004,6.7740808,-8.733803,1.3064811,0.3988947,0.76067936,-3.9232028,-47.11875,8.587501,15.20625,0.42243838,-0.57392144,0.63038,997.3249,37.8883279,127.73988341,139.21856689453125,1.39
2025-04-06 16:19:26.024,5.548956,-8.79123,0.46899325,0.5442805,0.559094,-3.795532,-47.23125,4.8187504,15.69375,0.4398963,-0.55305964,0.62447304,997.3249,37.8883279,127.73988341,139.21856689453125,1.39
2025-04-06 16:19:26.044,4.907679,-8.819944,-0.059820566,0.5290089,0.22189663,-3.5670686,-47.287502,1.44375,16.181252,0.4577061,-0.5327336,0.61752826,997.34076,37.8883279,127.73988341,139.21856689453125,1.39
2025-04-06 16:19:26.064,4.694718,-8.465807,0.23449662,0.44409868,-0.10797035,-3.284849,-48.05625,-2.53125,17.175001,0.4755062,-0.514468,0.6089966,997.34076,37.8883279,127.73988341,139.21856689453125,1.39
2025-04-06 16:19:26.084,5.070391,-8.1738825,0.7585248,0.42699447,-0.37675086,-3.0704355,-48.318752,-6.1312504,17.081251,0.49745494,-0.49462673,0.59650743,997.3444,37.8883279,127.73988341,139.21856689453125,1.39
2025-04-06 16:19:26.104,4.5248275,-8.312666,0.22013968,0.39767298,-0.4329504,-2.904891,-48.187504,-9.450001,17.212502,0.51464355,-0.4799242,0.5857978,997.3444,37.8883279,127.73988341,139.21856689453125,1.39
2025-04-06 16:19:26.124,3.562913,-8.925228,-0.7465607,0.21930045,-0.33521205,-2.592739,-47.925003,-12.656251,17.1375,0.5300035,-0.46659032,0.5751743,997.35223,37.8883279,127.73988341,139.21856689453125,1.39
2025-04-06 16:19:26.144,2.9862428,-9.5353985,-1.052842,-0.07513637,-0.2667952,-2.042961,-46.8375,-15.262501,16.9125,0.54194826,-0.4560933,0.5652207,997.35223,37.8883279,127.73988341,139.21856689453125,1.39
2025-04-06 16:19:26.164,3.1082766,-9.9756775,-0.9595219,-0.34452772,-0.1385136,-1.5304453,-46.2,-17.625,17.4375,0.5498676,-0.44937456,0.5564612,997.3591,37.8883279,127.73988341,139.21856689453125,1.39
2025-04-06 16:19:26.184,2.7684958,-10.133604,-0.5599205,-0.5894845,0.055130545,-1.0368665,-45.375,-19.706251,17.456251,0.5535304,-0.44607332,0.5494141,997.3591,37.8883279,127.73988341,139.21856689453125,1.39
2025-04-06 16:19:26.204,1.7156538,-9.274581,0.45224348,-0.67378384,0.33001968,-0.45532334,-44.4,-21.393751,17.550001,0.5527704,-0.4455703,0.54487413,997.3632,37.8883279,127.73988341,139.21856689453125,1.39
2025-04-06 16:19:26.224,1.605584,-9.600004,0.24646074,-0.5357284,0.527329,0.17631085,-43.893753,-22.7625,17.475,0.54786,-0.44694185,0.5443995,997.3632,37.8883279,127.73988341,139.21856689453125,1.39
2025-04-06 16:19:26.244,0.6580262,-9.645468,-1.2873386,-0.53023064,0.41737336,0.9007965,-43.36875,-23.60625,16.987501,0.54021436,-0.45248002,0.54885215,997.3742,37.8883279,127.73988341,139.21856689453125,1.39
2025-04-06 16:19:26.264,1.4333007,-9.339187,-0.7848458,-0.6469058,0.19501857,1.9081125,-43.443752,-23.90625,16.21875,0.52657163,-0.4627336,0.5547681,997.3742,37.8883279,127.73988341,139.21856689453125,1.39
2025-04-06 16:19:26.284,3.050849,-9.29133,0.078963146,-0.6377428,0.1461494,2.4982078,-43.518753,-23.6625,15.58125,0.5121311,-0.47744665,0.56280184,997.3659,37.8883279,127.73988341,139.21856689453125,1.39
2025-04-06 16:19:26.304,5.3312087,-9.52822,0.11724831,-0.3420843,-0.14584397,2.868392,-44.15625,-22.800001,15.262501,0.496218,-0.4943371,0.57260346,997.3659,37.8883279,127.73988341,139.21856689453125,1.39
2025-04-06 16:19:26.324,6.3768725,-9.865608,-0.67477596,-0.18936808,-0.13668099,3.0473752,-45.037502,-21.206251,14.962501,0.48057455,-0.5114753,0.58323103,997.37274,37.8883279,127.73988341,139.21856689453125,1.39
2025-04-06 16:19:26.344,6.2548385,-10.241281,-1.7922242,-0.18814635,-0.1262963,3.233689,-45.65625,-18.993752,15.150001,0.46415183,-0.52826524,0.5943866,997.37274,37.8883279,127.73988341,139.21856689453125,1.39
2025-04-06 16:19:26.364,6.2141604,-10.085748,-2.524428,-0.44104436,-0.054825112,3.5940993,-46.818752,-16.275002,15.075001,0.4407131,-0.550616,0.6079767,997.361,37.8883279,127.73988341,139.21856689453125,1.39
2025-04-06 16:19:26.384,7.0396843,-9.49472,-2.103291,-0.84421515,0.16508621,3.8677666,-47.11875,-13.106251,14.718751,0.4177111,-0.5705856,0.61780554,997.361,37.88831561,127.73989162,138.78021240234375,1.61
2025-04-06 16:19:26.405,7.6331043,-9.150154,-1.0001999,-1.1093304,0.46563166,3.9648943,-47.5125,-9.75,14.306251,0.3906144,-0.5914389,0.62629944,997.34784,37.88831561,127.73989162,138.78021240234375,1.61
2025-04-06 16:19:26.426,7.745567,-8.796016,0.44745782,-1.2101232,0.5902481,4.0327,-48.768753,-5.8500004,13.762501,0.35996264,-0.6118374,0.633874,997.34784,37.88831561,127.73989162,138.78021240234375,1.61
2025-04-06 16:19:26.446,8.906086,-8.836694,1.2610176,-1.1117738,0.52916163,3.9734464,-49.031254,-1.9125,13.387501,0.32063633,-0.6354423,0.64209914,997.3483,37.88831561,127.73989162,138.78021240234375,1.61
2025-04-06 16:19:26.464,9.408579,-8.717052,1.39023,-0.9761619,0.51083565,3.8109562,-49.612503,2.0812502,12.262501,0.29036835,-0.65169376,0.6478866,997.3483,37.88831561,127.73989162,138.78021240234375,1.61
2025-04-06 16:19:26.484,9.506684,-8.992228,0.6652047,-0.849102,0.5737547,3.703444,-49.593754,6.05625,11.2875,0.26827577,-0.6622674,0.65196073,997.351,37.88831561,127.73989162,138.78021240234375,1.61
2025-04-06 16:19:26.504,9.875179,-8.958728,-0.20578274,-0.93767744,0.5175552,3.6185338,-48.9,9.262501,10.125,0.23183228,-0.67831576,0.65743095,997.351,37.88831561,127.73989162,138.78021240234375,1.61
2025-04-06 16:19:26.524,10.303494,-8.633304,-0.36131623,-1.1997384,0.4411971,3.5299585,-48.675003,12.3,9.056251,0.20327191,-0.69137526,0.6590106,997.34247,37.88831561,127.73989162,138.78021240234375,1.61
2025-04-06 16:19:26.545,11.23191,-8.372486,1.8879371,-1.4141519,0.24572036,3.2171957,-47.943752,15.000001,9.375,0.1759415,-0.70511097,0.6573182,997.34247,37.88831561,127.73989162,138.78021240234375,1.61
2025-04-06 16:19:26.564,11.363515,-8.1020975,3.5653057,-1.1893537,0.10216714,2.9557457,-47.362503,17.23125,9.525001,0.15161872,-0.71750456,0.6543636,997.3315,37.88831561,127.73989162,138.78021240234375,1.61
2025-04-06 16:19:26.584,11.181661,-7.4775705,4.0534415,-0.6524036,0.03008509,2.7205627,-46.275,19.5,10.03125,0.13057485,-0.7263638,0.6531225,997.3315,37.88831561,127.73989162,138.78021240234375,1.61
2025-04-06 16:19:26.604,11.356337,-7.2502527,2.4598217,-0.16798781,0.025198173,2.5513532,-44.831253,21.69375,10.556251,0.11197245,-0.7311835,0.65479773,997.3332,37.88831561,127.73989162,138.78021240234375,1.61
2025-04-06 16:19:26.624,12.102897,-7.3340015,1.2658032,0.07513637,0.022143848,2.421239,-43.162502,24.0375,10.425,0.09522659,-0.7334413,0.65807617,997.3332,37.88831561,127.73989162,138.78021240234375,1.61
2025-04-06 16:19:26.644,13.715659,-7.795816,0.16749759,0.15760311,0.0386372,2.2080472,-41.325,26.156252,10.725,0.07632322,-0.7342408,0.6629192,997.33344,37.88831561,127.73989162,138.78021240234375,1.61
2025-04-06 16:19:26.664,15.55574,-8.118847,-0.29910284,0.12156209,0.06062833,1.7859396,-39.787502,28.218752,11.08125,0.06366634,-0.7342553,0.6661304,997.33344,37.88831561,127.73989162,138.78021240234375,1.61
2025-04-06 16:19:26.684,15.998412,-7.905886,-0.21774685,-0.005497783,-0.02367101,1.2160027,-38.381252,30.0375,10.762501,0.05650466,-0.7342723,0.66772383,997.32196,37.88831561,127.73989162,138.78021240234375,1.61
2025-04-06 16:19:26.704,16.8359,-8.695518,0.526421,-0.033597562,-0.10919208,0.6961568,-37.443752,31.35,10.837501,0.049932566,-0.7347483,0.66866255,997.32196,37.88831561,127.73989162,138.78021240234375,1.61
2025-04-06 16:19:26.725,16.718653,-9.413364,1.2442678,0.12583815,-0.26190826,0.033979353,-36.412502,32.60625,10.8,0.050379597,-0.73457855,0.66898155,997.30634,37.88831561,127.73989162,138.78021240234375,1.61
2025-04-06 16:19:26.745,16.407585,-9.12144,0.91166544,0.30726498,-0.38957903,-0.497473,-35.475002,33.2625,10.556251,0.05571495,-0.7329978,0.67008007,997.30634,37.88831561,127.73989162,138.78021240234375,1.61
2025-04-06 16:19:26.764,16.24248,-9.047262,0.6029913,0.3274235,-0.61315554,-1.1804198,-35.15625,33.54375,10.425,0.06619957,-0.7304529,0.6713088,997.3039,37.88831561,127.73989162,138.78021240234375,1.61
2025-04-06 16:19:26.784,15.180067,-9.829716,0.81595254,0.28344125,-0.88621205,-2.0301328,-35.11875,33.54375,10.668751,0.0884358,-0.72687745,0.67117727,997.3039,37.88831561,127.73989162,138.78021240234375,1.61
2025-04-06 16:19:26.804,13.897514,-10.643275,1.672583,0.37934703,-1.1458296,-2.624504,-35.71875,32.831253,10.81875,0.11313833,-0.72315085,0.6697391,997.2951,37.88831561,127.73989162,138.78021240234375,1.61
2025-04-06 16:19:26.824,12.619746,-11.837294,1.9573289,0.5656608,-1.3223696,-3.0441682,-36.73125,31.81875,11.15625,0.1426616,-0.7174991,0.66809046,997.2951,37.88831561,127.73989162,138.78021240234375,1.61
2025-04-06 16:19:26.846,11.267802,-11.598011,1.6366907,0.67928165,-1.2741113,-3.330664,-37.7625,30.187502,11.868751,0.17481865,-0.709669,0.6663299,997.28754,37.88831561,127.73989162,138.78021240234375,1.61
2025-04-06 16:19:26.867,10.226924,-10.80838,1.3663018,0.6688969,-0.90942496,-3.5884488,-39.54375,28.125002,12.431251,0.21513876,-0.6974121,0.66334134,997.28754,37.88831561,127.73989162,138.78021240234375,1.61
2025-04-06 16:19:26.886,9.784252,-10.219746,1.5194423,0.6536253,-0.6430879,-3.7961428,-41.100002,26.23125,12.825001,0.23843545,-0.68885136,0.6609914,997.2836,37.88831561,127.73989162,138.78021240234375,1.61
2025-04-06 16:19:26.906,8.69791,-10.133604,1.3710874,0.6902772,-0.39202246,-4.065534,-42.956253,23.90625,13.275001,0.2764879,-0.6720118,0.6562429,997.2836,37.88831561,127.73989162,138.78021240234375,1.61
2025-04-06 16:19:26.924,7.975278,-10.171889,1.227518,0.71226835,-0.240528,-4.1400595,-44.34375,21.73125,13.81875,0.29883674,-0.66046333,0.6528908,997.28754,37.88831561,127.73989162,138.78021240234375,1.61
2025-04-06 16:19:26.944,7.23111,-10.049855,0.8039884,0.73975724,-0.043218683,-4.1681595,-45.15,19.10625,13.762501,0.33431298,-0.6391364,0.6467666,997.28754,37.88831561,127.73989162,138.78021240234375,1.61
2025-04-06 16:19:26.964,6.800402,-10.07139,0.46899325,0.7012728,0.14126249,-4.107073,-46.537502,16.03125,14.175,0.36059314,-0.6206669,0.64136374,997.2939,37.88831561,127.73989162,138.78021240234375,1.61
2025-04-06 16:19:26.984,6.7094746,-10.076176,0.038285162,0.6181952,0.20112723,-4.045376,-46.93125,12.562501,14.156251,0.3848479,-0.6016642,0.6352206,997.2939,37.88831561,127.73989162,138.78021240234375,1.61
2025-04-06 16:19:27.004,6.3218374,-9.82493,0.24885355,0.5424479,0.18524474,-3.9800131,-47.41875,8.64375,14.475,0.40758604,-0.5826026,0.62791395,997.3027,37.88831561,127.73989162,138.78021240234375,1.61
2025-04-06 16:19:27.024,5.845666,-9.58804,0.08853444,0.47280934,0.20234896,-3.8572292,-47.625,5.0625,14.887501,0.4291014,-0.5635296,0.6196308,997.3027,37.88831561,127.73989162,138.78021240234375,1.61
2025-04-06 16:19:27.044,5.1086764,-9.327223,0.0023928226,0.36224282,0.37888888,-3.6635852,-47.362503,1.25625,15.168751,0.44857484,-0.5446479,0.610854,997.30365,37.88831561,127.73989162,138.78021240234375,1.61
2025-04-06 16:19:27.064,4.3908296,-9.174082,-0.043070808,0.26511532,0.6195696,-3.3538768,-47.71875,-2.34375,15.69375,0.46816805,-0.521459,0.6005328,997.30365,37.88831561,127.73989162,138.78021240234375,1.61
2025-04-06 16:19:27.084,4.0869412,-9.265009,-0.33499518,0.21135922,0.6348412,-3.0435574,-48.206253,-5.8500004,15.825001,0.48029566,-0.5039338,0.593189,997.30707,37.88831561,127.73989162,138.78021240234375,1.61
2025-04-06 16:19:27.104,3.333202,-9.193225,-0.552742,0.13561198,0.45219266,-2.6019022,-48.281254,-9.356251,16.03125,0.4903948,-0.48852497,0.5861516,997.30707,37.88831561,127.73989162,138.78021240234375,1.61
2025-04-06 16:19:27.124,2.7421749,-8.602198,-0.7537391,0.03848448,0.25060728,-2.0912192,-48.412502,-12.6,15.76875,0.49895805,-0.47624704,0.57926977,997.3083,37.88831561,127.73989162,138.78021240234375,1.61
2025-04-06 16:19:27.145,3.5605202,-8.843872,-0.69152576,-0.091018856,0.13515383,-1.5976405,-48.018753,-15.225,15.39375,0.5055275,-0.4675219,0.57293826,997.3083,37.88831561,127.73989162,138.78021240234375,1.61
2025-04-06 16:19:27.164,3.1250265,-9.066405,-0.70588267,-0.19547673,0.15347977,-1.2854886,-46.987503,-17.53125,14.83125,0.51001745,-0.46156344,0.5674049,997.31024,37.88831561,127.73989162,138.78021240234375,1.61
2025-04-06 16:19:27.185,1.8903298,-8.968299,-0.715454,-0.30726498,0.21517712,-0.7112757,-46.331253,-19.575,14.062501,0.5118359,-0.45800725,0.5633533,997.31024,37.88831561,127.73989162,138.78021240234375,1.61
2025-04-06 16:19:27.204,1.8257236,-10.025927,-1.026521,-0.35124725,0.22983788,-0.08513928,-45.7125,-20.94375,13.500001,0.51052666,-0.45750254,0.56162167,997.3132,37.88831561,127.73989162,138.78021240234375,1.61
2025-04-06 16:19:27.224,1.1676974,-10.351351,-1.8664017,-0.53206325,0.1375973,0.8018364,-45.393753,-21.993752,12.993751,0.50425243,-0.46252432,0.5631897,997.3132,37.88831561,127.73989162,138.78021240234375,1.61
2025-04-06 16:19:27.244,2.5818555,-9.944571,-1.0360922,-0.7715222,0.08689552,1.5874085,-45.825,-22.29375,13.05,0.49454165,-0.47280863,0.56686103,997.31415,37.88831561,127.73989162,138.78021240234375,1.61
2025-04-06 16:19:27.265,4.534399,-9.896714,0.25124636,-0.82527834,0.16997312,2.1109197,-46.29375,-21.900002,12.69375,0.48081148,-0.4867379,0.57256705,997.31415,37.88831561,127.73989162,138.78021240234375,1.61
2025-04-06 16:19:27.284,5.515456,-9.966106,0.95473623,-0.6725621,0.19501857,2.2923465,-46.8375,-20.8125,12.431251,0.46476164,-0.5013957,0.58015656,997.3205,37.88831561,127.73989162,138.78021240234375,1.61
2025-04-06 16:19:27.304,5.2402816,-10.18146,0.5814559,-0.35124725,0.10949751,2.4688864,-47.30625,-19.237501,12.0375,0.44866022,-0.515135,0.5891872,997.3205,37.88831561,127.73989162,138.78021240234375,1.61
2025-04-06 16:19:27.324,4.9986067,-10.468599,-0.64606214,-0.21746786,-0.021227552,2.7162867,-47.53125,-17.325,11.3625,0.43309852,-0.52841794,0.5992941,997.32294,37.88831561,127.73989162,138.78021240234375,1.61
2025-04-06 16:19:27.344,4.651647,-10.143175,-1.3974084,-0.35307986,-0.038331766,3.1542766,-48.187504,-15.01875,11.2875,0.4123079,-0.54648817,0.61233824,997.32294,37.88831561,127.73989162,138.78021240234375,1.61
2025-04-06 16:19:27.364,4.8909297,-9.827323,-1.5337993,-0.5406153,0.027030766,3.410229,-48.562504,-12.525001,10.950001,0.39772403,-0.55862916,0.62006944,997.32074,37.88831561,127.73989162,138.78021240234375,1.61
2025-04-06 16:19:27.384,5.4867425,-9.315259,-0.55034924,-0.7831286,0.12415826,3.6826746,-48.693752,-9.39375,10.14375,0.36903745,-0.5807416,0.6320523,997.32074,37.88830188,127.739898,138.43170166015625,1.53
2025-04-06 16:19:27.404,5.962914,-9.047262,0.83748794,-0.7611375,0.087506376,3.8024042,-49.218754,-6.20625,8.925,0.34357703,-0.5987037,0.640758,997.311,37.88830188,127.739898,138.43170166015625,1.53
2025-04-06 16:19:27.426,6.1710896,-9.138189,1.1796615,-0.5876519,-0.016340632,3.875097,-49.818752,-2.625,8.71875,0.31791723,-0.6154007,0.64924234,997.311,37.88830188,127.739898,138.43170166015625,1.53
2025-04-06 16:19:27.446,6.7812595,-9.798609,0.42592242,-0.424551,-0.16722423,4.064465,-49.7625,1.0500001,7.89375,0.28638408,-0.6342465,0.6598347,997.31146,37.88830188,127.739898,138.43170166015625,1.53
2025-04-06 16:19:27.464,7.8317084,-10.025927,-0.20338993,-0.46853328,-0.14278965,4.2129054,-50.11875,4.3125,7.65,0.2669498,-0.6449877,0.665812,997.31146,37.88830188,127.739898,138.43170166015625,1.53
2025-04-06 16:19:27.484,9.533006,-10.222138,0.16510476,-0.61514086,-0.24846925,4.2532225,-49.800003,7.9500003,8.08125,0.23997286,-0.65922886,0.67234117,997.2995,37.88830188,127.739898,138.43170166015625,1.53
2025-04-06 16:19:27.504,11.473584,-9.894321,0.9667004,-0.6499601,-0.33826637,4.0339217,-48.9,11.212501,7.5750003,0.2073502,-0.67629296,0.677403,997.2995,37.88830188,127.739898,138.43170166015625,1.53
2025-04-06 16:19:27.524,11.916257,-9.523434,1.3351951,-0.6218603,-0.19471315,3.7272677,-48.3375,14.19375,8.231251,0.18914722,-0.6851819,0.67924434,997.288,37.88830188,127.739898,138.43170166015625,1.53
2025-04-06 16:19:27.544,11.535798,-9.1669035,1.6606189,-0.5259546,0.093615025,3.388238,-46.912502,17.475,9.01875,0.15975867,-0.6971355,0.6814381,997.288,37.88830188,127.739898,138.43170166015625,1.53
2025-04-06 16:19:27.564,11.669796,-9.078369,1.9908284,-0.3420843,0.08811724,3.28378,-45.393753,20.325,9.675,0.13683039,-0.70426524,0.6832296,997.28925,37.88830188,127.739898,138.43170166015625,1.53
2025-04-06 16:19:27.584,12.538391,-8.705089,2.0410776,-0.028099779,-0.08720095,3.1133487,-43.518753,23.23125,10.1625,0.115783155,-0.70887756,0.6859205,997.28925,37.88830188,127.739898,138.43170166015625,1.53
2025-04-06 16:19:27.604,13.794622,-8.520842,1.5816557,0.2913825,-0.3413207,2.7578254,-41.4375,26.19375,10.6125,0.098185085,-0.7108074,0.68966854,997.29047,37.88830188,127.739898,138.43170166015625,1.53
2025-04-06 16:19:27.624,14.402399,-8.145168,1.6534405,0.6316342,-0.51053023,2.2795184,-39.693752,28.556252,11.118751,0.08238988,-0.70982563,0.69556844,997.29047,37.88830188,127.739898,138.43170166015625,1.53
2025-04-06 16:19:27.644,14.572289,-8.303095,0.8279166,0.8655954,-0.5826123,1.8482478,-38.287502,30.6,10.9875,0.07616628,-0.70721406,0.70012033,997.28973,37.88830188,127.739898,138.43170166015625,1.53
2025-04-06 16:19:27.666,14.268401,-8.396415,-1.0648061,0.8136719,-0.55878854,1.4157555,-36.65625,32.325,10.856251,0.07026733,-0.7012462,0.70800084,997.28973,37.88830188,127.739898,138.43170166015625,1.53
2025-04-06 16:19:27.686,15.230316,-8.551949,-2.2779672,0.36651886,-0.29367325,0.9765437,-34.912502,33.956253,10.63125,0.06752618,-0.69775385,0.71226627,997.29486,37.88830188,127.739898,138.43170166015625,1.53
2025-04-06 16:19:27.704,16.297516,-8.882157,-1.550549,-0.086742796,-0.08964441,0.47685632,-33.73125,35.11875,10.3125,0.06608872,-0.69708604,0.7132756,997.29486,37.88830188,127.739898,138.43170166015625,1.53
2025-04-06 16:19:27.725,16.618153,-8.190632,0.014356935,-0.29626942,0.008704823,-0.15722132,-32.4375,36.393753,10.35,0.067085244,-0.69845295,0.7118202,997.2929,37.88830188,127.739898,138.43170166015625,1.53
2025-04-06 16:19:27.744,16.773687,-7.905886,1.1772687,-0.31154105,-0.0065667965,-1.084514,-31.9125,37.0125,10.668751,0.074481934,-0.7002853,0.7088759,997.2929,37.88830188,127.739898,138.43170166015625,1.53
2025-04-06 16:19:27.764,15.471992,-8.755338,1.4835501,-0.2480111,-0.0035124724,-1.8566471,-31.987501,37.03125,10.70625,0.08325732,-0.7005765,0.70703596,997.2951,37.88830188,127.739898,138.43170166015625,1.53
2025-04-06 16:19:27.784,13.064812,-9.860822,1.8783658,-0.15027274,-0.06459895,-2.513327,-32.25,36.84375,10.78125,0.09950912,-0.6997144,0.7044401,997.2951,37.88830188,127.739898,138.43170166015625,1.53
2025-04-06 16:19:27.804,11.466406,-10.9017,2.268396,0.07880156,-0.3028362,-2.9262714,-33.037502,35.90625,11.118751,0.12527916,-0.6960207,0.7013688,997.289,37.88830188,127.739898,138.43170166015625,1.53
2025-04-06 16:19:27.824,10.683953,-11.327622,2.3186452,0.27794346,-0.57467103,-3.1919975,-34.0875,34.893753,10.856251,0.14981757,-0.6906012,0.69924927,997.289,37.88830188,127.739898,138.43170166015625,1.53
2025-04-06 16:19:27.844,10.260424,-11.169696,2.3904297,0.4752528,-0.8788817,-3.4119089,-35.775,33.300003,10.950001,0.17750429,-0.68318367,0.69705,997.2856,37.88830188,127.739898,138.43170166015625,1.53
2025-04-06 16:19:27.865,10.109675,-11.07159,2.292324,0.5900954,-0.9741766,-3.6031096,-37.96875,31.237501,11.231251,0.20769309,-0.673859,0.6944737,997.2856,37.88830188,127.739898,138.43170166015625,1.53
2025-04-06 16:19:27.884,9.71486,-10.954342,1.7180467,0.5986475,-0.8642209,-3.8028624,-39.862503,28.800001,11.0625,0.23894522,-0.6628267,0.6911727,997.2946,37.88830188,127.739898,138.43170166015625,1.53
2025-04-06 16:19:27.904,8.575876,-10.930414,1.3016955,0.5186242,-0.751211,-4.0038366,-41.9625,26.118752,11.475,0.2700265,-0.6504217,0.68666667,997.2946,37.88830188,127.739898,138.43170166015625,1.53
2025-04-06 16:19:27.924,8.312666,-10.865808,1.4715859,0.43065968,-0.57833624,-3.9916196,-43.6875,23.325,11.56875,0.30032638,-0.6372923,0.6806155,997.29193,37.88830188,127.739898,138.43170166015625,1.53
2025-04-06 16:19:27.944,8.4682,-10.246066,1.995614,0.46853328,-0.5728384,-4.07653,-44.71875,20.587502,11.75625,0.3290002,-0.62328255,0.6736648,997.29193,37.88830188,127.739898,138.43170166015625,1.53
2025-04-06 16:19:27.964,8.145168,-10.356136,1.7898313,0.5705477,-0.5166389,-4.157775,-46.125,17.081251,12.39375,0.3577053,-0.60331494,0.66403013,997.2941,37.88830188,127.739898,138.43170166015625,1.53
2025-04-06 16:19:27.984,7.4823565,-10.236495,1.4261223,0.6206386,-0.4561633,-4.174879,-46.725002,13.70625,12.750001,0.3926611,-0.58549666,0.65577805,997.2941,37.88830188,127.739898,138.43170166015625,1.53
2025-04-06 16:19:28.004,6.302695,-10.212567,0.62452674,0.57909983,-0.479987,-4.089358,-47.04375,10.1625,14.175,0.41954467,-0.5669429,0.6466634,997.2929,37.88830188,127.739898,138.43170166015625,1.53
2025-04-06 16:19:28.024,5.4867425,-10.080962,-0.09332009,0.37751442,-0.5031999,-3.8608944,-47.4375,6.2625003,15.525001,0.44475362,-0.54917115,0.6362551,997.2929,37.88830188,127.739898,138.43170166015625,1.53
2025-04-06 16:19:28.044,5.608776,-9.796216,0.30388847,0.080634154,-0.45982847,-3.5163667,-47.193752,2.9437501,16.893751,0.4671177,-0.5335383,0.6245173,997.29047,37.88830188,127.739898,138.43170166015625,1.53
2025-04-06 16:19:28.064,6.3290157,-9.645468,1.0001999,0.0024434591,-0.38835728,-3.3538768,-47.568752,-0.99375004,18.6375,0.486398,-0.51952773,0.61230016,997.29047,37.88830188,127.739898,138.43170166015625,1.53
