Time,Accel_X,Accel_Y,Accel_Z,Gyro_X,Gyro_Y,Gyro_Z,Mag_X,Mag_Y,Mag_Z,Orient_X,Orient_Y,Orient_Z,Pressure,Lat,Lng,Alt,Speed
2025-09-28 19:49:45.085,0.46660042,4.610969,8.147561,0.020998476,-0.19326234,0.0070249448,25.331251,-27.88125,-37.18125,0.17815237,0.14205436,0.68875945,995.738,37.88836195,127.73984166,143.69775390625,0.0
2025-09-28 19:49:45.105,0.43070808,4.402794,9.140582,-0.0193186,-0.0026725335,0.041233372,26.7,-27.73125,-38.4,0.17935161,0.14171894,0.68857884,995.7126, , , , 
2025-09-28 19:49:45.126,0.4642076,4.1587257,9.3200445,0.043600474,0.05413789,0.04978548,23.306252,-27.093752,-37.162502,0.17882536,0.1416867,0.6890112,995.69916, , , , 
2025-09-28 19:49:45.145,0.634098,4.2759743,9.32483,0.072921984,0.1805869,0.00763581,25.893751,-28.181252,-39.693752,0.17820372,0.14216673,0.68946654,995.69916, , , , 
2025-09-28 19:49:45.165,0.4426722,4.4195433,9.798609,0.118125975,0.20196716,-0.027183482,25.237501,-27.750002,-38.4,0.17721087,0.14361419,0.6897796,995.6711, , , , 
2025-09-28 19:49:45.185,0.3062813,4.4817567,9.355937,0.18898629,0.09506583,-0.027794348,22.9125,-26.8875,-37.443752,0.17646624,0.14544097,0.6897823,995.6711, , , , 
2025-09-28 19:49:45.205,0.50009996,4.599005,8.5423765,0.14744748,0.1146135,-0.013744458,25.66875,-27.825,-38.90625,0.17694613,0.14796929,0.6894623,995.633, , , , 
2025-09-28 19:49:45.225,0.67477596,4.551149,7.9513497,0.013057235,0.23984079,-0.040011644,24.675001,-26.19375,-38.287502,0.17719732,0.1498864,0.68938935,995.633, , , , 
2025-09-28 19:49:45.245,0.5814559,4.5678983,8.248059,-0.12194388,0.24411684,-0.05894845,25.462502,-27.35625,-38.30625,0.17614125,0.15153553,0.68947744,995.5878, , , , 
2025-09-28 19:49:45.265,0.37088752,4.4817567,8.930014,-0.19158247,0.07979421,-0.041233372,27.69375,-26.493752,-38.8875,0.17386775,0.151747,0.68965673,995.5878, , , , 
2025-09-28 19:49:45.285,0.22971097,4.0127635,9.458828,-0.07185297,0.09995275,-0.014966187,25.050001,-27.0375,-36.412502,0.17195214,0.15108943,0.6898462,995.5297, , , , 
2025-09-28 19:49:45.305,1.9118652,3.8835511,9.68136,0.057650365,-0.069867656,-0.07910699,25.725,-26.831251,-38.8125,0.1707565,0.15045197,0.6901217,995.5297, , , , 
2025-09-28 19:49:45.325,-0.50009996,3.9481573,9.777073,0.2531271,-0.42233664,-0.30634868,25.95,-27.806252,-38.325,0.17223057,0.14849511,0.68928236,995.5297, , , , 
2025-09-28 19:49:45.345,0.14356937,4.5128636,8.738588,0.34231335,-0.31787875,-0.14508039,24.656252,-27.468752,-35.5875,0.17666368,0.14944105,0.68510675,995.4692, , , , 
2025-09-28 19:49:45.365,0.25603202,4.7210393,8.152347,0.35086545,-0.35269806,-0.1065959,26.081251,-27.281252,-39.45,0.1787533,0.14981721,0.68409127,995.43427, , , , 
2025-09-28 19:49:45.385,0.41635114,4.8526444,8.070991,0.25923574,-0.29222244,-0.057726722,23.90625,-26.2875,-37.425003,0.18308449,0.14998089,0.6823667,995.43427, , , , 
2025-09-28 19:49:45.405,0.3804588,4.8693943,8.154739,0.13095413,-0.22380558,0.029626941,24.187502,-26.250002,-36.675003,0.18617623,0.14982438,0.68141687,995.43427, , , , 
2025-09-28 19:49:45.425,0.5312066,4.7138605,8.092526,0.020387612,-0.17676899,0.09315688,25.031252,-28.875002,-40.0125,0.18837637,0.1490482,0.6812224,995.4096, , , , 
2025-09-28 19:49:45.445,1.0241281,5.0081778,8.7673025,-0.04619665,-0.20059273,0.0754418,25.931252,-28.781252,-39.80625,0.18952778,0.1477446,0.6817146,995.40497, , , , 
2025-09-28 19:49:45.465,0.51206404,4.2664027,8.5112705,-0.09078978,-0.3001637,-0.016187917,25.312502,-27.2625,-36.9,0.19162029,0.14470994,0.6812858,995.40497, , , , 
2025-09-28 19:49:45.485,0.3469593,4.54397,8.79123,-0.1372155,-0.19326234,-0.03451386,23.6625,-27.54375,-38.71875,0.19232732,0.14243026,0.6808525,995.4045, , , , 
2025-09-28 19:49:45.506,0.7082755,4.5415773,8.4012,-0.23678645,0.06940951,-0.024740024,23.1375,-28.706251,-38.5875,0.19189416,0.14011,0.68062973,995.4045, , , , 
2025-09-28 19:49:45.527,0.59342,4.4315076,8.425129,-0.41210467,0.5300016,0.00641408,24.35625,-26.98125,-37.893753,0.18825041,0.13993144,0.6813584,995.41595, , , , 
2025-09-28 19:49:45.545,0.4761717,4.4339004,9.260223,-0.39255697,0.54099715,0.029016078,24.91875,-27.900002,-39.300003,0.18191567,0.14096878,0.6830007,995.41595, , , , 
2025-09-28 19:49:45.566,0.4977071,4.503292,9.640682,-0.19219333,0.25389066,0.05650499,26.98125,-26.325,-38.04375,0.17690584,0.14154048,0.68448037,995.43744, , , , 
2025-09-28 19:49:45.585,0.48095736,4.347759,9.506684,-0.026038112,0.09445497,0.08460477,24.018751,-25.7625,-37.78125,0.17524543,0.14153716,0.685218,995.43744, , , , 
2025-09-28 19:49:45.606,0.6029913,4.5655055,8.886943,-0.035201084,0.36690065,0.15790854,24.150002,-25.875002,-38.4,0.17373584,0.14272073,0.686864,995.4655, , , , 
2025-09-28 19:49:45.625,0.81834537,4.5631127,9.458828,0.014889829,0.26122105,0.14874557,24.806252,-26.062502,-36.600002,0.17246613,0.14415866,0.6881445,995.4655, , , , 
2025-09-28 19:49:45.645,0.8422736,4.3118663,9.085547,0.12301289,0.2239583,0.09560034,26.025002,-27.54375,-39.73125,0.17187287,0.1454917,0.68971545,995.50653, , , , 
2025-09-28 19:49:45.666,0.8039884,4.4075794,9.126225,0.112017326,0.37972882,0.021074835,25.893751,-27.431252,-38.79375,0.17122023,0.14757815,0.6906021,995.50653, , , , 
2025-09-28 19:49:45.685,0.52163535,4.5128636,9.3200445,0.116293386,0.42126763,-0.0015271619,24.206251,-26.250002,-37.143753,0.16977686,0.15036152,0.6912729,995.5483, , , , 
2025-09-28 19:49:45.705,0.31585258,4.627719,9.485149,0.107741274,0.28993168,-0.018631376,25.987501,-26.062502,-36.881252,0.16820917,0.15336497,0.6917433,995.5483, , , , 
2025-09-28 19:49:45.725,-0.22013968,4.1228333,10.195817,0.19387321,0.057192214,-0.023518294,24.6375,-27.468752,-34.18125,0.16716214,0.15543057,0.69185543,995.58, , , , 
2025-09-28 19:49:45.745,-0.4426722,4.2257247,9.21476,0.35575238,-0.2616792,0.02535089,24.956251,-27.431252,-34.987503,0.16765815,0.1565217,0.6914107,995.58, , , , 
2025-09-28 19:49:45.765,0.21774685,4.6205406,7.9130645,0.28672466,-0.24762931,0.021685699,24.975,-27.431252,-36.075,0.17131545,0.15715612,0.6905056,995.6337, , , , 
2025-09-28 19:49:45.785,0.20578274,4.5798626,7.6666036,0.013668099,0.2361756,0.0021380268,25.556252,-27.2625,-33.675003,0.17423059,0.15901874,0.6899595,995.6337, , , , 
2025-09-28 19:49:45.805,-0.37567315,4.8622155,8.286345,-0.17814344,0.4267654,-0.026572619,23.175001,-29.1,-36.2625,0.1728821,0.1608936,0.6904262,995.685, , , , 
2025-09-28 19:49:45.825,0.23449662,4.807181,8.946764,-0.044364054,0.35712683,-0.02046397,25.95,-26.1,-34.706253,0.16942321,0.163297,0.69128746,995.685, , , , 
2025-09-28 19:49:45.845,0.07178468,4.5918264,9.020942,0.13889538,-0.027717989,-0.065667965,26.04375,-26.56875,-37.0125,0.1686876,0.16476019,0.6912979,995.727, , , , 
2025-09-28 19:49:45.865,-0.11006984,4.3908296,9.401401,0.28061602,-0.14622575,-0.083383046,26.531252,-28.3875,-35.71875,0.17051747,0.1652382,0.69032466,995.727, , , , 
2025-09-28 19:49:45.885,-0.38285163,4.883751,8.408379,0.29344416,-0.105908684,-0.06444623,25.687502,-27.993752,-33.3375,0.17273392,0.16649021,0.6890901,995.7358, , , , 
2025-09-28 19:49:45.905,-0.038285162,4.584648,8.422736,0.19753839,-0.01244637,-0.044898562,25.518751,-28.25625,-35.325,0.17480688,0.1684821,0.68794394,995.7358, , , , 
2025-09-28 19:49:45.925,-0.062213387,4.5966125,8.221739,0.20609051,0.11950042,-0.046731155,26.531252,-28.3875,-36.1875,0.17585549,0.17024978,0.68735313,995.75287, , , , 
2025-09-28 19:49:45.945,-0.02632105,4.709075,8.585447,0.23846634,-0.020387612,-0.0876591,25.575,-27.88125,-34.275,0.17674334,0.17322105,0.6865343,995.75287, , , , 
2025-09-28 19:49:45.966,-0.033499517,4.8263235,8.662018,0.23052509,-0.25007278,-0.11942407,26.85,-28.125002,-34.3875,0.1788678,0.17428546,0.68517077,995.75287, , , , 
2025-09-28 19:49:45.985,-0.10289137,4.9363933,7.9011,0.112017326,-0.16699515,-0.094378605,26.6625,-28.275002,-33.43125,0.18150523,0.17440644,0.6836168,995.75287, , , , 
2025-09-28 19:49:46.005,-0.124426775,4.9363933,7.8029947,-0.06024654,-0.032604907,-0.044287696,25.63125,-27.618752,-34.59375,0.18265244,0.17497674,0.6826288,995.74725, , , , 
2025-09-28 19:49:46.025,0.04546363,4.924429,8.504091,-0.09078978,-0.03932442,-0.030237807,27.35625,-28.66875,-36.412502,0.18238147,0.17462637,0.6823758,995.74725, , , , 
2025-09-28 19:49:46.045,-0.04546363,4.74736,8.843872,-0.019929463,-0.14317143,-0.018631376,25.725,-27.975,-35.5125,0.1822868,0.1737946,0.6821898,995.7375, , , , 
2025-09-28 19:49:46.065,0.03589234,4.8095737,8.477771,0.017944153,-0.15050182,0.03695732,26.456251,-28.650002,-34.3125,0.18301554,0.17276353,0.68183917,995.7375, , , , 
2025-09-28 19:49:46.085,0.2656033,4.8263235,8.362915,-0.0040469794,-0.039935283,0.100487255,26.5125,-27.656252,-34.537502,0.18431965,0.17193615,0.68206424,995.726,37.88835646,127.73985322,142.814208984375,0.0
2025-09-28 19:49:46.105,0.33499518,4.74736,8.671589,-0.041920595,0.05291616,0.11209369,25.462502,-27.018751,-34.612503,0.18455249,0.17160794,0.68282914,995.726, , , , 
2025-09-28 19:49:46.125,0.23688944,4.6612186,8.7984085,-0.053527027,0.076739885,0.0772744,28.031252,-26.625002,-34.74375,0.18396732,0.17125797,0.6837819,995.70844, , , , 
2025-09-28 19:49:46.145,0.11724831,4.7114677,9.174082,-0.016264275,-0.04848739,0.03940078,27.562502,-27.54375,-34.95,0.18322474,0.17084828,0.6844181,995.70844, , , , 
2025-09-28 19:49:46.165,0.21774685,4.7880383,9.131011,0.08269582,-0.2824486,0.023518294,25.218752,-28.275002,-34.96875,0.18380077,0.16975088,0.68449026,995.6845, , , , 
2025-09-28 19:49:46.185,0.30388847,4.8287163,8.609376,0.10529782,-0.3184896,0.022296565,25.63125,-28.593752,-37.631252,0.18640816,0.16804574,0.68395346,995.6845, , , , 
2025-09-28 19:49:46.205,0.57427746,5.0273204,8.085348,-0.20563236,0.39622217,0.09376775,26.025002,-29.325,-34.537502,0.1877481,0.16755177,0.6843835,995.68353, , , , 
2025-09-28 19:49:46.225,0.31585258,4.668397,9.406186,-0.09506583,0.14271328,0.04612029,25.800001,-28.218752,-34.275,0.18527009,0.16804771,0.68572575,995.68353, , , , 
2025-09-28 19:49:46.245,0.2847459,4.692325,9.52822,0.005726857,0.014431681,-0.030237807,24.750002,-27.825,-36.80625,0.18368523,0.16761,0.68631727,995.6806, , , , 
2025-09-28 19:49:46.265,0.16510476,4.991428,8.537591,0.12301289,-0.17188208,-0.054061532,26.212502,-28.425001,-35.081253,0.18432553,0.1674055,0.6858135,995.6806, , , , 
2025-09-28 19:49:46.285,0.29910284,4.8885365,8.410771,0.008781182,-0.11018474,-0.028405212,25.35,-28.3875,-35.1375,0.18620525,0.16726662,0.6849975,995.68524, , , , 
2025-09-28 19:49:46.305,0.27517462,4.981857,8.82473,-0.074907295,-0.0692568,-0.0033597562,26.643751,-28.500002,-35.568752,0.18666025,0.16681124,0.6847369,995.68524, , , , 
2025-09-28 19:49:46.325,0.36131623,4.8287163,9.104691,-0.021151192,-0.17127122,-0.0033597562,25.0125,-27.056252,-34.256252,0.18690622,0.1657375,0.68463814,995.6845, , , , 
2025-09-28 19:49:46.345,0.4235296,4.74736,8.659625,0.055206906,-0.1749364,-0.014355322,25.556252,-29.60625,-36.6375,0.18805897,0.16438664,0.6843139,995.6845, , , , 
2025-09-28 19:49:46.365,0.38763726,4.8358946,8.30788,0.060093824,-0.1004109,-0.018631376,24.6375,-29.081251,-36.5625,0.1899566,0.16358484,0.68370163,995.6816, , , , 
2025-09-28 19:49:46.385,0.32063824,4.8119664,8.2456665,-0.05780308,0.05169443,-0.009468404,25.218752,-28.275002,-34.96875,0.1906063,0.16379192,0.68344545,995.6816, , , , 
2025-09-28 19:49:46.405,0.3062813,4.7856455,8.724232,-0.11094832,0.0730747,-0.0033597562,25.48125,-27.750002,-35.193752,0.18961246,0.16382833,0.68365306,995.66864, , , , 
2025-09-28 19:49:46.425,0.29671,4.8191447,8.76491,-0.09445497,0.010155627,0.0015271619,26.962502,-28.462502,-36.393753,0.18876967,0.16356666,0.68383616,995.66864, , , , 
2025-09-28 19:49:46.445,0.37328035,4.7712884,8.733803,-0.08040508,0.008323032,0.01802051,25.237501,-27.750002,-38.71875,0.1879093,0.16282919,0.68405306,995.6545, , , , 
2025-09-28 19:49:46.466,0.3684947,4.6492543,8.293523,-0.10361794,0.10789399,0.022907428,24.806252,-27.562502,-36.525,0.1872598,0.16243638,0.6843702,995.6545, , , , 
2025-09-28 19:49:46.485,0.3589234,4.6875396,8.551949,-0.19341506,0.26977316,0.025961753,23.8875,-27.54375,-34.425003,0.1854696,0.16266872,0.68503237,995.6491, , , , 
2025-09-28 19:49:46.505,0.3804588,4.6755753,9.037691,-0.17631085,0.26794055,0.010079269,25.218752,-27.525002,-35.175003,0.18166597,0.16306446,0.68626344,995.6491, , , , 
2025-09-28 19:49:46.525,0.13399807,4.694718,8.874979,-0.12194388,0.1720348,0.0027488915,23.868752,-27.562502,-33.3375,0.1790974,0.16341156,0.6869615,995.6447, , , , 
2025-09-28 19:49:46.545,0.20578274,4.718646,8.827123,-0.082848534,0.10117448,0.018631376,23.5125,-27.112501,-32.4,0.17744862,0.16366014,0.68738836,995.6447, , , , 
2025-09-28 19:49:46.565,0.2440679,4.6229334,8.709874,-0.06330086,0.073685564,0.019853106,23.456251,-27.468752,-33.91875,0.1765416,0.16371612,0.6878123,995.634, , , , 
2025-09-28 19:49:46.585,0.1268196,4.6085763,8.551949,-0.065744326,0.09445497,0.040011644,22.59375,-28.06875,-32.7,0.17569992,0.16376431,0.68819535,995.634, , , , 
2025-09-28 19:49:46.607,0.23449662,4.709075,8.46102,-0.09873102,0.1995237,0.09071342,24.35625,-26.531252,-32.5125,0.17424914,0.16438845,0.6890534,995.6359, , , , 
2025-09-28 19:49:46.626,0.16749759,4.658826,8.920443,-0.11339177,0.19402592,0.107817635,22.275002,-27.35625,-32.100002,0.17303811,0.16488273,0.689893,995.6359, , , , 
2025-09-28 19:49:46.646,0.062213387,4.5128636,9.052048,-0.11217005,0.16165009,0.10720677,22.63125,-27.825,-31.95,0.17085385,0.1650567,0.69135594,995.64276, , , , 
2025-09-28 19:49:46.665,0.0741775,4.505685,9.150154,-0.09689843,0.20990841,0.11148282,23.75625,-25.95,-33.5625,0.16933861,0.1652029,0.6922733,995.64276, , , , 
2025-09-28 19:49:46.686,0.05742774,4.4745784,9.38465,0.009392046,0.118889555,0.088269964,23.2875,-26.643751,-30.69375,0.16710564,0.16562985,0.6937536,995.6611, , , , 
2025-09-28 19:49:46.707,-0.033499517,4.551149,9.068798,0.115071654,-0.0045051277,0.065667965,24.281252,-25.5375,-33.1875,0.1666905,0.16601038,0.69442517,995.6611, , , , 
2025-09-28 19:49:46.727,-0.069391854,4.6205406,8.63809,0.10835214,-0.024663666,0.06627883,24.712502,-27.093752,-34.21875,0.16748595,0.16668577,0.6946175,995.67474, , , , 
2025-09-28 19:49:46.747,0.10767702,4.601398,8.657232,0.057650365,0.019929463,0.06444623,23.0625,-27.7875,-31.3875,0.16853525,0.16746221,0.6948699,995.67474, , , , 
2025-09-28 19:49:46.767,0.059820566,4.558327,8.506484,-0.015042545,0.15187626,0.058337588,23.4375,-28.125002,-31.087502,0.16844098,0.16809985,0.69534206,995.68475, , , , 
2025-09-28 19:49:46.787,0.09810573,4.5798626,8.980264,-0.048029244,0.13965896,0.04734202,24.656252,-26.493752,-32.23125,0.1675855,0.16875187,0.69585,995.68475, , , , 
2025-09-28 19:49:46.807,0.07178468,4.5535417,8.784052,0.0014508038,0.09262237,0.03084867,23.1375,-27.525002,-32.79375,0.16630454,0.16915524,0.69657034,995.6916, , , , 
2025-09-28 19:49:46.827,0.06460621,4.601398,8.525627,0.006948587,0.08773545,0.025961753,24.487501,-27.375002,-33.2625,0.16586418,0.16975491,0.6968981,995.6916, , , , 
2025-09-28 19:49:46.845,0.04546363,4.613362,8.580662,0.0014508038,0.08956805,0.025961753,24.768751,-26.1,-33.65625,0.16557193,0.17037345,0.6971556,995.6977, , , , 
2025-09-28 19:49:46.865,0.050249275,4.666004,8.5423765,-0.055970486,0.11950042,0.024740024,24.50625,-26.625002,-33.91875,0.16509108,0.1710274,0.697477,995.6977, , , , 
2025-09-28 19:49:46.887,-0.0526421,4.6229334,8.779266,-0.07002038,0.099341884,0.015577052,23.737501,-26.718752,-32.287502,0.16390187,0.17152858,0.69797534,995.6999, , , , 
2025-09-28 19:49:46.907,0.3589234,4.615755,8.999406,-0.0058795735,0.00160352,-0.0051923506,25.743752,-26.775002,-30.337502,0.16330166,0.17164543,0.69820005,995.6999, , , , 
2025-09-28 19:49:46.927,0.3493521,4.7784667,8.719446,0.049709123,-0.060704686,-0.040622506,24.13125,-27.656252,-32.8875,0.16416569,0.17150281,0.6980253,995.7048, , , , 
2025-09-28 19:49:46.947,-0.22731815,4.651647,8.336594,-0.010155627,-0.008170316,-0.00641408,23.925001,-27.206251,-31.650002,0.16486475,0.1716602,0.69766986,995.7048, , , , 
2025-09-28 19:49:46.966,-0.14117654,4.634897,8.209774,-0.04497492,-0.0020616686,-0.07910699,23.8875,-28.81875,-31.725,0.16478157,0.17146175,0.69760716,995.71674, , , , 
2025-09-28 19:49:46.987,-0.5192425,4.208975,8.322237,-0.118889555,0.0034361144,-0.019853106,24.45,-26.8875,-32.8125,0.16418318,0.17137253,0.6972739,995.71674, , , , 
2025-09-28 19:49:47.006,-0.2440679,4.1778684,8.745767,-0.087124586,-0.069867656,0.017409647,24.581251,-27.73125,-33.862503,0.16289067,0.17078699,0.69735116,995.7248, , , , 
2025-09-28 19:49:47.027,-0.31106696,4.278367,8.537591,-0.06391173,-0.10346522,0.05222894,23.643751,-27.225,-32.71875,0.16240074,0.16942817,0.69757915,995.7248, , , , 
2025-09-28 19:49:47.047,0.0071784677,4.342973,8.666803,-0.09750929,-0.044822205,0.05222894,25.650002,-27.393751,-32.1375,0.16234046,0.16835636,0.6979065,995.7316, , , , 
2025-09-28 19:49:47.067,-0.043070808,4.4745784,8.941978,-0.13171771,0.090178914,0.028405212,25.44375,-27.54375,-30.88125,0.16132055,0.16761282,0.69844574,995.7316, , , , 
2025-09-28 19:49:47.087,-0.3493521,4.453043,9.140582,-0.11155918,0.102396205,0.041233372,25.706251,-25.650002,-31.931252,0.1596403,0.16742164,0.69898975,995.7397,37.88835646,127.73985322,142.814208984375,0.0
2025-09-28 19:49:47.107,-0.1268196,4.4602213,9.226724,-0.07002038,0.065744326,0.07116575,26.38125,-25.931252,-32.756252,0.15805948,0.1673779,0.6996259,995.7397, , , , 
2025-09-28 19:49:47.126,-0.124426775,4.486542,9.090333,-0.05413789,0.06024654,0.08155045,26.118752,-26.475,-31.462502,0.15710565,0.16719742,0.70033205,995.737, , , , 
2025-09-28 19:49:47.147,0.043070808,4.476971,8.989835,-0.04741838,0.031535894,0.07299834,26.94375,-26.025002,-31.275002,0.15645255,0.1670414,0.7010381,995.737, , , , 
2025-09-28 19:49:47.167,-0.083748795,4.438686,8.7577305,-0.052305296,0.026648976,0.06017018,27.056252,-26.8875,-31.237501,0.15612648,0.1666706,0.70174164,995.73895, , , , 
2025-09-28 19:49:47.187,-0.033499517,4.462614,8.7266245,-0.081015944,0.021762058,0.062002774,27.862501,-27.281252,-32.23125,0.15583701,0.16651778,0.7021204,995.73895, , , , 
2025-09-28 19:49:47.207,-0.09571291,4.4243293,9.006584,-0.08773545,0.020540329,0.062613636,26.906252,-27.750002,-33.3375,0.15523353,0.16595365,0.70279545,995.7292, , , , 
2025-09-28 19:49:47.227,-0.040677983,4.3118663,9.042477,-0.046807513,-0.014889829,0.07971785,27.243752,-28.331251,-33.6375,0.15470825,0.16540067,0.7033944,995.7292, , , , 
2025-09-28 19:49:47.247,0.11485548,4.319045,8.968299,-0.025427246,-0.03565923,0.083383046,28.66875,-26.962502,-32.325,0.15472858,0.16465813,0.7039848,995.71674, , , , 
2025-09-28 19:49:47.267,0.22013968,4.3669014,9.006584,-0.026648976,-8.3993905E-4,0.05589413,26.00625,-26.98125,-31.425001,0.15505186,0.16388386,0.704548,995.71674, , , , 
2025-09-28 19:49:47.287,0.1268196,4.4602213,8.7673025,-0.03886627,0.016264275,0.041844238,27.468752,-27.825,-32.456253,0.15509483,0.1635156,0.7049874,995.71356, , , , 
2025-09-28 19:49:47.307,0.1698904,4.4410787,8.853444,-0.060857404,-0.008781182,0.021685699,27.69375,-25.95,-31.66875,0.15516457,0.16321434,0.7052747,995.71356, , , , 
2025-09-28 19:49:47.326,0.29910284,4.398008,9.0951185,-0.074907295,0.0034361144,-0.009468404,26.94375,-27.50625,-31.95,0.15509553,0.16243617,0.7055184,995.7021, , , , 
2025-09-28 19:49:47.345,0.20817557,4.314259,9.233903,-0.06940951,0.013209951,-0.030237807,26.493752,-27.675001,-33.45,0.15490867,0.1618372,0.70558155,995.7021, , , , 
2025-09-28 19:49:47.365,0.019142581,4.2017965,9.365508,-0.03825541,0.0064904382,-0.019853106,25.368752,-29.531252,-32.90625,0.15426277,0.16099425,0.7055804,995.6984, , , , 
2025-09-28 19:49:47.385,0.14117654,4.314259,9.221938,0.014278964,-0.016111558,-0.008857539,26.79375,-28.368752,-34.050003,0.15391828,0.16057931,0.705642,995.6984, , , , 
2025-09-28 19:49:47.405,-0.011964113,4.398008,8.748159,0.022831071,-0.046654798,-0.010690134,27.187502,-27.112501,-32.775,0.15433723,0.16044234,0.7055119,995.69867, , , , 
2025-09-28 19:49:47.425,0.021535404,4.369294,8.729017,-0.037644543,-0.04176788,-9.162972E-4,28.125002,-27.50625,-32.850002,0.15487121,0.16041581,0.70531154,995.69867, , , , 
2025-09-28 19:49:47.445,0.09810573,4.328616,9.202796,-0.044364054,-0.0112246405,0.0021380268,26.550001,-28.143751,-34.050003,0.1548887,0.16001368,0.70531046,995.6899, , , , 
2025-09-28 19:49:47.465,-0.009571291,4.3262234,9.30808,0.021609342,-0.03199404,0.009468404,27.018751,-27.862501,-32.71875,0.15475518,0.15954517,0.70539284,995.6899, , , , 
2025-09-28 19:49:47.485,-0.011964113,4.3764725,8.85823,0.04848739,-0.050319985,0.024129158,28.125002,-27.50625,-33.318752,0.15525915,0.15948601,0.70538384,995.68964, , , , 
2025-09-28 19:49:47.506,0.16271193,4.3501515,8.662018,0.0014508038,-0.020998476,0.021685699,26.118752,-28.706251,-32.41875,0.15590781,0.1595852,0.7053802,995.68964, , , , 
2025-09-28 19:49:47.525,0.18185452,4.321438,8.973084,-0.020540329,-0.019776747,-0.0070249448,26.062502,-26.94375,-34.6875,0.15622489,0.15935484,0.705438,995.686, , , , 
2025-09-28 19:49:47.545,-0.10767702,4.2759743,9.0233345,0.0051159924,-0.008781182,0.0027488915,27.4125,-28.2,-33.206253,0.15631875,0.15905651,0.7053848,995.686, , , , 
2025-09-28 19:49:47.565,-0.13399807,4.2927237,8.961121,0.016722424,-0.0240528,0.035124727,27.243752,-28.331251,-34.10625,0.15614738,0.15919644,0.7054301,995.6777, , , , 
2025-09-28 19:49:47.586,0.14596218,4.2855453,8.860622,0.034437504,-0.068035066,0.032681264,27.862501,-26.775002,-34.256252,0.1564855,0.15911144,0.705552,995.6777, , , , 
2025-09-28 19:49:47.605,0.07178468,4.316652,8.585447,0.010613776,-0.053985175,0.016187917,26.1375,-29.437502,-34.0875,0.15726873,0.15882394,0.7055821,995.67084, , , , 
2025-09-28 19:49:47.625,0.050249275,4.354937,8.740981,-0.023594651,-0.052763447,0.024740024,27.525002,-27.7875,-35.4,0.15782107,0.1585779,0.7055956,995.67084, , , , 
2025-09-28 19:49:47.645,0.2009971,4.3908296,8.819944,-0.013209951,-0.075976305,0.02535089,27.056252,-27.843752,-34.575,0.15823065,0.1581591,0.7056677,995.67255, , , , 
2025-09-28 19:49:47.665,0.22013968,4.3357944,8.635697,-0.033979353,-0.069867656,0.0033597562,27.581251,-28.050001,-33.693752,0.15893026,0.15754005,0.7056657,995.67255, , , , 
2025-09-28 19:49:47.687,0.2009971,4.237689,8.9013,-0.058413945,-0.049098257,0.008857539,25.575,-27.88125,-33.487503,0.15919122,0.1568347,0.70565754,995.6645, , , , 
2025-09-28 19:49:47.705,0.2416751,4.2448673,8.860622,-0.023594651,-0.0655916,0.010690134,27.0375,-27.862501,-33.487503,0.15922755,0.15601918,0.70576245,995.6645, , , , 
2025-09-28 19:49:47.725,0.25124636,4.3070807,8.422736,-0.0028252497,-0.16760603,0.0058032153,26.681252,-27.525002,-34.0875,0.15994178,0.15520345,0.7057194,995.6623, , , , 
2025-09-28 19:49:47.747,0.33499518,4.328616,7.944171,-0.020540329,-0.31665704,0.012522728,27.225,-28.331251,-33.3375,0.1617353,0.15400542,0.70538294,995.6623, , , , 
2025-09-28 19:49:47.765,0.7609176,4.206582,7.6139617,-0.06024654,-0.50480336,0.022296565,25.518751,-28.25625,-35.006252,0.16576914,0.15088673,0.70468724,995.6574, , , , 
2025-09-28 19:49:47.786,1.1509477,4.0390844,7.2287173,-0.04253146,-0.78824466,0.041233372,26.306252,-28.781252,-35.53125,0.17075376,0.14629802,0.70398563,995.6574, , , , 
2025-09-28 19:49:47.805,1.0935199,3.7160535,6.017949,0.022831071,-1.2726604,0.088269964,25.66875,-28.35,-36.5625,0.17895141,0.13939886,0.7027025,995.6408, , , , 
2025-09-28 19:49:47.825,0.4426722,3.4049866,3.9314077,0.016111558,-1.974544,0.25809038,24.093752,-28.143751,-36.09375,0.19078961,0.1293798,0.7007655,995.6408, , , , 
2025-09-28 19:49:47.845,0.44506502,2.713461,2.754139,-0.07979421,-3.0789876,0.5910117,22.2,-28.95,-37.237503,0.20735276,0.1132155,0.6986388,995.611, , , , 
2025-09-28 19:49:47.866,1.308874,2.1463618,2.3114667,-0.03581195,-4.152277,0.8164208,20.19375,-29.5125,-38.23125,0.23076059,0.089241795,0.69577354,995.611, , , , 
2025-09-28 19:49:47.885,2.3545375,1.3304094,1.6031911,-0.015042545,-5.113778,1.0027345,16.78125,-27.73125,-41.081253,0.26139623,0.058057226,0.6908541,995.57806, , , , 
2025-09-28 19:49:47.906,3.9720855,0.7609176,2.251646,0.006948587,-5.8486485,1.0442734,8.775001,-30.300001,-39.768753,0.30753994,0.009839892,0.6802575,995.57806, , , , 
2025-09-28 19:49:47.925,4.9292145,0.1698904,0.6149554,-0.41088292,-5.163258,1.2214241,6.3562503,-28.781252,-42.84375,0.3439682,-0.031219823,0.6695772,995.54315, , , , 
2025-09-28 19:49:47.946,4.9268217,-0.41635114,1.1629118,-1.1194861,-4.1534986,1.4840959,-0.46875003,-28.48125,-42.91875,0.36922747,-0.070950136,0.6614553,995.54315, , , , 
2025-09-28 19:49:47.965,4.354937,-1.3830515,2.8426733,-1.4010947,-4.268341,1.8878776,-4.4625,-26.400002,-42.318752,0.3858634,-0.11126115,0.65571713,995.5163, , , , 
2025-09-28 19:49:47.985,5.1924253,-2.0697916,3.4528432,-1.197066,-4.9250207,2.2183554,-7.2937503,-25.95,-42.65625,0.40319487,-0.15565604,0.64938885,995.5163, , , , 
2025-09-28 19:49:48.007,7.5230346,-2.7278178,1.7491534,-1.0638974,-5.091176,2.5427246,-12.525001,-24.375002,-42.975002,0.42395306,-0.20320489,0.6415419,995.5173, , , , 
2025-09-28 19:49:48.027,8.860622,-3.2733815,1.0025927,-1.3015238,-4.6825075,2.653902,-21.50625,-21.5625,-41.568752,0.44234228,-0.2507639,0.63334453,995.5173, , , , 
2025-09-28 19:49:48.045,7.9968133,-4.0295134,1.672583,-1.4298054,-4.4436593,2.8188355,-23.75625,-20.6625,-39.506252,0.458077,-0.30868095,0.62276185,995.5019, , , , 
2025-09-28 19:49:48.065,7.8221374,-5.1086764,1.8975084,-1.3167953,-4.6244755,3.1945174,-31.875002,-16.81875,-37.987503,0.46795666,-0.35503438,0.6138893,995.5019, , , , 
2025-09-28 19:49:48.086,10.382458,-5.6303115,1.7467605,-1.1762965,-4.355695,3.5488188,-35.662502,-12.750001,-33.80625,0.4754273,-0.4012428,0.6058871,995.4941,37.88835646,127.73985322,142.814208984375,0.0
2025-09-28 19:49:48.105,10.930414,-6.087341,1.0935199,-1.0962732,-3.628155,3.5805838,-41.456253,-9.7875,-28.425001,0.47896105,-0.44420588,0.59924376,995.4941, , , , 
2025-09-28 19:49:48.125,11.12184,-6.74776,0.5024927,-1.1390338,-2.810818,3.630064,-41.8125,-7.8375,-27.093752,0.47699043,-0.4825412,0.59465516,995.49994, , , , 
2025-09-28 19:49:48.145,10.616954,-7.8173513,-0.011964113,-1.2929716,-2.1455863,3.7626216,-40.987503,-1.66875,-27.69375,0.46853375,-0.5170561,0.59244025,995.49994, , , , 
2025-09-28 19:49:48.166,10.805987,-8.597412,0.9451649,-1.3974296,-1.5762602,3.9574876,-43.48125,0.056250002,-24.6,0.45374832,-0.54970145,0.5919362,995.4941, , , , 
2025-09-28 19:49:48.185,11.904293,-9.150154,1.4811572,-1.2911391,-1.2677735,4.0240717,-42.862503,4.70625,-22.7625,0.4296106,-0.58726895,0.5932182,995.4941, , , , 
2025-09-28 19:49:48.205,12.107682,-9.619147,1.5529419,-1.1133775,-1.0203732,3.9306095,-43.125,8.418751,-24.0375,0.4085548,-0.6138857,0.595063,995.4943, , , , 
2025-09-28 19:49:48.226,12.29193,-9.942178,1.2897314,-0.920955,-0.7350994,3.8047712,-44.1375,12.0375,-24.13125,0.38656315,-0.63713574,0.59767497,995.4943, , , , 
2025-09-28 19:49:48.245,11.542976,-10.236495,0.8327023,-0.76640624,-0.60559607,3.6691594,-42.881252,16.893751,-22.987501,0.36420128,-0.6571324,0.60084546,995.4924, , , , 
2025-09-28 19:49:48.265,10.918449,-10.595419,0.11246266,-0.6662244,-0.6257546,3.6147923,-43.237503,18.825,-21.675001,0.3421301,-0.67490023,0.60395813,995.4924, , , , 
2025-09-28 19:49:48.285,11.006984,-10.789237,-0.2440679,-0.6283508,-0.58360493,3.5732536,-41.5125,23.118752,-21.487501,0.32024342,-0.6913352,0.606454,995.5024, , , , 
2025-09-28 19:49:48.305,11.274981,-10.978271,-0.16031912,-0.58742285,-0.520075,3.484678,-39.300003,25.44375,-20.625,0.29823908,-0.7063286,0.608412,995.5024, , , , 
2025-09-28 19:49:48.325,11.526227,-11.021341,0.011964113,-0.4719694,-0.44432777,3.3289077,-38.081253,28.556252,-19.987501,0.27654162,-0.719538,0.6100818,995.5014, , , , 
2025-09-28 19:49:48.345,11.8588295,-11.109876,-0.53599226,-0.3919461,-0.29894194,3.1034985,-35.831253,29.6625,-19.518751,0.25561586,-0.73058283,0.6118193,995.5014, , , , 
2025-09-28 19:49:48.366,12.081362,-10.466207,-1.0767702,-0.47319114,-0.033215772,2.7693555,-34.987503,33.09375,-19.03125,0.230541,-0.7420188,0.61335593,995.5048, , , , 
2025-09-28 19:49:48.386,11.818151,-9.695718,-0.5766702,-0.57154036,0.27160576,2.4156647,-32.475002,33.225002,-18.69375,0.21116118,-0.7499923,0.61338997,995.5048, , , , 
2025-09-28 19:49:48.405,10.705488,-9.032906,-0.0526421,-0.5831468,0.6124683,2.0515893,-31.331251,33.84375,-18.525002,0.19233133,-0.756735,0.6129327,995.5041, , , , 
2025-09-28 19:49:48.425,9.803394,-8.544769,0.32063824,-0.52450377,0.86109024,1.7895284,-28.931252,36.956253,-18.956251,0.17390138,-0.76215297,0.61254954,995.5041, , , , 
2025-09-28 19:49:48.445,8.944371,-8.298309,0.44745782,-0.383394,0.9356158,1.5793909,-26.94375,37.29375,-20.41875,0.1560879,-0.76613075,0.61267704,995.5009, , , , 
2025-09-28 19:49:48.465,8.666803,-8.051848,0.031106694,-0.23373213,0.81283194,1.4248421,-25.66875,36.9375,-22.3875,0.13969037,-0.76869065,0.61355627,995.5009, , , , 
2025-09-28 19:49:48.485,8.925228,-7.8029947,-0.10049855,-0.12805253,0.622853,1.2495239,-22.7625,39.09375,-20.8125,0.12565833,-0.77028006,0.6148062,995.5009, , , , 
2025-09-28 19:49:48.505,8.779266,-7.5637126,-0.2943172,0.03810269,0.38461575,1.010065,-22.837502,39.45,-20.6625,0.114708774,-0.7709552,0.61638975,995.5009, , , , 
2025-09-28 19:49:48.525,8.812766,-7.4536424,-0.6436693,0.13400847,0.19036074,0.82252944,-20.475,40.0875,-23.268751,0.10667348,-0.77078897,0.6184182,995.50165, , , , 
2025-09-28 19:49:48.545,9.133404,-7.245467,-0.701097,0.17432554,0.0816268,0.64415693,-20.8875,39.768753,-19.96875,0.101199575,-0.7701507,0.6205337,995.50165, , , , 
2025-09-28 19:49:48.565,9.442079,-7.0372915,-0.51445687,0.267177,-0.0796415,0.32833982,-21.975,38.68125,-20.71875,0.09797938,-0.7687193,0.6231993,995.50336, , , , 
2025-09-28 19:49:48.585,9.501899,-6.908079,-0.61016977,0.34536767,-0.17066035,0.101708986,-19.181252,39.975002,-23.400002,0.09815771,-0.7673806,0.6249705,995.50336, , , , 
2025-09-28 19:49:48.605,9.202796,-6.745367,-0.85902333,0.40828675,-0.23296855,-0.19700389,-20.0625,39.99375,-22.3875,0.10154457,-0.76439714,0.628142,995.49457, , , , 
2025-09-28 19:49:48.625,8.635697,-6.3744793,-0.5383851,0.4351648,-0.24640758,-0.33017242,-21.487501,38.850002,-21.54375,0.10629022,-0.7615758,0.6306622,995.49457, , , , 
2025-09-28 19:49:48.645,9.176475,-6.381658,-1.0313065,0.4803688,-0.3013854,-0.44501498,-21.112501,38.41875,-23.41875,0.11047621,-0.75912434,0.6327505,995.49457, , , , 
2025-09-28 19:49:48.665,9.068798,-6.056234,-0.6580262,0.46021026,-0.35391977,-0.6356048,-20.53125,39.825,-22.48125,0.121386796,-0.75412077,0.63627386,995.49725, , , , 
2025-09-28 19:49:48.685,9.468399,-6.3768725,-0.47856453,0.5408444,-0.5157989,-0.78709924,-19.331251,39.09375,-24.73125,0.12816706,-0.75134987,0.63795894,995.5053, , , , 
2025-09-28 19:49:48.705,9.647861,-6.9320073,-0.59342,0.6269763,-0.65446526,-0.9043853,-23.325,37.55625,-23.1375,0.13641384,-0.74813765,0.6398038,995.5053, , , , 
2025-09-28 19:49:48.725,9.68136,-7.585248,-1.2634103,0.65385437,-0.9232457,-1.0344995,-24.45,37.18125,-22.21875,0.15644453,-0.74073654,0.6435912,995.5114, , , , 
2025-09-28 19:49:48.745,10.573883,-8.413164,-1.4835501,0.57322025,-1.0417535,-1.1646137,-23.7,38.53125,-24.843752,0.16796301,-0.73714185,0.64481866,995.5114, , , , 
2025-09-28 19:49:48.765,10.971092,-9.174082,-1.6749759,0.37835437,-0.9739475,-1.4126248,-25.500002,35.362503,-24.937502,0.18921584,-0.7315254,0.6451706,995.52435, , , , 
2025-09-28 19:49:48.785,11.078769,-8.977871,-1.5457634,0.16943862,-0.6257546,-1.5494585,-26.04375,35.550003,-25.2,0.20612301,-0.72748387,0.6439072,995.52435, , , , 
2025-09-28 19:49:48.805,11.327622,-8.56152,-0.09810573,-0.064522594,-0.03810269,-1.7870849,-29.831251,33.037502,-22.35,0.2245522,-0.72290957,0.6407967,995.53925, , , , 
2025-09-28 19:49:48.825,11.267802,-8.484949,0.8422736,0.0020616686,0.28137958,-1.963014,-30.525002,33.206253,-21.975,0.23428723,-0.7195454,0.6390154,995.53925, , , , 
2025-09-28 19:49:48.845,11.047662,-8.30788,1.0959128,0.27817255,0.43287405,-2.206749,-30.2625,33.73125,-22.96875,0.25025204,-0.7112456,0.6376172,995.56146, , , , 
2025-09-28 19:49:48.865,10.846665,-8.535198,0.31585258,0.48464483,0.3192532,-2.4388776,-30.73125,32.081253,-23.737501,0.26467338,-0.7018873,0.63774824,995.56146, , , , 
2025-09-28 19:49:48.885,10.358529,-8.721839,-0.23449662,0.565279,0.22334744,-2.5970917,-33.75,30.375002,-20.7,0.277003,-0.69384265,0.6377623,995.5903, , , , 
2025-09-28 19:49:48.905,10.1599245,-8.908479,-0.4761717,0.5463422,0.067576915,-2.7565274,-33.2625,30.31875,-24.150002,0.29936773,-0.6795159,0.6367457,995.5903, , , , 
2025-09-28 19:49:48.925,9.939785,-9.257831,-0.6843473,0.57505286,-0.006948587,-2.884809,-36.506252,24.0,-20.831251,0.31860566,-0.66746044,0.6347063,995.60443, , , , 
2025-09-28 19:49:48.945,9.556933,-9.403793,-1.3926228,0.5432879,-0.022831071,-2.915352,-37.95,21.862501,-21.9375,0.33349466,-0.65793383,0.6326804,995.60443, , , , 
2025-09-28 19:49:48.965,9.336794,-8.7984085,-1.6701902,0.26229006,-0.013668099,-2.9220717,-41.475002,20.268751,-22.725,0.36254275,-0.6395146,0.62619424,995.6186, , , , 
2025-09-28 19:49:48.985,9.58804,-8.52802,-0.7609176,0.1523344,-0.060093824,-2.952615,-42.45,15.543751,-20.962502,0.37644163,-0.63092434,0.6214386,995.6186, , , , 
2025-09-28 19:49:49.005,9.848858,-8.365308,0.076570325,0.28733552,-0.037491824,-3.0912812,-42.600002,13.200001,-23.587502,0.39982086,-0.6157058,0.6126369,995.63324, , , , 
2025-09-28 19:49:49.025,8.549556,-8.453842,-0.6197411,0.32643086,0.03459022,-3.0705118,-43.818752,10.3125,-20.831251,0.4185217,-0.60178787,0.605802,995.63324, , , , 
2025-09-28 19:49:49.045,7.609176,-8.195417,-0.8542377,0.26656613,0.041920595,-2.9239042,-43.537502,7.1250005,-22.66875,0.4317391,-0.5912846,0.6006079,995.6569, , , , 
2025-09-28 19:49:49.065,7.487142,-7.4823565,-0.82313097,0.1749364,-0.008781182,-2.6325219,-44.04375,4.6875,-21.862501,0.4516197,-0.5750385,0.59161603,995.6569, , , , 
2025-09-28 19:49:49.085,8.30788,-6.8721867,-0.53359944,0.18532111,-0.0674242,-2.56777,-46.3125,3.6000001,-22.181252,0.4661249,-0.5630507,0.58415055,995.6689,37.88836845,127.73984238,143.2431640625,2.05
2025-09-28 19:49:49.105,7.7671022,-6.398408,-0.6891329,0.21342088,-0.19326234,-2.6141958,-45.975002,1.6500001,-22.875,0.4847062,-0.54781556,0.57395005,995.6689, , , , 
2025-09-28 19:49:49.125,6.099305,-6.424729,-1.0983056,0.2115883,-0.2757291,-2.41933,-43.78125,-1.3687501,-23.1,0.49594805,-0.5387137,0.5673947,995.68134, , , , 
2025-09-28 19:49:49.145,5.1182475,-6.391229,-1.6319051,0.14561489,-0.33009607,-2.1694863,-44.831253,-4.4437504,-23.737501,0.5099258,-0.52793616,0.558687,995.68134, , , , 
2025-09-28 19:49:49.165,3.7040894,-6.381658,-2.5339992,-0.13171771,0.044364054,-1.6416991,-45.9375,-4.59375,-20.681252,0.52318984,-0.51748717,0.5489891,995.68304, , , , 
2025-09-28 19:49:49.185,2.510071,-6.355337,-2.7182465,-0.46769336,0.47991064,-1.1896591,-45.24375,-6.4875,-23.8875,0.5268951,-0.5129236,0.5447995,995.68304, , , , 
2025-09-28 19:49:49.205,1.146162,-6.2668023,-1.6007984,-0.8018364,0.77984524,-0.49938196,-44.456253,-7.65,-24.375002,0.5251815,-0.5090486,0.5407688,995.6855, , , , 
2025-09-28 19:49:49.225,0.43788654,-6.017949,-0.21535404,-0.85070556,0.74808025,0.047952887,-44.943752,-7.18125,-24.806252,0.51877576,-0.5094252,0.53981537,995.6855, , , , 
2025-09-28 19:49:49.245,0.050249275,-6.0227346,0.8111669,-0.70348716,0.5593231,0.5433642,-43.331253,-5.8875003,-26.118752,0.51002216,-0.5126047,0.5408966,995.69745, , , , 
2025-09-28 19:49:49.265,-1.3663018,-6.32423,0.038285162,-0.34246606,0.20624322,1.2678498,-44.23125,-5.9812503,-26.025002,0.49815735,-0.5199709,0.54560035,995.69745, , , , 
2025-09-28 19:49:49.285,-2.1248264,-6.276374,-1.442872,-0.33208138,-0.20853396,1.8035783,-44.381252,-5.25,-26.5125,0.4907844,-0.52688473,0.54968405,995.70746, , , , 
2025-09-28 19:49:49.305,-1.835295,-6.8410797,-1.4356936,-0.4004982,-0.4822014,2.215912,-44.0625,-2.86875,-24.825,0.4802045,-0.5403937,0.55480534,995.70746, , , , 
2025-09-28 19:49:49.325,0.9164511,-8.932407,-0.66999036,-0.34857473,-0.60437435,2.8609853,-42.73125,-2.9625,-27.431252,0.46420217,-0.56184757,0.5620144,995.706, , , , 
2025-09-28 19:49:49.345,3.1345978,-9.932607,-0.5455636,-0.18486296,-0.53717923,3.0943356,-42.693752,1.63125,-26.306252,0.45272896,-0.5751837,0.567777,995.706, , , , 
2025-09-28 19:49:49.365,4.4051867,-11.006984,-1.753939,-0.020540329,-0.54023355,3.2354453,-42.09375,3.825,-26.962502,0.43220532,-0.5961602,0.5790728,995.7048, , , , 
2025-09-28 19:49:49.385,4.5918264,-11.648261,-2.536392,-0.06940951,-0.5408444,3.3600616,-42.3375,6.61875,-22.462502,0.41501856,-0.6125066,0.58799064,995.7048, , , , 
2025-09-28 19:49:49.405,5.300102,-12.404392,-3.0987053,-0.30825764,-0.3001637,3.5732536,-43.95,10.931251,-23.00625,0.39045843,-0.63353354,0.59807366,995.6879, , , , 
2025-09-28 19:49:49.425,5.73081,-12.815958,-3.0915267,-0.55443615,-0.008781182,3.725359,-40.725002,13.012501,-24.075,0.3729788,-0.64638156,0.60354364,995.6879, , , , 
2025-09-28 19:49:49.445,6.9535427,-12.753745,-1.8568304,-0.7395282,0.07857248,3.8298168,-40.631252,16.5,-22.893751,0.3464381,-0.66382635,0.6097969,995.6728, , , , 
2025-09-28 19:49:49.465,8.288737,-12.521641,-0.46181476,-0.65217453,-0.022220206,3.738187,-39.075,21.487501,-20.1,0.3120031,-0.68457276,0.61591035,995.6728, , , , 
2025-09-28 19:49:49.485,8.271988,-12.488141,-0.040677983,-0.4896845,-0.060704686,3.628842,-37.537502,23.90625,-21.7875,0.28574443,-0.6987907,0.6202626,995.66205, , , , 
2025-09-28 19:49:49.505,7.884351,-12.581462,-0.27517462,-0.3363574,-0.0655916,3.6325073,-34.893753,29.643751,-22.40625,0.26664665,-0.70789653,0.6236927,995.66205, , , , 
2025-09-28 19:49:49.525,8.166703,-12.569497,-0.96430755,-0.27343833,0.04130973,3.7852237,-34.4625,30.31875,-22.78125,0.23420693,-0.7210779,0.6296376,995.66425, , , , 
2025-09-28 19:49:49.545,9.927821,-12.2584305,-0.98584294,-0.3229184,0.20990841,3.7681193,-28.85625,32.53125,-25.050001,0.19964796,-0.73276556,0.6347086,995.66425, , , , 
2025-09-28 19:49:49.565,10.992627,-12.0023985,-1.1294123,-0.35346162,0.26671883,3.5445428,-28.06875,34.4625,-22.7625,0.17204612,-0.74074054,0.63759553,995.6596, , , , 
2025-09-28 19:49:49.585,11.033305,-11.626725,-1.3830515,-0.44631308,0.27710354,3.2751515,-24.993752,35.04375,-24.525002,0.15256439,-0.74602723,0.63880074,995.6596, , , , 
2025-09-28 19:49:49.605,10.13839,-11.100305,-0.5096712,-0.6753874,0.47502372,3.0216427,-23.8125,37.275,-24.468752,0.12171917,-0.75451124,0.63842165,995.6628, , , , 
2025-09-28 19:49:49.625,9.695718,-10.585847,1.5218352,-0.6161335,0.324751,2.956891,-22.575,38.49375,-21.88125,0.097512595,-0.76099175,0.63661975,995.6628, , , , 
2025-09-28 19:49:49.645,10.047462,-9.702896,2.792424,-0.18608469,-0.11323906,2.942841,-17.550001,40.03125,-24.0375,0.08088232,-0.7644726,0.6360506,995.6696, , , , 
2025-09-28 19:49:49.665,11.988042,-8.891729,0.40917268,0.52618366,-0.5762746,2.8005097,-15.76875,41.79375,-20.925001,0.057974316,-0.76531327,0.6395365,995.6696, , , , 
2025-09-28 19:49:49.685,13.270595,-8.059027,-1.9812572,0.6275872,-0.6343067,2.572046,-13.743751,42.9,-23.681252,0.043545898,-0.7628594,0.6446329,995.6833, , , , 
2025-09-28 19:49:49.705,14.534005,-7.2789664,-3.35713,0.45471248,-0.4956404,2.2262967,-12.450001,43.631252,-21.993752,0.034348473,-0.7609248,0.6478296,995.6833, , , , 
2025-09-28 19:49:49.725,15.603597,-6.74776,-2.9982069,0.032604907,-0.15050182,1.4785982,-11.043751,41.925003,-22.518751,-0.019942595,0.75950456,-0.6501641,995.67035, , , , 
2025-09-28 19:49:49.745,15.476777,-7.4775705,-2.0673988,-0.12011129,0.004657844,0.9972367,-9.58125,42.581253,-22.85625,-0.015061575,0.7600091,-0.64964926,995.67035, , , , 
2025-09-28 19:49:49.765,16.711473,-9.315259,-1.2370893,-0.03886627,0.021151192,0.44073895,-7.4625,43.65,-22.518751,-0.0105758235,0.7610655,-0.6484622,995.6711, , , , 
2025-09-28 19:49:49.785,18.501305,-10.392029,-1.6749759,0.03810269,-0.060704686,-0.05650499,-8.043751,42.35625,-21.618752,-0.011338629,0.7610537,-0.64849377,995.6711, , , , 
2025-09-28 19:49:49.805,19.4369,-10.449456,-2.0027926,-0.09689843,0.07979421,-1.0619885,-7.3875003,44.15625,-21.487501,-0.019837888,0.76090676,-0.6485512,995.67377, , , , 
2025-09-28 19:49:49.825,17.568104,-9.643075,-0.9403793,-0.26244277,0.42004588,-1.8481714,-10.668751,44.456253,-22.5375,0.028566899,-0.7613667,0.6476509,995.67377, , , , 
2025-09-28 19:49:49.845,14.139189,-9.430114,0.7369894,-0.20868668,0.63568115,-2.4950771,-11.175,43.518753,-21.0375,0.04324849,-0.76188046,0.6456872,995.68256, , , , 
2025-09-28 19:49:49.865,9.712467,-9.595219,1.0695918,0.34048074,0.3766745,-2.9098544,-10.931251,42.956253,-25.368752,0.066008225,-0.7589512,0.645295,995.68256, , , , 
2025-09-28 19:49:49.885,8.642876,-9.887143,-0.33020952,0.71494085,-0.042989608,-2.9495606,-14.775001,40.912502,-21.13125,0.08205431,-0.75457984,0.6469893,995.6965, , , , 
2025-09-28 19:49:49.905,9.164511,-10.258031,-1.5672989,0.84933114,-0.4058433,-2.992932,-15.95625,40.575,-24.843752,0.10632605,-0.74686545,0.650174,995.6965, , , , 
2025-09-28 19:49:49.925,11.49512,-12.256038,-2.3282163,0.7100539,-0.97516924,-3.3478444,-19.5,39.7125,-25.050001,0.14211026,-0.7364367,0.6524085,995.69086, , , , 
2025-09-28 19:49:49.945,12.131611,-13.167703,-2.4646072,0.49197522,-1.0332015,-3.603186,-24.937502,37.518753,-23.8875,0.16620447,-0.7302202,0.65178543,995.69086, , , , 
2025-09-28 19:49:49.965,11.952149,-14.02194,-0.5886344,-0.03459022,-0.75098187,-4.0937104,-26.175001,37.78125,-25.1625,0.21687187,-0.7186876,0.64427006,995.66547, , , , 
2025-09-28 19:49:49.988,11.787045,-14.562718,0.9810573,-0.11522437,-0.44799295,-4.2916307,-29.081251,34.36875,-24.206251,0.24156885,-0.7124687,0.63834053,995.66547, , , , 
2025-09-28 19:49:50.005,11.480763,-15.058033,2.1463618,0.050319985,-0.12056944,-4.6123347,-32.081253,31.2,-23.7,0.28115624,-0.69864,0.62830275,995.6569, , , , 
2025-09-28 19:49:50.025,10.459028,-15.388243,1.9764715,0.26778784,-0.08086322,-4.805979,-35.193752,29.737501,-21.75,0.31294325,-0.68386495,0.6204238,995.6569, , , , 
2025-09-28 19:49:50.045,9.657433,-15.108282,1.3256238,0.40828675,-0.154167,-4.875617,-39.075,25.10625,-20.456251,0.3369898,-0.67092645,0.6144216,995.66693, , , , 
2025-09-28 19:49:50.065,9.245867,-14.562718,1.0408778,0.48097965,-0.4107302,-5.045438,-39.506252,19.85625,-22.893751,0.3781099,-0.64718777,0.6026958,995.66693, , , , 
2025-09-28 19:49:50.085,8.19781,-14.378471,0.42592242,0.4767036,-0.55428344,-5.140733,-40.36875,16.5,-20.306252,0.41223127,-0.62646395,0.5909623,995.6628,37.88837228,127.73982873,142.6898193359375,1.56
2025-09-28 19:49:50.105,5.855237,-14.282759,-0.40917268,0.31482443,-0.407065,-5.0417724,-42.375,11.700001,-19.81875,0.44556218,-0.60489506,0.5772377,995.6628, , , , 
2025-09-28 19:49:50.126,4.479364,-13.969298,-0.2632105,0.14683662,-0.3191005,-4.7528334,-45.5625,7.3875003,-20.775002,0.47549555,-0.5835503,0.5623806,995.64667, , , , 
2025-09-28 19:49:50.145,3.6490545,-13.5074835,-0.3804588,0.101632625,-0.37896523,-4.4345727,-46.425003,2.5687501,-19.03125,0.50192755,-0.5631359,0.5471182,995.64667, , , , 
2025-09-28 19:49:50.165,2.5698915,-12.203396,-0.35413775,0.033826638,-0.4870883,-3.9177814,-46.725002,-2.5687501,-19.1625,0.5314393,-0.5400601,0.52752036,995.643, , , , 
2025-09-28 19:49:50.185,1.4859428,-10.80838,-0.701097,-0.045585785,-0.393626,-3.4651306,-45.675003,-5.3250003,-19.425001,0.55160767,-0.52343625,0.51247907,995.643, , , , 
2025-09-28 19:49:50.205,0.79920274,-10.492527,-1.0719845,-0.16531529,-0.32826346,-3.105942,-46.875,-8.306251,-18.35625,0.5644016,-0.5123484,0.5018369,995.643, , , , 
2025-09-28 19:49:50.225,-0.4977071,-9.23151,0.2105684,-0.22273657,-0.25557056,-2.3118176,-45.84375,-11.83125,-17.493752,0.58069974,-0.49729696,0.4859669,995.6318, , , , 
2025-09-28 19:49:50.245,-1.3184453,-8.73141,0.23928227,-0.12438734,-0.5151881,-1.6807945,-46.3125,-12.731251,-18.018751,0.59047526,-0.48892203,0.47592023,995.632, , , , 
2025-09-28 19:49:50.265,-0.56470615,-9.145369,-0.8566305,0.23785548,-0.772973,-1.041219,-43.800003,-14.85,-18.300001,0.6011009,-0.48293453,0.46653593,995.632, , , , 
2025-09-28 19:49:50.285,-0.7968099,-9.138189,-1.4691931,0.11323906,-0.45226902,-0.47189304,-42.9375,-14.868751,-18.243752,0.6065059,-0.48178488,0.46227258,995.63837, , , , 
2025-09-28 19:49:50.305,-1.8233309,-9.370294,-2.0554347,-0.08590286,0.10178535,0.25503606,-43.575,-15.825001,-17.5125,0.6083008,-0.48251036,0.46109667,995.63837, , , , 
2025-09-28 19:49:50.325,1.564906,-7.893922,-0.95712906,-0.45303258,1.3088541,1.3594795,-45.61875,-15.262501,-19.63125,0.59783405,-0.48819456,0.4694099,995.62714, , , , 
2025-09-28 19:49:50.345,4.354937,-7.408179,-0.44745782,-0.55565786,1.89223,1.6319252,-44.175003,-13.125001,-19.143751,0.58495414,-0.4920915,0.47987825,995.62714, , , , 
2025-09-28 19:49:50.365,4.7114677,-7.7096744,0.64845496,-0.40171996,1.0858885,1.8255694,-45.7125,-12.7875,-19.3125,0.56122446,-0.49951527,0.4981357,995.6181, , , , 
2025-09-28 19:49:50.385,5.5226345,-7.580462,0.4235296,-0.056581352,0.60391617,2.0509784,-44.625,-11.2875,-22.29375,0.5454341,-0.5081021,0.5107063,995.6181, , , , 
2025-09-28 19:49:50.405,7.0325055,-7.7120676,-1.5481563,0.12484549,0.6753874,2.116341,-44.8125,-8.681251,-23.962502,0.5313963,-0.5171458,0.5236898,995.6235, , , , 
2025-09-28 19:49:50.425,6.1064835,-7.623533,-1.5625132,0.014278964,0.7883974,2.2782202,-43.6875,-5.9437504,-23.625,0.51638955,-0.5257315,0.53704023,995.6235, , , , 
2025-09-28 19:49:50.445,7.2622166,-8.020741,-1.5553347,0.003894263,0.77129316,2.4712534,-42.65625,-6.0937505,-24.7875,0.49949715,-0.5350842,0.55094427,995.6164, , , , 
2025-09-28 19:49:50.465,9.640682,-6.570691,-1.6079768,0.092469655,0.735863,2.4400995,-45.037502,-3.1125002,-22.40625,0.47754538,-0.54714936,0.56780744,995.6164, , , , 
2025-09-28 19:49:50.485,9.363115,-6.1495543,-3.0412776,-0.056581352,0.5672643,2.2922702,-43.4625,0.056250002,-25.687502,0.46505198,-0.5536011,0.5772421,995.62006, , , , 
2025-09-28 19:49:50.505,7.5349984,-5.9700923,-2.926422,-0.6442333,0.0938441,2.3075416,-44.71875,1.9125,-23.962502,0.44515538,-0.5664628,0.58849216,995.62006, , , , 
2025-09-28 19:49:50.525,8.389236,-6.0418773,-0.552742,-0.5446623,0.4615847,2.6099198,-42.881252,4.4625,-24.6,0.42835867,-0.5804204,0.5939217,995.6235, , , , 
2025-09-28 19:49:50.545,7.4344997,-6.1328044,0.033499517,-0.3125337,1.0913863,2.725984,-40.987503,6.1875005,-29.681252,0.40759864,-0.591554,0.6032652,995.6235, , , , 
2025-09-28 19:49:50.565,8.657232,-7.3627152,0.5814559,-0.19341506,1.6503276,3.136485,-40.85625,9.918751,-26.831251,0.37414816,-0.60196656,0.62082356,995.6547, , , , 
2025-09-28 19:49:50.585,9.068798,-7.042077,1.0049855,-0.302149,1.1591923,2.9556692,-39.54375,14.906251,-28.181252,0.35277584,-0.6072799,0.63158214,995.6547, , , , 
2025-09-28 19:49:50.605,8.504091,-7.3986077,2.8713872,-0.24961463,0.092011504,3.028362,-38.193752,15.58125,-31.44375,0.32402846,-0.61929953,0.6435067,995.6755, , , , 
2025-09-28 19:49:50.625,8.762517,-6.5276203,2.2947168,0.044822205,0.076739885,2.9917102,-37.275,17.15625,-31.48125,0.30445996,-0.62847173,0.6524851,995.6755, , , , 
2025-09-28 19:49:50.645,9.367901,-7.4919276,1.7467605,-0.0028252497,-0.34109163,2.9495606,-37.237503,19.0125,-29.268751,0.2916244,-0.63479733,0.658596,995.6928, , , , 
2025-09-28 19:49:50.665,9.623933,-7.140183,1.3998013,0.013057235,-0.24762931,3.1523676,-35.831253,23.025002,-30.112501,0.27075964,-0.6453243,0.6677369,995.6928, , , , 
2025-09-28 19:49:50.685,11.88515,-7.281359,2.0219352,0.037491824,-0.23419029,3.2128434,-34.050003,24.562502,-29.60625,0.25275958,-0.65351707,0.6746923,995.715, , , , 
2025-09-28 19:49:50.705,14.067405,-7.097112,0.33499518,0.0026725335,0.26122105,2.8835871,-33.525,24.150002,-31.500002,0.22990383,-0.6613774,0.6830867,995.715, , , , 
2025-09-28 19:49:50.725,14.062618,-7.092326,-1.7970098,-0.37178758,0.8189406,2.7418666,-32.34375,25.10625,-28.575,0.20940517,-0.66707414,0.6880968,995.736, , , , 
2025-09-28 19:49:50.745,15.010177,-7.7120676,-1.2179468,-0.8250492,1.1219295,2.653902,-29.00625,28.35,-32.2125,0.19147275,-0.67269224,0.6896899,995.736, , , , 
2025-09-28 19:49:50.765,18.10649,-6.7262244,-0.7106683,-0.96310467,1.0761147,2.30632,-26.550001,31.706251,-33.112503,0.16167568,-0.68293166,0.6893786,995.727, , , , 
2025-09-28 19:49:50.785,19.757536,-6.6975107,-1.861616,-1.1640792,1.0498475,1.9562944,-24.6,33.6375,-30.50625,0.14064318,-0.6908025,0.6870718,995.727, , , , 
2025-09-28 19:49:50.805,22.145573,-8.018349,-0.7848458,-1.4756203,0.8726967,1.154229,-22.96875,33.675003,-30.525002,0.12345676,-0.6996903,0.6813904,995.70184, , , , 
2025-09-28 19:49:50.825,20.650059,-6.2644095,1.6223338,-1.494557,1.1891247,0.4572323,-19.368752,34.912502,-29.8875,0.111341946,-0.7084491,0.6730322,995.70184, , , , 
2025-09-28 19:49:50.845,21.604795,-7.312466,1.5026926,-1.3528364,1.7346269,-0.2623664,-18.375,37.74375,-28.612501,0.10123392,-0.71494204,0.6643702,995.67303, , , , 
2025-09-28 19:49:50.865,15.029319,-3.8356948,6.3768725,-0.6778308,0.43470666,-0.7021891,-17.925001,36.300003,-29.6625,0.09669811,-0.71979594,0.65372753,995.67303, , , , 
2025-09-28 19:49:50.885,15.998412,-5.704489,6.6305118,0.23541202,-0.28061602,-1.2024873,-19.893751,36.7125,-29.475,0.10098337,-0.7194971,0.6510358,995.6745, , , , 
2025-09-28 19:49:50.905,15.113068,-5.8672013,4.9938207,1.0136538,-1.0252602,-1.6569707,-20.56875,37.125,-27.2625,0.11196801,-0.71599454,0.65126634,995.6745, , , , 
2025-09-28 19:49:50.925,14.7661085,-7.594819,0.54317075,1.4889065,-1.8694752,-2.5237877,-21.73125,34.6875,-31.48125,0.15266468,-0.7031582,0.6554279,995.66864, , , , 
2025-09-28 19:49:50.945,13.998013,-7.628319,-1.2466606,1.3355795,-1.9769875,-2.92085,-26.1375,33.3375,-28.781252,0.17856655,-0.69596344,0.6558371,995.66864, , , , 
2025-09-28 19:49:50.965,11.571691,-7.908279,-0.3900301,0.43027788,-1.6904919,-2.9776604,-30.69375,29.75625,-28.087502,0.23097183,-0.6845445,0.648523,995.6381, , , , 
2025-09-28 19:49:50.985,13.194024,-7.984849,2.3258235,0.17615813,-0.68623024,-3.192685,-32.475002,28.931252,-27.093752,0.2526283,-0.67986697,0.642316,995.6381, , , , 
2025-09-28 19:49:51.005,12.102897,-8.446664,2.0027926,0.18898629,0.005268709,-3.4681847,-34.96875,27.45,-27.975,0.27152875,-0.67314804,0.6364559,995.653, , , , 
2025-09-28 19:49:51.025,9.65504,-9.2793665,1.2299109,0.107741274,0.26855144,-3.6111271,-35.15625,25.575,-30.16875,0.30474657,-0.65548235,0.6248631,995.653, , , , 
2025-09-28 19:49:51.045,9.1669035,-10.1599245,2.2851455,0.19998185,0.3314705,-3.6123488,-37.350002,21.581251,-25.85625,0.32060215,-0.6459588,0.6184205,995.6757, , , , 
2025-09-28 19:49:51.065,8.018349,-9.856036,2.9958138,0.68500847,0.12744166,-3.454135,-38.49375,18.73125,-26.493752,0.3461786,-0.6275757,0.60932404,995.6757, , , , 
2025-09-28 19:49:51.085,8.305488,-9.485149,2.3665016,0.9971604,-0.2512945,-3.4895651,-38.456253,16.7625,-27.468752,0.36876765,-0.61091447,0.6033282,995.7038,37.88835467,127.73981261,143.96337890625,2.33
2025-09-28 19:49:51.105,6.5228343,-9.169296,0.34217364,1.0686315,-0.42722356,-3.5133889,-39.99375,12.1125,-26.118752,0.38771158,-0.5975602,0.5984352,995.7038, , , , 
2025-09-28 19:49:51.126,4.6061835,-8.997013,-0.20817557,0.60559607,-0.14256057,-3.1108289,-39.412502,8.212501,-28.725,0.41687158,-0.5765611,0.589036,995.7082, , , , 
2025-09-28 19:49:51.145,4.613362,-9.004191,0.9403793,0.41928232,-0.08391755,-2.879922,-42.5625,6.6375003,-26.775002,0.4351232,-0.5622687,0.5807789,995.7082, , , , 
2025-09-28 19:49:51.165,5.4149575,-7.5086775,1.7252251,0.38201955,-0.35575238,-2.500575,-44.456253,1.6875001,-24.581251,0.45486993,-0.54718643,0.5704094,995.6901, , , , 
2025-09-28 19:49:51.185,4.6612186,-8.537591,0.7848458,0.4003455,-0.32276568,-2.46881,-41.643753,0.99375004,-26.85,0.4668338,-0.53881246,0.56387484,995.6901, , , , 
2025-09-28 19:49:51.205,2.8689942,-9.564112,0.7298109,0.28794637,-0.35514152,-1.9135339,-45.16875,-2.49375,-24.581251,0.48492903,-0.5260454,0.55323213,995.67694, , , , 
2025-09-28 19:49:51.225,4.0534415,-9.865608,1.442872,0.49869475,-0.046043932,-1.4602723,-45.112503,-5.2125,-25.2,0.4954013,-0.517993,0.547687,995.67694, , , , 
2025-09-28 19:49:51.245,4.223332,-9.521041,0.6197411,0.8200096,0.45914125,-1.1206315,-42.693752,-6.4500003,-27.243752,0.50236636,-0.5083246,0.5476457,995.664, , , , 
2025-09-28 19:49:51.265,2.4885356,-9.870394,-2.5818555,0.46876237,0.56848603,-0.75838864,-44.30625,-7.74375,-25.612501,0.50680447,-0.49608234,0.5518001,995.664, , , , 
2025-09-28 19:49:51.285,2.8977082,-10.246066,-1.579263,-0.14821106,0.05413789,-0.4156935,-41.775,-6.8625,-26.23125,0.5073869,-0.49319506,0.55248666,995.6508, , , , 
2025-09-28 19:49:51.305,2.0315065,-9.722038,-0.26799613,-0.4579195,-0.76503175,-0.110871956,-41.943752,-6.99375,-26.062502,0.50876415,-0.49744081,0.5474626,995.6508, , , , 
2025-09-28 19:49:51.325,2.3401806,-10.602597,1.39023,0.20242532,-0.3239874,0.42119128,-43.29375,-7.8750005,-26.325,0.5093206,-0.5026801,0.5452578,995.6518, , , , 
2025-09-28 19:49:51.345,2.6823542,-10.588241,0.040677983,0.6257546,-0.07170025,0.9324851,-43.275,-7.65,-24.6375,0.5081692,-0.5048625,0.5488641,995.6518, , , , 
2025-09-28 19:49:51.365,3.7998023,-7.176075,-1.0049855,0.53656834,0.3229184,2.0002768,-43.78125,-5.83125,-24.843752,0.49998748,-0.5097646,0.5618294,995.69183, , , , 
2025-09-28 19:49:51.385,5.285745,-9.375079,-2.7684958,0.2286925,0.6613375,1.6215405,-43.425003,-4.05,-24.675001,0.48992518,-0.51564753,0.5740088,995.69183, , , , 
2025-09-28 19:49:51.405,3.117848,-10.77488,0.7800602,-0.15370885,0.4890736,2.5396702,-43.65,-3.80625,-26.062502,0.47249988,-0.52660805,0.5875434,995.68036, , , , 
2025-09-28 19:49:51.425,6.13759,-10.119247,2.1008983,-0.11033745,0.27527094,2.6062546,-43.93125,-1.48125,-25.087502,0.45471847,-0.5384037,0.5996123,995.68036, , , , 
2025-09-28 19:49:51.445,6.6352973,-10.523634,1.5409778,-0.011377357,-0.29649848,2.3215916,-41.30625,1.2750001,-26.2875,0.4438801,-0.5470675,0.60686386,995.6916, , , , 
2025-09-28 19:49:51.465,5.0656056,-10.765309,0.35413775,0.18165591,-0.6501892,2.5036292,-42.7125,4.36875,-26.625002,0.4313702,-0.56225914,0.6155394,995.6916, , , , 
2025-09-28 19:49:51.485,5.6063833,-10.171889,-0.42592242,0.08391755,-0.32337654,2.9269586,-43.36875,7.275,-23.325,0.41922736,-0.57486206,0.6236085,995.7182, , , , 
2025-09-28 19:49:51.505,6.3457656,-9.322437,-0.8039884,-0.18303037,0.06024654,3.2397213,-40.818752,7.0687504,-28.66875,0.40200675,-0.5881872,0.63274443,995.7182, , , , 
2025-09-28 19:49:51.525,6.6305118,-9.3104725,-0.22971097,-0.55260354,0.28076872,3.3289077,-43.36875,12.76875,-26.268751,0.38117486,-0.60268515,0.64088047,995.757, , , , 
2025-09-28 19:49:51.545,6.2404814,-9.789038,0.2416751,-0.62040955,0.76823884,3.5818057,-39.9375,16.612501,-27.91875,0.36283174,-0.61393994,0.6463932,995.757, , , , 
2025-09-28 19:49:51.565,9.133404,-9.8632145,0.13878371,-0.74013907,0.5727621,3.7137525,-40.6875,19.3875,-27.69375,0.31956914,-0.63577724,0.6582253,995.8017, , , , 
2025-09-28 19:49:51.585,9.722038,-9.408579,0.25124636,-0.74808025,0.46769336,3.6972592,-37.237503,22.612501,-28.85625,0.29854885,-0.6467754,0.6623531,995.8017, , , , 
2025-09-28 19:49:51.605,10.657632,-9.01137,-0.8327023,-0.89835304,0.5782599,3.6764896,-37.0125,23.75625,-28.95,0.2633324,-0.66403484,0.667797,995.83075, , , , 
2025-09-28 19:49:51.625,10.648061,-8.630911,-0.62452674,-1.2190571,0.9380592,3.485289,-34.5,26.025002,-29.79375,0.23404984,-0.6777686,0.66965795,995.83075, , , , 
2025-09-28 19:49:51.645,10.60499,-8.595019,0.49052864,-1.45424,1.3711624,3.412596,-33.693752,27.206251,-27.487501,0.21038496,-0.68810886,0.66942775,995.84784, , , , 
2025-09-28 19:49:51.665,12.270394,-8.085348,2.5579274,-1.4462987,1.6533818,3.1994042,-29.1375,32.4,-27.337502,0.16776617,-0.7039731,0.6676045,995.84784, , , , 
2025-09-28 19:49:51.685,12.655639,-7.661818,2.4717858,-1.0773364,1.5244894,2.893972,-26.1375,34.3125,-26.062502,0.1348256,-0.7135626,0.6662385,995.8869, , , , 
2025-09-28 19:49:51.705,12.658031,-7.946564,1.7587247,-0.86109024,1.1952333,2.6025894,-24.54375,34.21875,-26.212502,0.1060873,-0.7201379,0.6656527,995.8869, , , , 
2025-09-28 19:49:51.725,13.770695,-7.9130645,2.605784,-0.4096612,0.4218785,2.3948953,-15.88125,35.5125,-29.98125,0.07791897,-0.72594404,0.66553605,995.9003, , , , 
2025-09-28 19:49:51.745,15.400207,-6.903293,2.5172493,0.022220206,-0.052763447,2.2739441,-17.643751,38.4375,-28.875002,0.06546542,-0.7274932,0.6670898,995.9003, , , , 
2025-09-28 19:49:51.765,18.142382,-5.8241305,-0.66041905,0.4767036,-0.43944085,1.5964952,-15.4875,37.537502,-28.275002,0.052929718,-0.7261958,0.6728522,995.92084, , , , 
2025-09-28 19:49:51.785,19.274187,-5.7379885,-0.8805587,0.2683987,-0.27145302,1.0516037,-14.681251,39.46875,-27.243752,0.048940074,-0.7245431,0.6766211,995.92084, , , , 
2025-09-28 19:49:51.805,20.750559,-6.506085,1.5672989,0.19081889,0.115835235,0.41752607,-15.637501,37.631252,-27.337502,0.04718102,-0.72357583,0.67827594,995.8925, , , , 
2025-09-28 19:49:51.825,20.487347,-6.573084,1.6175481,0.5255728,0.0712421,-0.33628106,-13.462501,38.86875,-28.875002,0.04835232,-0.72102565,0.6803334,995.8925, , , , 
2025-09-28 19:49:51.845,18.058632,-5.6877394,-0.6723832,0.723493,-0.12301289,-1.0057888,-13.837501,38.456253,-29.118752,0.056234777,-0.7161816,0.6835804,995.882, , , , 
2025-09-28 19:49:51.865,13.77548,-6.262017,-2.428715,0.20670137,0.08040508,-1.8646648,-16.743752,36.300003,-30.243752,0.07626101,-0.7095752,0.6852203,995.882, , , , 
2025-09-28 19:49:51.885,12.8518505,-6.8865438,-1.6749759,0.10468695,0.11155918,-2.030209,-15.431251,38.30625,-31.425001,0.08355338,-0.70824504,0.6841246,995.84906, , , , 
2025-09-28 19:49:51.905,12.746566,-8.693125,-0.21296121,0.047265664,-0.23296855,-2.388176,-17.456251,37.21875,-28.987501,0.103700735,-0.7051607,0.6798117,995.84906, , , , 
2025-09-28 19:49:51.925,12.748959,-10.100104,1.1102697,0.10346522,-0.6593522,-2.6502368,-19.987501,34.725002,-30.431252,0.12454818,-0.7024233,0.67514026,995.8515, , , , 
2025-09-28 19:49:51.945,13.703695,-11.255837,2.3688943,0.25557056,-1.1217768,-2.916574,-22.575,34.331253,-28.743752,0.14354542,-0.699816,0.67122626,995.8515, , , , 
2025-09-28 19:49:51.965,13.205988,-11.602797,3.3762727,0.58727014,-1.4015529,-3.2122324,-25.612501,32.5125,-26.925001,0.18112531,-0.6931136,0.66457975,995.8725, , , , 
2025-09-28 19:49:51.985,13.765908,-11.710474,3.7543387,0.7112757,-1.2970951,-3.3576183,-27.13125,32.737503,-29.868752,0.21334867,-0.68502563,0.6596582,995.8725, , , , 
2025-09-28 19:49:52.005,13.062419,-11.217552,3.9361932,0.82734,-0.9916626,-3.6887069,-29.2875,30.0375,-29.493752,0.24580905,-0.67394423,0.65486705,995.8725, , , , 
2025-09-28 19:49:52.025,11.322837,-11.492727,3.2303107,0.95989764,-0.9098067,-3.946492,-33.975002,25.575,-30.45,0.2863406,-0.65618694,0.64851576,995.8964, , , , 
2025-09-28 19:49:52.045,10.79163,-11.674582,3.694518,1.1107812,-1.2408954,-4.127308,-33.61875,26.1,-28.81875,0.3117661,-0.6443292,0.64383173,995.8962, , , , 
2025-09-28 19:49:52.065,8.848659,-11.578869,2.4071796,1.2439498,-1.1889719,-4.1523533,-37.612503,21.056252,-25.181252,0.3567315,-0.62224317,0.6346492,995.8962, , , , 
2025-09-28 19:49:52.085,9.446864,-10.686346,0.8925229,1.0295362,-0.92813265,-4.057669,-40.18125,16.2,-26.643751,0.39022577,-0.60334563,0.6268039,995.904,37.88835012,127.73979521,143.9222412109375,1.37
2025-09-28 19:49:52.105,9.686146,-10.001999,0.09571291,0.6935606,-0.8096249,-4.126086,-39.9375,14.606251,-25.650002,0.4132121,-0.58948755,0.619511,995.904, , , , 
2025-09-28 19:49:52.125,9.523434,-9.784252,-0.6652047,0.057650365,-1.0661881,-4.189616,-41.775,8.55,-24.187502,0.44960955,-0.5687624,0.60227144,995.88617, , , , 
2025-09-28 19:49:52.145,7.348358,-11.507084,-1.2442678,-0.37972882,-0.9189697,-4.3459973,-43.40625,4.78125,-24.712502,0.4776818,-0.5543045,0.5835234,995.88617, , , , 
2025-09-28 19:49:52.165,5.1349974,-11.444871,1.4141582,-0.8232167,-0.14622575,-3.8145452,-45.525,1.8000001,-21.243752,0.5048929,-0.53797483,0.558715,995.8437, , , , 
2025-09-28 19:49:52.185,5.501099,-11.136196,2.9838498,-0.64973104,0.45242172,-3.5744753,-44.925003,-1.10625,-22.518751,0.5156428,-0.5278238,0.5466223,995.8437, , , , 
2025-09-28 19:49:52.205,3.0795627,-10.490134,1.7060826,-0.21846052,0.96005034,-3.2226171,-43.93125,-6.3562503,-22.331251,0.528674,-0.50656885,0.5327586,995.80975, , , , 
2025-09-28 19:49:52.226,1.4380864,-10.042677,0.6987042,-0.07735075,0.7761801,-2.7461426,-45.05625,-7.8187504,-25.518751,0.53668475,-0.48877022,0.52533007,995.80975, , , , 
2025-09-28 19:49:52.245,0.5072784,-9.839287,0.37567315,-0.0028252497,0.36140287,-2.211025,-43.7625,-10.9125,-25.95,0.54219574,-0.47775438,0.5203053,995.73505, , , , 
2025-09-28 19:49:52.265,0.9523434,-10.5284195,0.4139583,0.14133884,-0.14256057,-1.4621048,-41.86875,-12.356251,-25.143751,0.5511407,-0.46530166,0.5123861,995.73505, , , , 
2025-09-28 19:49:52.285,-0.50488555,-7.389036,1.6031911,0.5805506,0.2691623,-1.46577,-43.631252,-14.531251,-24.525002,0.5580496,-0.45755312,0.5080589,995.6611, , , , 
2025-09-28 19:49:52.305,-3.2757742,-10.380065,0.10289137,0.7735839,-0.4125628,-0.8799507,-42.7125,-14.306251,-25.25625,0.56414557,-0.45108142,0.5060947,995.6611, , , , 
2025-09-28 19:49:52.325,-1.9166509,-10.60499,-2.6249263,0.4351648,-0.18898629,0.54641855,-44.381252,-17.34375,-23.362501,0.57098866,-0.44777095,0.5082191,995.58075, , , , 
2025-09-28 19:49:52.345,-1.3543376,-9.6071825,-2.565106,0.075976305,-0.0063377223,1.2116503,-41.25,-15.656251,-23.325,0.56928796,-0.4514424,0.51217324,995.58075, , , , 
2025-09-28 19:49:52.365,0.11485548,-10.119247,-2.2037897,-0.2777144,0.13843723,1.9410229,-42.393753,-15.637501,-25.2,0.55966026,-0.4637397,0.5213922,995.5207, , , , 
2025-09-28 19:49:52.385,0.30388847,-9.683753,-1.5194423,-0.53916454,0.18791728,2.473697,-43.612503,-13.5375,-23.34375,0.54664266,-0.4778449,0.5306629,995.5207, , , , 
2025-09-28 19:49:52.406,2.3928227,-10.336994,-0.5599205,-0.63690287,0.052305296,2.9171848,-43.125,-9.1125,-24.73125,0.53420013,-0.49106786,0.53825957,995.4865, , , , 
2025-09-28 19:49:52.425,4.4554358,-11.327622,0.55513483,-0.44875655,-0.4174497,3.3099709,-44.41875,-6.6562505,-23.04375,0.5116176,-0.5163339,0.55114955,995.4865, , , , 
2025-09-28 19:49:52.445,5.757131,-11.679367,0.3469593,-0.22090398,-0.6941715,3.4950628,-44.550003,-5.175,-23.1,0.49445087,-0.5378671,0.5611091,995.4648, , , , 
2025-09-28 19:49:52.465,7.0396843,-12.540784,-1.0169497,-0.19891284,-0.6569087,3.6630507,-43.987503,-0.15,-22.6875,0.4731057,-0.56453234,0.57334757,995.4648, , , , 
2025-09-28 19:49:52.485,7.025327,-13.158132,-1.294517,-0.37117672,-0.4504364,3.7870562,-46.275,3.9562502,-20.04375,0.45863977,-0.58035845,0.5803968,995.45306, , , , 
2025-09-28 19:49:52.505,6.6424756,-13.167703,-0.10289137,-0.5635991,-0.13523018,4.1254754,-43.425003,6.8812504,-23.60625,0.4297313,-0.60698414,0.59174716,995.45306, , , , 
2025-09-28 19:49:52.525,6.8243303,-13.067204,0.72741807,-0.4927388,0.03581195,4.4406815,-43.66875,10.950001,-21.956251,0.4020667,-0.62793833,0.60132885,995.44086, , , , 
2025-09-28 19:49:52.545,7.192825,-13.306487,0.89491564,-0.36934412,0.118889555,4.6721992,-41.71875,16.368752,-19.837502,0.3714064,-0.64756405,0.6117783,995.44086, , , , 
2025-09-28 19:49:52.565,8.58784,-13.55534,0.58624154,-0.17325652,0.20441063,4.8591237,-42.075,20.212502,-23.118752,0.33020243,-0.6694174,0.6253909,995.456, , , , 
2025-09-28 19:49:52.585,9.549755,-13.519448,-0.20578274,-0.13477205,0.26122105,4.8554587,-40.7625,23.831251,-22.6875,0.30464423,-0.6808231,0.63329864,995.456, , , , 
2025-09-28 19:49:52.605,10.492527,-13.210773,-0.56470615,-0.16531529,0.23006694,4.745503,-37.5,24.656252,-23.38125,0.26201656,-0.69761205,0.64435095,995.46796, , , , 
2025-09-28 19:49:52.625,11.4018,-12.856636,-0.4211368,-0.11827869,0.18974987,4.5879,-33.487503,30.056252,-23.643751,0.22892731,-0.7090352,0.6510971,995.46796, , , , 
2025-09-28 19:49:52.645,11.856436,-12.823136,-0.83030945,-0.10911572,0.33024877,4.4412923,-32.625,32.025,-25.087502,0.20485878,-0.71614146,0.6553708,995.4843, , , , 
2025-09-28 19:49:52.665,12.80878,-11.916257,-0.9595219,-0.20929754,0.7321978,4.270861,-29.550001,34.2,-24.300001,0.16380762,-0.7258877,0.66105783,995.4843, , , , 
2025-09-28 19:49:52.685,14.120047,-10.767702,-0.14356937,-0.19646938,0.7890082,3.9330528,-24.075,37.48125,-23.362501,0.13056724,-0.73217916,0.6640332,995.5014, , , , 
2025-09-28 19:49:52.705,14.660825,-9.499506,0.7393822,0.018555017,0.5495492,3.5946338,-21.84375,38.34375,-23.643751,0.107741885,-0.7354508,0.66587263,995.5014, , , , 
2025-09-28 19:49:52.726,15.175282,-8.118847,0.36370903,0.7241038,-0.1333976,3.1676393,-17.1,39.956253,-25.781252,0.07725061,-0.736306,0.6709004,995.5317, , , , 
2025-09-28 19:49:52.745,16.548761,-7.4943204,-1.8568304,1.1370485,-0.43883,2.8469353,-16.875,39.73125,-24.243752,0.05982696,-0.73224014,0.6780383,995.5317, , , , 
2025-09-28 19:49:52.765,18.05624,-6.4797635,-5.3790655,1.0234276,-0.4663189,2.0882413,-15.431251,40.256252,-25.050001,0.044820346,-0.72449356,0.68782264,995.5566, , , , 
2025-09-28 19:49:52.787,18.50609,-6.5850477,-6.431907,0.60193086,-0.33925903,1.5793909,-10.762501,41.60625,-25.9125,-0.03749364,0.7202672,-0.6925795,995.5566, , , , 
2025-09-28 19:49:52.805,18.546768,-6.9942207,-5.3383875,-0.20379977,0.03642281,0.7486148,-10.931251,39.975002,-25.968752,-0.033520576,0.7200708,-0.692859,995.54755, , , , 
2025-09-28 19:49:52.826,18.472591,-8.063812,-3.290131,-0.59108806,0.27893612,0.08643737,-8.85,39.956253,-28.800001,-0.03206953,0.72326773,-0.689614,995.54755, , , , 
2025-09-28 19:49:52.845,18.340986,-9.245867,-1.375873,-0.5825359,0.21418446,-0.43401942,-9.1125,41.025,-26.212502,-0.034170713,0.7275894,-0.6850778,995.55536, , , , 
2025-09-28 19:49:52.865,17.907885,-8.652447,-0.4642076,-0.3937787,0.03214676,-0.8451314,-9.88125,40.8375,-26.437502,-0.03892826,0.72990537,-0.68242556,995.55536, , , , 
2025-09-28 19:49:52.885,17.479568,-7.944171,-0.55513483,-0.279547,-0.1523344,-1.8787147,-9.675,40.987503,-28.312502,0.053986978,-0.7314918,0.67964166,995.59174, , , , 
2025-09-28 19:49:52.905,16.21616,-8.769695,-0.009571291,-0.27649269,-0.1211803,-2.6141958,-12.356251,40.2,-25.81875,0.072722316,-0.73174983,0.67718565,995.59174, , , , 
2025-09-28 19:49:52.925,13.488341,-11.327622,0.6221339,-0.23128867,-0.11384992,-3.412596,-16.987501,39.09375,-25.275002,0.10274558,-0.73014706,0.6734359,995.6203, , , , 
2025-09-28 19:49:52.945,12.100504,-13.215559,0.8877372,-0.20013458,-0.20120358,-3.7015352,-18.45,37.706253,-24.900002,0.123131916,-0.7279572,0.67070955,995.6203, , , , 
2025-09-28 19:49:52.965,11.363515,-15.103497,1.4261223,-0.11400264,-0.3343721,-3.8976228,-22.725,38.1375,-26.325,0.15937023,-0.72236836,0.6651999,995.6401, , , , 
2025-09-28 19:49:52.985,11.408978,-15.235102,1.902294,0.008781182,-0.29955283,-4.032624,-25.275002,35.756252,-24.843752,0.18933864,-0.71590865,0.66023636,995.6401, , , , 
2025-09-28 19:49:53.005,11.274981,-14.933606,1.8951155,0.089415334,-0.19142975,-4.157851,-26.00625,34.95,-26.1,0.21191138,-0.70954067,0.6564681,995.6401, , , , 
2025-09-28 19:49:53.025,10.506885,-14.220545,0.97866446,0.14256057,0.24961463,-4.514596,-32.2125,33.43125,-24.281252,0.24889307,-0.6958246,0.64991444,995.6523, , , , 
2025-09-28 19:49:53.045,9.882358,-14.311472,0.94277215,0.12240203,0.44631308,-4.6886926,-33.075,30.487501,-25.10625,0.2773929,-0.6824362,0.64359355,995.6652, , , , 
2025-09-28 19:49:53.065,9.037691,-14.490934,1.2131611,0.24762931,0.47746718,-4.846296,-34.275,30.468752,-23.737501,0.3120819,-0.6626455,0.6342731,995.6652, , , , 
2025-09-28 19:49:53.085,8.19781,-14.323437,0.7298109,0.48647743,0.30520332,-4.9336495,-37.331253,21.825,-24.018751,0.35449973,-0.6342896,0.62161857,995.66644,37.88834524,127.73977973,144.20916748046875,1.6
2025-09-28 19:49:53.105,7.7623167,-14.433506,0.44745782,0.546953,0.23678645,-4.9367037,-38.737503,19.95,-24.525002,0.3688067,-0.6239231,0.61693126,995.66644, , , , 
2025-09-28 19:49:53.125,6.7764735,-14.22533,-0.033499517,0.58910275,0.055970486,-4.8731737,-38.5875,14.7375,-25.48125,0.3973619,-0.6023843,0.6066331,995.66327, , , , 
2025-09-28 19:49:53.145,5.704489,-13.988441,-0.124426775,0.57138765,-0.18409938,-4.722901,-40.125,10.856251,-25.10625,0.42564,-0.58075243,0.59475714,995.66327, , , , 
2025-09-28 19:49:53.165,3.9864426,-13.253844,0.48095736,0.65141094,-0.8707114,-4.275137,-43.7625,6.61875,-24.31875,0.46078253,-0.5556349,0.577602,995.65375, , , , 
2025-09-28 19:49:53.185,3.5557344,-12.191431,0.75613195,0.7760273,-1.6385684,-3.9226682,-42.65625,3.4875002,-23.643751,0.48284054,-0.5426339,0.56584704,995.65375, , , , 
2025-09-28 19:49:53.205,3.4193435,-11.203196,0.13160525,0.7760273,-1.970268,-3.6490006,-44.193752,-2.7562501,-24.675001,0.5139221,-0.52792734,0.54804015,995.64764, , , , 
2025-09-28 19:49:53.225,1.847259,-10.358529,-1.308874,0.3691914,-1.347186,-3.2568257,-47.100002,-5.3250003,-21.6,0.5489065,-0.51142234,0.52531856,995.64764, , , , 
2025-09-28 19:49:53.245,0.28713873,-10.2723875,-1.4380864,-0.03214676,-0.7198278,-2.830442,-46.068752,-7.3500004,-20.04375,0.5644993,-0.50219023,0.5133243,995.63666, , , , 
2025-09-28 19:49:53.265,-1.1629118,-10.872986,-0.85184485,-0.3161989,-0.4174497,-1.9819508,-47.41875,-11.606251,-17.34375,0.5812117,-0.4898813,0.49730617,995.63666, , , , 
2025-09-28 19:49:53.285,-1.5625132,-9.518648,0.3062813,-0.4994583,-0.39668033,-1.2495239,-46.65,-13.762501,-19.1625,0.5889624,-0.4854999,0.48712745,995.63763, , , , 
2025-09-28 19:49:53.305,-1.1533405,-9.233903,-0.78723866,-0.26671883,-0.27084216,-0.7119629,-44.53125,-14.906251,-18.993752,0.59352076,-0.48343733,0.47957864,995.63763, , , , 
2025-09-28 19:49:53.325,-1.68694,-8.386844,-0.18664017,-0.33391395,0.05108357,-0.25137085,-45.318752,-15.000001,-17.53125,0.59440356,-0.4835667,0.4763788,995.6303, , , , 
2025-09-28 19:49:53.345,-1.7922242,-9.518648,-0.02871387,-0.1805869,0.03886627,0.2244928,-44.5125,-13.931251,-17.5125,0.5929284,-0.48474595,0.47623175,995.6303, , , , 
2025-09-28 19:49:53.365,-2.292324,-10.001999,-0.66759753,-3.8179048E-4,-0.23602287,0.75838864,-46.66875,-15.150001,-16.59375,0.5906999,-0.48765922,0.4776888,995.6303, , , , 
2025-09-28 19:49:53.385,-1.3495519,-10.291531,-0.59581286,0.09674571,-0.35453063,2.035096,-45.75,-13.556251,-17.71875,0.5833733,-0.5024853,0.4842901,995.60394, , , , 
2025-09-28 19:49:53.405,0.6053841,-10.492527,-0.4642076,0.21097742,-0.13645191,2.7357578,-48.018753,-12.937501,-14.26875,0.5756322,-0.51351255,0.49135938,995.5871, , , , 
2025-09-28 19:49:53.426,3.6681972,-11.7463665,-1.0049855,0.2757291,0.23678645,3.336849,-45.3375,-8.775001,-19.25625,0.5563858,-0.5339263,0.5088799,995.5871, , , , 
2025-09-28 19:49:53.445,4.6325045,-12.914063,-1.1581261,0.2323577,0.2948186,3.5909686,-46.875,-6.0750003,-17.400002,0.53673095,-0.55102634,0.5254158,995.57904, , , , 
2025-09-28 19:49:53.465,5.6063833,-14.084154,-0.047856454,0.36186102,-0.016722424,3.977035,-46.6875,-1.575,-18.300001,0.509195,-0.5738564,0.5460378,995.57904, , , , 
2025-09-28 19:49:53.485,6.108876,-14.5818615,-0.05503492,0.6758455,-0.38201955,4.2507024,-46.893753,1.9875001,-15.39375,0.49253896,-0.58785826,0.5582641,995.56683, , , , 
2025-09-28 19:49:53.505,6.9535427,-14.409578,0.08135597,1.0515274,-0.5463422,4.59523,-47.25,5.08125,-17.7,0.47053158,-0.60597837,0.57494634,995.56683, , , , 
2025-09-28 19:49:53.525,8.169097,-14.411971,-2.5866413,1.2366194,-0.5805506,4.794983,-45.881252,11.08125,-19.10625,0.4420509,-0.62583107,0.59686726,995.56635, , , , 
2025-09-28 19:49:53.545,9.004191,-13.8353,-2.7948167,1.0631338,-0.35086545,4.84935,-45.412502,13.70625,-15.281251,0.4235772,-0.63703024,0.60886973,995.56635, , , , 
2025-09-28 19:49:53.565,10.360922,-13.529019,-2.5052853,0.7723622,0.065744326,4.7870417,-43.125,18.1875,-18.4125,0.38885528,-0.65457356,0.62659293,995.5627, , , , 
2025-09-28 19:49:53.585,10.564312,-13.24188,-2.1511476,0.57444197,0.24594943,4.678308,-42.28125,23.775002,-19.893751,0.3585333,-0.6673043,0.63860214,995.5627, , , , 
2025-09-28 19:49:53.605,10.839486,-13.179667,-2.2875385,0.4058433,0.38644832,4.627606,-40.800003,24.768751,-17.493752,0.33503622,-0.676239,0.6461511,995.5627, , , , 
2025-09-28 19:49:53.625,11.60519,-12.380465,-1.9238294,-0.11094832,1.0394628,4.4895506,-37.7625,26.362501,-22.06875,0.28465328,-0.6938823,0.657023,995.57, , , , 
2025-09-28 19:49:53.645,12.076576,-11.815758,-0.98584294,-0.40660688,1.5922954,4.316676,-35.41875,30.075,-21.13125,0.25669995,-0.7028175,0.6604794,995.57855, , , , 
2025-09-28 19:49:53.665,11.899507,-11.274981,0.10767702,-0.5672643,2.050444,3.9935286,-31.143751,34.5,-21.825,0.20721911,-0.71666825,0.66422737,995.57855, , , , 
2025-09-28 19:49:53.685,11.777473,-10.707881,0.47856453,-0.55504704,2.0919828,3.8353145,-26.85,35.4375,-21.88125,0.16741215,-0.725968,0.66588914,995.5888, , , , 
2025-09-28 19:49:53.705,13.1078825,-9.769895,1.0648061,-0.27649269,1.8177046,3.6227336,-22.9125,38.2125,-22.9125,0.12909704,-0.7331081,0.6669972,995.5888, , , , 
2025-09-28 19:49:53.725,13.667803,-9.217153,0.24885355,0.12179117,1.3143519,3.3191338,-20.4375,38.737503,-24.281252,0.08726676,-0.7372172,0.66967404,995.591, , , , 
2025-09-28 19:49:53.745,14.050654,-8.5112705,-0.81834537,0.46326458,0.5813142,3.0662358,-15.20625,40.65,-25.237501,0.0669922,-0.737138,0.672304,995.591, , , , 
2025-09-28 19:49:53.765,15.476777,-7.2933235,-2.4717858,0.840779,-0.7082214,2.5292857,-14.64375,41.2125,-26.268751,-0.04448179,0.73366463,-0.6780068,995.59955, , , , 
2025-09-28 19:49:53.785,16.699509,-7.365108,-4.1922255,0.885983,-1.2769364,2.0424263,-11.64375,41.4,-27.825,-0.03852395,0.73007643,-0.68189794,995.59955, , , , 
2025-09-28 19:49:53.805,17.527426,-7.6019974,-5.7667027,0.5445096,-1.0619121,1.502422,-11.26875,41.30625,-25.5375,-0.036377497,0.72572106,-0.6858147,995.59955, , , , 
2025-09-28 19:49:53.825,18.855442,-9.073584,-5.6350975,-0.31558803,-0.05459604,0.6960804,-11.56875,40.518753,-24.843752,-0.03527022,0.72538,-0.68548477,995.60614, , , , 
2025-09-28 19:49:53.845,19.14976,-8.772088,-4.6564326,-0.7089849,0.45058912,0.14813471,-8.25,40.7625,-28.29375,-0.03426755,0.7293686,-0.68141115,995.60345, , , , 
2025-09-28 19:49:53.865,19.240686,-7.664211,-1.8711873,-1.0767255,0.7572433,-0.80970126,-9.993751,42.54375,-25.44375,-0.035287585,0.73580444,-0.67505085,995.60345, , , , 
2025-09-28 19:49:53.885,18.05624,-8.020741,0.62452674,-0.9331723,0.71814793,-1.881769,-5.9625,42.09375,-25.837502,-0.041867558,0.74243665,-0.6681875,995.60223, , , , 
2025-09-28 19:49:53.905,15.476777,-9.466006,1.2801601,-0.57031864,0.44142616,-2.6960516,-11.493751,42.506252,-23.268751,-0.056407455,0.74619734,-0.6633294,995.60223, , , , 
2025-09-28 19:49:53.925,13.201202,-11.117054,1.1844472,-0.1720348,0.031535894,-3.2256715,-12.543751,42.393753,-23.456251,0.07235646,-0.7464073,0.66133857,995.60223, , , , 
2025-09-28 19:49:53.945,11.504691,-12.837494,-0.24646074,0.20181446,-0.4803688,-3.6227336,-15.000001,41.15625,-22.987501,0.10610617,-0.7421584,0.6602623,995.6369, , , , 
2025-09-28 19:49:53.965,11.5621195,-13.983656,-1.0025927,0.19020802,-0.7711404,-3.9025097,-19.35,40.59375,-23.71875,0.14572206,-0.7346662,0.65882784,995.67596, , , , 
2025-09-28 19:49:53.985,11.827723,-14.18226,-0.71306115,0.102854356,-0.76503175,-4.0930996,-24.16875,40.068752,-21.806252,0.1797732,-0.72762114,0.65569293,995.67596, , , , 
2025-09-28 19:49:54.005,11.810972,-14.3569355,-0.13878371,2.290743E-4,-0.36674795,-4.400975,-25.143751,36.393753,-25.66875,0.21411327,-0.7193857,0.65089154,995.6906, , , , 
2025-09-28 19:49:54.025,11.274981,-14.337793,0.14596218,-0.055970486,0.1824195,-4.6263843,-31.2,33.506252,-22.237501,0.25451386,-0.70649266,0.6435589,995.6906, , , , 
2025-09-28 19:49:54.045,11.02852,-14.452649,0.1794617,-0.09689843,0.5318341,-4.822472,-32.081253,32.68125,-23.025002,0.27678597,-0.6970703,0.6386725,995.7028, , , , 
2025-09-28 19:49:54.065,10.143175,-15.189638,0.5383851,0.061926417,0.807945,-5.084533,-34.48125,30.937502,-22.987501,0.3120071,-0.6778101,0.6298165,995.7028, , , , 
2025-09-28 19:49:54.087,9.877572,-15.292529,0.09332009,0.27939427,0.76579535,-5.198154,-37.256252,22.837502,-24.69375,0.33297053,-0.66378707,0.62438273,995.7192,37.88833865,127.7397638,144.5311279296875,1.6
2025-09-28 19:49:54.105,8.822337,-15.005391,-0.94755775,0.3832413,0.6424007,-5.2629056,-38.30625,19.85625,-24.73125,0.36150333,-0.64267266,0.6164705,995.7192, , , , 
2025-09-28 19:49:54.125,7.0396843,-14.25883,-1.3375878,0.26412266,0.44325876,-5.1443977,-40.65,15.750001,-21.9375,0.39690447,-0.6148209,0.603896,995.727, , , , 
2025-09-28 19:49:54.145,6.4271216,-13.718052,-0.7369894,0.23113596,0.22762349,-4.96236,-42.46875,10.21875,-23.8875,0.42398614,-0.59298944,0.59137756,995.727, , , , 
2025-09-28 19:49:54.165,5.788238,-12.8686,0.040677983,0.30077454,-0.12362376,-4.70091,-43.0125,7.5375004,-22.9125,0.45684204,-0.5663876,0.5736991,995.71747, , , , 
2025-09-28 19:49:54.185,5.029713,-12.394821,-0.043070808,0.34048074,-0.2372446,-4.4718356,-44.5125,1.66875,-21.806252,0.47620183,-0.5507024,0.56240946,995.71747, , , , 
2025-09-28 19:49:54.205,4.6085763,-12.02872,-0.35413775,0.24885105,-0.049709123,-4.152964,-43.0875,-3.7687502,-24.2625,0.4998495,-0.53029,0.5475277,995.7165, , , , 
2025-09-28 19:49:54.225,3.9050865,-12.349358,-0.72741807,0.063759014,0.36201373,-3.670992,-44.23125,-5.7562504,-23.8875,0.5227639,-0.50578743,0.5309672,995.7165, , , , 
2025-09-28 19:49:54.245,2.5148566,-11.753545,-0.7106683,0.034437504,0.47258025,-3.2250607,-43.96875,-8.83125,-24.0375,0.53307056,-0.4918851,0.52253723,995.71674, , , , 
2025-09-28 19:49:54.265,1.2658032,-10.987842,-0.98584294,0.036270097,0.40538514,-2.675893,-43.050003,-12.337501,-24.862501,0.5440538,-0.4752661,0.5129643,995.71674, , , , 
2025-09-28 19:49:54.285,-0.0741775,-10.475778,-1.6965113,-0.077961616,0.26855144,-2.035096,-40.40625,-13.931251,-27.056252,0.5543585,-0.4589849,0.50302774,995.72235, , , , 
2025-09-28 19:49:54.305,-1.4261223,-9.798609,-1.8520447,-0.3363574,0.108504854,-1.2935061,-42.43125,-16.63125,-25.612501,0.5603817,-0.44945708,0.49464586,995.72235, , , , 
2025-09-28 19:49:54.325,-2.6368906,-10.033105,-1.8807586,-0.50739956,0.09689843,-0.6044507,-37.800003,-14.887501,-28.2,0.5616071,-0.44700032,0.48958504,995.707, , , , 
2025-09-28 19:49:54.345,-3.8644085,-9.868001,-2.0985055,-0.7279217,0.17814344,0.1951713,-41.025,-15.4875,-25.968752,0.5596273,-0.4483573,0.4877894,995.707, , , , 
2025-09-28 19:49:54.365,-3.1250265,-8.676374,-0.3684947,-0.9282854,0.27710354,1.4443898,-40.59375,-16.425001,-27.975,0.54896164,-0.45804507,0.48981544,995.7048, , , , 
2025-09-28 19:49:54.385,-1.6366907,-8.346166,0.4139583,-0.89774215,0.47929978,2.1383321,-40.237503,-13.668751,-25.087502,0.53433037,-0.47083023,0.4967528,995.7048, , , , 
2025-09-28 19:49:54.405,0.5886344,-8.752945,1.1318051,-0.70226544,0.63201594,2.685667,-40.631252,-11.34375,-26.41875,0.51540035,-0.4853315,0.5084601,995.7116, , , , 
2025-09-28 19:49:54.425,2.4454648,-10.205389,0.58624154,-0.26488623,0.27343833,3.0845616,-39.787502,-8.981251,-30.337502,0.49524787,-0.5003777,0.5232918,995.7116, , , , 
2025-09-28 19:49:54.445,3.4911282,-11.478371,-0.7704889,0.04848739,-0.3569741,3.3796093,-39.768753,-5.7562504,-27.900002,0.47733423,-0.51706505,0.53870434,995.71356, , , , 
2025-09-28 19:49:54.465,5.1493545,-12.909278,-2.6153553,0.03565923,-0.8285617,3.79683,-43.2,-4.6312504,-27.750002,0.4575066,-0.54197323,0.5564669,995.71356, , , , 
2025-09-28 19:49:54.485,5.8600225,-13.069597,-2.7637103,-0.23067781,-0.7314342,4.098597,-42.5625,1.5187501,-26.175001,0.4442932,-0.55860996,0.5662378,995.7011, , , , 
2025-09-28 19:49:54.505,6.099305,-12.751352,-1.6606189,-0.4976257,-0.40462157,4.4095273,-42.825,3.9750001,-25.500002,0.4165453,-0.5874691,0.5817505,995.7011, , , , 
2025-09-28 19:49:54.525,6.869794,-12.526426,-0.23928227,-0.5654317,-0.17066035,4.696023,-42.225002,7.65,-25.63125,0.38879147,-0.61024684,0.59418523,995.68353, , , , 
2025-09-28 19:49:54.545,7.5230346,-12.679567,0.021535404,-0.48601928,-0.18043418,4.8023133,-41.475002,12.825001,-25.218752,0.3661073,-0.62642026,0.60356236,995.68353, , , , 
2025-09-28 19:49:54.565,8.384451,-13.356736,0.17467605,-0.34307694,-0.21891867,4.935482,-40.612503,17.25,-23.71875,0.32726693,-0.65115875,0.6185045,995.68646, , , , 
2025-09-28 19:49:54.585,8.927621,-13.72523,0.5455636,-0.18180864,-0.28122687,5.0594873,-38.34375,21.0,-26.175001,0.29535535,-0.6686403,0.62992144,995.68646, , , , 
2025-09-28 19:49:54.605,11.109876,-14.007584,0.2847459,0.066813335,-0.34781113,5.091863,-36.787502,26.5125,-26.493752,0.2552164,-0.6868465,0.64383715,995.6816, , , , 
2025-09-28 19:49:54.625,12.985848,-13.351951,-0.77766734,0.11568252,-0.29100072,4.7571096,-34.612503,27.956251,-25.575,0.22440535,-0.6980121,0.6537655,995.6816, , , , 
2025-09-28 19:49:54.645,12.662817,-12.842279,-1.5553347,-0.081015944,-0.15783219,4.389369,-29.643751,31.237501,-28.9125,0.20269993,-0.7049846,0.65944946,995.6525, , , , 
2025-09-28 19:49:54.665,12.330215,-12.564712,-1.268196,-0.39561132,-0.08086322,4.1920595,-27.7875,32.662502,-26.868752,0.16748174,-0.7162645,0.6646952,995.6525, , , , 
2025-09-28 19:49:54.685,13.777873,-12.60539,0.076570325,-0.45058912,-0.02527453,4.003302,-27.2625,35.30625,-25.368752,0.13984098,-0.7249897,0.6660524,995.63715, , , , 
2025-09-28 19:49:54.705,14.596218,-12.29193,0.6436693,-0.29909468,0.045585785,3.7723954,-23.7,37.78125,-25.275002,0.11997675,-0.7302134,0.66672665,995.63715, , , , 
2025-09-28 19:49:54.725,15.397814,-10.301102,0.25603202,-0.091400646,0.21784966,3.4229808,-20.737501,38.71875,-24.862501,0.088900976,-0.7356832,0.66848767,995.6381, , , , 
2025-09-28 19:49:54.745,16.553547,-8.874979,0.49292147,-0.03459022,0.29542947,3.0534077,-17.0625,39.46875,-25.143751,0.06587187,-0.73800987,0.6699623,995.6381, , , , 
2025-09-28 19:49:54.766,18.12324,-7.960921,1.4213367,0.33742642,-2.290743E-4,2.2965462,-14.85,40.3125,-24.806252,0.043131486,-0.7382909,0.67243546,995.64056, , , , 
2025-09-28 19:49:54.785,18.498913,-7.635497,0.37806597,0.7039453,-0.22075126,1.6588033,-14.437501,39.35625,-25.556252,0.03473644,-0.7361555,0.67556995,995.64056, , , , 
2025-09-28 19:49:54.805,17.584854,-7.487142,-1.39023,0.8071815,-0.19265148,1.0528255,-12.637501,41.775,-24.806252,0.029072247,-0.7314159,0.68116796,995.64056, , , , 
2025-09-28 19:49:54.825,16.211374,-8.456235,-3.4983068,0.5762746,0.044364054,0.36315912,-10.25625,41.04375,-27.018751,0.02677124,-0.72575885,0.6873417,995.6474, , , , 
2025-09-28 19:49:54.845,15.878771,-8.26481,-4.0941195,0.34231335,0.037644543,0.0650571,-9.84375,39.46875,-27.431252,0.027375475,-0.72298723,0.69020814,995.6298, , , , 
2025-09-28 19:49:54.865,16.32862,-7.164111,-4.790431,-0.20502149,0.046807513,-0.5684097,-10.293751,40.800003,-28.087502,0.030635156,-0.72231674,0.6906921,995.6298, , , , 
2025-09-28 19:49:54.885,15.723238,-7.1138616,-3.737589,-0.6576723,0.09506583,-1.275791,-10.875,39.375,-27.937502,0.037870917,-0.72473663,0.6875471,995.61664, , , , 
2025-09-28 19:49:54.905,13.411771,-8.805588,-2.3018954,-0.84398603,0.067576915,-1.9391903,-10.762501,39.881252,-28.44375,0.050156407,-0.729307,0.681266,995.61664, , , , 
2025-09-28 19:49:54.925,10.049855,-11.038091,-0.7106683,-0.8415426,-0.5267945,-2.3417501,-13.9125,39.5625,-28.406252,0.072187826,-0.7348721,0.67186147,995.6159, , , , 
2025-09-28 19:49:54.945,9.894321,-11.55494,1.5625132,-0.6643918,-1.2286781,-2.4431536,-15.900001,40.2,-24.225,0.08916617,-0.7374936,0.66610044,995.6159, , , , 
2025-09-28 19:49:54.965,11.10509,-11.406586,3.7854455,-0.057192214,-1.794339,-2.7504187,-17.4375,39.675003,-26.04375,0.12447018,-0.73825806,0.65854895,995.64496, , , , 
2025-09-28 19:49:54.985,11.75833,-11.131411,2.914458,0.27145302,-1.6428444,-3.1346526,-22.837502,40.8375,-22.143751,0.15720959,-0.73408467,0.6553434,995.64496, , , , 
2025-09-28 19:49:55.005,11.538191,-11.327622,1.3854443,0.28916812,-1.0930662,-3.5384343,-26.643751,37.0875,-22.9125,0.18249537,-0.728792,0.65356195,995.69305, , , , 
2025-09-28 19:49:55.025,10.526027,-11.947364,0.23449662,0.038713556,0.0834594,-4.0075784,-29.85,35.775,-22.650002,0.22867805,-0.71561533,0.64867556,995.69305, , , , 
2025-09-28 19:49:55.045,9.690931,-12.567104,-0.03589234,-0.06696605,0.49334967,-4.176788,-33.45,33.16875,-23.212502,0.24866265,-0.7079678,0.64541423,995.70795, , , , 
2025-09-28 19:49:55.065,8.705089,-13.320844,-0.0047856453,-0.13416117,0.57154036,-4.294685,-32.625,33.506252,-24.093752,0.2797708,-0.69375664,0.6384431,995.70795, , , , 
2025-09-28 19:49:55.085,9.669396,-13.433307,0.45942193,-0.059635673,0.31131196,-4.3624907,-35.625,29.587502,-23.400002,0.3049495,-0.681187,0.63131785,995.717,37.88833126,127.73974822,145.0040283203125,1.52
2025-09-28 19:49:55.105,11.078769,-13.567305,0.6652047,0.068035066,0.090178914,-4.6050043,-36.46875,25.500002,-21.993752,0.32525456,-0.6706405,0.6250473,995.717, , , , 
2025-09-28 19:49:55.125,10.770095,-14.062618,-0.8709874,0.03810269,0.11033745,-5.088809,-38.625,22.050001,-22.81875,0.36245865,-0.64977473,0.6123853,995.72235, , , , 
2025-09-28 19:49:55.145,9.434899,-14.593825,-0.89730847,-0.14637847,0.31192282,-5.229919,-40.425003,16.875,-21.5625,0.3923372,-0.6310131,0.59942937,995.72235, , , , 
2025-09-28 19:49:55.165,7.2095747,-14.691931,-0.02871387,-0.21662793,0.5745947,-5.120574,-41.268753,11.83125,-22.875,0.42571545,-0.6057486,0.58139646,995.71356, , , , 
2025-09-28 19:49:55.185,5.905486,-14.222938,0.8805587,-0.033979353,0.50068,-4.8707304,-43.725002,7.8375,-21.31875,0.443622,-0.58976203,0.5706814,995.71356, , , , 
2025-09-28 19:49:55.205,4.644469,-13.172488,0.87338024,0.34536767,0.20013458,-4.5042114,-44.568752,2.04375,-23.04375,0.47236428,-0.56225175,0.55397356,995.71625, , , , 
2025-09-28 19:49:55.225,3.3116665,-12.878172,-0.26081768,0.52312934,-0.11446079,-4.193892,-43.875,0.4875,-21.6375,0.49556166,-0.54034007,0.5410661,995.71625, , , , 
2025-09-28 19:49:55.245,1.1676974,-12.777673,-1.3040884,0.47242755,-0.29588762,-3.7992735,-44.8875,-5.4375,-24.6,0.5125362,-0.5250207,0.5311326,995.73334, , , , 
2025-09-28 19:49:55.265,-0.7704889,-12.220145,-1.4691931,0.2787834,-0.39606944,-3.1951282,-45.9,-9.431251,-20.400002,0.532634,-0.5077991,0.5178271,995.73334, , , , 
2025-09-28 19:49:55.286,-2.498107,-10.892129,-0.63888365,0.12179117,-0.33376125,-2.0143266,-43.125,-11.868751,-23.34375,0.5510669,-0.4927749,0.5036092,995.73114, , , , 
2025-09-28 19:49:55.305,-3.2685957,-10.076176,-0.6652047,0.063759014,-0.06436988,-1.1957678,-42.2625,-12.656251,-23.38125,0.5617931,-0.48389378,0.4949123,995.73114, , , , 
2025-09-28 19:49:55.325,-4.098905,-9.932607,-0.8925229,0.06864593,0.12988512,-0.39920014,-39.84375,-12.39375,-24.73125,0.5649799,-0.480098,0.49277285,995.727, , , , 
2025-09-28 19:49:55.345,-4.0151563,-10.226924,-1.8113668,0.089415334,0.0956767,0.34849834,-41.925003,-13.125001,-22.462502,0.56462383,-0.47982937,0.493992,995.727, , , , 
2025-09-28 19:49:55.365,-3.644269,-10.04507,-2.8354948,-0.06146827,-0.060704686,1.0173953,-45.54375,-14.250001,-20.94375,0.56096995,-0.48445216,0.49805465,995.727, , , , 
2025-09-28 19:49:55.385,-0.9451649,-9.399008,-1.4931214,-0.46036297,-0.047265664,2.0784674,-43.575,-13.293751,-22.59375,0.5498864,-0.4993535,0.50518245,995.7194, , , , 
2025-09-28 19:49:55.405,1.1820544,-9.992428,-0.11964113,-0.5183951,0.3681224,2.6068654,-45.506252,-9.65625,-19.96875,0.5349049,-0.5146989,0.51408297,995.7094, , , , 
2025-09-28 19:49:55.428,1.7898313,-11.282159,-0.078963146,-0.33208138,0.34735298,2.997208,-44.737503,-8.306251,-23.362501,0.5159838,-0.53042984,0.5262357,995.7094, , , , 
2025-09-28 19:49:55.445,2.3138595,-12.203396,-0.6125626,-0.12621993,-0.07475458,3.4388633,-43.987503,-5.9812503,-22.800001,0.49609116,-0.5475766,0.53982544,995.70624, , , , 
2025-09-28 19:49:55.465,4.211368,-13.464413,-1.5720844,0.055206906,-0.48586658,4.0307913,-46.331253,-1.5187501,-21.581251,0.47622302,-0.5674054,0.55352765,995.70624, , , , 
2025-09-28 19:49:55.485,5.8863435,-14.141582,-2.3521447,0.011835505,-0.25557056,4.52437,-43.78125,1.725,-20.79375,0.44792056,-0.5942034,0.5714486,995.69867, , , , 
2025-09-28 19:49:55.505,7.04447,-14.261223,-2.158326,-0.17325652,0.13110685,4.8976083,-45.131252,5.08125,-22.556252,0.4194154,-0.6157251,0.5865536,995.69867, , , , 
2025-09-28 19:49:55.527,8.590233,-13.914264,-1.2777673,-0.2410625,0.33941174,5.123628,-45.0,10.06875,-22.06875,0.3858973,-0.6365967,0.6015985,995.67596, , , , 
2025-09-28 19:49:55.545,9.68136,-13.53859,-0.8805587,-0.18303037,0.34796384,5.14623,-42.862503,16.3875,-21.2625,0.35907155,-0.65107524,0.61238325,995.67596, , , , 
2025-09-28 19:49:55.565,10.621739,-13.205988,-0.8662018,-0.037033677,0.08223767,5.0649853,-40.050003,19.40625,-22.050001,0.3236911,-0.66829723,0.6254451,995.67596, , , , 
2025-09-28 19:49:55.585,11.988042,-12.662817,-1.174876,0.18226677,-0.5634464,4.771159,-36.975002,26.587502,-23.400002,0.2845399,-0.6864326,0.6387278,995.65497, , , , 
2025-09-28 19:49:55.605,12.691531,-12.01197,-1.0671989,0.21708608,-0.6770672,4.5072656,-37.74375,27.6375,-25.5375,0.26424482,-0.69554234,0.64489603,995.65497, , , , 
2025-09-28 19:49:55.625,12.906885,-11.102697,-1.2323036,0.023441937,-0.09613484,3.9526005,-33.80625,29.025002,-24.7875,0.22662148,-0.7098041,0.6541444,995.6386, , , , 
2025-09-28 19:49:55.645,11.97847,-10.820344,-0.7896315,-0.19708025,0.45914125,3.6972592,-31.7625,31.237501,-25.143751,0.2068992,-0.71574897,0.6573015,995.62177, , , , 
2025-09-28 19:49:55.665,11.636296,-10.686346,-0.28713873,-0.3296379,0.8348231,3.5653124,-29.812502,34.3125,-25.81875,0.18574443,-0.72134167,0.65966177,995.62177, , , , 
2025-09-28 19:49:55.685,11.487942,-10.009177,0.38763726,-0.40171996,1.29175,3.3160794,-27.075,36.43125,-22.837502,0.14036661,-0.73103905,0.66282076,995.61346, , , , 
2025-09-28 19:49:55.705,11.413764,-9.420543,0.53599226,-0.34735298,1.2838087,3.1603088,-22.650002,35.662502,-26.025002,0.11747399,-0.73482937,0.6639069,995.61346, , , , 
2025-09-28 19:49:55.725,11.909079,-8.815159,0.57906306,-0.18119776,1.0797799,3.015534,-22.050001,38.175003,-22.3875,0.08872465,-0.738508,0.66525024,995.61346, , , , 
2025-09-28 19:49:55.745,13.390236,-7.62114,-0.75613195,0.118125975,0.722424,2.7290385,-19.050001,39.862503,-23.25,0.057537958,-0.74021155,0.6678779,995.62177, , , , 
2025-09-28 19:49:55.765,14.545969,-6.855437,-2.1918256,0.13645191,0.496404,2.4272711,-13.650001,41.0625,-26.04375,0.041891538,-0.7401699,0.6696328,995.62177, , , , 
2025-09-28 19:49:55.785,16.900507,-7.092326,-2.9766715,-0.04741838,0.11217005,1.763872,-13.8,39.65625,-24.2625,0.02205458,-0.7404206,0.6709531,995.6274, , , , 
2025-09-28 19:49:55.805,17.888742,-7.3986077,-2.928815,-0.2325104,-0.14622575,0.8958332,-11.7375,38.8875,-25.66875,0.012455824,-0.7422155,0.6695633,995.61786, , , , 
2025-09-28 19:49:55.826,18.04906,-8.551949,-1.6845472,-0.55077094,0.09262237,0.2855793,-9.1125,43.143753,-26.175001,0.01089919,-0.7451852,0.6663359,995.61786, , , , 
2025-09-28 19:49:55.845,17.168503,-9.667004,0.37088752,-0.5306124,0.41576985,-0.24404047,-9.76875,41.456253,-25.406252,0.011677601,-0.74879944,0.66205424,995.6088, , , , 
2025-09-28 19:49:55.866,16.728224,-7.8580294,0.8327023,-0.1164461,0.30581418,-0.7651081,-7.8750005,42.787502,-26.75625,0.014570532,-0.7506054,0.6594912,995.6088, , , , 
2025-09-28 19:49:55.885,15.996019,-7.456035,0.14596218,0.098578304,-0.0240528,-1.5244131,-9.46875,40.74375,-25.85625,0.022996845,-0.7502344,0.6589491,995.6401, , , , 
2025-09-28 19:49:55.905,13.744373,-8.822337,-0.32063824,0.27939427,-0.5096903,-2.3307545,-9.58125,40.85625,-26.00625,0.044385277,-0.74790794,0.6590822,995.6401, , , , 
2025-09-28 19:49:55.925,11.353944,-10.470992,-0.96430755,0.32459828,-0.93179786,-2.7632468,-12.750001,41.90625,-25.725,0.06924004,-0.7447277,0.6591059,995.64984, , , , 
2025-09-28 19:49:55.945,10.463814,-11.581262,-0.64606214,0.26412266,-1.1327723,-2.9232934,-16.275002,39.9,-23.081251,0.09051948,-0.74205863,0.65839255,995.64984, , , , 
2025-09-28 19:49:55.965,11.186446,-12.689138,0.4642076,0.23541202,-1.206687,-3.1212137,-18.431252,39.825,-25.95,0.12801297,-0.7370431,0.6556933,995.6589, , , , 
2025-09-28 19:49:55.985,11.794223,-13.299308,0.7752745,0.26778784,-1.1529309,-3.3637269,-23.175001,38.4375,-22.125,0.15942731,-0.7316726,0.6527175,995.6589, , , , 
2025-09-28 19:49:56.005,11.492727,-13.490734,1.012164,0.25679228,-0.9849431,-3.6404486,-26.79375,36.225002,-25.48125,0.18370321,-0.7265675,0.6499998,995.6796, , , , 
2025-09-28 19:49:56.025,10.482956,-13.014563,1.5960127,0.27939427,-0.5011382,-4.0106325,-28.031252,34.48125,-24.31875,0.23201513,-0.7133106,0.64328414,995.6796, , , , 
2025-09-28 19:49:56.045,9.9015,-12.550355,0.87338024,0.31787875,-0.098578304,-4.193892,-32.643753,32.756252,-23.587502,0.25497338,-0.70462143,0.63986593,995.69476, , , , 
2025-09-28 19:49:56.065,9.169296,-12.397214,-0.91884387,0.18226677,0.65339625,-4.424799,-33.112503,30.45,-22.931252,0.28983018,-0.6873392,0.6337509,995.69476, , , , 
2025-09-28 19:49:56.085,8.88455,-12.58864,-1.5625132,-0.031535894,1.1164317,-4.528035,-37.3125,26.531252,-20.8875,0.30805272,-0.67588526,0.62922394,995.6989,37.88832534,127.73973576,144.608642578125,1.13
2025-09-28 19:49:56.105,8.831908,-12.842279,-1.0719845,-0.17508912,1.363832,-4.6159997,-37.59375,24.16875,-24.431252,0.3293023,-0.65969706,0.62182295,995.6989, , , , 
2025-09-28 19:49:56.125,8.176275,-13.153346,0.043070808,8.3993905E-4,0.9007965,-4.724123,-37.275,20.475,-26.1,0.3551204,-0.6375557,0.6103861,995.7043, , , , 
2025-09-28 19:49:56.145,7.3746796,-13.155739,0.40677986,0.23296855,0.41882417,-4.724734,-41.41875,15.431251,-23.212502,0.37878615,-0.6185112,0.5994195,995.7043, , , , 
2025-09-28 19:49:56.165,5.9342003,-12.655639,-0.36610186,0.41195193,0.092011504,-4.565298,-41.15625,11.71875,-22.725,0.40471697,-0.5987173,0.5873506,995.70917, , , , 
2025-09-28 19:49:56.185,5.072784,-12.41875,-0.8470592,0.3606393,0.085292,-4.3478303,-42.225002,8.400001,-25.050001,0.4300508,-0.5788985,0.57462597,995.70917, , , , 
2025-09-28 19:49:56.205,3.3523445,-12.358929,-0.9906286,0.23174682,0.15431972,-4.0106325,-43.256252,3.43125,-23.56875,0.45811933,-0.5549585,0.55824184,995.71796, , , , 
2025-09-28 19:49:56.225,1.7300107,-12.1866455,-0.95473623,0.14866921,0.10361794,-3.5249953,-43.987503,-1.10625,-25.556252,0.47691575,-0.53741735,0.5455486,995.71796, , , , 
2025-09-28 19:49:56.245,1.146162,-12.009577,-0.45224348,0.12667808,-0.06864593,-2.9941537,-44.287502,-2.5125,-24.825,0.48900837,-0.52610576,0.5366033,995.7087, , , , 
2025-09-28 19:49:56.265,0.8877372,-10.533205,0.023928227,0.22319472,-0.26473352,-2.2867723,-41.943752,-5.4,-24.300001,0.50636536,-0.5112989,0.5234389,995.7087, , , , 
2025-09-28 19:49:56.285,-0.6771688,-9.549755,-0.95712906,0.17127122,-0.037491824,-1.7669264,-43.48125,-8.025001,-25.518751,0.51767766,-0.5017768,0.5152831,995.7133, , , , 
2025-09-28 19:49:56.305,-1.7946169,-9.382257,-1.2801601,0.010002911,0.19402592,-1.2818997,-44.025,-7.7250004,-24.093752,0.52326643,-0.49592656,0.5110867,995.7133, , , , 
2025-09-28 19:49:56.325,-2.2444677,-10.626525,-1.6366907,-0.124998204,0.3559051,-0.3100139,-43.96875,-11.08125,-24.675001,0.52558416,-0.48963657,0.50849587,995.70917, , , , 
2025-09-28 19:49:56.345,-3.2590244,-10.925629,-2.1511476,-0.21296273,0.14332415,0.40103272,-41.831253,-10.200001,-28.35,0.523487,-0.4900665,0.50970453,995.70917, , , , 
2025-09-28 19:49:56.365,-3.4217365,-10.217353,-1.579263,-0.31680974,-0.04421134,1.1505638,-42.9,-11.700001,-25.687502,0.51950896,-0.49408826,0.5120251,995.70917, , , , 
2025-09-28 19:49:56.385,-0.08853444,-9.238688,0.03589234,-0.3259727,0.130496,2.2684464,-41.5125,-8.45625,-25.706251,0.5035899,-0.5109191,0.5224081,995.7016, , , , 
2025-09-28 19:49:56.405,2.8474588,-9.810573,-0.0047856453,-0.14088069,0.2691623,2.6850562,-42.65625,-7.05,-28.143751,0.4877955,-0.52415824,0.5341988,995.70624, , , , 
2025-09-28 19:49:56.425,4.1898327,-11.2343025,-0.9236295,0.046654798,-0.055206906,2.8756459,-42.225002,-4.78125,-26.456251,0.47113356,-0.53757334,0.54758984,995.70624, , , , 
2025-09-28 19:49:56.445,4.74736,-12.521641,-1.6965113,0.14805835,-0.51885325,3.0839508,-41.775,-1.9875001,-28.66875,0.4559033,-0.55248916,0.56027025,995.70575, , , , 
2025-09-28 19:49:56.465,5.343173,-13.4763775,-2.4502504,0.14439316,-0.9024764,3.481624,-43.10625,-0.16875,-22.931252,0.44164965,-0.569798,0.57164466,995.70575, , , , 
2025-09-28 19:49:56.487,6.013163,-13.299308,-2.3665016,-0.0077121677,-0.8071815,3.8854055,-41.1375,3.6562502,-24.900002,0.42552885,-0.5890351,0.5824618,995.6899, , , , 
2025-09-28 19:49:56.506,6.836294,-12.787244,-2.036292,-0.1683696,-0.50663596,4.153575,-41.025,9.0375,-28.143751,0.4050683,-0.60896,0.593417,995.6899, , , , 
2025-09-28 19:49:56.525,7.793423,-12.057433,-1.457229,-0.4078286,-0.04848739,4.334391,-42.16875,12.375001,-24.206251,0.37318128,-0.6330983,0.6069383,995.6777, , , , 
2025-09-28 19:49:56.545,8.377272,-11.734403,-0.9284152,-0.4890736,0.09873102,4.3405,-40.93125,15.50625,-25.743752,0.3515978,-0.6467752,0.6144375,995.6777, , , , 
2025-09-28 19:49:56.565,8.578269,-11.959328,-0.30388847,-0.4475348,0.021762058,4.3240066,-38.625,20.56875,-23.025002,0.31416923,-0.6677927,0.62542444,995.66327, , , , 
2025-09-28 19:49:56.585,8.9826565,-12.29193,-0.19860429,-0.30947936,-0.20059273,4.375319,-37.85625,24.150002,-25.95,0.28477752,-0.6828855,0.6331202,995.66327, , , , 
2025-09-28 19:49:56.605,9.949356,-12.141182,-0.14356937,-0.11950042,-0.4541016,4.3881474,-36.075,25.593752,-27.45,0.25689897,-0.69625634,0.64009285,995.66986, , , , 
2025-09-28 19:49:56.625,11.571691,-11.344372,-0.72263247,-0.06146827,-0.30627233,4.1547966,-33.300003,28.81875,-23.4375,0.22385521,-0.7098426,0.6478038,995.66986, , , , 
2025-09-28 19:49:56.645,11.691332,-10.980663,-0.997807,-0.15859577,0.013820816,3.95932,-30.750002,31.837502,-24.806252,0.20409444,-0.7165343,0.65152717,995.664, , , , 
2025-09-28 19:49:56.665,12.763316,-10.408778,-0.8135597,-0.2966512,0.509843,3.6813767,-28.06875,33.487503,-25.500002,0.16978298,-0.72624403,0.65593076,995.664, , , , 
2025-09-28 19:49:56.685,13.155739,-9.724431,-2.0458634,-0.47685632,1.1402555,3.327075,-26.681252,36.09375,-24.093752,0.14089692,-0.73259884,0.65813935,995.66205, , , , 
2025-09-28 19:49:56.705,12.8686,-8.743374,-1.7060826,-1.0156391,1.5189916,2.911687,-23.94375,36.6375,-24.4125,0.11073718,-0.7394071,0.6574675,995.66205, , , , 
2025-09-28 19:49:56.725,12.533605,-7.4129643,1.7635103,-1.0583996,1.201342,2.5189009,-19.331251,39.09375,-24.73125,0.082150705,-0.74728537,0.6533293,995.66547, , , , 
2025-09-28 19:49:56.745,12.47857,-6.65444,3.6777685,-0.51106477,0.52022773,2.1969752,-17.90625,39.84375,-21.675001,0.0595016,-0.7529582,0.64995795,995.66547, , , , 
2025-09-28 19:49:56.765,12.516855,-6.506085,2.57707,0.12362376,-0.06620247,2.0271547,-13.6125,39.80625,-25.218752,0.047841534,-0.7540647,0.65047365,995.66547, , , , 
2025-09-28 19:49:56.785,15.4624195,-6.8099732,-3.103491,0.5286271,-0.5567269,1.7852523,-14.08125,41.362503,-22.1625,0.035492457,-0.7515075,0.655876,995.68085, , , , 
2025-09-28 19:49:56.805,18.51327,-7.2646093,-5.393422,-0.11522437,-0.33192864,1.267239,-11.85,40.5,-26.6625,0.028105566,-0.7503938,0.6586443,995.6962, , , , 
2025-09-28 19:49:56.825,19.67618,-8.980264,-2.3162522,-0.7590758,-0.16088651,0.4327977,-12.356251,41.79375,-24.225,0.025433414,-0.7538992,0.6550191,995.6962, , , , 
2025-09-28 19:49:56.845,19.398613,-9.836894,0.65084773,-0.70348716,-0.32582,-0.024740024,-11.025001,42.675003,-22.706251,0.026619509,-0.7576241,0.6506351,995.6618, , , , 
2025-09-28 19:49:56.865,19.463219,-8.709874,3.048456,-0.11033745,-0.8267291,-0.84268796,-10.96875,43.6875,-23.400002,0.03639746,-0.7609418,0.64610773,995.6618, , , , 
2025-09-28 19:49:56.885,18.11606,-8.384451,3.034099,0.32215482,-0.89514595,-1.7748677,-12.450001,43.0125,-21.0375,0.052997164,-0.75966364,0.64614266,995.7055, , , , 
2025-09-28 19:49:56.905,14.419149,-9.5760765,1.6941184,0.50480336,-0.85910493,-2.3973389,-15.000001,41.8875,-22.40625,0.075716875,-0.7554717,0.6480129,995.7055, , , , 
2025-09-28 19:49:56.925,10.624132,-11.358729,1.1389836,0.6501892,-1.3710096,-2.8047857,-19.3125,38.7,-21.618752,0.10999875,-0.747944,0.6504615,995.7358, , , , 
2025-09-28 19:49:56.945,9.619147,-12.062219,1.5888343,0.7198278,-1.9055163,-2.8713698,-20.868752,39.037502,-20.85,0.1338169,-0.7425991,0.6515019,995.7358, , , , 
2025-09-28 19:49:56.965,10.078569,-12.236895,2.6488547,0.7436515,-2.164523,-3.028362,-24.393751,38.193752,-21.825,0.17754635,-0.7323449,0.65206766,995.7653, , , , 
2025-09-28 19:49:56.985,10.186246,-12.038291,3.4887354,0.7161626,-2.0130286,-3.2806492,-26.831251,36.206253,-23.306252,0.21400219,-0.72254294,0.65146583,995.7653, , , , 
2025-09-28 19:49:57.005,9.877572,-11.399407,4.0534415,0.63675016,-1.7521893,-3.5280495,-31.612501,34.331253,-21.9375,0.24130523,-0.7141642,0.6504188,995.7966, , , , 
2025-09-28 19:49:57.025,8.597412,-11.85165,6.0323057,0.6886737,-1.4608067,-3.8658578,-34.2,33.206253,-21.6,0.2859464,-0.69813186,0.6475759,995.7966, , , , 
2025-09-28 19:49:57.045,8.427522,-12.4115715,6.611369,0.9879974,-1.5866449,-3.97337,-36.825,32.550003,-21.28125,0.32153425,-0.68212515,0.64574987,995.8371, , , , 
2025-09-28 19:49:57.065,9.016156,-12.626925,5.4125648,1.2781582,-1.7735696,-4.1163125,-37.631252,28.837502,-17.4375,0.36814964,-0.6577576,0.64363116,995.8371, , , , 
2025-09-28 19:49:57.085,8.958728,-13.124632,3.306881,1.243339,-1.4620285,-4.2323766,-39.6375,24.656252,-18.525002,0.39623442,-0.64119023,0.6420278,995.841,37.88831964,127.73972333,145.03680419921875,1.42
2025-09-28 19:49:57.105,8.743374,-13.311273,2.524428,0.9024764,-0.82795084,-4.216494,-43.162502,19.66875,-16.331251,0.43058658,-0.6185054,0.63906425,995.841, , , , 
2025-09-28 19:49:57.125,9.796216,-13.194024,3.0077782,0.62331116,-0.29222244,-4.222603,-43.537502,15.750001,-14.3625,0.46608454,-0.5907099,0.63453853,995.8315, , , , 
2025-09-28 19:49:57.145,10.0163555,-13.4022,3.385844,0.6605739,-0.29038984,-4.374708,-44.550003,12.168751,-14.512501,0.49167264,-0.5674672,0.63028294,995.8315, , , , 
2025-09-28 19:49:57.165,9.312865,-13.2921295,3.4289148,0.81206834,-0.45532334,-4.5408635,-46.48125,6.24375,-14.2875,0.51778066,-0.5422182,0.6247987,995.82587, , , , 
2025-09-28 19:49:57.185,8.082955,-13.30888,2.7684958,0.9189697,-0.5457313,-4.606837,-49.4625,0.3375,-12.712501,0.54452926,-0.51501936,0.617994,995.82587, , , , 
2025-09-28 19:49:57.205,6.6855464,-13.174882,2.3952155,0.9208023,-0.55917037,-4.5323114,-48.3375,-2.775,-13.275001,0.57075065,-0.48679465,0.6099795,995.81366, , , , 
2025-09-28 19:49:57.225,4.615755,-12.94517,2.062613,0.9342413,-0.40278897,-4.2604766,-49.48125,-7.65,-11.475,0.60062975,-0.45153612,0.5992637,995.81366, , , , 
2025-09-28 19:49:57.245,3.0053852,-12.497713,1.3232309,0.9745584,-0.30566147,-3.9238899,-47.41875,-10.650001,-13.5375,0.6163525,-0.43074825,0.59332407,995.79706, , , , 
2025-09-28 19:49:57.265,0.8709874,-11.796616,-0.3182454,0.9354631,-0.23907721,-3.2769842,-46.425003,-15.76875,-13.031251,0.638933,-0.3983301,0.5845013,995.79706, , , , 
2025-09-28 19:49:57.285,-0.6149554,-10.908878,-1.3495519,0.70272356,-0.14011711,-2.5824308,-47.49375,-18.993752,-13.368751,0.6533824,-0.37646207,0.5783131,995.7753, , , , 
2025-09-28 19:49:57.305,-1.2059826,-9.853643,-1.7467605,0.45715594,0.030314164,-2.075413,-43.331253,-19.3125,-13.012501,0.6613848,-0.36349785,0.57456005,995.7753, , , , 
2025-09-28 19:49:57.325,-2.900101,-9.332008,-1.524228,0.042989608,0.36384633,-1.135903,-45.24375,-23.5125,-9.9375,0.66930366,-0.34614322,0.57063323,995.75116, , , , 
2025-09-28 19:49:57.345,-3.682554,-9.169296,-1.0983056,-0.054748755,0.34246606,-0.36315912,-44.7,-23.831251,-10.9125,0.6696295,-0.34208924,0.57082844,995.75116, , , , 
2025-09-28 19:49:57.365,-3.1250265,-8.413164,-0.19860429,-0.037644543,0.21723878,0.34177884,-43.331253,-23.681252,-12.13125,0.6683416,-0.3417149,0.57223225,995.75116, , , , 
2025-09-28 19:49:57.385,-0.9954142,-8.090134,-0.06699903,0.17188208,0.06940951,1.3338232,-44.362503,-23.550001,-10.950001,0.6625696,-0.3498675,0.5787169,995.7375, , , , 
2025-09-28 19:49:57.405,-0.33499518,-8.384451,-0.72741807,0.24213153,-0.08086322,1.854891,-43.050003,-21.75,-15.056251,0.65860474,-0.35711756,0.5834189,995.71356, , , , 
2025-09-28 19:49:57.427,0.8279166,-8.992228,-0.41156548,0.34109163,-0.4143954,2.5879285,-44.925003,-21.975,-11.137501,0.6509419,-0.37426642,0.59161216,995.71356, , , , 
2025-09-28 19:49:57.445,1.995614,-9.403793,-0.26799613,0.5023599,-0.5793289,3.0650141,-44.850002,-18.862501,-12.4125,0.6438195,-0.39185268,0.59837776,995.6877, , , , 
2025-09-28 19:49:57.465,3.6275191,-10.24846,-0.9499506,0.7100539,-0.7118865,3.5903578,-44.025,-14.793751,-12.731251,0.6354399,-0.41155457,0.60566986,995.6877, , , , 
2025-09-28 19:49:57.485,4.9603214,-10.916057,-1.7970098,0.78396857,-0.7112757,3.94527,-47.737503,-12.58125,-9.225,0.6253902,-0.43261522,0.6131688,995.6479, , , , 
2025-09-28 19:49:57.505,5.9916277,-11.49512,-2.4191437,0.71738434,-0.6294198,4.1951137,-48.206253,-9.150001,-9.675,0.61283743,-0.45475435,0.6205048,995.6479, , , , 
2025-09-28 19:49:57.525,7.164111,-12.236895,-2.7493532,0.4889209,-0.416228,4.5072656,-50.41875,-4.78125,-8.15625,0.59282446,-0.48401347,0.6286768,995.6115, , , , 
2025-09-28 19:49:57.545,7.932207,-12.758531,-2.4741786,0.36247188,-0.2635118,4.637991,-50.175003,0.84375006,-7.5750003,0.57822126,-0.50225943,0.63296455,995.6115, , , , 
2025-09-28 19:49:57.565,8.652447,-13.167703,-1.7563318,0.3502546,-0.22197299,4.745503,-51.862503,2.6625001,-7.9687505,0.55601275,-0.5267343,0.6379847,995.6115, , , , 
2025-09-28 19:49:57.585,10.880164,-13.593625,-1.4548361,0.74609494,-0.985554,4.7198467,-50.1375,7.89375,-3.6562502,0.5276396,-0.5550476,0.64205945,995.5866, , , , 
2025-09-28 19:49:57.605,11.662618,-13.49552,-2.2875385,1.0570252,-1.7192025,4.50299,-48.018753,14.493751,-6.8812504,-0.51021045,0.5729376,-0.64140904,995.5712, , , , 
2025-09-28 19:49:57.625,11.392229,-12.930814,-3.5437703,1.2628865,-2.3025784,4.0937104,-47.5125,18.393751,-6.99375,-0.49662054,0.58845216,-0.6352046,995.5712, , , , 
2025-09-28 19:49:57.645,11.480763,-12.335001,-4.206582,1.0912336,-1.8273256,3.9758134,-45.1875,20.71875,-3.9750001,-0.48870063,0.5960002,-0.63051856,995.5617, , , , 
2025-09-28 19:49:57.665,11.810972,-11.392229,-3.129812,0.6141482,-0.5646681,3.779115,-44.025,25.181252,-2.49375,-0.4695752,0.60990244,-0.6241231,995.5617, , , , 
2025-09-28 19:49:57.685,11.875579,-10.73181,-2.333002,0.4663189,0.16898046,3.5848598,-42.35625,28.237501,-4.2375,-0.448909,0.6222053,-0.62140536,995.56464, , , , 
2025-09-28 19:49:57.705,12.093326,-10.073783,-2.213361,0.44677123,0.34490952,3.3618944,-39.16875,29.550001,-4.18125,-0.4319151,0.6311691,-0.62042814,995.56464, , , , 
2025-09-28 19:49:57.725,12.827922,-9.047262,-1.9070797,0.6123156,0.06391173,2.9410086,-36.375,33.956253,-4.1062503,-0.4055717,0.6434045,-0.61896306,995.5622, , , , 
2025-09-28 19:49:57.745,13.459627,-8.212168,-2.2899313,0.8426116,-0.08025236,2.6642869,-34.40625,34.912502,-4.9875,-0.38797954,0.64927775,-0.6182442,995.5622, , , , 
2025-09-28 19:49:57.765,14.098511,-7.015756,-5.3766723,0.8303943,0.415159,2.2580616,-33.825,36.225002,-6.675,-0.36756516,0.65324986,-0.61970145,995.54486, , , , 
2025-09-28 19:49:57.785,14.9096775,-6.4677997,-6.2883377,0.42355835,0.78289956,1.9043709,-31.593752,36.5625,-4.2937503,-0.35532758,0.6564455,-0.62089777,995.54486, , , , 
2025-09-28 19:49:57.805,15.63231,-6.3960147,-5.288138,0.07903063,0.8238275,1.4291182,-31.275002,39.35625,-7.425,-0.34108704,0.66221225,-0.6215115,995.5263, , , , 
2025-09-28 19:49:57.825,16.453049,-7.5613194,-3.7663028,-0.025427246,0.2325104,0.6734784,-27.656252,37.612503,-8.00625,-0.33079606,0.66777873,-0.62132907,995.5263, , , , 
2025-09-28 19:49:57.845,16.795221,-8.700303,-3.129812,0.0112246405,-0.3569741,0.1499673,-30.487501,38.925003,-7.0125003,-0.33020052,0.668495,-0.6209999,995.5319, , , , 
2025-09-28 19:49:57.865,16.453049,-8.413164,-1.9262222,0.052763447,-0.9849431,-0.5238165,-29.212502,40.29375,-5.8500004,-0.33841982,0.6649264,-0.6201389,995.5319, , , , 
2025-09-28 19:49:57.885,15.996019,-7.668997,-0.27038896,-0.06696605,-1.0869576,-1.1310161,-26.41875,40.74375,-9.5625,-0.35135472,0.65896845,-0.619453,995.5622, , , , 
2025-09-28 19:49:57.905,15.469599,-8.008778,1.2849457,-0.10361794,-1.0374775,-1.6636902,-33.09375,38.5125,-4.70625,-0.36380383,0.6532223,-0.619435,995.5622, , , , 
2025-09-28 19:49:57.925,13.045669,-9.626326,2.5435705,0.08575014,-1.0930662,-2.482249,-30.825,36.768753,-4.5375004,-0.3945884,0.63652056,-0.62243855,995.613, , , , 
2025-09-28 19:49:57.945,11.526227,-10.595419,2.2277179,0.14744748,-1.1871394,-2.771188,-34.068752,35.0625,-5.9625,-0.41213998,0.62546676,-0.6249408,995.613, , , , 
2025-09-28 19:49:57.965,11.169696,-11.241481,2.457429,0.09613484,-1.2353977,-2.9452846,-37.0125,33.75,-2.79375,-0.4368357,0.6092389,-0.6278339,995.65326, , , , 
2025-09-28 19:49:57.985,11.586047,-11.856436,3.9338005,0.030161448,-1.283045,-3.3111925,-36.1875,32.71875,-3.1312501,-0.46892458,0.58720416,-0.6306301,995.65326, , , , 
2025-09-28 19:49:58.005,10.576276,-12.045469,7.200003,0.20609051,-1.5133412,-3.7754498,-38.8875,29.56875,-2.6625001,-0.4967753,0.56656784,-0.63235337,995.7099, , , , 
2025-09-28 19:49:58.025,8.819944,-12.095718,8.200203,0.70516706,-1.6355141,-3.9929175,-41.7,26.550001,-2.04375,-0.5257706,0.5410901,-0.6349257,995.7099, , , , 
2025-09-28 19:49:58.045,7.4536424,-11.724831,7.836494,1.0979531,-1.6935463,-4.003302,-44.34375,25.143751,-1.3875,-0.5540914,0.5109789,-0.63863605,995.77606, , , , 
2025-09-28 19:49:58.065,7.850851,-11.913864,5.898308,1.423544,-1.6941571,-3.891514,-46.443752,22.181252,0.71250004,-0.58689845,0.4696159,-0.64358014,995.77606, , , , 
2025-09-28 19:49:58.085,8.965906,-12.098111,4.503292,1.4064398,-1.4980695,-3.9446592,-46.706253,17.400002,3.3187501,-0.6110053,0.4353295,-0.6470368,995.78534,37.88831275,127.73970954,145.1151123046875,1.49
2025-09-28 19:49:58.105,9.851251,-12.756138,3.5940197,1.2775474,-1.3594033,-4.104706,-45.7125,15.88125,4.2375,-0.6279633,0.40927494,-0.6493686,995.78534, , , , 
2025-09-28 19:49:58.125,9.23151,-12.662817,3.495914,1.0643555,-1.1058943,-4.311178,-47.5125,10.59375,4.2562504,-0.6547833,0.3653247,-0.65213615,995.77386, , , , 
2025-09-28 19:49:58.145,8.209774,-12.435499,3.3667014,0.9873866,-0.7247147,-4.3124,-46.631252,7.18125,6.525,-0.6733222,0.33027628,-0.654521,995.77386, , , , 
2025-09-28 19:49:58.165,7.4249287,-12.504891,2.4861426,0.9354631,-0.34720027,-4.190227,-48.750004,3.2250001,6.9750004,-0.68787634,0.29607278,-0.6580802,995.75555, , , , 
2025-09-28 19:49:58.185,6.9056864,-12.129218,1.4476577,0.88537216,-0.16821688,-4.060113,-47.71875,-3.15,8.00625,-0.69925654,0.2630071,-0.66200155,995.75555, , , , 
2025-09-28 19:49:58.205,6.283552,-11.983255,0.56470615,0.79496413,-0.16394083,-3.940994,-47.4,-6.6000004,9.243751,-0.708626,0.23117577,-0.6652968,995.73944, , , , 
2025-09-28 19:49:58.225,4.6085763,-11.71526,0.3397808,0.60620695,-0.15477787,-3.6263988,-47.60625,-10.25625,11.793751,-0.7187062,0.19420867,-0.6673319,995.73944, , , , 
2025-09-28 19:49:58.245,3.6227336,-11.46162,0.16271193,0.50480336,-0.10224349,-3.3197446,-45.881252,-14.925,10.012501,-0.7236081,0.17416455,-0.6678288,995.72675, , , , 
2025-09-28 19:49:58.265,1.8305093,-11.222338,-0.6867401,0.31604618,0.20502149,-2.8878632,-47.15625,-17.775002,8.775001,0.72928077,-0.1447664,0.66862965,995.72675, , , , 
2025-09-28 19:49:58.285,-0.67477596,-11.32523,-2.2181466,-0.0058795735,0.645455,-2.4407103,-46.987503,-21.35625,7.8750005,0.73048437,-0.12547326,0.6708028,995.71844, , , , 
2025-09-28 19:49:58.305,-3.2757742,-11.464013,-2.507678,-0.28565565,0.80000377,-1.9330816,-44.15625,-22.556252,7.3500004,0.72912735,-0.11489603,0.67366636,995.71844, , , , 
2025-09-28 19:49:58.325,-4.2257247,-11.428121,-0.89491564,-0.34552038,0.32047492,-0.8634574,-43.21875,-25.087502,8.775001,0.72560906,-0.106207415,0.67796785,995.70404, , , , 
2025-09-28 19:49:58.345,-4.048656,-11.7463665,-0.74895346,-0.1476002,-0.11140647,-0.17989968,-45.1875,-25.406252,8.85,0.7248981,-0.10561115,0.6785226,995.70404, , , , 
2025-09-28 19:49:58.365,-4.048656,-11.468799,-1.0767702,-3.8179048E-4,-0.66484994,1.0491602,-43.350002,-24.337502,7.8187504,0.7274321,-0.11196995,0.6752045,995.6965, , , , 
2025-09-28 19:49:58.385,-1.6965113,-10.980663,-0.8111669,0.083306685,-0.6947823,1.958127,-45.05625,-23.400002,7.6312504,0.7296518,-0.12090828,0.6718656,995.6965, , , , 
2025-09-28 19:49:58.405,1.3710874,-10.77488,-1.0504491,0.12362376,-0.36125016,2.708269,-46.3875,-23.306252,9.7875,0.7305906,-0.13797013,0.6683728,995.67816, , , , 
2025-09-28 19:49:58.425,4.651647,-11.296515,-0.6580262,0.34536767,-0.20547964,3.1315982,-46.162502,-19.29375,9.525001,-0.72706723,0.16424511,-0.66660506,995.67816, , , , 
2025-09-28 19:49:58.445,5.8360944,-11.650654,-1.2634103,0.65629786,-0.48464483,3.2562146,-47.86875,-17.493752,10.21875,-0.72309595,0.18513829,-0.6647093,995.653, , , , 
2025-09-28 19:49:58.465,6.606583,-11.992827,-2.5316064,0.8670462,-0.8071815,3.3600616,-48.0,-16.63125,10.950001,-0.7209046,0.19974631,-0.66143113,995.653, , , , 
2025-09-28 19:49:58.485,6.9894347,-12.1148615,-4.2927237,0.7577014,-1.0105994,3.5274386,-49.631252,-8.493751,14.83125,-0.7186798,0.2234847,-0.65187633,995.6252, , , , 
2025-09-28 19:49:58.505,7.099505,-11.73201,-4.5798626,0.37102398,-0.5976548,3.7052004,-46.912502,-5.34375,12.20625,-0.7155199,0.24483623,-0.64262784,995.6252, , , , 
2025-09-28 19:49:58.525,7.587641,-11.148161,-2.8283165,-0.15493058,0.28015786,3.896401,-50.156254,-0.31875002,13.031251,-0.70488405,0.27770412,-0.6340361,995.6081, , , , 
2025-09-28 19:49:58.545,8.271988,-10.968699,-1.7491534,-0.31864235,0.5660426,3.937329,-49.593754,3.8437502,12.281251,-0.6949173,0.29966772,-0.63077384,995.6081, , , , 
2025-09-28 19:49:58.565,8.898908,-10.73181,-0.6197411,-0.28565565,0.37362018,3.8084364,-47.456253,6.20625,9.6,-0.6801747,0.32883772,-0.6263854,995.6081, , , , 
2025-09-28 19:49:58.585,8.793623,-10.837093,-0.033499517,0.03932442,-0.27511823,3.571421,-48.937504,11.38125,12.093751,-0.6641616,0.3601795,-0.6175308,995.6025, , , , 
2025-09-28 19:49:58.605,8.312666,-11.160125,-0.9092726,0.18959716,-0.41500625,3.4895651,-49.350002,13.06875,12.4875,-0.6559337,0.37592185,-0.6105231,995.6042, , , , 
2025-09-28 19:49:58.625,8.762517,-11.339586,-2.0817556,0.005726857,-0.014889829,3.6490006,-47.193752,16.29375,10.06875,-0.6376211,0.40670636,-0.59593785,995.6042, , , , 
2025-09-28 19:49:58.645,10.217353,-10.798809,-0.8997013,-0.13293944,0.09812015,3.6777115,-46.912502,19.181252,11.26875,-0.626617,0.42371643,-0.5886903,995.60126, , , , 
2025-09-28 19:49:58.665,11.629118,-10.01157,0.11246266,-0.029092435,0.06635518,3.4290895,-43.725002,21.993752,11.55,-0.6115519,0.44525924,-0.57925117,995.60126, , , , 
2025-09-28 19:49:58.685,11.483156,-8.953942,-0.5814559,0.20059273,0.14332415,2.992321,-43.275,26.268751,10.650001,-0.59356284,0.46705914,-0.56912845,995.6076, , , , 
2025-09-28 19:49:58.705,10.755738,-8.133204,-1.9573289,0.1523344,0.48601928,2.8194463,-42.075,26.5125,11.418751,-0.5825666,0.4784654,-0.5645219,995.6076, , , , 
2025-09-28 19:49:58.725,10.722239,-7.0540414,-2.2229323,-0.17631085,0.97715455,2.6655085,-38.006252,29.812502,8.962501,-0.5625736,0.4990939,-0.5588653,995.6005, , , , 
2025-09-28 19:49:58.745,12.193824,-6.384051,-0.8255238,-0.16165009,0.77801263,2.450484,-38.71875,32.100002,9.525001,-0.54648,0.516277,-0.55490184,995.6005, , , , 
2025-09-28 19:49:58.765,13.708481,-5.8360944,-0.5766702,0.26473352,-0.08452842,1.8854342,-36.91875,31.650002,10.59375,-0.53369945,0.52858585,-0.5506919,995.6086, , , , 
2025-09-28 19:49:58.785,14.632111,-6.309873,-2.4502504,0.43088874,-0.56772244,1.4511093,-35.081253,34.8375,8.981251,-0.5258674,0.5339071,-0.54628587,995.6086, , , , 
2025-09-28 19:49:58.805,15.266209,-6.8602223,-3.4121652,0.3087158,-0.7076105,1.0668753,-34.537502,33.2625,10.556251,-0.5228222,0.5346839,-0.54152644,995.5966, , , , 
2025-09-28 19:49:58.825,16.654045,-7.4536424,-3.1513474,-0.15004367,-0.22502731,0.49999282,-32.287502,34.143753,8.56875,-0.5228786,0.53492075,-0.5367052,995.5966, , , , 
2025-09-28 19:49:58.845,17.343178,-8.504091,-1.4811572,-0.33574656,0.045585785,0.00641408,-32.90625,35.550003,10.106251,-0.52489686,0.53568095,-0.535625,995.6037, , , , 
2025-09-28 19:49:58.865,16.771294,-8.085348,0.5623133,-0.13477205,-0.1419497,-0.6679806,-30.900002,34.29375,6.8812504,-0.52922696,0.53375983,-0.5371823,995.6037, , , , 
2025-09-28 19:49:58.885,16.060625,-7.2119675,0.89730847,0.07903063,-0.30566147,-1.2837323,-32.79375,36.1875,11.137501,-0.5364489,0.5268806,-0.5408835,995.6296, , , , 
2025-09-28 19:49:58.905,14.105689,-8.039884,1.1676974,0.24335326,-0.34109163,-2.0387611,-33.862503,35.081253,9.76875,-0.54945683,0.51175535,-0.5491464,995.6296, , , , 
2025-09-28 19:49:58.925,12.887743,-8.949157,1.1150553,0.348422,-0.45654505,-2.291659,-34.48125,32.8875,11.512501,-0.5557148,0.50376105,-0.55341154,995.6296, , , , 
2025-09-28 19:49:58.945,10.73181,-11.042876,0.4977071,0.56100297,-0.9971604,-2.5940373,-36.05625,30.862501,10.856251,-0.57370865,0.47929356,-0.56371766,995.6552, , , , 
2025-09-28 19:49:58.965,11.219945,-11.751152,0.5240282,0.5799397,-1.2054653,-2.6783366,-38.90625,29.60625,8.2875,-0.5899682,0.45672044,-0.5699791,995.6552, , , , 
2025-09-28 19:49:58.985,12.409178,-12.342179,1.2634103,0.5646681,-1.274493,-3.0039275,-38.775,25.987501,9.731251,-0.6116247,0.42589667,-0.57660866,995.67035, , , , 
2025-09-28 19:49:59.005,12.217752,-12.401999,1.6462619,0.57444197,-1.1559852,-3.3056948,-40.55625,26.156252,12.993751,-0.6249551,0.4057331,-0.5809624,995.6889, , , , 
2025-09-28 19:49:59.025,10.985449,-12.203396,1.1772687,0.5310706,-0.5994874,-3.6410596,-42.131252,24.768751,11.231251,-0.6457313,0.37030384,-0.59041685,995.6889, , , , 
2025-09-28 19:49:59.045,10.10489,-11.9306135,0.9834501,0.45532334,-0.11934771,-3.7907214,-41.568752,20.23125,10.35,-0.6591874,0.34227055,-0.60094833,995.69794, , , , 
2025-09-28 19:49:59.065,9.982856,-11.71526,0.81595254,0.4406626,0.27710354,-3.940994,-43.7625,19.743752,12.76875,-0.6716786,0.30805546,-0.61715186,995.69794, , , , 
2025-09-28 19:49:59.085,10.236495,-11.538191,1.0695918,0.53717923,0.19402592,-4.2152724,-45.768753,16.40625,14.55,-0.67998075,0.27937925,-0.6307058,995.7033,37.88830435,127.73969996,145.7567138671875,1.35
2025-09-28 19:49:59.105,9.643075,-11.660225,0.91166544,0.6404154,-0.023441937,-4.4376273,-46.55625,12.356251,12.712501,-0.68651164,0.25562447,-0.6400327,995.7033, , , , 
2025-09-28 19:49:59.125,8.092526,-12.169896,0.44985065,0.678289,-0.2775617,-4.6135564,-48.937504,7.36875,16.0125,-0.6982106,0.21266171,-0.65261203,995.7048, , , , 
2025-09-28 19:49:59.145,7.3172517,-12.30868,0.5383851,0.6617956,-0.32887432,-4.592176,-46.65,3.2625,13.856251,-0.7049486,0.18627664,-0.6585424,995.7048, , , , 
2025-09-28 19:49:59.165,6.0251274,-12.35175,0.36610186,0.66851515,-0.3832413,-4.392423,-46.95,-1.63125,15.8625,-0.7147504,0.14281788,-0.6661437,995.6999, , , , 
2025-09-28 19:49:59.185,5.395815,-12.543177,-0.1794617,0.6294198,-0.48586658,-4.118145,-46.8375,-6.2250004,15.4875,-0.72132725,0.1095598,-0.67001027,995.6999, , , , 
2025-09-28 19:49:59.205,4.84068,-12.433106,-0.45702913,0.52801627,-0.5781072,-3.833482,-46.96875,-11.212501,15.4875,-0.72733206,0.078660294,-0.67157453,995.69135, , , , 
2025-09-28 19:49:59.225,4.0031924,-11.545369,-0.27517462,0.4125628,-0.6110939,-3.4547458,-48.581253,-13.275001,17.475,-0.7340718,0.044056177,-0.67098296,995.69135, , , , 
2025-09-28 19:49:59.245,2.78046,-11.662618,-0.72263247,0.28733552,-0.5952114,-3.1749697,-45.225002,-17.025002,16.087502,-0.73864555,0.019208929,-0.6693094,995.69183, , , , 
2025-09-28 19:49:59.265,0.65084773,-11.693725,-0.634098,0.08513928,-0.6398045,-2.6746714,-42.768753,-20.23125,13.856251,-0.74264246,-0.0018839916,-0.66679615,995.69183, , , , 
2025-09-28 19:49:59.287,-0.20338993,-11.152946,-0.02632105,0.009392046,-0.6135373,-2.0631957,-43.40625,-21.69375,17.25,-0.7466531,-0.01785083,-0.6631642,995.69867, , , , 
2025-09-28 19:49:59.305,-1.1844472,-10.707881,-0.19381863,0.008781182,-0.35391977,-1.5732822,-43.275,-22.95,21.018751,-0.748977,-0.026909608,-0.6607496,995.69867, , , , 
2025-09-28 19:49:59.325,-3.4073794,-10.719846,-1.4811572,-0.14332415,0.1494328,-0.75228,-40.443752,-24.375002,18.337502,-0.7500333,-0.03639319,-0.65956426,995.6972, , , , 
2025-09-28 19:49:59.345,-3.9074793,-11.612369,-1.5337993,-0.23861906,0.21846052,0.00641408,-42.0,-25.425001,19.95,-0.7491051,-0.036854845,-0.66070706,995.6972, , , , 
