Time,Accel_X,Accel_Y,Accel_Z,Gyro_X,Gyro_Y,Gyro_Z,Mag_X,Mag_Y,Mag_Z,Orient_X,Orient_Y,Orient_Z,Pressure,Lat,Lng,Alt,Speed
2025-09-28 20:00:58.887,1.1724831,5.424529,7.958528,-0.022983788,0.102396205,-0.02046397,20.41875,-31.650002,-33.206253,0.21574768,0.1824319,0.70455676,995.8598,37.88836552,127.73983704,143.9266357421875,0.0
2025-09-28 20:00:58.906,0.66041905,5.5800624,8.441878,-0.059635673,0.28870997,-0.068722285,22.706251,-32.1375,-35.8875,0.21380204,0.18362501,0.7048066,995.8598, , , , 
2025-09-28 20:00:58.925,0.7082755,5.558527,9.552148,0.037491824,0.2606102,-0.088269964,20.493752,-32.006252,-33.3375,0.21151784,0.18531272,0.7050452,995.85614, , , , 
2025-09-28 20:00:58.945,0.28235307,5.5968122,8.894122,0.102854356,0.19402592,-0.07910699,22.40625,-31.2,-33.131252,0.20974803,0.18801533,0.70481974,995.85614, , , , 
2025-09-28 20:00:58.966,0.4211368,5.6374903,8.662018,0.12484549,0.10728313,-0.07788526,22.7625,-32.4,-34.18125,0.20920652,0.18988055,0.7044309,995.8361, , , , 
2025-09-28 20:00:58.985,-0.3062813,5.419743,8.185846,0.102854356,0.112780906,-0.027183482,24.54375,-31.706251,-36.09375,0.20915668,0.19148682,0.70397747,995.8361, , , , 
2025-09-28 20:00:59.006,0.37328035,5.369494,7.8891363,0.045433067,0.18608469,0.03329213,22.25625,-33.5625,-35.1375,0.20872925,0.19270179,0.7041062,995.8005, , , , 
2025-09-28 20:00:59.026,0.32063824,5.3312087,7.908279,-0.008323032,0.18303037,0.02535089,21.862501,-31.85625,-34.575,0.20770167,0.1940141,0.704592,995.8005, , , , 
2025-09-28 20:00:59.045,0.55752766,5.3383875,8.396415,-0.013820816,0.19585852,0.008246674,25.275002,-33.112503,-35.79375,0.2067382,0.19479023,0.7049878,995.7695, , , , 
2025-09-28 20:00:59.066,0.16271193,5.252246,8.970692,0.08880447,0.12621993,-0.013744458,24.69375,-31.575,-34.893753,0.20466775,0.1967754,0.7054734,995.747, , , , 
2025-09-28 20:00:59.088,0.0741775,5.2283173,8.300702,0.11568252,0.06696605,0.013133593,24.525002,-30.956251,-34.912502,0.20449354,0.1981551,0.70545954,995.747, , , , 
2025-09-28 20:00:59.106,0.31585258,5.2163534,8.243274,0.013057235,0.17447825,0.058337588,23.362501,-32.456253,-35.15625,0.20429474,0.19942677,0.70579755,995.74945, , , , 
2025-09-28 20:00:59.125,0.11485548,5.178068,8.391629,-9.926553E-4,0.26244277,0.09498947,24.843752,-32.41875,-36.5625,0.20328471,0.20031889,0.7064603,995.74945, , , , 
2025-09-28 20:00:59.145,0.34456646,5.474778,7.2693954,0.025885396,0.11827869,0.160352,25.781252,-31.85625,-32.2125,0.2018564,0.20174712,0.70772934,995.74945, , , , 
2025-09-28 20:00:59.165,1.6007984,5.2570314,8.200203,-0.0297033,-0.08697187,-0.02535089,24.712502,-32.943752,-34.350002,0.20239282,0.20117582,0.7081053,995.7563, , , , 
2025-09-28 20:00:59.187,0.51445687,5.151747,8.477771,0.008170316,0.037644543,-0.016187917,24.0,-30.431252,-31.48125,0.20291899,0.20046264,0.7077547,995.7756, , , , 
2025-09-28 20:00:59.205,0.66041905,5.4388857,8.681161,0.07170025,0.092011504,-0.050396346,25.612501,-31.35,-34.068752,0.20279747,0.20089066,0.70764685,995.7756, , , , 
2025-09-28 20:00:59.225,0.2440679,5.4676,8.176275,0.05948296,0.1579849,-0.057726722,24.056252,-31.556252,-30.656252,0.20233898,0.20219609,0.7074367,995.7756, , , , 
2025-09-28 20:00:59.245,-0.35653058,5.5369916,8.013563,-0.031535894,0.059635673,-0.008857539,25.125002,-29.94375,-31.63125,0.20147061,0.20331231,0.70737195,995.79, , , , 
2025-09-28 20:00:59.265,0.13160525,5.419743,8.676374,-0.010155627,-0.10651954,-0.0027488915,23.71875,-31.087502,-31.25625,0.20143558,0.20277001,0.7073921,995.7846, , , , 
2025-09-28 20:00:59.286,0.4331009,5.4795637,8.69791,0.05337431,-0.09674571,-0.03695732,24.375002,-31.612501,-33.768753,0.20200177,0.2023475,0.70713824,995.7846, , , , 
2025-09-28 20:00:59.305,0.5312066,5.613562,7.7383885,0.0063377223,0.14088069,-0.0772744,25.10625,-32.4,-33.80625,0.20239905,0.20286775,0.7065491,995.78217, , , , 
2025-09-28 20:00:59.325,0.44985065,5.6374903,8.008778,-0.11033745,0.2013563,-0.07788526,25.987501,-31.687502,-34.55625,0.20149615,0.20400836,0.7064402,995.78217, , , , 
2025-09-28 20:00:59.346,0.41635114,5.278567,8.970692,-0.14210242,0.10300707,-0.017409647,26.6625,-31.25625,-34.18125,0.19967003,0.20447744,0.7066666,995.78217, , , , 
2025-09-28 20:00:59.365,-0.38763726,5.020142,8.872586,-0.01687514,-0.01244637,0.08643737,24.6,-31.85625,-31.931252,0.19776754,0.2037992,0.70716524,995.7797, , , , 
2025-09-28 20:00:59.385,0.6149554,5.534599,8.236095,0.09063706,-0.21403174,-0.024129158,25.406252,-30.88125,-33.91875,0.19895945,0.20277141,0.7073834,995.7797, , , , 
2025-09-28 20:00:59.405,0.60777694,5.3790655,7.513463,-0.011377357,0.11217005,-0.03084867,24.562502,-31.462502,-33.956253,0.20083314,0.20221624,0.70676,995.77313, , , , 
2025-09-28 20:00:59.425,0.44027936,5.6757755,7.9680996,-0.1702022,0.36323547,0.040622506,25.725,-32.2125,-34.350002,0.19983442,0.20323338,0.7072816,995.77313, , , , 
2025-09-28 20:00:59.445,0.12921242,5.151747,8.968299,-0.18608469,0.2709949,0.05894845,26.962502,-31.968752,-34.631252,0.19657274,0.20399386,0.7086416,995.72626, , , , 
2025-09-28 20:00:59.465,0.11964113,5.1661043,9.257831,-0.0028252497,-0.15844305,0.062002774,24.937502,-31.800001,-33.825,0.19415058,0.202587,0.7098727,995.7353, , , , 
2025-09-28 20:00:59.485,0.3182454,5.206782,7.6953177,0.049098257,-0.24335326,0.12247839,22.96875,-32.11875,-34.050003,0.19583453,0.20077097,0.7100149,995.7353, , , , 
2025-09-28 20:00:59.505,2.3162522,1.8017955,7.2670026,-0.15737404,-0.08025236,-0.05222894,22.9125,-30.768751,-32.4375,0.19774847,0.19942562,0.71036744,995.7443, , , , 
2025-09-28 20:00:59.525,0.69152576,4.7784667,8.573483,-0.22334744,-0.03810269,-0.25747952,25.706251,-32.23125,-32.643753,0.19747385,0.19768412,0.7105029,995.7443, , , , 
2025-09-28 20:00:59.545,-0.8877372,7.0468626,9.152547,-0.064522594,-0.2115883,-0.26542073,23.325,-31.725,-32.8875,0.19637902,0.19660051,0.7088773,995.7443, , , , 
2025-09-28 20:00:59.565,0.08853444,5.831309,8.078169,-0.15248711,-0.30199626,0.109039366,23.60625,-31.706251,-32.60625,0.19932742,0.19258478,0.7071407,995.78705, , , , 
2025-09-28 20:00:59.585,0.34217364,5.54417,8.243274,-0.052305296,-0.21586435,0.19883649,24.54375,-31.48125,-32.568752,0.2003416,0.19057035,0.707572,995.78705, , , , 
2025-09-28 20:00:59.605,1.4333007,3.4193435,6.8745794,0.045433067,0.23739733,0.04856375,21.825,-30.393751,-32.025,0.20146821,0.18923613,0.7085706,995.82806, , , , 
2025-09-28 20:00:59.625,-0.016749758,6.235696,9.504292,0.11751511,0.23678645,-0.068722285,25.0125,-31.5375,-35.550003,0.19987321,0.19138747,0.7089331,995.82806, , , , 
2025-09-28 20:00:59.645,-0.11246266,5.5369916,10.540383,0.16577344,-0.5029708,0.0754418,26.8875,-30.112501,-34.59375,0.20023552,0.19215637,0.70862776,995.89716, , , , 
2025-09-28 20:00:59.665,1.1916257,4.3764725,6.250053,-0.039477136,0.07918335,-0.1499673,24.16875,-31.25625,-33.91875,0.20588459,0.18996793,0.7070975,995.89716, , , , 
2025-09-28 20:00:59.686,0.39481574,5.419743,8.283952,-0.18425208,0.43959355,-0.25320345,23.081251,-32.86875,-32.79375,0.20357384,0.19083008,0.706785,995.94574, , , , 
2025-09-28 20:00:59.706,0.33499518,5.163711,9.860822,0.17799072,0.16348268,-0.38759372,25.687502,-31.725,-34.21875,0.19702478,0.19620575,0.7048232,995.9919, , , , 
2025-09-28 20:00:59.725,0.19142582,5.3312087,9.312865,0.34231335,-0.38873908,-0.41996953,24.54375,-30.73125,-33.075,0.19765134,0.1977396,0.70257646,995.9919, , , , 
2025-09-28 20:00:59.745,0.33499518,5.352744,7.999206,0.34964374,-0.4406626,-0.41263917,23.98125,-31.406252,-33.75,0.20279379,0.19831643,0.69743955,996.0229, , , , 
2025-09-28 20:00:59.765,-0.031106694,6.1208405,7.23111,0.3777435,-0.22197299,-0.30329436,27.2625,-31.931252,-34.36875,0.20607506,0.19877593,0.6944362,996.0229, , , , 
2025-09-28 20:00:59.785,-0.97866446,8.116454,6.5611196,-0.30947936,1.0406845,0.160352,27.69375,-30.50625,-35.11875,0.2058792,0.20263201,0.69286764,996.0258, , , , 
2025-09-28 20:00:59.805,0.02871387,5.1900325,9.671789,-0.124998204,0.694935,0.37171122,24.243752,-30.6375,-31.800001,0.19819571,0.20713563,0.69705987,996.0258, , , , 
2025-09-28 20:00:59.825,-0.13160525,5.278567,9.157332,0.0020616686,0.20441063,0.22204934,25.25625,-29.41875,-32.756252,0.19478764,0.20910208,0.7001712,996.0258, , , , 
2025-09-28 20:00:59.846,0.14596218,5.103891,8.135597,0.10835214,-0.08697187,0.13164136,24.300001,-31.893751,-31.893751,0.1951326,0.20936283,0.7013246,995.98944, , , , 
2025-09-28 20:00:59.866,-0.15553348,5.113462,7.826923,0.028939718,0.057192214,0.032070402,27.6375,-29.812502,-31.275002,0.19612218,0.20958024,0.70160186,995.98944, , , , 
2025-09-28 20:00:59.885,-0.09571291,5.261817,8.662018,0.0570395,-0.15661046,-0.08277218,25.781252,-31.85625,-32.662502,0.19590922,0.20987247,0.7014398,995.9477,37.88836552,127.73983704,143.9266357421875,0.0
2025-09-28 20:00:59.907,0.021535404,4.9722853,7.4512496,0.018555017,-0.42355835,-0.10476331,25.612501,-32.5125,-29.98125,0.19822909,0.20863041,0.7001112,995.8637, , , , 
2025-09-28 20:00:59.925,-0.51445687,5.9748783,7.4656067,-0.21784966,-0.1834885,-0.0858265,25.85625,-32.100002,-31.425001,0.1998162,0.2067871,0.6991123,995.8637, , , , 
2025-09-28 20:00:59.946,-0.21535404,5.4819565,8.130812,-0.36018115,0.17569998,0.06750056,23.41875,-31.10625,-31.5375,0.19822435,0.20495924,0.69931316,995.8637, , , , 
2025-09-28 20:00:59.965,-0.16031912,5.5657053,8.738588,-0.15370885,0.054748755,0.06750056,25.143751,-29.925001,-32.25,0.19470584,0.20338415,0.7009819,995.7873, , , , 
2025-09-28 20:00:59.986,-0.059820566,5.2570314,7.8580294,-0.28260133,0.4145481,0.12980877,28.181252,-30.225,-34.40625,0.19248623,0.20312892,0.7021944,995.7873, , , , 
2025-09-28 20:01:00.006,0.40917268,5.6733823,8.327023,-0.28321218,0.54893833,0.30695954,25.237501,-30.056252,-31.0125,0.18902813,0.20369188,0.70411426,995.73724, , , , 
2025-09-28 20:01:00.025,-0.9738788,3.2685957,8.135597,-0.270384,0.6607266,0.4083631,25.63125,-29.75625,-32.925003,0.18394904,0.20495926,0.70783806,995.73724, , , , 
2025-09-28 20:01:00.046,0.059820566,7.4010005,9.104691,-0.37789622,0.87819445,0.46700612,27.093752,-31.312502,-35.15625,0.17941537,0.20584154,0.711499,995.6889, , , , 
2025-09-28 20:01:00.065,0.36131623,5.3718867,9.963714,-0.081015944,0.0064904382,0.48533207,24.6375,-30.112501,-30.956251,0.17395094,0.20705844,0.7172247,995.6889, , , , 
2025-09-28 20:01:00.085,0.2847459,4.965107,8.52802,0.13950625,-0.24518585,0.32956156,23.6625,-30.69375,-32.5125,0.17727192,0.20463519,0.7206525,995.66815, , , , 
2025-09-28 20:01:00.106,0.58624154,4.5631127,8.190632,0.12301289,-0.030161448,0.15974113,26.156252,-32.0625,-31.7625,0.1792601,0.20408332,0.7214936,995.66815, , , , 
2025-09-28 20:01:00.125,-0.13399807,5.6303115,10.200603,0.23296855,-0.31482443,-0.013744458,26.906252,-31.48125,-33.881252,0.1809362,0.20462881,0.7216802,995.66327, , , , 
2025-09-28 20:01:00.145,0.2656033,5.276174,7.728817,0.2769508,-0.2861138,-0.054061532,24.6,-32.5875,-32.5125,0.1853435,0.20426911,0.72025365,995.66327, , , , 
2025-09-28 20:01:00.165,0.2105684,5.491528,8.085348,0.10468695,0.05535962,-0.0033597562,24.618752,-31.837502,-33.018753,0.18792142,0.2052283,0.7192135,995.67377, , , , 
2025-09-28 20:01:00.185,0.23928227,5.204389,8.573483,0.10529782,0.052305296,-0.016187917,26.41875,-30.7875,-32.175003,0.1880494,0.20578447,0.71914476,995.67377, , , , 
2025-09-28 20:01:00.205,0.4331009,5.2163534,8.506484,0.2616792,-0.14256057,-0.14813471,24.750002,-31.725,-30.712502,0.18967755,0.20741546,0.7179945,995.6811, , , , 
2025-09-28 20:01:00.225,0.24885355,5.168497,8.01117,0.29344416,-0.22502731,-0.22571453,26.00625,-31.44375,-32.86875,0.19239932,0.20844853,0.71605164,995.7016, , , , 
2025-09-28 20:01:00.245,0.06460621,5.599205,7.728817,0.21464261,-0.15783219,-0.2367101,25.781252,-32.5875,-33.393753,0.19502811,0.20950533,0.71366006,995.7016, , , , 
2025-09-28 20:01:00.265,0.0071784677,5.6446686,7.647461,0.07231112,0.027259842,-0.17501275,24.656252,-30.093752,-32.34375,0.19625846,0.21052907,0.71177787,995.7126, , , , 
2025-09-28 20:01:00.285,0.040677983,5.5298133,7.9944205,0.018555017,0.073685564,-0.08704823,25.556252,-30.018751,-32.1375,0.19587503,0.21174282,0.71067166,995.7126, , , , 
2025-09-28 20:01:00.305,0.040677983,5.5537415,8.147561,-0.020540329,0.10117448,-0.033902995,26.60625,-29.906252,-32.25,0.19511545,0.21249096,0.7104695,995.747, , , , 
2025-09-28 20:01:00.325,0.038285162,5.4341,8.489735,-0.020540329,0.028481571,-0.0070249448,24.093752,-31.29375,-30.35625,0.19456075,0.21276051,0.710514,995.747, , , , 
2025-09-28 20:01:00.345,0.033499517,5.3383875,8.906086,0.08758274,-0.15111268,-0.009468404,24.91875,-32.325,-30.69375,0.19470955,0.21265502,0.71043676,995.747, , , , 
2025-09-28 20:01:00.365,0.11724831,5.111069,8.623733,0.24457498,-0.38690647,-0.050396346,26.362501,-32.662502,-33.0,0.19784278,0.21193819,0.7094497,995.7753, , , , 
2025-09-28 20:01:00.385,0.04546363,5.367101,7.716853,0.20364705,-0.35575238,-0.08277218,24.31875,-31.650002,-30.525002,0.20195857,0.21116707,0.7078064,995.80194, , , , 
2025-09-28 20:01:00.405,0.0071784677,5.7858453,7.5900335,0.003894263,-0.050319985,-0.02535089,24.69375,-30.375002,-28.931252,0.20457722,0.21070437,0.70653397,995.80194, , , , 
2025-09-28 20:01:00.425,0.078963146,5.615955,8.819944,-0.08468113,0.08834632,0.06139191,25.2,-31.800001,-31.987501,0.204309,0.21052119,0.70661545,995.80194, , , , 
2025-09-28 20:01:00.445,0.10289137,5.4891353,9.193225,0.009392046,0.041920595,0.0962112,24.31875,-32.381252,-30.937502,0.2034519,0.21046402,0.70739466,995.8332, , , , 
2025-09-28 20:01:00.465,0.02871387,5.558527,9.123833,0.1957058,-0.09918917,0.11026109,24.69375,-32.71875,-30.806252,0.20389783,0.21057779,0.70777196,995.8332, , , , 
2025-09-28 20:01:00.485,-0.023928227,5.8600225,7.6737823,0.34658942,-0.14561489,0.13469568,24.45,-31.7625,-30.675001,0.20846856,0.2117554,0.70755005,995.8586, , , , 
2025-09-28 20:01:00.507,0.08853444,5.355137,8.250452,0.21525347,-0.016722424,0.1084285,22.875,-34.0125,-33.787502,0.21110928,0.21303673,0.7075511,995.85785, , , , 
2025-09-28 20:01:00.525,0.35653058,5.5896335,8.269595,0.25923574,-0.006948587,0.11942407,25.85625,-32.325,-33.881252,0.2124952,0.21414459,0.70777655,995.85785, , , , 
2025-09-28 20:01:00.545,0.8997013,6.7238317,7.8436728,0.27939427,0.19646938,0.18600832,24.45,-33.24375,-31.687502,0.21381539,0.21527098,0.7082491,995.85785, , , , 
2025-09-28 20:01:00.565,0.4642076,5.9437714,7.5637126,0.3184896,-0.0051159924,0.26419902,23.493752,-35.943752,-32.9625,0.21713836,0.21849203,0.70924073,995.91425, , , , 
2025-09-28 20:01:00.585,0.33260235,5.706882,7.489535,0.20242532,0.040088,0.24587308,25.5375,-33.75,-32.23125,0.21970814,0.22007482,0.7102099,995.91425, , , , 
2025-09-28 20:01:00.607,0.46181476,5.881558,6.4008007,-0.17081307,0.5587122,0.27763805,24.150002,-33.9,-30.056252,0.22007301,0.22221823,0.71195567,995.94037, , , , 
2025-09-28 20:01:00.626,0.46181476,5.6590257,8.640483,-0.3491856,0.5629883,0.25747952,25.612501,-34.96875,-33.7125,0.21706995,0.2238264,0.7143247,995.94037, , , , 
2025-09-28 20:01:00.645,0.6053841,5.123033,8.513663,-0.34674212,0.36262462,0.22571453,26.325,-34.912502,-31.63125,0.21180978,0.22300082,0.71791625,995.95746, , , , 
2025-09-28 20:01:00.665,0.81595254,5.1493545,9.461221,-0.008323032,-0.31238097,0.13591741,23.175001,-33.75,-31.368752,0.20840362,0.21964125,0.72113264,996.01044, , , , 
2025-09-28 20:01:00.685,1.0289137,4.85743,7.6067834,0.015500694,-0.30382887,0.011300999,24.712502,-34.2,-32.5875,0.21077347,0.21572344,0.7214973,996.01044, , , , 
2025-09-28 20:01:00.706,1.1413764,5.0392847,7.2550383,-0.15859577,0.07979421,-0.09315688,25.2,-33.787502,-30.487501,0.21178076,0.21387008,0.721507,996.01044, , , , 
2025-09-28 20:01:00.726,0.22731815,5.869594,7.432107,-0.17142393,0.3345248,-0.1621846,23.775002,-34.95,-28.575,0.2095969,0.21367638,0.7215939,996.0395, , , , 
2025-09-28 20:01:00.745,-0.35653058,6.3768725,8.860622,0.053985175,-0.03199404,-0.1065959,23.8875,-32.4375,-31.35,0.2055003,0.21600991,0.72112197,996.0395, , , , 
2025-09-28 20:01:00.765,-0.50488555,6.178268,7.389036,0.20609051,-0.11934771,-0.040011644,25.425001,-32.662502,-29.493752,0.20697886,0.21643573,0.720138,996.06635, , , , 
2025-09-28 20:01:00.786,-0.50488555,6.398408,7.611569,0.23785548,0.060857404,0.01924224,26.60625,-34.143753,-30.768751,0.20814414,0.21770275,0.71953285,996.06635, , , , 
2025-09-28 20:01:00.805,-0.11006984,5.845666,8.355737,0.20364705,-0.13523018,0.0754418,22.44375,-34.21875,-27.862501,0.20951992,0.2195312,0.7192933,996.0732, , , , 
2025-09-28 20:01:00.826,0.14596218,5.2259245,8.2145605,0.09613484,-0.42050403,-0.02535089,22.3125,-32.9625,-31.0125,0.21162267,0.21917593,0.7188645,996.0732, , , , 
2025-09-28 20:01:00.845,0.44985065,5.7667027,7.152147,0.05215258,-0.5029708,-0.16646065,24.31875,-31.650002,-29.75625,0.2153104,0.21673724,0.71717155,996.00946, , , , 
2025-09-28 20:01:00.866,0.021535404,5.599205,8.068598,-0.05108357,-0.17921245,-0.20250167,22.59375,-32.943752,-30.2625,0.21740694,0.21522711,0.7150372,996.00946, , , , 
2025-09-28 20:01:00.886,0.44506502,5.709275,8.281559,-0.04253146,-0.22319472,-0.21777329,22.518751,-33.206253,-29.156252,0.21824181,0.21315506,0.7125461,995.97504,37.88836552,127.73983704,143.9266357421875,0.0
2025-09-28 20:01:00.907,0.68195444,6.04427,8.547162,-0.060857404,0.04619665,-0.100487255,21.6375,-32.550003,-29.8875,0.21794954,0.21238524,0.71152246,995.9589, , , , 
2025-09-28 20:01:00.926,0.11724831,5.2953167,9.174082,0.14072797,-0.15905392,-0.12797616,24.50625,-33.61875,-30.73125,0.21809848,0.21259496,0.7107869,995.9589, , , , 
2025-09-28 20:01:00.945,0.40438703,5.5872407,8.01117,0.19265148,-0.2775617,-0.25503606,23.25,-34.125,-30.73125,0.21982476,0.21247636,0.70923704,995.9589, , , , 
2025-09-28 20:01:00.965,0.09571291,5.8337016,7.204789,0.036880963,-0.20731224,-0.33750278,25.593752,-32.756252,-31.81875,0.22249797,0.21263437,0.70594984,995.87714, , , , 
2025-09-28 20:01:00.985,-0.34456646,6.087341,7.4273214,-0.20624322,0.06024654,-0.37232208,23.94375,-32.0625,-29.831251,0.22245799,0.21242164,0.7035439,995.7475, , , , 
2025-09-28 20:01:01.005,0.0,6.2213387,7.7144604,-0.34796384,0.270384,-0.20311254,21.862501,-33.6375,-29.831251,0.21829964,0.212432,0.70201385,995.7475, , , , 
2025-09-28 20:01:01.025,0.014356935,6.0777693,8.276773,-0.38095054,0.42615455,-0.06933315,24.487501,-31.500002,-30.393751,0.21467899,0.21246895,0.70235753,995.7475, , , , 
2025-09-28 20:01:01.045,0.15314065,5.879165,8.475378,-0.29604036,0.4096612,0.00763581,27.525002,-30.431252,-32.625,0.20949335,0.21282622,0.7036994,995.6589, , , , 
2025-09-28 20:01:01.065,0.2632105,5.761917,7.668997,-0.28199047,0.5843685,0.06444623,25.893751,-32.081253,-33.131252,0.20604423,0.21343055,0.704912,995.6589, , , , 
2025-09-28 20:01:01.086,-0.15314065,5.556134,9.293723,-0.30825764,0.9783763,0.07971785,26.831251,-31.518751,-29.868752,0.19417123,0.21764933,0.7092186,995.58636, , , , 
2025-09-28 20:01:01.105,-0.06460621,5.623133,9.049655,0.050319985,0.44203702,0.11209369,25.087502,-29.962502,-29.00625,0.18759707,0.22113669,0.71170855,995.54584, , , , 
2025-09-28 20:01:01.126,-0.38524446,5.4819565,8.630911,0.1627191,-0.0014508038,0.113926284,25.5375,-32.775,-28.893751,0.1863479,0.22336304,0.71273106,995.54584, , , , 
2025-09-28 20:01:01.146,0.009571291,5.613562,8.070991,0.10529782,-0.124234624,0.15790854,25.837502,-32.737503,-29.7,0.18853858,0.22367844,0.71316224,995.5407, , , , 
2025-09-28 20:01:01.166,0.07178468,5.4173503,7.972885,0.030772313,0.022372922,0.14935644,25.10625,-31.2,-28.612501,0.18984766,0.22341262,0.713856,995.5407, , , , 
2025-09-28 20:01:01.185,0.08853444,5.3718867,7.8604226,-0.012599086,0.22212571,0.11270455,27.225,-32.5875,-32.006252,0.1896971,0.22371379,0.7146091,995.5407, , , , 
2025-09-28 20:01:01.206,-0.13399807,5.2570314,8.111669,-0.05902481,0.3662898,0.062002774,26.718752,-32.775,-29.94375,0.18792674,0.22488037,0.7158258,995.56903, , , , 
2025-09-28 20:01:01.226,-0.22731815,5.426922,8.386844,-0.04925097,0.34429866,0.026572619,24.0375,-30.806252,-29.775002,0.18566379,0.22604369,0.7167025,995.56903, , , , 
2025-09-28 20:01:01.245,-0.27756742,5.6374903,8.353344,0.021609342,0.16775873,0.03573559,25.556252,-31.1625,-28.66875,0.1830285,0.22760046,0.7176319,995.6103, , , , 
2025-09-28 20:01:01.265,-0.39720857,5.6757755,8.520842,0.057650365,0.06635518,0.07238748,25.7625,-33.112503,-29.6625,0.182222,0.22893465,0.718191,995.6486, , , , 
2025-09-28 20:01:01.286,-0.46660042,5.639883,8.350951,0.10102176,-0.0045051277,0.11026109,26.718752,-32.775,-29.94375,0.18233803,0.22964007,0.7185756,995.6486, , , , 
2025-09-28 20:01:01.305,-0.12921242,5.65424,8.348558,0.13400847,-0.0692568,0.10109812,26.85,-32.98125,-31.95,0.18306224,0.23005095,0.7188504,995.6486, , , , 
2025-09-28 20:01:01.325,-0.41874397,5.556134,7.8556366,0.043600474,0.015653409,0.10476331,29.081251,-33.506252,-31.368752,0.18469867,0.23086819,0.71923506,995.6806, , , , 
2025-09-28 20:01:01.345,-0.29671,5.5393844,8.267202,0.0014508038,-0.0020616686,0.1084285,27.337502,-33.5625,-32.11875,0.18479918,0.23111944,0.7196367,995.6806, , , , 
2025-09-28 20:01:01.365,-0.36610186,5.491528,8.908479,0.030161448,0.05169443,0.09560034,29.212502,-32.756252,-30.35625,0.18487212,0.2309419,0.7201173,995.6982, , , , 
2025-09-28 20:01:01.386,-0.148355,5.3814583,8.504091,0.06253728,-0.07047852,0.06383537,25.050001,-33.91875,-32.006252,0.18550445,0.23093115,0.7207474,995.71136, , , , 
2025-09-28 20:01:01.405,-0.043070808,5.599205,7.9944205,0.17432554,-0.23296855,0.074830934,26.456251,-32.568752,-28.837502,0.1871074,0.23028937,0.72083807,995.71136, , , , 
2025-09-28 20:01:01.425,0.3684947,5.5920267,7.30768,0.13828452,-0.32582,0.08704823,26.60625,-31.275002,-31.237501,0.19059922,0.2296315,0.72048646,995.71136, , , , 
2025-09-28 20:01:01.445,0.7465607,5.3312087,6.7836523,0.086361006,-0.48464483,0.07666353,26.775002,-34.0125,-30.337502,0.19535464,0.22785772,0.72003096,995.7182, , , , 
2025-09-28 20:01:01.465,0.74177504,5.0249276,6.04427,0.041157015,-0.81206834,0.10415245,24.187502,-33.65625,-29.625002,0.19995375,0.22530974,0.71946746,995.7182, , , , 
2025-09-28 20:01:01.485,0.83988076,4.7210393,4.948357,-0.024205517,-1.2195152,0.18112141,24.73125,-33.225002,-30.31875,0.20608094,0.2213064,0.71858394,995.7177, , , , 
2025-09-28 20:01:01.505,1.4763715,3.9649072,3.6203406,-0.22456917,-2.1260386,0.29168794,24.525002,-32.86875,-30.618752,0.2248681,0.20330246,0.71569556,995.6989, , , , 
2025-09-28 20:01:01.526,1.2753744,3.330809,3.4313076,-0.22273657,-2.9244387,0.39675668,21.206251,-34.818752,-31.706251,0.24068862,0.18663476,0.7127449,995.6989, , , , 
2025-09-28 20:01:01.545,1.4452649,2.7326035,2.2468605,-0.2154062,-3.668472,0.5696314,19.63125,-32.71875,-34.29375,0.26228842,0.16462511,0.70807076,995.6872, , , , 
2025-09-28 20:01:01.565,1.7180467,2.5004997,0.8805587,-0.3559051,-3.8755553,0.6826414,19.3875,-33.35625,-36.24375,0.28118265,0.144966,0.7037269,995.6872, , , , 
2025-09-28 20:01:01.585,2.3162522,2.0003998,-0.66759753,-0.82993615,-3.827297,0.8451314,15.843751,-34.0875,-35.04375,0.2997906,0.122930475,0.6993668,995.6872, , , , 
2025-09-28 20:01:01.605,4.06062,0.8566305,1.8400806,-1.6436081,-3.7008479,0.9978476,11.64375,-32.625,-38.100002,0.3326084,0.063007854,0.6913431,995.66156, , , , 
2025-09-28 20:01:01.625,4.486542,0.24646074,4.462614,-1.5544218,-4.3214865,1.0241148,8.64375,-32.30625,-38.86875,0.34473053,0.033952612,0.68720263,995.66156, , , , 
2025-09-28 20:01:01.645,4.0558343,-0.17467605,5.1900325,-1.1927898,-4.8547716,1.231198,4.9875,-33.393753,-43.21875,0.36510557,-0.0076661645,0.67890215,995.6674, , , , 
2025-09-28 20:01:01.667,4.278367,-0.38524446,3.4337006,-1.1139883,-4.741151,1.5598432,3.1125002,-31.218752,-44.68125,0.388919,-0.05032945,0.66946834,995.6674, , , , 
2025-09-28 20:01:01.686,5.4293146,-0.849452,2.7326035,-1.3241258,-4.397234,1.8695517,-3.7500002,-29.6625,-45.75,0.40496457,-0.08237946,0.663407,995.6789, , , , 
2025-09-28 20:01:01.705,7.470392,-1.4715859,3.5533416,-1.5165482,-4.178544,2.269668,-11.306251,-27.31875,-47.268753,0.43006417,-0.14781316,0.6532283,995.695, , , , 
2025-09-28 20:01:01.725,9.08794,-1.8903298,3.900301,-1.7022511,-3.5554621,2.374126,-15.1125,-25.725,-45.5625,0.44220275,-0.1916789,0.6473519,995.695, , , , 
2025-09-28 20:01:01.745,8.432307,-2.5411777,4.213761,-1.8250349,-3.0288966,2.5158465,-18.16875,-23.325,-43.36875,0.44792312,-0.23280904,0.64328504,995.695, , , , 
2025-09-28 20:01:01.766,9.150154,-3.3236306,5.3359947,-1.7065271,-3.163287,2.9092436,-22.6875,-21.056252,-43.95,0.44954082,-0.2829053,0.6404542,995.71405, , , , 
2025-09-28 20:01:01.785,10.846665,-3.7974095,5.2977095,-1.4719551,-3.3221118,3.0747879,-23.7,-20.400002,-45.112503,0.4512364,-0.31359327,0.6385352,995.71405, , , , 
2025-09-28 20:01:01.805,11.921042,-3.9290147,4.5535417,-1.3424517,-2.8841217,3.0546293,-29.7,-15.58125,-39.506252,0.45311394,-0.35271594,0.63617325,995.7319, , , , 
2025-09-28 20:01:01.826,10.109675,-4.699504,3.182454,-1.3558908,-2.065563,3.1493134,-31.9125,-11.962501,-38.71875,0.4495424,-0.39536974,0.63552386,995.738, , , , 
2025-09-28 20:01:01.845,10.315458,-6.0107703,2.9216363,-1.431638,-2.0209699,3.47185,-37.818752,-10.481251,-34.93125,0.44200552,-0.42776877,0.6367328,995.738, , , , 
2025-09-28 20:01:01.865,12.787244,-6.4438715,4.668397,-1.1915681,-2.403371,3.5194974,-35.98125,-4.2000003,-34.55625,0.43132842,-0.4691482,0.6375889,995.74506, , , , 
2025-09-28 20:01:01.885,12.703495,-6.7238317,4.6564326,-0.8745293,-2.4467425,3.4767368,-36.28125,-3.3750002,-32.71875,0.42664596,-0.49244106,0.63745075,995.74506,37.88836552,127.73983704,143.9266357421875,0.0
2025-09-28 20:01:01.905,11.97847,-7.24786,3.0317063,-0.6271291,-2.0069199,3.5139997,-38.4,-0.75,-31.575,0.4202108,-0.5200249,0.63837343,995.74506, , , , 
2025-09-28 20:01:01.925,11.509477,-7.7623167,1.9549361,-0.6246856,-1.4351504,3.5873034,-37.425003,3.4687502,-30.993752,0.4129362,-0.53842795,0.6404033,995.7402, , , , 
2025-09-28 20:01:01.945,11.844472,-8.657232,1.5888343,-0.68455034,-1.0099885,3.7223046,-37.893753,8.15625,-32.90625,0.39088127,-0.57190037,0.6465192,995.72406, , , , 
2025-09-28 20:01:01.966,13.545769,-8.5112705,1.4859428,-0.5788707,-1.2280673,3.5433211,-38.15625,10.725,-30.54375,0.37460178,-0.59269285,0.65008,995.72406, , , , 
2025-09-28 20:01:01.985,13.253844,-8.532805,1.1270195,-0.53549933,-1.3178644,3.4205372,-36.956253,11.3625,-33.1875,0.36751553,-0.6023861,0.65117097,995.72406, , , , 
2025-09-28 20:01:02.005,12.143575,-9.049655,0.6269195,-0.6124683,-0.9238566,3.3246315,-39.35625,17.2875,-27.712502,0.3473643,-0.6292942,0.6525879,995.7082, , , , 
2025-09-28 20:01:02.025,12.861422,-8.829515,0.4354937,-0.70531976,-0.55550516,3.2226171,-37.350002,20.625,-28.725,0.33106458,-0.64564735,0.6533196,995.7082, , , , 
2025-09-28 20:01:02.046,13.414164,-8.539984,0.009571291,-0.81832975,-0.22808164,2.9605563,-36.16875,20.625,-29.775002,0.3129818,-0.66050565,0.6535635,995.6977, , , , 
2025-09-28 20:01:02.066,12.559926,-8.69791,-0.5766702,-0.99303705,0.13843723,2.6325219,-36.487503,24.300001,-27.16875,0.29901835,-0.6707157,0.653011,995.6977, , , , 
2025-09-28 20:01:02.086,10.432707,-8.595019,-0.701097,-1.2190571,0.49396053,2.4126105,-33.28125,24.88125,-27.862501,0.27939507,-0.6837665,0.65104353,995.6811, , , , 
2025-09-28 20:01:02.105,8.12124,-8.779266,0.91405827,-1.3027455,0.6540071,2.3729043,-31.5375,27.7875,-27.281252,0.24689025,-0.70321006,0.6461078,995.6784, , , , 
2025-09-28 20:01:02.127,9.107083,-8.812766,1.012164,-1.0516801,0.324751,2.2397356,-31.968752,30.843752,-26.025002,0.2205957,-0.717519,0.64221036,995.6784, , , , 
2025-09-28 20:01:02.145,9.35833,-8.681161,0.74895346,-0.93072885,0.12438734,2.075413,-30.6375,32.34375,-25.462502,0.21162164,-0.7224634,0.64074206,995.6784, , , , 
2025-09-28 20:01:02.166,9.647861,-8.544769,0.73459655,-0.8207732,-0.07841977,1.8310672,-29.19375,33.112503,-24.581251,0.19665554,-0.73124295,0.6376754,995.68256, , , , 
2025-09-28 20:01:02.185,9.461221,-8.281559,1.2897314,-0.53549933,-0.10957387,1.3405428,-26.94375,33.975002,-25.650002,0.18018797,-0.74134517,0.63349015,995.6923, , , , 
2025-09-28 20:01:02.205,9.363115,-8.04467,0.9451649,-0.33880088,-0.027107125,1.0754274,-25.143751,37.143753,-25.3875,0.17199655,-0.7455689,0.6320313,995.6923, , , , 
2025-09-28 20:01:02.225,9.547362,-7.668997,0.2536392,-0.25022548,0.09445497,0.7547234,-24.712502,35.68125,-24.73125,0.16693738,-0.74766845,0.6315208,995.6923, , , , 
2025-09-28 20:01:02.245,9.202796,-7.2909307,0.033499517,-0.23984079,0.20563236,0.46273008,-24.768751,36.80625,-25.10625,0.16175684,-0.7496245,0.6308848,995.6955, , , , 
2025-09-28 20:01:02.266,8.279166,-7.1186476,-0.086141616,-0.24961463,0.41027206,0.22204934,-25.518751,37.48125,-25.218752,0.15790838,-0.75088316,0.63012725,995.6955, , , , 
2025-09-28 20:01:02.285,6.838687,-7.1425757,-0.1268196,-0.2758818,0.68577206,0.09498947,-21.6,35.025,-25.95,0.15495695,-0.7515014,0.6295356,995.705, , , , 
2025-09-28 20:01:02.306,5.5633125,-6.936793,-0.30149564,-0.26855144,0.9160681,0.082161315,-22.931252,37.237503,-25.1625,0.14832075,-0.7521536,0.6287867,995.705, , , , 
2025-09-28 20:01:02.326,4.9435716,-6.73101,-0.38285163,-0.18913901,0.58803374,0.22388195,-23.79375,35.90625,-24.69375,0.13932884,-0.75263673,0.6283128,995.72064, , , , 
2025-09-28 20:01:02.345,6.24766,-6.300302,-0.11246266,-0.091400646,0.13232858,0.26053384,-21.6,36.506252,-25.25625,0.13606796,-0.7529885,0.6282226,995.72064, , , , 
2025-09-28 20:01:02.365,7.176075,-6.168697,0.46660042,0.043600474,-0.32887432,0.17867795,-20.56875,37.125,-27.2625,0.13487564,-0.75331295,0.628261,995.7353, , , , 
2025-09-28 20:01:02.385,7.867601,-6.1710896,0.8542377,0.19204062,-0.59032446,0.113926284,-23.1,36.581253,-22.95,0.13707449,-0.7530865,0.6287681,995.7353, , , , 
2025-09-28 20:01:02.405,9.396614,-5.8097734,0.9834501,0.34414595,-0.5915462,0.044898562,-22.66875,36.393753,-24.375002,0.1410646,-0.75201446,0.6300657,995.7421, , , , 
2025-09-28 20:01:02.426,10.750952,-5.7451673,0.5096712,0.38873908,-0.3899608,-0.13164136,-22.85625,37.5,-25.968752,0.14579421,-0.7498564,0.632171,995.7421, , , , 
2025-09-28 20:01:02.445,12.100504,-5.6063833,1.1892328,0.40095636,-0.24029893,-0.422413,-22.237501,36.9375,-25.5375,0.15239538,-0.746229,0.6348319,995.7485, , , , 
2025-09-28 20:01:02.465,12.918849,-5.568098,2.0482562,0.66668254,-0.3362047,-0.8628465,-23.868752,35.41875,-26.04375,0.1624337,-0.7406291,0.6381102,995.75995, , , , 
2025-09-28 20:01:02.485,12.789637,-5.7834525,1.2059826,0.8517746,-0.3759109,-1.1737766,-22.125,33.862503,-26.906252,0.17103407,-0.7356719,0.64091367,995.75995, , , , 
2025-09-28 20:01:02.506,12.646068,-6.707082,0.37567315,0.8670462,-0.3655262,-1.4486659,-24.150002,36.24375,-25.29375,0.18477088,-0.7278752,0.6447575,995.75995, , , , 
2025-09-28 20:01:02.526,12.60539,-7.8963146,1.0336994,0.92874354,-0.65446526,-1.7376049,-26.306252,33.9375,-29.1,0.2050518,-0.71737313,0.6484946,995.7724, , , , 
2025-09-28 20:01:02.545,13.349558,-8.013563,0.57906306,1.0179298,-0.87620914,-1.958738,-27.375002,31.593752,-28.3875,0.22444907,-0.70793337,0.65108037,995.788, , , , 
2025-09-28 20:01:02.565,14.179867,-8.772088,-0.4235296,0.9067524,-0.840779,-2.2550073,-28.48125,32.193752,-25.5375,0.24646261,-0.6976959,0.65269595,995.788, , , , 
2025-09-28 20:01:02.585,13.794622,-9.745967,-0.27756742,0.6306415,-0.55550516,-2.577544,-31.10625,30.806252,-25.181252,0.2748592,-0.6846974,0.6520692,995.7753, , , , 
2025-09-28 20:01:02.605,12.820744,-9.600004,0.8039884,0.5451205,-0.36796966,-2.739423,-32.04375,27.6,-24.900002,0.2968178,-0.6740477,0.64994085,995.7753, , , , 
2025-09-28 20:01:02.625,12.026326,-8.843872,1.3112668,0.62086767,-0.20364705,-2.843881,-32.4,24.337502,-26.062502,0.31799546,-0.66217387,0.6477571,995.7753, , , , 
2025-09-28 20:01:02.645,11.607583,-8.425129,1.2107682,0.78274685,-0.10835214,-3.0418012,-36.16875,20.85,-26.550001,0.33895078,-0.6484559,0.64595383,995.7907, , , , 
2025-09-28 20:01:02.665,10.372886,-8.525627,0.2727818,0.8841504,-0.12545635,-3.1480916,-36.73125,18.900002,-25.143751,0.3605155,-0.6327378,0.6442162,995.8088, , , , 
2025-09-28 20:01:02.685,10.411171,-8.645268,-0.63170516,0.8688788,-0.22197299,-3.1981826,-38.756252,16.837502,-24.975,0.38251582,-0.6161571,0.64177,995.8088, , , , 
2025-09-28 20:01:02.705,9.707682,-8.779266,-1.052842,0.70150185,-0.45349073,-3.3014188,-38.756252,14.08125,-24.0375,0.4111437,-0.59557956,0.63599473,995.81024, , , , 
2025-09-28 20:01:02.725,8.922835,-8.863015,-0.59581286,0.5952114,-0.54145527,-3.2885904,-41.8125,10.425,-25.66875,0.42861232,-0.5837081,0.63085955,995.81024, , , , 
2025-09-28 20:01:02.745,8.126026,-8.7984085,-0.92602235,0.48403397,-0.3832413,-3.1706936,-43.331253,7.51875,-22.25625,0.45624942,-0.56432366,0.6211782,995.81464, , , , 
2025-09-28 20:01:02.765,7.7096744,-8.446664,-1.2251252,0.32948518,-0.2115883,-3.0308056,-43.29375,4.03125,-22.6875,0.47544262,-0.54925996,0.61330813,995.81464, , , , 
2025-09-28 20:01:02.785,7.04447,-8.039884,-0.88295156,0.20853396,-0.1834885,-2.8915284,-42.956253,2.4750001,-26.343752,0.49234328,-0.5349899,0.6051103,995.81464, , , , 
2025-09-28 20:01:02.805,5.615955,-7.515856,-0.66999036,0.2042579,-0.29222244,-2.6557345,-43.631252,-2.8312502,-24.112501,0.5080081,-0.52158487,0.5965342,995.81537, , , , 
2025-09-28 20:01:02.826,4.725825,-6.960721,-1.1437693,0.15477787,-0.23480114,-2.3344197,-44.8125,-4.9500003,-22.48125,0.5224519,-0.5093736,0.58808106,995.81537, , , , 
2025-09-28 20:01:02.845,3.7184465,-6.1399827,-1.7946169,-0.004657844,0.032757625,-1.9526292,-44.568752,-5.925,-22.9125,0.53405225,-0.49873942,0.5806159,995.8278, , , , 
2025-09-28 20:01:02.865,3.4672,-5.2642097,-1.7108682,-0.18364123,0.2514472,-1.5592324,-44.325,-7.7625003,-24.056252,0.54149294,-0.48999098,0.57481587,995.8278, , , , 
2025-09-28 20:01:02.886,3.129812,-4.8526444,-0.93320084,-0.23312128,0.22518003,-1.2330306,-44.11875,-8.7375,-22.800001,0.5467796,-0.48180637,0.56907344,995.8337,37.88837447,127.73984435,144.21923828125,0.56
2025-09-28 20:01:02.905,2.3114667,-5.0919266,-0.53359944,-0.15065452,0.09995275,-0.8628465,-45.80625,-9.918751,-22.706251,0.54960525,-0.4771472,0.5654852,995.84174, , , , 
2025-09-28 20:01:02.925,1.9070797,-5.7690954,-0.7968099,-0.030314164,-0.16210824,-0.44379327,-41.850002,-11.587501,-25.800001,0.55191016,-0.47471672,0.56292766,995.84174, , , , 
2025-09-28 20:01:02.945,1.3351951,-6.2237315,-1.282553,0.05459604,-0.4822014,0.182954,-43.18125,-10.125,-24.825,0.5540729,-0.47545937,0.5610594,995.84247, , , , 
2025-09-28 20:01:02.965,1.7252251,-6.587441,-1.9334008,-0.027870705,-0.33131778,0.82191855,-43.85625,-10.96875,-21.300001,0.5544586,-0.47993976,0.56068575,995.84247, , , , 
2025-09-28 20:01:02.985,2.469393,-7.245467,-2.2420747,-0.23128867,-0.034437504,1.397964,-45.375,-9.975,-23.362501,0.5502215,-0.48766994,0.5631641,995.83856, , , , 
2025-09-28 20:01:03.005,3.2805598,-7.6067834,-1.5266209,-0.42248935,0.090178914,1.9324707,-45.206253,-8.3625,-22.5375,0.538331,-0.5016494,0.56928253,995.83856, , , , 
2025-09-28 20:01:03.026,4.034299,-8.2145605,-0.9738788,-0.5342776,0.23678645,2.2861614,-46.987503,-6.9375005,-21.35625,0.5285081,-0.5118374,0.57394725,995.83954, , , , 
2025-09-28 20:01:03.045,4.5152564,-8.518449,-0.7968099,-0.64117897,0.29115343,2.5537202,-44.30625,-3.2812502,-23.85,0.5083607,-0.530667,0.58293223,995.83954, , , , 
2025-09-28 20:01:03.065,4.8239303,-8.472985,0.3062813,-0.63384855,0.12133302,2.7461426,-45.206253,-2.5125,-22.425001,0.49025953,-0.54711527,0.5900536,995.8337, , , , 
2025-09-28 20:01:03.085,5.15414,-8.640483,0.65324056,-0.44509134,-0.19753839,2.8927503,-45.318752,-0.28125,-23.60625,0.47251323,-0.5639638,0.5966688,995.8337, , , , 
2025-09-28 20:01:03.105,5.4963136,-9.341579,0.2943172,-0.279547,-0.37102398,2.9849908,-42.84375,4.70625,-23.85,0.4557771,-0.580539,0.60291034,995.8481, , , , 
2025-09-28 20:01:03.125,5.733203,-10.313066,-0.31106696,-0.16226095,-0.4266127,3.1542003,-42.018753,8.775001,-23.550001,0.43925992,-0.5965944,0.60913855,995.8481, , , , 
2025-09-28 20:01:03.145,6.8051877,-11.107483,-1.2873386,-0.18913901,-0.32032222,3.3643377,-43.3125,11.231251,-21.69375,0.41696677,-0.61648005,0.6170996,995.8537, , , , 
2025-09-28 20:01:03.165,7.463214,-11.480763,-1.5170496,-0.35712683,0.011988222,3.490176,-42.225002,13.70625,-21.806252,0.39610896,-0.63236904,0.62327844,995.8537, , , , 
2025-09-28 20:01:03.186,8.329415,-11.516655,-1.0719845,-0.50556695,0.3180315,3.4767368,-38.925003,18.1875,-24.88125,0.37203977,-0.64792097,0.62905437,995.8354, , , , 
2025-09-28 20:01:03.205,7.8317084,-11.609976,-0.2632105,-0.5122865,0.39805475,3.481013,-36.91875,21.73125,-23.118752,0.3462596,-0.6624974,0.634271,995.8354, , , , 
2025-09-28 20:01:03.225,7.944171,-11.224731,0.047856454,-0.3577377,0.20990841,3.5445428,-34.93125,25.575,-26.643751,0.320302,-0.67588687,0.63919824,995.8354, , , , 
2025-09-28 20:01:03.245,8.683554,-10.920842,-0.22731815,-0.20563236,0.009544762,3.5433211,-35.325,26.41875,-27.73125,0.29545468,-0.68787134,0.64373714,995.8376, , , , 
2025-09-28 20:01:03.265,9.238688,-10.849058,-0.567099,-0.1042288,-0.15477787,3.5066693,-32.4375,28.556252,-25.5375,0.2718596,-0.6984055,0.6477438,995.8449, , , , 
2025-09-28 20:01:03.285,10.0881405,-10.686346,-0.96430755,-0.052305296,-0.25068364,3.413818,-33.80625,29.775002,-24.993752,0.24965014,-0.70759815,0.6510499,995.8449, , , , 
2025-09-28 20:01:03.305,11.054841,-10.63849,-1.4189439,-0.08956805,-0.1786016,3.1749697,-31.1625,31.518751,-22.125,0.22386739,-0.7173919,0.6538839,995.84296, , , , 
2025-09-28 20:01:03.326,11.322837,-10.260424,-1.7491534,-0.27893612,0.15004367,2.9862125,-27.281252,34.55625,-24.393751,0.20343149,-0.72450584,0.654918,995.84296, , , , 
2025-09-28 20:01:03.345,11.641082,-9.119047,-0.7920243,-0.47441286,0.47502372,2.7559164,-24.768751,35.41875,-23.94375,0.18205747,-0.73175323,0.6544806,995.84296, , , , 
2025-09-28 20:01:03.366,11.540584,-7.647461,0.6867401,-0.42065677,0.67111135,2.4455972,-23.15625,35.568752,-22.275002,0.16078843,-0.7383708,0.65339535,995.8454, , , , 
2025-09-28 20:01:03.386,11.471191,-6.920043,1.0049855,-0.22212571,0.65156364,2.2317944,-21.13125,37.425003,-25.050001,0.14564295,-0.74212235,0.6530763,995.8454, , , , 
2025-09-28 20:01:03.405,11.420942,-6.367301,0.07178468,0.23296855,0.3229184,1.963014,-19.6875,38.8125,-24.35625,0.12388028,-0.7450809,0.65468794,995.861, , , , 
2025-09-28 20:01:03.425,12.210574,-5.8839507,-1.5936198,0.4803688,-0.0112246405,1.7076725,-15.618751,39.35625,-24.656252,0.11051344,-0.7447053,0.6578414,995.86005, , , , 
2025-09-28 20:01:03.445,12.129218,-5.680561,-2.8498518,0.45287988,-0.2323577,1.3942989,-16.087502,39.825,-26.19375,0.10138363,-0.74316156,0.66127884,995.86005, , , , 
2025-09-28 20:01:03.465,12.342179,-5.797809,-2.6608188,0.34109163,-0.3832413,1.0876447,-15.525001,39.975002,-22.85625,0.09461058,-0.74156,0.66418034,995.8366, , , , 
2025-09-28 20:01:03.486,12.669996,-6.06102,-2.4382863,0.3068832,-0.41195193,0.8457423,-15.168751,40.03125,-26.1375,-0.09260733,0.7406955,-0.66541535,995.8366, , , , 
2025-09-28 20:01:03.505,13.639089,-6.680761,-2.9312077,0.21097742,-0.28672466,0.490219,-13.2375,41.831253,-23.98125,-0.09167211,0.7392516,-0.6670787,995.8366, , , , 
2025-09-28 20:01:03.525,14.651253,-7.2263246,-3.696911,-0.13355032,0.019929463,0.049174614,-14.493751,40.59375,-24.393751,-0.092671975,0.7389743,-0.6672316,995.83124, , , , 
2025-09-28 20:01:03.545,15.448063,-7.9274216,-2.8666015,-0.44448048,0.3436878,-0.3338376,-14.868751,39.318752,-25.968752,-0.09413398,0.7401187,-0.66580105,995.83124, , , , 
2025-09-28 20:01:03.565,14.85225,-9.073584,-0.46660042,-0.58192503,0.7444151,-0.98868465,-15.993751,40.331253,-25.9125,0.09814577,-0.74359816,0.661366,995.83026, , , , 
2025-09-28 20:01:03.586,14.313865,-8.513663,0.40677986,-0.39988735,0.7230348,-1.3203843,-15.750001,40.8375,-25.050001,0.10328763,-0.7452972,0.65836495,995.83026, , , , 
2025-09-28 20:01:03.605,14.036298,-7.9704924,0.37088752,-0.10300707,0.40294167,-2.0186026,-13.650001,40.3125,-26.156252,0.115349814,-0.74425095,0.6565136,995.841, , , , 
2025-09-28 20:01:03.626,11.947364,-8.968299,0.51445687,0.055817768,0.09445497,-2.5164576,-17.00625,39.825,-23.456251,0.13154909,-0.7410314,0.65566075,995.85345, , , , 
2025-09-28 20:01:03.646,10.815558,-9.970892,1.1294123,0.19692753,-0.16210824,-2.704604,-19.48125,38.568752,-22.518751,0.14654092,-0.7374319,0.65515417,995.85345, , , , 
2025-09-28 20:01:03.665,10.949556,-11.720045,1.5194423,0.57444197,-0.68928456,-2.947728,-19.2,36.768753,-25.837502,0.17577909,-0.7287188,0.6551735,995.873, , , , 
2025-09-28 20:01:03.686,11.277373,-12.801601,0.8063812,0.7082214,-0.9489021,-3.1114397,-22.237501,37.6875,-25.725,0.19603813,-0.7217577,0.655581,995.873, , , , 
2025-09-28 20:01:03.705,11.892328,-13.435699,0.2656033,0.7088322,-1.1816416,-3.3380706,-25.312502,35.737503,-22.987501,0.22594364,-0.71121454,0.6553838,995.873, , , , 
2025-09-28 20:01:03.725,11.844472,-13.10549,-0.08853444,0.5164098,-0.84810936,-3.7400196,-30.075,33.65625,-26.681252,0.27384135,-0.6936232,0.6519636,995.8713, , , , 
2025-09-28 20:01:03.745,11.3683,-13.191631,-0.32542387,0.32459828,-0.36002842,-3.937329,-32.34375,33.525,-23.8125,0.296609,-0.6840223,0.64900446,995.8713, , , , 
2025-09-28 20:01:03.765,10.322637,-13.540983,0.09332009,0.06253728,0.43470666,-4.1786203,-33.7125,28.687502,-26.025002,0.3297042,-0.6668003,0.64288133,995.8674, , , , 
2025-09-28 20:01:03.785,9.585648,-13.244273,0.81834537,0.077198036,0.6619483,-4.286133,-34.78125,26.456251,-24.862501,0.34713814,-0.65537167,0.6388779,995.8674, , , , 
2025-09-28 20:01:03.805,8.472985,-12.990634,1.1653047,0.24824017,0.59047717,-4.369821,-36.975002,20.5125,-26.1375,0.37523812,-0.633737,0.63188577,995.87006, , , , 
2025-09-28 20:01:03.825,7.1808605,-12.643675,1.1916257,0.5096903,0.17936517,-4.3459973,-36.9,18.768751,-26.04375,0.3987249,-0.6142963,0.6257156,995.87006, , , , 
2025-09-28 20:01:03.845,6.384051,-12.727424,0.74416786,0.6923389,-0.3099375,-4.2586436,-40.40625,14.55,-24.975,0.42426765,-0.5939648,0.61834633,995.8759, , , , 
2025-09-28 20:01:03.865,5.4317074,-12.423535,0.19381863,0.6905063,-0.57199854,-4.091878,-41.34375,7.8562503,-23.41875,0.4513301,-0.573833,0.60924166,995.8759, , , , 
2025-09-28 20:01:03.885,4.5678983,-11.937792,-0.23928227,0.57138765,-0.5029708,-3.914727,-45.09375,5.3250003,-21.487501,0.4773574,-0.5544843,0.59887516,995.88666,37.88837227,127.73983001,144.01092529296875,0.86
2025-09-28 20:01:03.905,3.7447674,-11.923435,-0.8470592,0.36369362,-0.3447568,-3.670381,-45.3375,3.43125,-21.206251,0.50028443,-0.5360857,0.58808553,995.88666, , , , 
2025-09-28 20:01:03.925,2.4071796,-11.571691,-1.0671989,0.047876526,-0.2690096,-3.3319619,-45.1875,-2.5125,-22.725,0.52429694,-0.5156014,0.57388574,995.88544, , , , 
2025-09-28 20:01:03.945,0.6867401,-11.475977,-0.85184485,-0.13232858,-0.15599959,-3.0075927,-45.206253,-2.8500001,-26.250002,0.53633195,-0.504881,0.56511396,995.88544, , , , 
2025-09-28 20:01:03.965,-0.74177504,-11.432906,-0.083748795,-0.18608469,-0.06864593,-2.2531748,-47.7,-6.76875,-20.362501,0.5513576,-0.49009794,0.552205,995.88226, , , , 
2025-09-28 20:01:03.985,-0.66999036,-10.889736,-0.5694918,-0.1390481,-0.1211803,-1.7412701,-43.66875,-8.700001,-22.837502,0.5597228,-0.4816005,0.5443826,995.88226, , , , 
2025-09-28 20:01:04.005,-1.2849457,-10.226924,-1.3878372,-0.22884522,-0.112017326,-1.3069452,-43.125,-9.1125,-25.031252,0.5644952,-0.47715762,0.5395811,995.892, , , , 
2025-09-28 20:01:04.025,-2.1894326,-10.363315,-1.0743774,-0.41882417,-0.0692568,-0.5317578,-42.525,-11.0625,-23.2875,0.5688614,-0.47403145,0.5322313,995.892, , , , 
2025-09-28 20:01:04.045,-2.8953154,-11.653047,-0.77766734,-0.405996,-0.1333976,0.021074835,-44.04375,-10.481251,-21.618752,0.5682956,-0.47572392,0.5303444,995.8901, , , , 
2025-09-28 20:01:04.065,-3.196811,-11.617154,-0.2416751,-0.3229184,-0.36980227,1.3423754,-44.081253,-11.475,-22.181252,0.5631946,-0.4853261,0.53102994,995.8923, , , , 
2025-09-28 20:01:04.086,-0.27756742,-11.062019,-0.23449662,-0.25755587,-0.14256057,2.265392,-45.9,-9.450001,-20.1,0.55410284,-0.49911118,0.5361325,995.8923, , , , 
2025-09-28 20:01:04.105,2.2875385,-10.844273,-1.1174482,-0.38583747,0.577649,2.8872523,-45.956253,-6.0937505,-20.2875,0.53871226,-0.51484114,0.5461734,995.89105, , , , 
2025-09-28 20:01:04.125,3.3810585,-11.5932255,-1.0648061,-0.55626875,1.0119739,3.2977536,-45.24375,-3.2812502,-20.362501,0.5167658,-0.53124017,0.5597079,995.89105, , , , 
2025-09-28 20:01:04.145,4.421936,-12.600604,-0.24646074,-0.5306124,0.9423353,3.6184576,-43.425003,0.41250002,-23.23125,0.49010968,-0.5485882,0.574858,995.89105, , , , 
2025-09-28 20:01:04.166,5.4628143,-13.399807,0.24646074,-0.1060614,0.1372155,4.037511,-44.775,5.3812504,-23.0625,0.45669222,-0.5716071,0.59342825,995.8691, , , , 
2025-09-28 20:01:04.185,6.2117677,-13.524234,-0.28713873,0.14317143,-0.24213153,4.2781916,-42.487503,4.9875,-23.90625,0.43843675,-0.5857673,0.60394657,995.8691, , , , 
2025-09-28 20:01:04.205,7.2382884,-13.136597,-0.85902333,0.2787834,-0.4058433,4.4907722,-43.3125,9.637501,-23.925001,0.41465294,-0.6043363,0.617372,995.86346, , , , 
2025-09-28 20:01:04.226,8.523234,-12.545569,-0.8470592,0.29161158,-0.37530005,4.5182614,-42.487503,16.6875,-23.493752,0.38384092,-0.62598264,0.63273954,995.86346, , , , 
2025-09-28 20:01:04.245,8.748159,-12.696317,-0.60777694,0.32582,-0.41806057,4.474279,-41.625,18.13125,-22.425001,0.36504477,-0.6377012,0.6409488,995.84686, , , , 
2025-09-28 20:01:04.265,9.23151,-12.97867,-0.3469593,0.42233664,-0.5829941,4.4602294,-38.49375,25.331251,-26.400002,0.33415884,-0.6551117,0.65295315,995.84686, , , , 
2025-09-28 20:01:04.285,9.870394,-13.112668,-0.51206404,0.49441868,-0.5445096,4.4553423,-36.2625,25.44375,-27.2625,0.30978474,-0.66697013,0.66137516,995.8449, , , , 
2025-09-28 20:01:04.305,10.614561,-13.064812,-1.4644074,0.4333322,-0.27450737,4.4095273,-37.706253,26.400002,-25.0125,0.29099917,-0.674653,0.6671372,995.8449, , , , 
2025-09-28 20:01:04.325,11.648261,-12.327823,-1.713261,0.022831071,0.37545276,4.204277,-33.225002,29.831251,-23.98125,0.2493346,-0.6888971,0.67586535,995.8261, , , , 
2025-09-28 20:01:04.345,11.976077,-11.660225,-0.997807,-0.15431972,0.6582832,4.046674,-34.575,29.7,-24.281252,0.2267952,-0.6958883,0.6784484,995.8261, , , , 
2025-09-28 20:01:04.365,13.184453,-10.246066,-0.8470592,-0.35468337,1.0101413,3.719861,-27.150002,35.193752,-25.06875,0.18829812,-0.70669895,0.680818,995.8049, , , , 
2025-09-28 20:01:04.385,13.69891,-9.4636135,-0.57906306,-0.5593231,1.3534473,3.3148577,-25.85625,35.0625,-24.581251,0.16538338,-0.71280867,0.68091196,995.8049, , , , 
2025-09-28 20:01:04.406,13.4022,-8.745767,0.2321038,-0.70531976,1.7456225,2.8322744,-21.993752,37.4625,-25.125002,0.1353649,-0.7206323,0.6795959,995.79974, , , , 
2025-09-28 20:01:04.425,12.1866455,-7.6067834,1.3663018,-0.6143009,1.9673663,2.3545783,-15.825001,40.237503,-28.556252,0.09898607,-0.7289651,0.67703056,995.8027, , , , 
2025-09-28 20:01:04.445,11.947364,-7.245467,1.3184453,-0.3748419,1.7321835,2.112065,-14.437501,39.131252,-28.48125,0.072106384,-0.7333889,0.67560667,995.8027, , , , 
2025-09-28 20:01:04.465,12.428321,-7.176075,-0.16271193,0.020998476,0.88369226,1.8041891,-13.556251,40.818752,-25.425001,0.045499705,-0.73541933,0.6757459,995.80585, , , , 
2025-09-28 20:01:04.486,13.294522,-7.1569324,-1.457229,0.15477787,0.21846052,1.5604541,-11.418751,41.0625,-27.825,0.034663595,-0.73530465,0.67660904,995.80585, , , , 
2025-09-28 20:01:04.505,14.376079,-6.946364,-2.0937197,0.13889538,-0.29344416,1.1969895,-9.618751,40.612503,-27.056252,0.024911094,-0.7346062,0.677971,995.7951, , , , 
2025-09-28 20:01:04.525,15.814165,-6.9655066,-2.0841484,0.0051159924,-0.2616792,0.733954,-10.63125,40.74375,-25.893751,0.022056613,-0.7344704,0.67827475,995.7951, , , , 
2025-09-28 20:01:04.545,17.32643,-7.8628154,-1.3686945,-0.0730747,-0.17249294,0.33017242,-8.00625,41.4,-26.343752,0.021765672,-0.7348552,0.67787373,995.7951, , , , 
2025-09-28 20:01:04.565,18.953548,-8.255239,-1.227518,-0.025427246,-0.24213153,-0.5024363,-9.0375,41.30625,-27.7875,0.026391195,-0.7353031,0.6772164,995.78705, , , , 
2025-09-28 20:01:04.585,18.958334,-8.073383,-1.2059826,-0.1268308,-0.17676899,-1.3399318,-7.2375,41.475002,-27.206251,0.03654713,-0.7353852,0.6765825,995.78705, , , , 
2025-09-28 20:01:04.605,16.156338,-8.729017,-0.73459655,-0.24900375,0.06330086,-2.187812,-10.556251,39.6375,-26.60625,0.048044693,-0.7356549,0.67533284,995.7863, , , , 
2025-09-28 20:01:04.626,10.4016,-10.212567,0.04546363,-0.18364123,0.22090398,-2.9074109,-11.175,42.318752,-27.618752,0.076439396,-0.7352734,0.67147756,995.80096, , , , 
2025-09-28 20:01:04.645,8.628518,-11.021341,0.1052842,-0.009544762,-0.06436988,-2.947728,-13.9875,40.275,-24.2625,0.09225761,-0.73375934,0.6697041,995.80096, , , , 
2025-09-28 20:01:04.665,10.150353,-11.550155,-1.5098711,0.0026725335,-0.1786016,-3.0137014,-16.556252,38.90625,-27.16875,0.12081103,-0.7294685,0.66701525,995.80096, , , , 
2025-09-28 20:01:04.685,11.006984,-11.667403,-1.9070797,-0.3815614,0.2135736,-3.2898123,-19.125,39.2625,-26.75625,0.13809629,-0.72699326,0.66404754,995.80975, , , , 
2025-09-28 20:01:04.706,10.810773,-11.471191,1.105484,-0.56421,0.24900375,-3.5653124,-21.84375,38.34375,-24.112501,0.160438,-0.72447956,0.6572685,995.80975, , , , 
2025-09-28 20:01:04.725,10.693524,-12.05504,4.907679,0.0570395,-0.48769918,-3.9165595,-23.081251,37.74375,-27.0375,0.19232742,-0.7188186,0.64778537,995.80365, , , , 
2025-09-28 20:01:04.746,11.176874,-13.131811,4.3525443,0.58727014,-1.0655773,-4.159073,-26.41875,33.54375,-27.675001,0.22492346,-0.7091324,0.6425025,995.80365, , , , 
2025-09-28 20:01:04.765,11.564512,-14.124832,4.0007997,0.89514595,-1.3215296,-4.3832603,-30.937502,32.325,-26.212502,0.25294703,-0.69935846,0.63897955,995.831, , , , 
2025-09-28 20:01:04.786,11.617154,-15.345172,2.617748,1.1089487,-1.1394919,-4.699688,-34.575,28.95,-24.393751,0.3122327,-0.67430514,0.63152367,995.831, , , , 
2025-09-28 20:01:04.805,11.057234,-15.25903,1.3184453,1.0857358,-0.84810936,-4.804757,-34.443752,29.587502,-23.98125,0.34113052,-0.6593757,0.62733066,995.8393, , , , 
2025-09-28 20:01:04.825,10.4351,-14.888143,-0.98584294,0.7711404,-0.20670137,-4.8481283,-38.081253,21.0,-24.0375,0.38518286,-0.632535,0.61891574,995.83344, , , , 
2025-09-28 20:01:04.845,10.236495,-15.058033,-1.9334008,0.42844528,0.18119776,-4.817585,-41.268753,18.9375,-25.29375,0.4082467,-0.6160995,0.6126996,995.83344, , , , 
2025-09-28 20:01:04.865,9.346365,-14.244473,-0.34217364,-0.00160352,0.6821069,-4.828581,-44.1375,12.281251,-21.675001,0.44013774,-0.5892804,0.59991395,995.82, , , , 
2025-09-28 20:01:04.886,7.408179,-13.42852,0.6652047,0.09185879,0.77801263,-4.7803226,-43.275,7.7625003,-22.275002,0.46180245,-0.5667095,0.58874184,995.82,37.88836493,127.73981076,143.68463134765625,1.88
2025-09-28 20:01:04.905,5.56092,-12.64846,0.73459655,0.27633995,0.6918807,-4.6514297,-44.756252,1.8937501,-21.7875,0.4770715,-0.54864365,0.5805691,995.82, , , , 
2025-09-28 20:01:04.925,2.3377876,-11.775081,-0.33260235,0.45959938,0.24900375,-4.2824674,-42.112503,-2.04375,-26.475,0.5076048,-0.512111,0.5637626,995.83246, , , , 
2025-09-28 20:01:04.945,0.038285162,-11.590833,-0.3684947,0.47609273,-0.1004109,-3.864636,-42.99375,-4.125,-25.500002,0.5226701,-0.49533066,0.5545334,995.83246, , , , 
2025-09-28 20:01:04.965,-1.5840486,-11.959328,0.02632105,0.75037104,-0.7925207,-2.952004,-44.23125,-10.2375,-24.712502,0.5468777,-0.4720979,0.5389617,995.8327, , , , 
2025-09-28 20:01:04.986,-1.7108682,-11.727223,-1.6007984,0.904309,-1.3484076,-2.2299619,-41.79375,-12.075001,-26.7,0.5664602,-0.4591649,0.5272705,995.8327, , , , 
2025-09-28 20:01:05.005,-2.359323,-10.734202,-4.208975,0.60559607,-1.4247657,-1.5659518,-44.362503,-12.88125,-22.368752,0.5805374,-0.45347044,0.518633,995.84174, , , , 
2025-09-28 20:01:05.026,-3.1513474,-9.88475,-3.9673,-0.415159,-0.55061823,-0.5904008,-40.6875,-15.843751,-24.300001,0.59528506,-0.4515088,0.5061207,995.84174, , , , 
2025-09-28 20:01:05.045,-2.684747,-10.133604,-1.6438692,-0.8213841,-0.0051159924,-0.0033597562,-41.775,-13.856251,-22.44375,0.59565955,-0.45522794,0.5007694,995.8298, , , , 
2025-09-28 20:01:05.065,-4.0031924,-10.906486,0.73459655,-0.74013907,-0.09735657,0.8591813,-43.2,-15.000001,-20.98125,0.5879433,-0.46433488,0.49978855,995.83856, , , , 
2025-09-28 20:01:05.086,-3.345166,-10.526027,1.942972,-0.33880088,-0.49319696,1.7620394,-42.112503,-12.525001,-21.393751,0.58009166,-0.47674012,0.50220394,995.83856, , , , 
2025-09-28 20:01:05.105,-1.3016955,-10.616954,0.80159557,-0.045585785,-0.30199626,2.414443,-44.268753,-13.012501,-20.362501,0.57320833,-0.4882487,0.5068211,995.83856, , , , 
2025-09-28 20:01:05.125,1.18684,-11.875579,-1.5984055,-0.07918335,0.34307694,3.1407614,-46.4625,-7.9875,-21.65625,0.55573463,-0.5085863,0.52135885,995.8371, , , , 
2025-09-28 20:01:05.145,3.0388846,-12.947563,-1.9357935,-0.19708025,0.42737627,3.5152214,-46.03125,-8.08125,-22.0125,0.53564984,-0.5265842,0.5365168,995.8371, , , , 
2025-09-28 20:01:05.165,4.9770713,-14.13201,-1.2969099,-0.21296273,0.19708025,3.851197,-47.04375,-2.1000001,-20.550001,0.51272064,-0.5465296,0.55168086,995.81635, , , , 
2025-09-28 20:01:05.186,5.6374903,-14.88575,-0.55034924,-0.10178535,-0.011835505,4.091878,-44.15625,-1.03125,-22.9125,0.48875952,-0.5674845,0.5661573,995.81635, , , , 
2025-09-28 20:01:05.205,5.977271,-14.85225,0.033499517,0.09674571,-0.15050182,4.420523,-44.0625,3.7125,-23.6625,0.46392578,-0.5884623,0.5805975,995.80023, , , , 
2025-09-28 20:01:05.225,6.987042,-14.024334,0.14117654,0.28916812,-0.016111558,4.762607,-44.25,10.1625,-22.78125,0.4302287,-0.6132728,0.59953636,995.7922, , , , 
2025-09-28 20:01:05.245,8.114061,-13.713266,-0.49292147,0.303218,0.29726207,4.866454,-44.775,12.6,-23.325,0.40794373,-0.62675583,0.6112863,995.7922, , , , 
2025-09-28 20:01:05.265,9.549755,-13.7324095,-0.7896315,0.15844305,0.61674434,4.8621783,-41.081253,18.5625,-23.118752,0.36654112,-0.646823,0.6302786,995.78046, , , , 
2025-09-28 20:01:05.285,10.061819,-13.988441,-1.1389836,0.13095413,0.43287405,4.8298025,-39.206253,23.268751,-26.212502,0.33221143,-0.6612604,0.64330477,995.78046, , , , 
2025-09-28 20:01:05.305,10.63849,-14.220545,-0.9667004,0.13706279,0.15004367,4.8126984,-37.425003,23.962502,-27.993752,0.3073322,-0.67142886,0.6512963,995.78046, , , , 
2025-09-28 20:01:05.326,12.638889,-13.5170555,-1.0360922,0.22991423,-0.3105484,4.614778,-34.275,28.987501,-23.962502,0.2614227,-0.6891084,0.6635453,995.75946, , , , 
2025-09-28 20:01:05.345,13.330415,-12.794423,-1.4404793,0.13645191,-0.26656613,4.3417215,-34.3875,30.6,-24.675001,0.24105445,-0.6963531,0.66774076,995.75946, , , , 
2025-09-28 20:01:05.365,13.014563,-11.925828,-0.8446664,-0.28932083,0.43409577,3.9257226,-29.6625,33.675003,-23.94375,0.20720087,-0.70752096,0.6716015,995.7475, , , , 
2025-09-28 20:01:05.385,13.079168,-11.200803,0.85184485,-0.42981973,0.93195057,3.693594,-28.10625,34.725002,-26.343752,0.18507662,-0.7141182,0.67244524,995.7475, , , , 
2025-09-28 20:01:05.405,13.213166,-10.097712,1.1988041,-0.26855144,1.1927898,3.4645195,-24.581251,35.568752,-24.581251,0.15444124,-0.7212888,0.67361903,995.7558, , , , 
2025-09-28 20:01:05.429,13.562519,-8.781659,-0.91884387,-0.13110685,1.1512511,3.0686793,-20.025002,38.53125,-25.3875,0.11763763,-0.7268687,0.67583126,995.7619, , , , 
2025-09-28 20:01:05.445,14.096118,-8.114061,-1.2179468,-0.14637847,0.8904118,2.8176138,-18.46875,38.850002,-27.581251,0.09151164,-0.7302567,0.6766134,995.7619, , , , 
2025-09-28 20:01:05.465,15.017355,-7.3028946,-1.1030912,-0.043142326,0.28870997,2.428493,-13.9125,41.04375,-27.712502,0.07035244,-0.73278993,0.6766797,995.7619, , , , 
2025-09-28 20:01:05.485,16.024733,-7.0468626,-1.160519,0.052763447,-0.14744748,2.0473132,-13.931251,40.29375,-27.206251,0.05559124,-0.73407936,0.67678183,995.7592, , , , 
2025-09-28 20:01:05.505,16.92922,-6.7022963,-1.7491534,0.03199404,-0.24152066,1.3582579,-13.63125,39.80625,-24.431252,-0.04562546,0.7345122,-0.67697084,995.76337, , , , 
2025-09-28 20:01:05.526,16.433907,-6.778867,-2.7972097,-0.2691623,0.48663014,0.7712168,-8.887501,39.9375,-26.175001,-0.040313955,0.73545265,-0.676211,995.76337, , , , 
2025-09-28 20:01:05.545,16.85265,-7.3770723,-2.0578275,-0.49334967,0.7981712,0.4657844,-10.575001,41.756252,-25.800001,-0.03575021,0.7375111,-0.67426866,995.76337, , , , 
2025-09-28 20:01:05.566,18.620945,-7.52782,-0.23688944,-0.42737627,0.55382526,0.052839804,-10.03125,41.550003,-25.5375,-0.03132102,0.7409216,-0.6708339,995.76434, , , , 
2025-09-28 20:01:05.585,20.140388,-6.876972,0.011964113,-0.118889555,-0.24213153,-1.0980295,-8.38125,41.831253,-24.487501,0.03728186,-0.7425774,0.6687113,995.76434, , , , 
2025-09-28 20:01:05.605,17.9031,-8.02792,-0.059820566,-0.0834594,-0.5500074,-2.0644176,-9.75,43.706253,-25.837502,0.049287807,-0.7423743,0.66806805,995.7741, , , , 
2025-09-28 20:01:05.626,12.918849,-10.662417,0.4977071,-0.030314164,-0.6764564,-2.8921392,-13.387501,41.7,-24.4125,0.08524702,-0.74019426,0.66612554,995.7858, , , , 
2025-09-28 20:01:05.645,11.430513,-11.533405,1.1557333,0.09430225,-0.8248965,-3.046688,-12.993751,41.268753,-27.375002,0.105819896,-0.7378617,0.66505545,995.7858, , , , 
2025-09-28 20:01:05.666,11.696117,-12.911671,1.174876,0.3985129,-1.2659409,-3.2384996,-19.556252,38.7,-24.825,0.14334473,-0.73109025,0.6640613,995.7858, , , , 
2025-09-28 20:01:05.685,12.602997,-13.651053,0.39720857,0.46082112,-1.5078434,-3.47185,-19.050001,41.025,-27.956251,0.1683871,-0.7253861,0.6634839,995.8061, , , , 
2025-09-28 20:01:05.705,13.110275,-14.143974,-0.20338993,0.30932665,-1.468748,-3.8414233,-23.7,39.2625,-24.281252,0.20439313,-0.71672857,0.6612345,995.8061, , , , 
2025-09-28 20:01:05.725,12.327823,-14.043476,-0.083748795,-0.026038112,-0.7906881,-4.3014045,-30.075,34.631252,-23.34375,0.2500225,-0.70490324,0.6550745,995.81146, , , , 
2025-09-28 20:01:05.745,11.155339,-14.230116,0.6029913,-0.23189954,-0.10102176,-4.606226,-28.593752,35.287502,-24.618752,0.28348365,-0.6943047,0.6481585,995.81146, , , , 
2025-09-28 20:01:05.765,9.458828,-14.828321,1.1174482,-0.15248711,0.62407476,-4.8041463,-33.318752,32.081253,-26.250002,0.3196661,-0.6777467,0.63943726,995.82367, , , , 
2025-09-28 20:01:05.785,9.128618,-14.754145,0.8111669,0.056428634,0.6802743,-4.898219,-34.706253,29.812502,-23.6625,0.33946058,-0.66548085,0.6347372,995.82367, , , , 
2025-09-28 20:01:05.805,8.712267,-14.593825,0.2656033,0.24640758,0.45730865,-4.9916816,-34.912502,26.550001,-23.60625,0.36646807,-0.6466082,0.6281425,995.83514, , , , 
2025-09-28 20:01:05.825,8.367701,-14.404793,-0.80159557,0.3099375,0.19585852,-5.148674,-41.456253,17.53125,-22.10625,0.4024982,-0.6203222,0.6175275,995.83514, , , , 
2025-09-28 20:01:05.845,7.2263246,-14.261223,-0.7800602,0.23296855,0.19036074,-5.187769,-39.91875,15.58125,-23.7,0.42443922,-0.60367,0.609404,995.83466, , , , 
2025-09-28 20:01:05.866,5.7523456,-13.579268,-0.15314065,0.19020802,0.4011091,-5.063153,-43.2,5.90625,-22.650002,0.45851138,-0.57472,0.5942252,995.8288, , , , 
2025-09-28 20:01:05.885,3.830909,-13.270595,-0.68195444,0.15661046,0.5807033,-4.735729,-44.193752,3.1875002,-22.237501,0.4821873,-0.5505087,0.5821077,995.8288,37.88835642,127.73978949,143.78814697265625,2.24
2025-09-28 20:01:05.905,2.6081767,-12.918849,-0.8446664,0.083306685,0.51961684,-4.294074,-44.71875,0.52500004,-23.41875,0.49730846,-0.5329358,0.57333887,995.8288, , , , 
2025-09-28 20:01:05.925,2.8354948,-11.700903,0.14117654,0.15783219,-0.0881936,-3.575697,-44.86875,-5.2125,-22.7625,0.523162,-0.503158,0.5556271,995.8256, , , , 
2025-09-28 20:01:05.945,2.036292,-11.145768,-0.09810573,0.2616792,-0.50602514,-3.2574365,-44.268753,-6.7500005,-23.962502,0.5362625,-0.4907252,0.5460916,995.8256, , , , 
2025-09-28 20:01:05.965,0.4354937,-11.01177,-1.0695918,0.16027565,-0.7216604,-2.6508477,-44.53125,-10.25625,-24.975,0.558023,-0.47372323,0.52933025,995.8188, , , , 
2025-09-28 20:01:05.985,-0.61016977,-10.951949,-1.3806586,-0.056581352,-0.5634464,-2.0650284,-43.5,-10.9125,-24.281252,0.56894505,-0.46621993,0.51984006,995.8188, , , , 
2025-09-28 20:01:06.005,-1.2011969,-10.0881405,-0.93559366,-0.2532798,-0.26229006,-1.4193443,-43.0875,-12.375001,-22.6875,0.5786855,-0.45966196,0.5096551,995.81805, , , , 
2025-09-28 20:01:06.025,-1.9740787,-9.877572,-0.60777694,-0.37239844,0.046807513,-0.6007855,-42.375,-13.9125,-22.368752,0.5830946,-0.4557777,0.50161165,995.821, , , , 
2025-09-28 20:01:06.046,-2.3545375,-11.117054,-0.72023964,-0.33757916,0.011988222,0.009468404,-45.375,-14.1,-21.112501,0.58208555,-0.4566729,0.5005376,995.821, , , , 
2025-09-28 20:01:06.065,-3.0819557,-11.227124,-0.7848458,-0.2966512,-0.3099375,1.1603377,-43.5,-13.650001,-22.425001,0.5770897,-0.46463177,0.5023335,995.81903, , , , 
2025-09-28 20:01:06.085,-1.591227,-10.557134,-0.09092726,-0.25083634,-0.37224573,2.0583088,-45.0,-13.06875,-21.375,0.57178277,-0.4740826,0.5054887,995.81903, , , , 
2025-09-28 20:01:06.105,0.069391854,-10.07139,0.1794617,-0.18547381,-0.019165883,2.7302601,-44.4375,-11.137501,-23.25,0.5575704,-0.4940028,0.515825,995.81903, , , , 
2025-09-28 20:01:06.126,0.98584294,-10.205389,0.22253251,-0.1494328,0.1928042,3.0992224,-45.393753,-9.76875,-19.35,0.5496597,-0.5025458,0.5219641,995.8144, , , , 
2025-09-28 20:01:06.145,3.4289148,-11.207981,0.39481574,0.04421134,0.23984079,3.6428921,-45.862503,-6.4500003,-21.1875,0.52555203,-0.52491415,0.5407881,995.8144, , , , 
2025-09-28 20:01:06.165,5.2737813,-12.232109,-0.43070808,0.3239874,0.056581352,3.937329,-46.21875,-1.63125,-20.962502,0.49901208,-0.547713,0.5618239,995.80756, , , , 
2025-09-28 20:01:06.186,6.0107703,-13.239488,-1.7012969,0.37102398,0.06330086,4.1163125,-45.018753,0.50625,-22.7625,0.47714564,-0.5655905,0.5788021,995.80756, , , , 
2025-09-28 20:01:06.205,6.3361945,-14.0291195,-2.6512475,0.18776456,0.27649269,4.3850927,-45.675003,3.3937502,-19.462502,0.45267403,-0.58361036,0.595408,995.79, , , , 
2025-09-28 20:01:06.225,7.0636125,-14.431113,-2.6392834,-0.29787293,0.72059137,4.8108654,-44.98125,9.58125,-21.431252,0.4147269,-0.60753465,0.6150373,995.79, , , , 
2025-09-28 20:01:06.245,7.9226356,-14.416757,-1.4117653,-0.58192503,0.88919,4.992903,-39.7125,13.63125,-24.69375,0.37842837,-0.627749,0.6287984,995.76483, , , , 
2025-09-28 20:01:06.265,8.422736,-14.8785715,-0.79441714,-0.6821069,0.9508874,5.0613203,-39.300003,17.025002,-25.687502,0.34923446,-0.6426271,0.6377777,995.76483, , , , 
2025-09-28 20:01:06.285,9.616755,-15.08914,-0.8542377,-0.7163153,0.8403209,4.9971795,-37.612503,26.04375,-26.23125,0.299341,-0.6656746,0.6501218,995.75555, , , , 
2025-09-28 20:01:06.305,9.461221,-15.163317,-1.6247265,-0.8030581,0.41760245,4.9281516,-37.912502,25.275002,-27.075,0.2704875,-0.67850894,0.6553114,995.75555, , , , 
2025-09-28 20:01:06.326,10.305887,-15.522241,-2.5866413,-1.0547343,-0.09308052,5.1535606,-32.23125,29.456251,-26.681252,0.22530976,-0.70007056,0.6591908,995.7585, , , , 
2025-09-28 20:01:06.346,12.19861,-14.35215,-1.8113668,-1.3839905,-0.06620247,5.187158,-29.94375,32.175003,-25.5375,0.18926248,-0.7180199,0.6578519,995.7585, , , , 
2025-09-28 20:01:06.366,15.036497,-12.564712,2.6991038,-1.6161191,0.25572327,4.8304133,-24.656252,36.05625,-23.681252,0.14357437,-0.73977655,0.6509756,995.74506, , , , 
2025-09-28 20:01:06.386,17.240288,-11.054841,6.1830535,-1.0626756,0.5306124,4.276359,-21.825,39.318752,-21.393751,0.10865946,-0.7523931,0.6459334,995.74506, , , , 
2025-09-28 20:01:06.405,17.16611,-9.724431,5.7403817,0.010613776,0.6210204,3.3637269,-17.56875,40.0125,-22.95,0.08589296,-0.75635713,0.64593077,995.7746, , , , 
2025-09-28 20:01:06.427,13.536198,-9.128618,0.35413775,0.68439764,0.3766745,2.5842636,-13.200001,41.850002,-25.06875,0.056685828,-0.7546903,0.6522664,995.7746, , , , 
2025-09-28 20:01:06.445,11.653047,-8.439486,-2.6632116,0.60803956,0.21479532,2.3802347,-13.51875,42.5625,-24.150002,0.042854704,-0.75205714,0.656847,995.8007, , , , 
2025-09-28 20:01:06.465,11.432906,-7.676175,-3.0388846,0.23602287,-0.066813335,2.1774275,-10.3125,42.506252,-24.31875,0.019936655,-0.7492573,0.6617941,995.8007, , , , 
2025-09-28 20:01:06.485,13.064812,-7.520642,-3.0604203,0.10102176,-0.018555017,1.9984441,-9.39375,41.98125,-23.60625,0.010295104,-0.748896,0.6625719,995.7751, , , , 
2025-09-28 20:01:06.505,14.58904,-7.4416785,-3.603591,-0.27160576,0.270384,1.6508621,-8.025001,41.381252,-25.275002,0.0016265981,0.7496008,-0.6618862,995.7751, , , , 
2025-09-28 20:01:06.525,16.890936,-7.32443,-0.7896315,-0.73830646,0.5611557,1.0668753,-6.61875,42.525,-25.331251,0.01475854,0.75410223,-0.65657043,995.7609, , , , 
2025-09-28 20:01:06.545,18.350557,-7.6570325,1.6749759,-0.63568115,0.45058912,0.41080657,-4.7625003,43.0875,-24.468752,0.01994798,0.7574682,-0.65255684,995.7609, , , , 
2025-09-28 20:01:06.565,18.128025,-8.633304,2.4143581,2.290743E-4,-0.22930336,-0.5885682,-4.21875,44.49375,-22.44375,-0.018588258,-0.7602606,0.64934665,995.7653, , , , 
2025-09-28 20:01:06.585,17.022541,-8.681161,0.83030945,0.33498296,-0.84688765,-1.2965605,-5.26875,43.40625,-25.368752,-0.007068434,-0.75903106,0.6509637,995.7653, , , , 
2025-09-28 20:01:06.605,16.331015,-8.874979,0.22013968,0.35453063,-1.0900118,-1.8353432,-5.025,43.29375,-24.150002,0.007135474,-0.7571974,0.6530276,995.78265, , , , 
2025-09-28 20:01:06.625,14.342579,-10.315458,0.2321038,0.23907721,-1.1003965,-2.7553055,-8.587501,42.9375,-25.143751,0.04570187,-0.75315905,0.65573674,995.78925, , , , 
2025-09-28 20:01:06.645,12.97867,-11.480763,0.567099,0.19204062,-1.1529309,-3.165196,-10.181251,41.662502,-24.6,0.06834605,-0.7507969,0.65602344,995.78925, , , , 
2025-09-28 20:01:06.665,12.686746,-12.988241,1.2035898,0.25373796,-1.4229331,-3.5732536,-13.500001,43.537502,-22.2,0.11031775,-0.74543726,0.6552411,995.8005, , , , 
2025-09-28 20:01:06.685,13.03849,-14.675181,0.9499506,0.32032222,-1.6184099,-3.9513788,-16.331251,40.275,-23.71875,0.14826901,-0.7389977,0.65375155,995.8005, , , , 
2025-09-28 20:01:06.705,13.227524,-15.754344,0.60059845,0.24640758,-1.5157846,-4.265974,-20.15625,39.506252,-23.118752,0.17846695,-0.73299193,0.6516875,995.8005, , , , 
2025-09-28 20:01:06.726,13.074383,-16.548761,0.39720857,0.13095413,-1.1199442,-4.557357,-26.025002,35.90625,-22.44375,0.21885844,-0.72368115,0.6472743,995.80536, , , , 
2025-09-28 20:01:06.745,12.339787,-16.893328,0.2656033,-0.010155627,-0.32948518,-4.89883,-30.7875,35.550003,-22.3875,0.26611337,-0.7095509,0.6398446,995.80536, , , , 
2025-09-28 20:01:06.765,11.330015,-16.685152,0.18903299,-0.035201084,0.428598,-5.1999865,-35.49375,30.45,-21.300001,0.30824056,-0.6916102,0.6315118,995.8132, , , , 
2025-09-28 20:01:06.785,10.750952,-16.228123,0.03589234,0.021609342,0.817108,-5.4021826,-35.662502,28.81875,-21.337502,0.33133355,-0.678498,0.62641066,995.8132, , , , 
2025-09-28 20:01:06.805,10.162318,-15.960127,0.13399807,0.11446079,1.0693952,-5.6324787,-36.84375,26.475,-22.931252,0.36058128,-0.6579016,0.61926895,995.80707, , , , 
2025-09-28 20:01:06.825,6.73101,-15.907485,-0.3900301,0.34353507,1.0632865,-5.663633,-40.275,16.78125,-22.95,0.39576876,-0.6271101,0.60961324,995.8024, , , , 
2025-09-28 20:01:06.845,5.5250273,-15.254245,-0.44506502,0.45165816,0.65706146,-5.3899655,-40.55625,16.125,-22.575,0.4163368,-0.6075971,0.6029874,995.8024, , , , 
2025-09-28 20:01:06.865,4.752146,-13.964513,0.46899325,0.6740129,-0.1523344,-4.994125,-43.3875,9.375,-22.81875,0.45136675,-0.5761938,0.5893972,995.80096, , , , 
2025-09-28 20:01:06.885,3.7447674,-13.222738,0.5383851,0.8982003,-0.68256503,-4.72229,-44.60625,4.7625003,-22.59375,0.48112133,-0.55205965,0.57655066,995.80096,37.88834715,127.73977183,143.91107177734375,1.66
2025-09-28 20:01:06.906,2.8546374,-12.500106,-0.0023928226,1.0014365,-1.049084,-4.407695,-43.0875,1.44375,-22.087502,0.50420105,-0.53473437,0.5659881,995.80096, , , , 
2025-09-28 20:01:06.925,1.7635103,-12.19861,-1.7587247,0.818177,-1.0582469,-3.9513788,-46.125,-4.74375,-20.19375,0.5412653,-0.5080145,0.547228,995.80756, , , , 
2025-09-28 20:01:06.945,-0.0,-12.468999,-2.9168508,0.32948518,-0.76747525,-3.5054476,-47.756252,-8.512501,-20.71875,0.56631696,-0.48921403,0.5319632,995.80756, , , , 
2025-09-28 20:01:06.965,-1.3686945,-12.265609,-2.0889342,-0.26244277,-0.4577668,-2.7779076,-45.54375,-10.650001,-21.150002,0.58843076,-0.4714489,0.51364523,995.7956, , , , 
2025-09-28 20:01:06.985,-2.1487548,-11.497513,-0.4235296,-0.4475348,-0.25679228,-2.212247,-44.98125,-11.34375,-19.3125,0.596848,-0.46410078,0.50396997,995.7956, , , , 
2025-09-28 20:01:07.005,-2.4311078,-11.157732,0.29192436,-0.4145481,-0.11323906,-1.6245949,-42.6375,-14.437501,-21.69375,0.6040575,-0.45678845,0.49388775,995.79926, , , , 
2025-09-28 20:01:07.025,-2.5555346,-12.059826,-0.5814559,-0.3644572,-0.029550584,-0.93798286,-44.568752,-16.425001,-17.831251,0.60889226,-0.4510402,0.48574638,995.79926, , , , 
2025-09-28 20:01:07.045,-3.4193435,-13.256237,-1.7060826,-0.45547605,-0.017333288,-0.37965247,-44.850002,-16.44375,-18.88125,0.60968614,-0.45020425,0.48215175,995.80853, , , , 
2025-09-28 20:01:07.065,-6.2931237,-12.4115715,-1.8927227,-0.89896387,-0.10957387,1.0180062,-43.893753,-16.2,-20.7,0.6046257,-0.45787054,0.48082137,995.8051, , , , 
2025-09-28 20:01:07.085,-4.8789654,-11.684153,0.5814559,-1.0522909,-0.030772313,2.365574,-44.0625,-13.9875,-18.7875,0.5926424,-0.47401637,0.4839055,995.8051, , , , 
2025-09-28 20:01:07.105,-0.6867401,-11.475977,3.4193435,-0.8055016,0.13232858,3.1438155,-45.35625,-13.875001,-19.275002,0.5790057,-0.4898486,0.49044406,995.8051, , , , 
2025-09-28 20:01:07.126,2.321038,-12.169896,3.9074793,-0.2202931,0.36140287,3.657553,-45.28125,-11.38125,-19.743752,0.56295586,-0.5060618,0.5010143,995.8144, , , , 
2025-09-28 20:01:07.145,3.696911,-13.840086,1.8975084,0.6306415,0.34490952,4.112036,-46.818752,-7.5375004,-20.8875,0.534676,-0.529869,0.5258903,995.8144, , , , 
2025-09-28 20:01:07.165,5.151747,-15.582061,-0.8207382,1.1034509,-0.12484549,4.7430596,-44.643753,-1.10625,-20.7,0.5067324,-0.5523739,0.5547025,995.8151, , , , 
2025-09-28 20:01:07.186,7.075577,-15.952949,-2.914458,0.9873866,-0.20486878,5.1224065,-45.35625,2.68125,-20.681252,0.4832786,-0.5716906,0.5774459,995.8151, , , , 
2025-09-28 20:01:07.205,8.516056,-16.048662,-3.4408789,0.47731447,0.2673297,5.2958922,-46.3125,4.5750003,-19.612501,0.45562628,-0.5922381,0.59797055,995.78827, , , , 
2025-09-28 20:01:07.225,10.293923,-16.106089,-1.3926228,-0.2673297,1.2978586,5.4345584,-45.675003,11.981251,-20.25,0.40968156,-0.6184884,0.620887,995.76166, , , , 
2025-09-28 20:01:07.245,11.241481,-15.44567,0.2321038,-0.35529423,1.4236968,5.4400563,-42.61875,14.6625,-21.65625,0.3773601,-0.63339335,0.63342017,995.76166, , , , 
2025-09-28 20:01:07.265,12.655639,-13.945371,0.4546363,-0.05169443,0.5727621,5.306277,-38.41875,19.987501,-25.181252,0.32530475,-0.6551327,0.65126467,995.76166, , , , 
2025-09-28 20:01:07.285,14.146367,-12.71546,-0.19381863,0.108963005,-0.10529782,5.01184,-36.91875,24.375002,-27.300001,0.2988611,-0.6661673,0.65946597,995.7819, , , , 
2025-09-28 20:01:07.305,14.971891,-11.4496565,-0.4354937,0.13889538,-0.37835437,4.507877,-37.4625,25.425001,-25.44375,0.2696467,-0.67862475,0.66726273,995.7819, , , , 
2025-09-28 20:01:07.326,14.6536455,-10.760524,-0.567099,-0.011377357,0.27282748,3.9660397,-34.275,30.468752,-24.056252,0.23735987,-0.6907545,0.6738912,995.8007, , , , 
2025-09-28 20:01:07.345,14.414364,-10.334601,-0.9619147,-0.26427537,0.9521091,3.7723954,-33.6375,29.925001,-24.54375,0.20940442,-0.69891244,0.6778464,995.8007, , , , 
2025-09-28 20:01:07.365,14.266008,-9.657433,-0.22253251,-0.68943727,2.0144029,3.4052658,-24.975,35.662502,-26.1,0.16785456,-0.70906264,0.68054706,995.8105, , , , 
2025-09-28 20:01:07.385,13.454842,-8.819944,1.3375878,-0.7413608,1.9068907,3.0906703,-23.775002,37.29375,-26.325,0.13291897,-0.71671814,0.68070316,995.8105, , , , 
2025-09-28 20:01:07.405,13.344772,-7.8029947,2.7206392,-0.47258025,1.2447133,2.8829763,-21.993752,36.73125,-26.325,0.110023126,-0.7211787,0.68049717,995.8212, , , , 
2025-09-28 20:01:07.425,13.926228,-6.7740808,2.2755744,0.27633995,0.17631085,2.4107778,-17.325,38.8125,-26.00625,0.082597084,-0.72391874,0.6826352,995.84, , , , 
2025-09-28 20:01:07.445,13.871193,-6.573084,0.9523434,0.5103012,-0.019165883,2.1786492,-16.143751,38.831253,-26.737501,0.07132961,-0.7229697,0.6856083,995.84, , , , 
2025-09-28 20:01:07.465,14.323437,-6.5276203,-0.2536392,0.68378675,-0.18165591,1.8823798,-12.656251,39.1875,-28.518751,0.056764137,-0.7193801,0.6915779,995.82904, , , , 
2025-09-28 20:01:07.486,15.780665,-6.532406,-1.2107682,0.8902591,-0.5451205,1.592219,-10.81875,41.006252,-29.587502,0.04864588,-0.7152094,0.6969369,995.82904, , , , 
2025-09-28 20:01:07.505,17.422142,-7.0229344,-3.4241292,0.9586759,-0.80168366,1.2116503,-12.7875,39.300003,-28.66875,0.04574906,-0.70974857,0.70292413,995.82904, , , , 
2025-09-28 20:01:07.525,19.535004,-8.4682,-6.5347986,0.44677123,-0.60315263,0.49327332,-11.1,37.48125,-28.743752,-0.04833833,0.7043322,-0.70821816,995.8117, , , , 
2025-09-28 20:01:07.545,20.097317,-8.647661,-6.02752,-0.14454588,-0.32948518,-0.11026109,-9.65625,40.256252,-29.6625,-0.051977914,0.70395255,-0.7083314,995.8117, , , , 
2025-09-28 20:01:07.565,19.398613,-8.04467,-3.5724843,-0.69860023,0.1268308,-1.2012656,-10.6875,38.04375,-29.587502,0.061806686,-0.7075545,0.7039429,995.7736, , , , 
2025-09-28 20:01:07.586,16.888542,-8.322237,-1.8496519,-0.9203442,0.5513818,-1.9770639,-11.6625,40.425003,-29.456251,0.07309297,-0.71216345,0.6979335,995.7736, , , , 
2025-09-28 20:01:07.605,14.045869,-9.420543,-0.30388847,-0.8775836,0.68393946,-2.541503,-12.712501,40.3125,-29.962502,0.082937926,-0.7154232,0.69280326,995.767, , , , 
2025-09-28 20:01:07.625,11.406586,-10.626525,0.6867401,-0.45730865,0.21784966,-2.966054,-14.981251,39.43125,-26.906252,0.10363742,-0.7177871,0.68522453,995.767, , , , 
2025-09-28 20:01:07.645,11.29173,-11.207981,0.6221339,-0.20502149,-0.25679228,-3.1224353,-18.431252,39.075,-26.5125,0.1252214,-0.71634775,0.6805734,995.78094, , , , 
2025-09-28 20:01:07.665,12.674782,-12.942778,0.5599205,-0.05108357,-0.83650297,-3.5231626,-18.75,37.331253,-28.85625,0.15922983,-0.711763,0.6746516,995.79926, , , , 
2025-09-28 20:01:07.685,13.225131,-14.44547,0.3493521,-0.093233235,-1.0570252,-3.8878489,-23.6625,37.575,-29.2875,0.19149233,-0.7065023,0.66835684,995.79926, , , , 
2025-09-28 20:01:07.705,13.174882,-15.184853,0.7298109,-0.18791728,-1.1877502,-4.1694574,-26.587502,35.006252,-26.19375,0.21752746,-0.70191836,0.66215575,995.79926, , , , 
2025-09-28 20:01:07.726,12.607782,-15.270994,1.7635103,-0.21846052,-1.2903755,-4.369821,-30.31875,33.131252,-26.775002,0.25394237,-0.6948367,0.6519018,995.811, , , , 
2025-09-28 20:01:07.745,11.904293,-14.926428,2.4119651,-0.15187626,-1.2121848,-4.6257734,-33.3375,31.44375,-24.206251,0.30073443,-0.68320894,0.6372281,995.811, , , , 
2025-09-28 20:01:07.765,10.66481,-14.5100765,2.8019953,-0.24228424,-0.6758455,-4.8841696,-36.35625,26.75625,-22.237501,0.33716288,-0.67122316,0.62440395,995.8227, , , , 
2025-09-28 20:01:07.786,9.02812,-14.031512,3.211168,-0.100563616,-0.0881936,-4.9195995,-38.625,22.050001,-22.5,0.37020892,-0.6562789,0.61179894,995.8227, , , , 
2025-09-28 20:01:07.805,8.023134,-13.591232,2.8283165,0.116293386,0.33024877,-4.816974,-40.612503,21.6,-23.19375,0.39905992,-0.63780415,0.6012451,995.841, , , , 
2025-09-28 20:01:07.825,7.8891363,-13.24188,1.3830515,0.41195193,0.3400226,-4.7119055,-42.9,13.275001,-21.54375,0.4314049,-0.61075485,0.59043086,995.8505, , , , 
2025-09-28 20:01:07.846,7.216753,-12.870993,0.48095736,0.45532334,0.07857248,-4.703964,-42.018753,10.481251,-20.400002,0.45093763,-0.59358644,0.58334225,995.8505, , , , 
2025-09-28 20:01:07.865,5.9844494,-12.406785,-0.18903299,0.30627233,-0.017333288,-4.568352,-45.487503,5.775,-19.3125,0.48365733,-0.56526697,0.5686971,995.8454, , , , 
2025-09-28 20:01:07.885,5.0081778,-11.956935,-0.30388847,0.199371,0.0956767,-4.3539386,-45.99375,1.63125,-21.018751,0.507302,-0.54307574,0.55572855,995.8454,37.88833868,127.73975664,143.899169921875,1.69
2025-09-28 20:01:07.905,3.9481573,-11.356337,-0.4642076,0.18409938,-0.0063377223,-4.1346383,-45.9,-0.84375006,-21.975,0.5284191,-0.5214924,0.54247415,995.8454, , , , 
2025-09-28 20:01:07.925,2.3042881,-11.033305,-0.8781659,0.13584106,-0.28855726,-3.7088654,-46.59375,-7.14375,-21.075,0.5531284,-0.49672687,0.52479357,995.842, , , , 
2025-09-28 20:01:07.945,1.6749759,-10.817951,-0.9403793,0.047265664,-0.3331504,-3.3191338,-46.4625,-8.625,-21.16875,0.56649864,-0.48389757,0.5139685,995.842, , , , 
2025-09-28 20:01:07.965,1.7060826,-10.382458,-0.9882358,-0.06818778,-0.04176788,-2.6508477,-42.862503,-12.6,-21.31875,0.58398104,-0.46597448,0.49810764,995.8217, , , , 
2025-09-28 20:01:07.986,0.8327023,-9.932607,-1.6462619,-0.18364123,0.31314456,-2.2678354,-45.2625,-13.593751,-21.16875,0.5910776,-0.4563728,0.49096352,995.8217, , , , 
2025-09-28 20:01:08.005,-0.47856453,-9.82493,-1.9669002,-0.36384633,0.45303258,-1.8096869,-44.7,-17.2875,-19.931252,0.59670275,-0.44515765,0.48388276,995.8095, , , , 
2025-09-28 20:01:08.025,-1.268196,-11.0811615,-1.2442678,-0.43776098,0.28870997,-0.9062179,-42.1875,-18.6375,-21.206251,0.5988199,-0.43657663,0.47772247,995.8095, , , , 
2025-09-28 20:01:08.045,-2.1894326,-11.538191,-1.6630118,-0.37728536,0.029092435,-0.16707152,-40.96875,-16.275002,-20.681252,0.59791815,-0.43534502,0.47546804,995.8068, , , , 
2025-09-28 20:01:08.065,-2.5794628,-11.009377,-2.2157538,-0.41943502,-0.25618142,0.71013033,-41.850002,-18.35625,-20.475,0.5958907,-0.43879676,0.47531876,995.8068, , , , 
2025-09-28 20:01:08.085,-1.6821543,-10.083355,-1.7228323,-0.65706146,-0.10713041,1.8206825,-43.3125,-17.868752,-23.2875,0.5873859,-0.45332742,0.4787539,995.8039, , , , 
2025-09-28 20:01:08.105,0.12921242,-9.741181,-0.15792629,-0.7706823,0.41149378,2.6777258,-42.9,-15.825001,-23.4375,0.5728706,-0.47002375,0.4872783,995.8039, , , , 
2025-09-28 20:01:08.125,3.2829528,-10.114461,1.4596218,-0.39438957,0.67416567,3.3533423,-43.987503,-11.08125,-23.60625,0.5467182,-0.49262944,0.50587416,995.7968, , , , 
2025-09-28 20:01:08.145,4.666004,-10.69831,0.4833502,0.07475458,0.49884745,3.579973,-44.8875,-9.69375,-22.650002,0.53015727,-0.5056313,0.5198241,995.7968, , , , 
2025-09-28 20:01:08.165,4.9052863,-11.6339035,-2.3282163,0.3746892,-0.09918917,3.8701339,-43.912502,-6.3562503,-23.41875,0.5048613,-0.5270661,0.54378086,995.8027, , , , 
2025-09-28 20:01:08.186,4.9435716,-12.162718,-3.5533416,0.20670137,-0.3184896,4.1700683,-43.275,-3.3937502,-26.437502,0.48559406,-0.54658973,0.5608412,995.8027, , , , 
2025-09-28 20:01:08.205,5.831309,-12.27518,-3.35713,-0.15554145,-0.15538873,4.4687815,-44.60625,1.8000001,-23.8125,0.4690158,-0.56302476,0.5724346,995.7839, , , , 
2025-09-28 20:01:08.225,7.140183,-12.425928,-1.2801601,-0.53916454,0.07063124,4.6514297,-43.050003,7.93125,-24.937502,0.42752954,-0.5975498,0.59330904,995.76483, , , , 
2025-09-28 20:01:08.245,7.422536,-12.88535,-0.1268196,-0.49396053,-0.18409938,4.7235117,-43.350002,8.868751,-21.862501,0.40492895,-0.61453235,0.6022969,995.76483, , , , 
2025-09-28 20:01:08.265,8.453842,-13.88555,0.6843473,-0.18364123,-0.7766382,4.881115,-42.24375,14.962501,-23.268751,0.3689278,-0.64163035,0.6152735,995.76483, , , , 
2025-09-28 20:01:08.285,9.781859,-14.780465,0.9595219,0.26534438,-1.1657591,5.0698724,-38.79375,19.66875,-23.41875,0.34248784,-0.6610498,0.6250054,995.7629, , , , 
2025-09-28 20:01:08.305,11.16491,-14.684752,0.31585258,0.62025684,-1.1926371,5.1853256,-39.862503,23.0625,-24.6,0.32335582,-0.6733462,0.63273627,995.7629, , , , 
2025-09-28 20:01:08.326,12.973885,-13.452449,-0.997807,0.8236748,-0.7778599,5.143176,-37.7625,25.63125,-22.95,0.29001018,-0.6888545,0.64651436,995.7736, , , , 
2025-09-28 20:01:08.347,14.416757,-12.746566,-1.524228,0.84505504,-0.6905063,4.8976083,-35.60625,28.44375,-21.16875,0.25527132,-0.69957757,0.6590196,995.7568, , , , 
2025-09-28 20:01:08.365,15.11546,-11.727223,-1.6797615,0.91102844,-0.87987435,4.6972446,-32.775,30.750002,-22.987501,0.22949909,-0.70543313,0.66703904,995.7568, , , , 
2025-09-28 20:01:08.385,16.689938,-10.202995,-1.7371893,0.99593866,-0.78152514,4.4687815,-30.056252,34.125,-21.300001,0.21168195,-0.70826226,0.67216086,995.7568, , , , 
2025-09-28 20:01:08.405,18.30988,-9.243474,-3.2853456,0.89209163,-0.020998476,4.090656,-28.218752,35.287502,-20.643751,0.18779801,-0.7099236,0.678697,995.7458, , , , 
2025-09-28 20:01:08.425,19.03251,-7.1784678,-3.4360933,0.3050506,1.1677444,3.4028223,-23.25,37.2,-23.737501,-0.16102177,0.7117947,-0.68361396,995.7458, , , , 
2025-09-28 20:01:08.445,19.822144,-6.920043,-1.6582261,-0.00160352,1.8409173,2.5604398,-20.400002,36.75,-24.487501,-0.13287416,0.7151601,-0.68599015,995.7341, , , , 
2025-09-28 20:01:08.466,18.687944,-7.1712894,-1.0719845,0.108963005,1.9142212,1.664301,-18.525002,37.3125,-24.862501,-0.10755908,0.71768034,-0.6878322,995.7341, , , , 
2025-09-28 20:01:08.485,16.13241,-7.783852,-1.8831514,0.29344416,1.327791,0.80786866,-15.1125,40.29375,-26.156252,-0.08494523,0.71771294,-0.6910935,995.73895, , , , 
2025-09-28 20:01:08.505,15.436099,-8.556734,-2.2755744,0.38751733,0.6595049,0.31428993,-12.50625,39.956253,-28.575,-0.07390711,0.7156009,-0.6945883,995.7453, , , , 
2025-09-28 20:01:08.525,15.828522,-9.157332,-2.8307092,0.36247188,0.30153814,-0.091324285,-12.750001,39.3375,-30.825,0.07224301,-0.7131707,0.6972443,995.7453, , , , 
2025-09-28 20:01:08.545,16.3358,-9.042477,-2.9575288,0.18837543,0.25694498,-0.48044515,-14.231251,40.03125,-29.325,0.073914565,-0.71162844,0.69860077,995.7453, , , , 
2025-09-28 20:01:08.565,16.125233,-8.413164,-2.8115666,-0.19769111,0.24533857,-1.1774418,-14.212501,38.79375,-28.48125,0.081337065,-0.71072894,0.69843733,995.7487, , , , 
2025-09-28 20:01:08.585,14.864214,-8.3581295,-1.0049855,-0.48479757,0.14332415,-1.8518366,-15.712501,37.78125,-30.13125,0.09236764,-0.71186054,0.69533044,995.7487, , , , 
2025-09-28 20:01:08.605,13.603197,-8.965906,0.39481574,-0.46036297,0.0040469794,-2.3747368,-14.343751,39.6375,-27.750002,0.10392027,-0.7126768,0.6920832,995.74994, , , , 
2025-09-28 20:01:08.625,11.935399,-9.860822,0.61734825,-0.27221662,-0.04421134,-2.884198,-18.300001,38.98125,-27.300001,0.1279917,-0.7117887,0.6868099,995.74994, , , , 
2025-09-28 20:01:08.645,11.834901,-10.243673,0.6891329,-0.15493058,-0.24457498,-3.1297657,-19.7625,36.61875,-29.625002,0.15016517,-0.70893586,0.6827466,995.7753, , , , 
2025-09-28 20:01:08.665,12.413964,-11.160125,0.7848458,-0.06391173,-0.5805506,-3.454135,-21.112501,36.46875,-29.493752,0.16931081,-0.7056577,0.6793805,995.7753, , , , 
2025-09-28 20:01:08.685,12.294323,-12.416357,1.2729816,0.013668099,-1.0319797,-3.9483244,-24.6375,34.125,-31.143751,0.21553864,-0.6963035,0.67046195,995.80316, , , , 
2025-09-28 20:01:08.705,11.310873,-12.725031,1.8257236,0.06864593,-1.179809,-4.145023,-28.63125,32.8125,-26.94375,0.2414343,-0.69017434,0.66477007,995.80316, , , , 
2025-09-28 20:01:08.725,10.502099,-12.358929,2.07697,0.09674571,-1.2341759,-4.3191195,-36.600002,29.1,-23.41875,0.28612614,-0.67775744,0.6538677,995.8134, , , , 
2025-09-28 20:01:08.745,10.004392,-12.459428,2.3712873,0.12179117,-0.9818888,-4.424188,-34.8375,28.95,-26.531252,0.32155332,-0.6658116,0.64397377,995.8134, , , , 
2025-09-28 20:01:08.765,9.21476,-12.30868,1.9118652,0.20731224,-0.53717923,-4.4492335,-37.162502,23.681252,-20.737501,0.35450247,-0.6514881,0.63428015,995.8278, , , , 
2025-09-28 20:01:08.786,9.131011,-12.248859,1.2514462,0.24335326,-0.267177,-4.4229665,-39.5625,20.34375,-22.143751,0.38453367,-0.635049,0.6250618,995.8278, , , , 
2025-09-28 20:01:08.805,9.21476,-12.447463,0.8279166,0.25007278,-0.14072797,-4.4272423,-42.037502,18.337502,-21.0,0.41233188,-0.6170942,0.61572784,995.8432, , , , 
2025-09-28 20:01:08.825,9.071191,-12.576675,0.3900301,0.20731224,-0.09735657,-4.4309077,-42.65625,12.4125,-21.075,0.44506544,-0.59313977,0.6030192,995.8461, , , , 
2025-09-28 20:01:08.845,8.772088,-12.756138,0.22013968,0.16760603,-0.0674242,-4.4406815,-42.28125,8.587501,-19.35,0.46390647,-0.57828116,0.5944916,995.8461, , , , 
2025-09-28 20:01:08.865,7.499106,-12.356536,-0.19621146,0.055817768,0.10178535,-4.3710427,-45.487503,3.54375,-20.268751,0.49333757,-0.5527094,0.57919455,995.8349, , , , 
2025-09-28 20:01:08.885,5.852844,-11.743974,-0.17467605,-0.009544762,0.27160576,-4.2274895,-43.95,0.09375,-21.91875,0.5140623,-0.53181505,0.56656104,995.8349,37.88833222,127.73974274,144.08526611328125,1.41
2025-09-28 20:01:08.905,4.6971107,-11.157732,-0.078963146,-0.008323032,0.29604036,-4.066221,-43.5,-2.71875,-21.50625,0.5278877,-0.51607496,0.55719084,995.8349, , , , 
2025-09-28 20:01:08.925,2.6656044,-10.916057,-0.30388847,0.061926417,0.16165009,-3.630064,-44.41875,-7.2937503,-21.768751,0.5525671,-0.48562166,0.5387465,995.8193, , , , 
2025-09-28 20:01:08.945,1.6414764,-10.671989,-0.6221339,0.099800035,-0.033826638,-3.2604907,-43.66875,-8.700001,-22.21875,0.5637599,-0.4719366,0.5297715,995.8193, , , , 
2025-09-28 20:01:08.965,0.7896315,-9.729217,-1.2562319,0.12789981,-0.3502546,-2.6099198,-42.825,-11.85,-22.9125,0.58094466,-0.45338878,0.5152166,995.81805, , , , 
2025-09-28 20:01:08.986,-0.18664017,-9.241081,-2.0027926,0.0075594517,-0.4406626,-2.1053455,-44.0625,-15.825001,-23.175001,0.5929344,-0.44244003,0.5040969,995.81805, , , , 
2025-09-28 20:01:09.005,-1.052842,-9.269794,-2.254039,-0.13965896,-0.43944085,-1.5702279,-45.506252,-17.71875,-21.525002,0.60011387,-0.43678185,0.49642897,995.81366, , , , 
2025-09-28 20:01:09.025,-1.4093726,-9.702896,-2.1631117,-0.21846052,-0.44432777,-1.0253365,-42.28125,-17.75625,-22.0125,0.6052926,-0.433591,0.48993397,995.81366, , , , 
2025-09-28 20:01:09.045,-1.8735801,-9.8727865,-2.1678972,-0.33085963,-0.5127446,0.23426664,-44.0625,-18.46875,-20.081251,0.6094493,-0.43613562,0.48203173,995.80927, , , , 
2025-09-28 20:01:09.065,-1.1365907,-8.508878,-1.4069797,-0.46891508,-0.3832413,1.4792091,-41.23125,-17.6625,-22.125,0.60513043,-0.44865185,0.4819539,995.8134, , , , 
2025-09-28 20:01:09.085,0.3493521,-7.568498,-0.19621146,-0.5104539,-0.089415334,2.1920884,-44.268753,-16.5,-19.087502,0.59833527,-0.4598581,0.48537895,995.8134, , , , 
2025-09-28 20:01:09.105,2.0315065,-7.456035,0.36370903,-0.43959355,0.3033707,2.6936083,-43.631252,-14.925,-20.79375,0.5844689,-0.47653085,0.49455455,995.8134, , , , 
2025-09-28 20:01:09.125,3.8069808,-8.322237,0.38763726,-0.2154062,0.57092947,3.0717335,-44.025,-12.375001,-19.2,0.5617208,-0.49727908,0.51195973,995.8254, , , , 
2025-09-28 20:01:09.145,4.1850467,-9.504292,0.11964113,0.017333288,0.3937787,3.3111925,-44.662502,-12.056251,-20.53125,0.5470299,-0.50952715,0.5239479,995.8254, , , , 
2025-09-28 20:01:09.165,4.6875396,-11.157732,-0.7082755,0.35514152,-0.101632625,3.8157668,-46.48125,-7.0312505,-18.018751,0.5230759,-0.5313205,0.54441047,995.8195, , , , 
2025-09-28 20:01:09.187,5.24746,-11.794223,-1.4333007,0.46876237,-0.22380558,4.300183,-44.662502,-1.10625,-20.400002,0.50347817,-0.5505526,0.5610692,995.8195, , , , 
2025-09-28 20:01:09.205,5.7355957,-11.935399,-1.7036897,0.4418843,-0.17615813,4.6532626,-45.825,0.39375,-20.5125,0.48691082,-0.56578535,0.5739536,995.81537, , , , 
2025-09-28 20:01:09.226,8.135597,-11.968899,-1.442872,0.35941756,-0.08758274,5.0051208,-45.768753,5.53125,-22.96875,0.44753444,-0.59713954,0.59950715,995.8029, , , , 
2025-09-28 20:01:09.245,9.343972,-11.82533,-1.6893328,0.27511823,-0.016722424,4.9434233,-45.45,9.39375,-20.90625,0.42599365,-0.61205864,0.61119604,995.8029, , , , 
2025-09-28 20:01:09.265,9.523434,-12.045469,-1.5960127,0.15294527,0.06635518,4.8566804,-43.03125,14.118751,-21.13125,0.4039084,-0.6260842,0.62157935,995.8029, , , , 
2025-09-28 20:01:09.285,9.561719,-12.861422,-0.90448695,0.025885396,0.16287182,4.898219,-41.0625,20.7,-24.487501,0.35731888,-0.6520702,0.6389279,995.788, , , , 
2025-09-28 20:01:09.305,10.832308,-12.9643135,-0.56470615,-0.0064904382,0.16775873,4.8792825,-39.99375,22.425001,-23.775002,0.3329335,-0.66406596,0.646201,995.788, , , , 
2025-09-28 20:01:09.325,12.205789,-11.751152,-0.28235307,0.028328855,0.23861906,4.5616326,-39.787502,25.031252,-21.768751,0.29269776,-0.6814865,0.65617853,995.7775, , , , 
2025-09-28 20:01:09.345,12.378072,-10.794023,-1.2418749,-0.00160352,0.42920887,4.245205,-36.6375,26.1,-22.0125,0.26182428,-0.6924123,0.6626776,995.7775, , , , 
2025-09-28 20:01:09.365,12.38525,-10.258031,-1.5433706,-0.29604036,0.78351045,3.8585274,-33.45,31.781252,-22.368752,0.22386205,-0.7043152,0.6679422,995.76605, , , , 
2025-09-28 20:01:09.385,12.8111725,-9.554541,-0.9164511,-0.43531752,1.0119739,3.5555384,-28.893751,35.268753,-25.35,0.20101728,-0.71107936,0.66952735,995.76605, , , , 
2025-09-28 20:01:09.405,13.256237,-8.807981,-0.10049855,-0.42065677,1.0260237,3.2977536,-28.968752,34.256252,-24.056252,0.17136854,-0.71908265,0.67056876,995.7526, , , , 
2025-09-28 20:01:09.425,14.120047,-8.429914,0.33499518,-0.04741838,0.6576723,2.8023422,-21.525002,36.768753,-26.681252,0.1391355,-0.7257753,0.67197573,995.7526, , , , 
2025-09-28 20:01:09.445,14.790037,-8.700303,-0.57188463,0.27145302,0.28382304,2.4791946,-18.375,37.74375,-28.612501,0.123900756,-0.72739446,0.6737707,995.7531, , , , 
2025-09-28 20:01:09.465,15.890736,-8.082955,-2.5986054,0.37102398,0.015042545,2.0772457,-17.268751,39.825,-25.9125,0.10470734,-0.7273472,0.6777808,995.747, , , , 
2025-09-28 20:01:09.485,17.45564,-7.635497,-2.9575288,0.15661046,-0.07231112,1.5738931,-15.168751,39.300003,-26.250002,0.09366719,-0.7271305,0.67992294,995.747, , , , 
2025-09-28 20:01:09.505,18.300308,-7.5469627,-1.98365,-0.03825541,-0.089415334,0.9459241,-15.825001,40.4625,-25.781252,0.08741367,-0.72781557,0.6801297,995.747, , , , 
2025-09-28 20:01:09.526,17.503498,-8.673982,-0.57906306,-0.07063124,-0.1107956,-0.041233372,-14.250001,39.506252,-25.893751,0.087357335,-0.7287427,0.67915076,995.7382, , , , 
2025-09-28 20:01:09.545,15.8022,-9.772287,-0.17706887,0.13889538,-0.1871537,-0.46944958,-14.94375,40.443752,-26.343752,0.09109851,-0.728371,0.6790225,995.7382, , , , 
2025-09-28 20:01:09.565,14.524433,-8.183454,-1.8089739,0.38629562,-0.36369362,-0.8139773,-15.431251,40.256252,-25.050001,0.101102434,-0.7251127,0.6809827,995.74506, , , , 
2025-09-28 20:01:09.585,14.701502,-6.8865438,-2.498107,0.2079231,-0.41806057,-1.240361,-18.31875,37.48125,-26.587502,0.11251508,-0.72189194,0.6824553,995.7563, , , , 
2025-09-28 20:01:09.605,14.703896,-7.2119675,-1.8855443,-0.040698867,-0.37346745,-1.8524474,-17.081251,39.225002,-26.6625,0.12375036,-0.7201285,0.6821222,995.7563, , , , 
2025-09-28 20:01:09.625,13.440485,-9.298509,-0.80877405,-0.22334744,-0.39668033,-2.690554,-21.018751,38.68125,-25.612501,0.14797038,-0.71741474,0.67918015,995.7563, , , , 
2025-09-28 20:01:09.645,12.38525,-10.951949,-0.20578274,-0.27282748,-0.47975793,-3.1047204,-22.725,37.631252,-23.98125,0.17183653,-0.7144295,0.6752374,995.76215, , , , 
2025-09-28 20:01:09.665,11.100305,-12.107682,0.7106683,-0.22823435,-0.55428344,-3.4388633,-26.906252,37.3125,-22.893751,0.20519905,-0.70893985,0.6689185,995.79144, , , , 
2025-09-28 20:01:09.686,10.916057,-12.7082815,0.9667004,-0.15737404,-0.5646681,-3.5915794,-31.612501,32.850002,-22.931252,0.22614631,-0.704416,0.6647696,995.79144, , , , 
2025-09-28 20:01:09.705,10.686346,-12.926028,1.0576276,-0.07002038,-0.5359575,-3.7137525,-29.362501,33.7125,-23.98125,0.25454885,-0.6967916,0.65899515,995.79144, , , , 
2025-09-28 20:01:09.725,10.858629,-12.500106,0.9595219,0.05337431,-0.41989318,-3.869523,-35.381252,30.112501,-23.306252,0.29008695,-0.6845969,0.6515514,995.8044, , , , 
2025-09-28 20:01:09.746,11.413764,-11.822937,0.5288138,0.077198036,-0.28977898,-4.0937104,-36.506252,30.35625,-22.575,0.3113266,-0.6757629,0.64687455,995.8044, , , , 
2025-09-28 20:01:09.765,11.32523,-11.849257,0.27756742,0.0051159924,-0.010002911,-4.471225,-35.30625,27.618752,-23.00625,0.33989227,-0.6621468,0.6396309,995.80975, , , , 
2025-09-28 20:01:09.785,10.57149,-12.543177,-0.08853444,-0.06513346,0.324751,-4.8701196,-39.73125,21.91875,-19.743752,0.37495038,-0.64176697,0.6287928,995.80975, , , , 
2025-09-28 20:01:09.805,9.870394,-13.119846,0.02871387,-0.07612903,0.4512,-4.989849,-40.631252,19.25625,-24.300001,0.4019572,-0.6229571,0.61866987,995.81244, , , , 
2025-09-28 20:01:09.826,8.788837,-13.179667,0.32063824,0.035048366,0.4719694,-5.0228357,-41.381252,13.44375,-23.41875,0.4340213,-0.5967561,0.60481846,995.8222, , , , 
2025-09-28 20:01:09.846,7.30768,-12.732209,0.16031912,0.15783219,0.383394,-4.9232645,-41.9625,12.1125,-21.431252,0.4527042,-0.57977057,0.5960547,995.8222, , , , 
2025-09-28 20:01:09.865,5.9581285,-11.983255,-0.1052842,0.21525347,0.30459246,-4.7033534,-44.456253,7.7625003,-21.54375,0.48244298,-0.5508506,0.58082694,995.8222, , , , 
2025-09-28 20:01:09.886,4.4458647,-10.724631,-0.1052842,0.2409098,0.23678645,-4.1969466,-43.48125,1.7625,-21.150002,0.5037818,-0.528277,0.568561,995.8276,37.88832776,127.73972969,144.3292236328125,1.28
2025-09-28 20:01:09.905,3.940979,-10.0881405,-0.047856454,0.25801402,0.091400646,-3.8792968,-43.893753,-1.9875001,-23.8125,0.5183409,-0.51222265,0.55948246,995.8276, , , , 
2025-09-28 20:01:09.925,3.306881,-9.52822,0.2440679,0.3398699,-0.069867656,-3.282482,-43.55625,-6.80625,-24.206251,0.5404684,-0.4879853,0.5446248,995.8344, , , , 
2025-09-28 20:01:09.945,2.4143581,-8.997013,-0.21535404,0.41561714,-0.15538873,-2.9544475,-43.21875,-8.775001,-23.5125,0.5562153,-0.47057325,0.533886,995.8344, , , , 
2025-09-28 20:01:09.965,0.75613195,-8.29113,-1.4787644,0.384463,-0.35391977,-2.4798055,-44.625,-12.01875,-23.175001,0.5706729,-0.4555592,0.5239203,995.83856, , , , 
2025-09-28 20:01:09.985,-0.715454,-7.8149586,-2.024328,0.11446079,-0.52129674,-1.7027856,-42.61875,-14.437501,-22.78125,0.5859388,-0.44276765,0.51170015,995.83856, , , , 
2025-09-28 20:01:10.005,-0.62452674,-7.6331043,-1.7419748,-0.08895718,-0.39423686,-1.1004729,-42.75,-16.44375,-21.5625,0.5922917,-0.43878743,0.505413,995.83124, , , , 
2025-09-28 20:01:10.025,-0.31106696,-7.635497,-1.3256238,-0.29970554,-0.019776747,-0.29962918,-42.487503,-16.650002,-23.1375,0.5966533,-0.43679097,0.49916092,995.82855, , , , 
2025-09-28 20:01:10.045,0.09571291,-8.377272,-1.2083755,-0.39011353,0.13843723,0.15485422,-41.175003,-15.900001,-22.06875,0.59568405,-0.43794104,0.49823466,995.82855, , , , 
2025-09-28 20:01:10.065,0.23449662,-9.305687,-1.1078769,-0.4322632,0.23800819,0.76144296,-40.537502,-16.331251,-22.125,0.5909023,-0.44233814,0.49998838,995.82855, , , , 
2025-09-28 20:01:10.086,-0.5694918,-9.2075815,-1.6773686,-0.52206033,0.13171771,1.6209297,-41.625,-15.31875,-23.1375,0.58037543,-0.45332587,0.5061882,995.8256, , , , 
2025-09-28 20:01:10.105,0.059820566,-8.573483,-1.227518,-0.6295725,0.0034361144,2.4627013,-43.443752,-14.043751,-20.868752,0.5679881,-0.468288,0.51352906,995.8256, , , , 
2025-09-28 20:01:10.125,2.806781,-9.030513,-0.47377887,-0.67233306,0.3351357,3.2562146,-43.65,-12.3,-23.56875,0.5463181,-0.49261647,0.52647644,995.8266, , , , 
2025-09-28 20:01:10.145,4.883751,-10.255638,-0.6221339,-0.6442333,0.78473216,3.5677557,-41.90625,-10.875,-22.743752,0.52932477,-0.50768745,0.5371731,995.8266, , , , 
2025-09-28 20:01:10.165,5.8193445,-11.428121,-1.0432707,-0.6020836,1.0156391,3.7571237,-45.131252,-7.3500004,-23.85,0.5028285,-0.5268195,0.55397683,995.8256, , , , 
2025-09-28 20:01:10.187,6.647261,-12.842279,-1.0959128,-0.5141191,0.6778308,4.0533934,-42.375,-0.975,-23.56875,0.4742073,-0.5458037,0.5712862,995.8256, , , , 
2025-09-28 20:01:10.205,7.2095747,-13.213166,-1.0624132,-0.38705918,0.2447277,4.2586436,-44.8125,0.26250002,-21.225,0.44583827,-0.56581855,0.58728397,995.8117, , , , 
2025-09-28 20:01:10.225,7.786245,-13.342379,-0.930808,-0.26794055,-0.18226677,4.448012,-45.16875,5.4750004,-24.2625,0.41881278,-0.58662015,0.60153,995.8117, , , , 
2025-09-28 20:01:10.246,8.8701935,-12.796816,-0.16271193,-0.04619665,-0.52801627,4.646543,-41.325,11.3625,-26.081251,0.3865369,-0.6124513,0.61725503,995.7941, , , , 
2025-09-28 20:01:10.265,9.710074,-12.433106,-0.0741775,0.13278674,-0.47731447,4.6440997,-42.131252,15.4875,-23.75625,0.36093345,-0.6308705,0.6292738,995.7941, , , , 
2025-09-28 20:01:10.286,10.305887,-12.191431,-0.634098,0.2286925,-0.38263044,4.524981,-38.475002,21.206251,-24.6375,0.33508214,-0.6464637,0.6408513,995.78876, , , , 
2025-09-28 20:01:10.306,10.523634,-12.174682,-1.3471591,0.18226677,-0.38751733,4.410138,-36.412502,25.312502,-28.1625,0.30943012,-0.6599447,0.6510495,995.78876, , , , 
2025-09-28 20:01:10.325,11.509477,-11.966506,-1.6606189,-0.07002038,-0.34903285,4.251313,-35.381252,24.675001,-27.618752,0.27763027,-0.67553365,0.66055506,995.7839, , , , 
2025-09-28 20:01:10.345,11.99522,-11.112268,-0.6053841,-0.20074543,-0.25862488,4.0711083,-33.9,30.54375,-28.10625,0.2524006,-0.6874574,0.6651625,995.7839, , , , 
2025-09-28 20:01:10.365,12.248859,-9.851251,-0.047856454,-0.18180864,-0.043600474,3.838369,-33.46875,30.056252,-24.431252,0.2336477,-0.69533896,0.6677424,995.7756, , , , 
2025-09-28 20:01:10.385,12.301501,-8.980264,-0.40438703,-0.18119776,0.41088292,3.494452,-31.25625,30.900002,-23.625,0.20233798,-0.705733,0.67159,995.7756, , , , 
2025-09-28 20:01:10.405,12.468999,-8.62134,-0.72023964,-0.25450155,0.76579535,3.2482734,-27.056252,34.331253,-23.94375,0.17641367,-0.71240544,0.67404425,995.7839, , , , 
2025-09-28 20:01:10.426,13.282558,-7.884351,-0.6628119,-0.23495387,0.735863,2.9410086,-26.906252,36.3375,-25.1625,0.15085836,-0.7181066,0.6756678,995.7839, , , , 
2025-09-28 20:01:10.446,14.175081,-7.436893,-1.4045869,-0.21662793,0.50739956,2.5506659,-23.118752,35.60625,-24.900002,0.12844911,-0.72259223,0.67662483,995.7851, , , , 
2025-09-28 20:01:10.465,14.512469,-7.2765737,-1.68694,-0.3314705,0.3681224,2.1652102,-20.118752,37.18125,-27.31875,0.11046265,-0.7265862,0.676328,995.7851, , , , 
2025-09-28 20:01:10.485,14.940784,-7.331609,-0.2632105,-0.38278314,0.22579089,1.6184863,-17.34375,39.43125,-25.875002,0.09328217,-0.7317137,0.6740025,995.78094, , , , 
2025-09-28 20:01:10.505,15.400207,-7.3268228,0.1268196,-0.23739733,0.08040508,1.3552035,-16.9125,40.8375,-25.3875,0.08561741,-0.7340855,0.6726852,995.78094, , , , 
2025-09-28 20:01:10.525,16.950756,-7.5230346,-0.19142582,-0.028481571,-0.2164752,0.7327323,-16.06875,40.050003,-24.35625,0.078166015,-0.73601544,0.6717801,995.7846, , , , 
2025-09-28 20:01:10.546,17.39582,-7.092326,-0.27756742,0.030772313,-0.25068364,0.26603162,-15.843751,39.825,-23.737501,0.07781418,-0.73622394,0.67169976,995.7846, , , , 
2025-09-28 20:01:10.565,17.135002,-7.420143,-0.38285163,0.039935283,-0.14928009,-0.34300056,-13.406251,41.7,-24.112501,0.080564186,-0.7358265,0.671773,995.78485, , , , 
2025-09-28 20:01:10.587,14.639289,-8.193025,-0.09092726,0.18165591,-0.13767365,-1.0063998,-16.03125,39.5625,-23.868752,0.09004806,-0.73419,0.672004,995.78485, , , , 
2025-09-28 20:01:10.605,12.638889,-6.788438,-0.87338024,0.34597853,-0.27817255,-1.2922845,-16.125,38.831253,-27.35625,0.10103898,-0.73124915,0.67316955,995.7939, , , , 
2025-09-28 20:01:10.625,11.55494,-6.4055862,-1.2490535,0.19204062,-0.4473821,-1.7418809,-16.518751,37.66875,-26.79375,0.11881544,-0.7268065,0.6742825,995.79266, , , , 
2025-09-28 20:01:10.645,11.155339,-7.422536,-0.34456646,0.15783219,-0.65080005,-2.071748,-16.725,38.775,-27.300001,0.13679674,-0.7234754,0.6735555,995.79266, , , , 
2025-09-28 20:01:10.665,10.904093,-9.343972,0.15792629,0.23174682,-1.112003,-2.4162757,-20.118752,36.54375,-26.6625,0.15890607,-0.71924883,0.6721829,995.8066, , , , 
2025-09-28 20:01:10.685,11.363515,-11.112268,0.73459655,0.2824486,-1.5890883,-2.685667,-23.00625,37.36875,-27.16875,0.18566795,-0.7139569,0.66997737,995.8066, , , , 
2025-09-28 20:01:10.705,11.973684,-12.823136,1.105484,0.28489205,-1.9061272,-2.9410086,-22.48125,36.318752,-27.468752,0.21683037,-0.7075161,0.6665549,995.8066, , , , 
2025-09-28 20:01:10.725,11.794223,-13.768302,1.8137596,0.19509494,-2.0392957,-3.2904232,-27.6,32.90625,-25.35,0.26032287,-0.69790566,0.65991783,995.821, , , , 
2025-09-28 20:01:10.745,11.207981,-13.194024,2.3928227,0.11262819,-1.7741804,-3.4461937,-30.056252,31.650002,-24.88125,0.2868556,-0.69131154,0.654877,995.821, , , , 
2025-09-28 20:01:10.765,11.289337,-12.236895,2.5579274,0.003894263,-1.278769,-3.652055,-32.925003,31.35,-24.093752,0.3203563,-0.68139,0.6477256,995.8403, , , , 
2025-09-28 20:01:10.785,10.63849,-11.832508,2.833102,-0.06818778,-0.23296855,-4.046063,-37.537502,27.50625,-21.84375,0.35767692,-0.6661966,0.63924277,995.8403, , , , 
2025-09-28 20:01:10.805,10.262816,-11.966506,2.6225336,-0.020540329,0.40477428,-4.2775807,-34.275,26.98125,-22.462502,0.37699983,-0.6549,0.63525873,995.8637, , , , 
2025-09-28 20:01:10.825,10.04507,-12.246467,2.507678,0.22319472,0.7908408,-4.678919,-39.393753,19.725,-22.125,0.41168815,-0.62654877,0.62915146,995.8754, , , , 
2025-09-28 20:01:10.845,9.327223,-12.564712,2.4622145,0.4767036,0.6582832,-4.915934,-42.075,18.09375,-22.368752,0.42940253,-0.6092177,0.6261128,995.8754, , , , 
2025-09-28 20:01:10.866,7.391429,-13.040883,1.7300107,0.74853843,0.34796384,-5.008175,-40.18125,10.8,-21.075,0.46134955,-0.5764842,0.6197155,995.8881, , , , 
2025-09-28 20:01:10.885,5.352744,-12.658031,1.1270195,0.8688788,0.026038112,-4.7583313,-42.1875,7.4812503,-20.681252,0.48772615,-0.5490901,0.6129446,995.8881,37.88832218,127.7397139,144.1900634765625,1.64
2025-09-28 20:01:10.906,3.888337,-11.686545,0.552742,0.8536072,-0.24518585,-4.352717,-43.875,4.8375,-21.28125,0.5070504,-0.52935076,0.6068727,995.8881, , , , 
2025-09-28 20:01:10.926,3.5772698,-10.655239,-0.09332009,0.69783664,-0.33070692,-3.7131417,-42.45,-2.60625,-21.618752,0.5365777,-0.49993998,0.5953654,995.8796, , , , 
2025-09-28 20:01:10.945,3.333202,-9.820144,-0.36610186,0.5445096,-0.18898629,-3.336849,-44.49375,-3.9562502,-20.25,0.5561733,-0.4793815,0.58628124,995.8796, , , , 
2025-09-28 20:01:10.965,2.9599216,-9.142975,-0.51445687,0.3917934,-0.0014508038,-3.0271404,-44.90625,-5.9812503,-20.081251,0.5682543,-0.4653135,0.5800247,995.87103, , , , 
2025-09-28 20:01:10.985,1.5218352,-8.640483,-1.1509477,0.17921245,0.057192214,-2.613585,-43.125,-10.89375,-20.306252,0.5842119,-0.44412223,0.5705572,995.8676, , , , 
2025-09-28 20:01:11.005,0.86141616,-8.85823,-0.96430755,0.058872093,-0.10224349,-2.1920884,-44.11875,-12.88125,-19.1625,0.594402,-0.43049634,0.5629824,995.8676, , , , 
2025-09-28 20:01:11.025,0.38763726,-8.865408,-0.27038896,0.07903063,-0.3655262,-1.41629,-44.193752,-14.85,-21.50625,0.60291076,-0.4211217,0.55565673,995.8676, , , , 
2025-09-28 20:01:11.046,0.011964113,-8.338987,-0.6580262,0.10835214,-0.39301512,-0.91049397,-43.631252,-15.675,-20.90625,0.6097843,-0.4155885,0.54981834,995.8713, , , , 
2025-09-28 20:01:11.065,-0.4546363,-8.877372,-1.1413764,0.060093824,-0.28550294,-0.37476555,-44.025,-17.456251,-19.6875,0.6142853,-0.41335353,0.5461804,995.8713, , , , 
2025-09-28 20:01:11.085,-1.4141582,-10.861022,-1.5146568,-0.035201084,-0.28305948,0.72662365,-43.706253,-16.6875,-19.9125,0.6149433,-0.4164632,0.5457036,995.8703, , , , 
2025-09-28 20:01:11.105,-1.8496519,-10.650454,-1.1676974,-0.052305296,-0.52801627,1.6771293,-42.43125,-16.181252,-19.9125,0.61163396,-0.42594576,0.54826844,995.8703, , , , 
2025-09-28 20:01:11.125,-0.50009996,-9.7196455,-0.5096712,-0.017486004,-0.62147856,2.5964808,-45.54375,-16.143751,-16.96875,0.6069377,-0.43778625,0.55172825,995.86127, , , , 
2025-09-28 20:01:11.146,2.4430718,-8.733803,0.22492532,0.06314815,-0.18654284,3.5115561,-44.60625,-14.55,-19.1625,0.59316456,-0.4629331,0.56198597,995.86127, , , , 
2025-09-28 20:01:11.165,5.453243,-9.073584,0.2943172,0.2720639,0.33574656,3.8566947,-46.631252,-7.55625,-15.4875,0.57109314,-0.48890778,0.5788697,995.8554, , , , 
2025-09-28 20:01:11.185,6.4462643,-9.827323,-0.75613195,0.46937323,0.40355253,3.9214466,-46.612503,-8.306251,-15.918751,0.5555445,-0.5030282,0.5910248,995.8554, , , , 
2025-09-28 20:01:11.205,7.003792,-11.133803,-2.3114667,0.50846857,0.21662793,4.0417867,-46.5,-3.3187501,-15.750001,0.53439605,-0.5208945,0.6069722,995.84686, , , , 
2025-09-28 20:01:11.226,8.080562,-12.241681,-2.7876384,0.41806057,-0.22563818,4.181675,-47.04375,-0.375,-17.400002,0.5081482,-0.5443059,0.6235066,995.84686, , , , 
2025-09-28 20:01:11.245,8.56152,-12.591033,-2.3234308,0.3814087,-0.6660717,4.2458158,-45.375,7.89375,-18.056252,0.48829523,-0.5639844,0.6329205,995.82074, , , , 
2025-09-28 20:01:11.265,8.879765,-12.789637,-1.835295,0.4003455,-0.9348522,4.2843003,-46.6875,10.743751,-18.69375,0.47427177,-0.5786799,0.638004,995.82074, , , , 
2025-09-28 20:01:11.286,9.784252,-12.6676035,-1.7228323,0.37652177,-0.91163933,4.2671957,-45.24375,13.837501,-14.55,0.45120087,-0.60194343,0.6440936,995.7961, , , , 
2025-09-28 20:01:11.305,10.420743,-12.272787,-1.9214365,0.25373796,-0.7296016,4.167625,-44.2125,18.075,-16.125,0.43157238,-0.6190779,0.6476051,995.7961, , , , 
2025-09-28 20:01:11.325,10.990234,-11.801401,-1.4620147,0.041157015,-0.45654505,3.904953,-40.03125,22.63125,-19.44375,0.4055157,-0.63898796,0.6500715,995.77826, , , , 
2025-09-28 20:01:11.345,11.4496565,-11.41855,-1.3256238,0.032604907,-0.39484772,3.7491827,-42.581253,22.575,-15.468751,0.38970843,-0.64992064,0.65070146,995.77826, , , , 
2025-09-28 20:01:11.365,11.818151,-10.167104,-1.6175481,0.0570395,-0.2738965,3.4797912,-39.9,27.093752,-16.3125,0.36406043,-0.665781,0.6510743,995.767, , , , 
2025-09-28 20:01:11.386,12.35175,-9.068798,-2.1248264,-0.11522437,0.04497492,3.1798565,-38.025,29.906252,-16.368752,-0.34402627,0.67680216,-0.6508204,995.7597, , , , 
2025-09-28 20:01:11.405,12.449856,-8.41795,-1.579263,-0.30947936,0.39622217,2.8341072,-36.300003,29.587502,-18.075,-0.3239028,0.6873706,-0.64976966,995.7597, , , , 
2025-09-28 20:01:11.426,11.411371,-7.312466,-0.38763726,-0.38950264,0.7554107,2.3661847,-31.687502,34.29375,-18.375,-0.29905635,0.69947404,-0.6482701,995.7568, , , , 
2025-09-28 20:01:11.446,10.705488,-7.001399,0.32303107,-0.28932083,0.8073342,2.143219,-34.537502,33.46875,-14.625001,-0.2846366,0.70570606,-0.6477583,995.7568, , , , 
2025-09-28 20:01:11.465,10.188639,-6.391229,0.29671,0.10713041,0.4408153,1.9636248,-31.29375,36.318752,-16.66875,-0.26261958,0.7132257,-0.64834297,995.7602, , , , 
2025-09-28 20:01:11.489,10.80838,-6.0753765,-0.26081768,0.36430448,-0.04176788,1.8567235,-30.900002,36.862503,-16.743752,-0.25176376,0.71565944,-0.6494864,995.7602, , , , 
2025-09-28 20:01:11.505,12.863814,-5.3742795,-0.9499506,0.5304597,-0.33376125,1.6655228,-27.91875,36.300003,-17.325,-0.24102476,0.7167862,-0.6513255,995.7602, , , , 
2025-09-28 20:01:11.525,14.426328,-4.996214,-2.1391835,0.40339983,-0.28977898,1.0882556,-26.1,38.831253,-16.59375,-0.23254678,0.7159487,-0.6539297,995.7702, , , , 
2025-09-28 20:01:11.546,14.189438,-5.599205,-1.3040884,0.2531271,-0.38079783,0.57390743,-26.79375,39.75,-16.40625,-0.23002093,0.71509176,-0.65504456,995.7702, , , , 
2025-09-28 20:01:11.565,13.4763775,-6.4965134,-0.53599226,0.29038984,-0.6398045,0.2073886,-24.993752,39.206253,-17.19375,-0.23132655,0.7138673,-0.65554345,995.7575, , , , 
2025-09-28 20:01:11.585,13.749159,-7.448857,-0.7800602,0.40828675,-1.0118212,-0.13836087,-26.118752,39.46875,-17.550001,-0.23858467,0.70968455,-0.656762,995.7575, , , , 
2025-09-28 20:01:11.605,14.476577,-8.896515,-0.55513483,0.3899608,-1.2402846,-0.4725039,-24.187502,38.175003,-17.212502,-0.24857722,0.70489866,-0.6575917,995.7514, , , , 
2025-09-28 20:01:11.625,14.986248,-8.662018,0.26081768,0.5011382,-1.6342924,-0.9117157,-26.56875,39.6375,-14.418751,-0.26640278,0.6969333,-0.6583656,995.7585, , , , 
2025-09-28 20:01:11.646,15.294922,-8.135597,0.634098,0.50358164,-1.8878013,-1.4175117,-27.73125,38.68125,-17.493752,-0.28591076,0.68810314,-0.65891707,995.7585, , , , 
2025-09-28 20:01:11.665,14.517255,-8.700303,1.3998013,0.44982556,-2.011196,-2.0381503,-28.06875,36.16875,-19.0125,-0.30423537,0.6799786,-0.6589858,995.7585, , , , 
2025-09-28 20:01:11.686,12.29193,-10.9017,2.3641088,0.39057165,-2.1492515,-2.6850562,-32.287502,35.30625,-12.95625,-0.34026116,0.66355085,-0.65850157,995.7753, , , , 
2025-09-28 20:01:11.705,11.114661,-11.880364,3.6729827,0.3985129,-2.3929863,-2.884198,-34.74375,34.068752,-12.468751,-0.37229934,0.648213,-0.6569621,995.7753, , , , 
2025-09-28 20:01:11.725,11.404193,-12.375679,4.7952166,0.46326458,-2.471177,-3.133431,-38.756252,31.031252,-11.418751,-0.4146442,0.6260012,-0.65363,995.8156, , , , 
2025-09-28 20:01:11.745,11.095519,-12.847065,5.4125648,0.4058433,-2.119319,-3.3692248,-39.956253,30.2625,-9.8625,-0.44002214,0.6112332,-0.6515322,995.8156, , , , 
2025-09-28 20:01:11.765,10.262816,-12.983456,6.963114,0.3172679,-1.6776638,-3.5549276,-40.425003,27.225,-9.01875,-0.47160316,0.5907564,-0.64951146,995.8598, , , , 
2025-09-28 20:01:11.786,8.810373,-12.318251,9.485149,0.6868411,-1.2775474,-3.7534587,-45.15,25.85625,-6.2812505,-0.5072318,0.5625181,-0.64949906,995.8598, , , , 
2025-09-28 20:01:11.805,7.5900335,-11.617154,9.049655,1.05336,-0.9244675,-3.8292058,-44.23125,24.468752,-7.6875005,-0.5265304,0.54285675,-0.6517969,995.9089, , , , 
2025-09-28 20:01:11.825,6.5515485,-11.3371935,7.716853,1.4168245,-0.62147856,-3.7638433,-44.268753,20.71875,-7.4625,-0.55965585,0.49905515,-0.66055137,995.9565, , , , 
2025-09-28 20:01:11.845,6.910472,-11.454442,5.8600225,1.6507857,-0.56955504,-3.6294532,-44.98125,16.7625,-3.3000002,-0.57402486,0.47584498,-0.6657574,995.9565, , , , 
2025-09-28 20:01:11.865,7.6307116,-11.6339035,4.0534415,1.739361,-0.69600403,-3.5677557,-49.593754,10.575001,-3.54375,-0.59239405,0.4441666,-0.67188287,995.9565, , , , 
2025-09-28 20:01:11.886,8.432307,-11.033305,2.3162522,1.6226859,-0.8371138,-3.5732536,-48.937504,6.525,-3.54375,-0.6154441,0.40431374,-0.67653674,995.9616,37.88831547,127.73969714,144.29412841796875,1.67
2025-09-28 20:01:11.905,8.848659,-10.643275,1.4285151,1.4272093,-0.8444442,-3.6490006,-49.85625,3.5625002,-2.1937501,-0.6291785,0.38064098,-0.6776776,995.9616, , , , 
2025-09-28 20:01:11.925,8.360522,-10.485349,1.1318051,1.0564142,-0.78152514,-3.7730062,-49.537502,-2.025,-0.675,0.6512716,-0.34209076,0.6771888,995.9379, , , , 
2025-09-28 20:01:11.946,7.5756764,-10.593026,1.5816557,0.8743766,-0.74609494,-3.7809474,-48.91875,-4.6875,-0.75,0.6676939,-0.31241924,0.6750351,995.9379, , , , 
2025-09-28 20:01:11.965,6.7836523,-10.559526,2.0291135,0.83344865,-0.7069996,-3.7003133,-50.081253,-9.0375,-0.375,0.6790854,-0.29074204,0.6727377,995.90497, , , , 
2025-09-28 20:01:11.985,5.4963136,-10.351351,2.009971,0.9000329,-0.633085,-3.4932303,-50.343754,-11.681251,0.112500004,0.69593537,-0.25533655,0.6685114,995.90497, , , , 
2025-09-28 20:01:12.005,4.5391846,-10.269995,1.2658032,0.9702823,-0.47609273,-3.250106,-49.593754,-15.093751,1.6125001,0.70730776,-0.22784851,0.66527313,995.88055, , , , 
2025-09-28 20:01:12.025,2.0865414,-10.07139,-0.08853444,0.9556216,-0.30810493,-2.8585417,-47.775,-21.16875,4.40625,0.71840703,-0.19542696,0.66210777,995.863, , , , 
2025-09-28 20:01:12.045,0.05742774,-9.882358,-0.7848458,0.8566615,-0.3728566,-2.3264785,-46.800003,-20.79375,2.41875,0.7238903,-0.17830728,0.6601363,995.863, , , , 
2025-09-28 20:01:12.065,-0.8207382,-9.446864,-0.4546363,0.791299,-0.50541425,-1.6789619,-44.25,-22.650002,3.1875002,0.73048055,-0.16026334,0.65678036,995.863, , , , 
2025-09-28 20:01:12.086,-0.4354937,-9.025727,-0.4426722,0.73571026,-0.6141482,-0.84146625,-45.35625,-27.2625,4.5,0.7381831,-0.14530352,0.6516317,995.8361, , , , 
2025-09-28 20:01:12.105,-0.10289137,-10.047462,-0.9403793,0.6660717,-0.34109163,-0.29962918,-42.768753,-26.118752,4.4625,0.7417517,-0.1398187,0.6491502,995.8361, , , , 
2025-09-28 20:01:12.125,-1.3519448,-10.516456,-1.7587247,0.44127345,-0.20914483,0.64476776,-43.18125,-25.06875,6.9187503,0.7449601,-0.13716754,0.64741075,995.82416, , , , 
2025-09-28 20:01:12.146,-0.27756742,-9.705289,-1.0552348,0.30443972,-0.15172353,1.4376702,-43.3125,-23.56875,5.45625,0.7451518,-0.14187367,0.6471928,995.82416, , , , 
2025-09-28 20:01:12.165,1.3782659,-9.274581,-0.75613195,0.267177,0.14637847,2.0167701,-44.25,-23.8125,6.80625,0.74321413,-0.1536098,0.6482738,995.8007, , , , 
2025-09-28 20:01:12.185,2.7996025,-9.966106,-1.5984055,0.17310381,0.7083741,2.545779,-44.9625,-21.525002,7.36875,0.7371301,-0.1694501,0.6526436,995.8007, , , , 
2025-09-28 20:01:12.206,3.4432719,-10.861022,-1.9597218,0.08575014,0.6931025,2.957502,-47.193752,-18.768751,7.1250005,0.7276565,-0.18879823,0.6589347,995.7895, , , , 
2025-09-28 20:01:12.226,5.343173,-11.420942,-1.8735801,0.08697187,0.2880991,3.4290895,-49.406254,-14.625001,5.7375,-0.7152327,0.21743996,-0.66419995,995.7685, , , , 
2025-09-28 20:01:12.245,6.7381887,-11.363515,-1.5888343,0.17921245,-0.014889829,3.6062403,-46.6875,-13.593751,4.4625,-0.7059407,0.24222976,-0.6650765,995.7685, , , , 
2025-09-28 20:01:12.266,7.479964,-10.839486,-1.9310079,0.24885105,-0.19448407,3.6453357,-48.43125,-8.306251,6.05625,-0.6994726,0.26059243,-0.6639125,995.7685, , , , 
2025-09-28 20:01:12.285,7.372287,-10.112068,-2.333002,0.14683662,-0.124234624,3.6954265,-49.55625,-3.80625,4.8375,-0.688298,0.29053572,-0.6600621,995.748, , , , 
2025-09-28 20:01:12.305,7.6546397,-9.686146,-1.7635103,0.075976305,-0.08269582,3.7571237,-50.100002,-2.7562501,6.525,-0.6777912,0.3150349,-0.65615547,995.748, , , , 
2025-09-28 20:01:12.325,8.836694,-9.580862,-1.0025927,0.199371,-0.18043418,3.738798,-48.693752,5.71875,6.9750004,-0.6632904,0.344961,-0.6501041,995.7387, , , , 
2025-09-28 20:01:12.345,9.980463,-9.992428,-1.39023,0.32093307,-0.24701844,3.647779,-47.2125,6.9,2.2687502,-0.6543378,0.36141983,-0.6458915,995.7387, , , , 
2025-09-28 20:01:12.365,10.236495,-10.193424,-2.0697916,0.32887432,-0.28550294,3.4975064,-48.600002,8.75625,2.775,-0.64252454,0.3814127,-0.63964915,995.73773, , , , 
2025-09-28 20:01:12.385,10.377672,-9.985249,-3.37388,-0.13660464,-0.016722424,3.3783877,-50.4,12.39375,5.7000003,-0.6277582,0.40574154,-0.6305116,995.7282, , , , 
2025-09-28 20:01:12.405,10.7126665,-9.147761,-2.1176481,-0.5116756,0.38828093,3.2849255,-47.100002,15.6,5.175,-0.61801016,0.42197096,-0.62481993,995.7282, , , , 
2025-09-28 20:01:12.425,10.923235,-9.020942,-0.71306115,-0.75052375,0.8904118,3.1028876,-46.256252,18.431252,5.53125,-0.60289127,0.44545415,-0.6185919,995.7282, , , , 
2025-09-28 20:01:12.446,10.983056,-8.975478,-0.15553348,-0.6747765,0.96066123,2.9263477,-45.54375,20.493752,5.34375,-0.58148015,0.47451502,-0.6131613,995.7309, , , , 
2025-09-28 20:01:12.465,11.315659,-8.616554,-0.5383851,-0.6448441,0.8274927,2.7699664,-45.112503,23.268751,4.51875,-0.5646551,0.49563223,-0.6088509,995.7309, , , , 
2025-09-28 20:01:12.485,11.040483,-7.5086775,-0.148355,-0.6888264,0.71936965,2.536005,-44.68125,25.087502,1.125,-0.5492626,0.5149476,-0.6038476,995.7509, , , , 
2025-09-28 20:01:12.506,11.46162,-7.456035,0.9379865,-0.532445,0.46952593,2.3283112,-41.98125,26.343752,3.24375,-0.5353378,0.5323015,-0.59847045,995.7509, , , , 
2025-09-28 20:01:12.525,12.342179,-6.9535427,1.6582261,0.035048366,-0.10651954,2.0778565,-40.10625,29.04375,2.11875,-0.5207103,0.5484568,-0.5920103,995.7619, , , , 
2025-09-28 20:01:12.545,13.813766,-6.6161547,0.53359944,0.46876237,-0.45165816,1.8133521,-38.71875,30.150002,3.91875,-0.51180613,0.55508536,-0.5877383,995.7619, , , , 
2025-09-28 20:01:12.565,14.959928,-6.393622,-1.5816557,0.6172025,-0.5756637,1.4065162,-38.7,30.91875,2.9437501,-0.50695395,0.55672944,-0.5854723,995.77826, , , , 
2025-09-28 20:01:12.585,15.680167,-6.597012,-3.050849,0.35941756,-0.5487856,0.7706059,-38.8875,33.112503,5.0062504,-0.5031454,0.55617356,-0.5825939,995.77826, , , , 
2025-09-28 20:01:12.605,16.55594,-7.5517483,-2.2755744,0.069867656,-0.5103012,0.24098615,-37.143753,33.675003,4.0125003,-0.50393313,0.55475396,-0.5805431,995.7729, , , , 
2025-09-28 20:01:12.625,16.311872,-8.243274,-0.39481574,0.010613776,-0.55611604,-0.3741547,-36.206253,34.125,5.90625,-0.50956476,0.5507478,-0.5791392,995.76556, , , , 
2025-09-28 20:01:12.646,16.204195,-7.7647095,0.42831525,0.082084954,-0.60803956,-0.6893609,-37.74375,32.86875,4.275,-0.5148232,0.54636997,-0.57928866,995.76556, , , , 
2025-09-28 20:01:12.665,16.364513,-6.800402,1.7802601,0.19753839,-0.6947823,-1.2476913,-38.90625,32.86875,3.6375,-0.5238289,0.5377567,-0.58091724,995.76556, , , , 
2025-09-28 20:01:12.686,14.68236,-7.240681,3.2805598,0.5927679,-1.3306925,-2.1920884,-38.34375,31.95,3.0,-0.5401941,0.5196834,-0.58560765,995.7802, , , , 
2025-09-28 20:01:12.705,12.543177,-8.279166,3.129812,0.9623411,-1.9494985,-2.6997168,-39.5625,31.931252,4.8375,-0.55937123,0.49626702,-0.58964103,995.7802, , , , 
2025-09-28 20:01:12.725,10.3441725,-9.731609,1.2131611,0.99288434,-1.8462625,-2.9550583,-39.1875,28.837502,6.675,-0.5867288,0.46006674,-0.59385103,995.80536, , , , 
2025-09-28 20:01:12.746,10.1599245,-10.530812,0.7322037,0.7876338,-1.3856704,-2.925737,-41.2125,26.1375,7.9687505,-0.6017213,0.4389911,-0.5966463,995.80536, , , , 
2025-09-28 20:01:12.765,10.80838,-11.184053,1.1940185,0.61598074,-1.0973423,-2.9214609,-45.768753,24.0375,9.637501,-0.61902744,0.41324565,-0.60119987,995.8232, , , , 
2025-09-28 20:01:12.786,11.73201,-11.162518,2.309074,0.6654608,-1.2402846,-3.1071637,-44.90625,22.5,10.106251,-0.63522804,0.38777545,-0.60581726,995.8232, , , , 
2025-09-28 20:01:12.805,11.755938,-10.865808,2.5531418,0.7680861,-1.5438844,-3.4077091,-45.375,21.581251,9.58125,-0.6524597,0.35934153,-0.60946953,995.8317, , , , 
2025-09-28 20:01:12.825,11.026127,-10.966306,2.684747,0.79496413,-1.5713733,-3.7675085,-46.36875,17.60625,11.925,-0.67564344,0.3191539,-0.61230654,995.8505, , , , 
2025-09-28 20:01:12.845,10.054641,-11.059627,2.4239295,0.7546471,-1.2244021,-3.9086182,-44.41875,16.95,9.900001,-0.6929285,0.28527716,-0.6149816,995.8505, , , , 
2025-09-28 20:01:12.865,9.08794,-10.837093,2.1391835,0.6935606,-0.7253256,-3.9513788,-46.518753,11.868751,13.35,-0.7036552,0.26017997,-0.6183265,995.8505, , , , 
2025-09-28 20:01:12.885,8.185846,-10.576276,1.2586247,0.57077676,0.09995275,-3.8670795,-48.675003,6.5062504,16.35,-0.71561927,0.22061262,-0.6277343,995.8652,37.8883027,127.73968577,145.11956787109375,1.72
2025-09-28 20:01:12.905,8.17149,-10.514063,0.971486,0.51763153,0.48601928,-3.7913322,-45.7125,5.2125,15.4875,-0.7200735,0.1916157,-0.6382823,995.8652, , , , 
2025-09-28 20:01:12.926,8.070991,-10.437492,0.97866446,0.55733776,0.48113236,-3.7638433,-46.143753,1.44375,14.062501,-0.72196716,0.16358532,-0.64948934,995.8576, , , , 
2025-09-28 20:01:12.952,7.111469,-10.526027,0.22253251,0.65324354,0.12438734,-3.6899288,-48.825,-5.8125,16.29375,-0.72431123,0.12061496,-0.6630315,995.84735, , , , 
2025-09-28 20:01:12.965,6.927222,-10.552348,0.019142581,0.6068178,0.030314164,-3.6306748,-46.725002,-5.8125,12.825001,-0.72534984,0.106308915,-0.6662398,995.84735, , , , 
2025-09-28 20:01:12.985,6.364908,-10.693524,0.1794617,0.48281226,-0.0075594517,-3.4248133,-46.3875,-12.13125,13.63125,-0.7279925,0.07213259,-0.67207503,995.84735, , , , 
2025-09-28 20:01:13.006,5.871987,-10.497313,0.39720857,0.4473821,0.11094832,-3.2195628,-46.3875,-12.13125,13.63125,-0.72899765,0.04700249,-0.67587435,995.8278, , , , 
2025-09-28 20:01:13.025,4.907679,-10.054641,-0.18424734,0.4400517,0.3974439,-2.961778,-46.987503,-16.331251,16.556252,-0.7275605,0.01828912,-0.6813257,995.8215, , , , 
2025-09-28 20:01:13.045,3.5844483,-10.365707,-1.3304094,0.36796966,0.5275581,-2.8151703,-46.050003,-18.956251,15.356251,-0.7252996,0.00231324,-0.68513423,995.8215, , , , 
2025-09-28 20:01:13.065,1.4500505,-10.801202,-1.9238294,0.19753839,0.45058912,-2.4749186,-43.74375,-20.7,14.137501,-0.7217679,-0.016622793,-0.68988484,995.8215, , , , 
2025-09-28 20:01:13.085,-1.119841,-9.992428,-1.2753744,0.006948587,0.25450155,-1.5042545,-41.381252,-24.431252,11.94375,-0.7184654,-0.033230696,-0.6936744,995.8122, , , , 
2025-09-28 20:01:13.105,-1.6558332,-9.387043,-1.0695918,-0.029092435,0.2587776,-0.9935716,-41.71875,-23.737501,13.950001,-0.7170958,-0.03896713,-0.69508153,995.8122, , , , 
2025-09-28 20:01:13.125,-2.8402805,-10.459028,-2.5507488,-0.19341506,0.6424007,-0.07910699,-42.862503,-25.837502,13.406251,-0.7141658,-0.042289253,-0.6980835,995.81, , , , 
2025-09-28 20:01:13.146,-3.507878,-10.375279,-3.2470603,-0.58375764,1.0266346,0.8298598,-42.65625,-25.66875,12.150001,-0.709658,-0.03638771,-0.7029318,995.81, , , , 
2025-09-28 20:01:13.165,-2.0171494,-10.030712,-2.160719,-0.99120444,1.2648718,1.763872,-44.756252,-24.525002,11.231251,-0.7047905,-0.024894228,-0.7081332,995.81024, , , , 
