Time,Accel_X,Accel_Y,Accel_Z,Gyro_X,Gyro_Y,Gyro_Z,Mag_X,Mag_Y,Mag_Z,Orient_X,Orient_Y,Orient_Z,Pressure,Lat,Lng,Alt,Speed
2026-03-20 17:53:39.286,2.7182465,6.0346985,5.493921,0.27763805,0.9784527,0.3254382,-19.5375,-41.325,-4.6875,0.3116212,0.12017576,0.6143266,1001.1491,37.88748412,127.73737386,170.670654296875,0.0
2026-03-20 17:53:39.306,2.1296122,6.111269,5.9294147,-0.19761476,1.2325724,0.23747368,-19.6875,-41.175003,-4.70625,0.3018888,0.13265559,0.6227035,1001.1502, , , , 
2026-03-20 17:53:39.326,1.7946169,6.666404,6.7094746,-0.6826414,0.7634283,0.21548255,-20.00625,-40.93125,-4.875,0.29292446,0.13651621,0.62778074,1001.1502, , , , 
2026-03-20 17:53:39.346,1.3782659,6.6855464,7.9106717,-1.0063998,0.38957903,0.36819875,-20.34375,-40.85625,-5.11875,0.28378746,0.13452746,0.6324563,1001.1502, , , , 
2026-03-20 17:53:39.366,2.388037,5.690132,8.633304,-1.1737766,0.22586726,0.5111411,-20.53125,-40.6875,-5.49375,0.2748569,0.1283879,0.6379538,1001.1502, , , , 
2026-03-20 17:53:39.386,3.3547373,4.2927237,9.049655,-1.2287545,0.28695372,0.29489496,-20.60625,-40.518753,-6.2812505,0.26532292,0.12086554,0.64321125,1001.1515, , , , 
2026-03-20 17:53:39.406,3.0867412,4.627719,9.71486,-1.1603377,0.46532625,-0.08628465,-20.737501,-40.331253,-7.2375,0.25715315,0.116507076,0.64574766,1001.1515, , , , 
2026-03-20 17:53:39.426,2.062613,5.8767724,10.236495,-0.8634574,0.6498074,-0.15103632,-21.0375,-39.975002,-8.212501,0.24341865,0.11288721,0.64761937,1001.1515, , , , 
2026-03-20 17:53:39.446,1.6223338,5.5274205,10.585847,-0.44196066,1.0847431,-0.020311253,-21.4125,-39.45,-9.243751,0.23304224,0.114966534,0.6498603,1001.1515, , , , 
2026-03-20 17:53:39.466,1.5936198,5.584848,9.757931,-0.066889696,1.3975059,-0.025198173,-21.6375,-38.831253,-10.1625,0.22298384,0.12247656,0.6531085,1001.1545, , , , 
2026-03-20 17:53:39.486,1.3112668,5.139783,8.480164,0.16523892,0.89048815,-0.34284785,-21.6375,-38.41875,-10.9875,0.21534348,0.13169053,0.65451485,1001.1545, , , , 
2026-03-20 17:53:39.506,-0.18185452,3.3020952,7.125826,0.14935644,0.89048815,-0.31719154,-21.206251,-38.15625,-11.681251,0.21089591,0.1394229,0.65312666,1001.1545, , , , 
2026-03-20 17:53:39.526,0.22013968,4.1587257,7.867601,-0.08155045,1.3413063,-0.03497201,-20.625,-38.1375,-12.262501,0.20325643,0.1481576,0.6544494,1001.1545, , , , 
2026-03-20 17:53:39.546,-0.076570325,4.790431,9.461221,-0.24159703,1.0737475,-0.26832235,-20.268751,-38.362503,-12.69375,0.19361241,0.15618484,0.6562636,1001.15955, , , , 
2026-03-20 17:53:39.566,-0.7513463,4.7042894,9.442079,-0.4639518,0.12324197,-0.5933024,-19.800001,-38.362503,-12.937501,0.18606833,0.15933147,0.65476334,1001.15955, , , , 
2026-03-20 17:53:39.586,-0.70348984,2.239682,8.403593,-0.58245957,-0.45219266,-0.5065596,-19.331251,-38.23125,-13.05,0.18273576,0.15501817,0.6509197,1001.15955, , , , 
2026-03-20 17:53:39.606,0.32542387,3.1441689,7.891529,-0.49938196,0.21731515,-0.24633121,-18.9375,-38.0625,-13.25625,0.17903648,0.15077236,0.6489521,1001.15955, , , , 
2026-03-20 17:53:39.626,-0.44506502,5.0919266,9.753145,-0.34055713,1.230129,-0.29642212,-18.54375,-37.8375,-13.575001,0.17094477,0.15366863,0.6490253,1001.17633, , , , 
2026-03-20 17:53:39.646,-0.8853444,5.063213,11.150554,-0.18051054,1.1543818,-0.4063778,-18.075,-37.612503,-14.156251,0.15952194,0.16255327,0.64923567,1001.17633, , , , 
2026-03-20 17:53:39.666,-2.0961127,3.182454,9.777073,-0.032681264,-0.43631017,-0.33063057,-17.6625,-37.631252,-14.793751,0.15507041,0.16557391,0.64721227,1001.17633, , , , 
2026-03-20 17:53:39.686,-1.5074782,3.7280176,8.269595,0.19211698,-1.8767294,-0.20479241,-16.875,-37.800003,-15.337501,0.16293065,0.15754363,0.6432553,1001.17633, , , , 
2026-03-20 17:53:39.706,-1.5936198,4.398008,6.9822564,0.25442517,-2.4998114,-0.27198756,-15.806251,-37.95,-15.712501,0.17941238,0.14250787,0.63705003,1001.18463, , , , 
2026-03-20 17:53:39.726,0.4211368,4.9770713,7.594819,0.019853106,-1.5114322,0.028557928,-15.187501,-38.2125,-15.712501,0.19373946,0.12855096,0.6314911,1001.18463, , , , 
2026-03-20 17:53:39.746,0.55034924,4.991428,8.681161,0.03329213,-0.39843655,0.67729634,-15.075001,-38.287502,-15.562501,0.19999246,0.120763145,0.6323126,1001.18463, , , , 
2026-03-20 17:53:39.766,-0.31585258,5.2163534,8.556734,0.63316137,0.6705768,0.994946,-15.4875,-38.30625,-15.31875,0.20252673,0.1222341,0.6384978,1001.18463, , , , 
2026-03-20 17:53:39.786,1.3686945,4.168297,7.0731835,0.96425,1.988823,1.2038617,-16.25625,-38.362503,-14.887501,0.20205037,0.13491713,0.6482077,1001.17, , , , 
2026-03-20 17:53:39.806,3.0915267,3.1776686,6.666404,0.6832523,2.8134904,1.0034981,-17.1,-38.41875,-14.475,0.19387773,0.15588468,0.6600424,1001.17, , , , 
2026-03-20 17:53:39.826,1.6606189,2.9240294,8.7673025,0.44623673,2.1134393,0.5111411,-17.625,-38.5125,-14.062501,0.18214254,0.17540866,0.66953516,1001.17, , , , 
2026-03-20 17:53:39.846,-0.53599226,3.5940197,7.192825,0.23854269,1.2557852,0.11896592,-17.94375,-38.568752,-13.725,0.17396162,0.18887214,0.6737451,1001.17, , , , 
2026-03-20 17:53:39.866,1.0241281,5.0009995,5.9724855,-0.4138609,0.57650363,-0.14492767,-18.075,-38.49375,-13.5375,0.1684149,0.19387901,0.6751509,1001.14954, , , , 
2026-03-20 17:53:39.886,-0.10049855,4.709075,8.571091,-0.56291187,0.94057906,-0.29275694,-17.831251,-38.268753,-13.650001,0.1595902,0.19541508,0.675767,1001.14954, , , , 
2026-03-20 17:53:39.906,-2.2348964,3.158526,12.993027,-0.47006044,0.0059559317,0.06398808,-17.456251,-38.04375,-13.9875,0.15043885,0.19769385,0.6766428,1001.14954, , , , 
2026-03-20 17:53:39.926,0.12921242,5.2019963,10.4566345,0.0015271619,-1.2206606,-0.20234896,-17.212502,-37.875,-14.306251,0.1541873,0.19012138,0.6756675,1001.14954, , , , 
2026-03-20 17:53:39.946,0.13399807,4.7042894,8.283952,0.062613636,-0.6024654,-0.35384342,-17.025002,-37.74375,-14.718751,0.16013646,0.18481271,0.672774,1001.1213, , , , 
2026-03-20 17:53:39.966,0.6843473,4.709075,9.834501,0.08949169,-0.3178024,-0.37949973,-16.96875,-37.800003,-15.093751,0.16262832,0.18288502,0.6691017,1001.1213, , , , 
2026-03-20 17:53:39.986,-1.9477576,4.814359,8.178668,-0.041233372,-0.3752237,-0.32085672,-17.081251,-37.85625,-15.31875,0.1647601,0.18136084,0.6654316,1001.1213, , , , 
2026-03-20 17:53:40.006,-1.3351951,6.235696,8.987442,-0.036346454,0.004734202,-0.07284562,-17.175001,-37.875,-15.468751,0.16548872,0.17958724,0.6637305,1001.1213, , , , 
2026-03-20 17:53:40.026,-0.6029913,5.345566,8.489735,0.19089524,0.6534726,0.23503022,-17.1375,-37.912502,-15.431251,0.1641343,0.18226625,0.66478115,1001.0705, , , , 
2026-03-20 17:53:40.046,-0.89491564,4.8622155,9.078369,0.35338527,0.8110757,0.2790125,-17.025002,-37.987503,-15.375001,0.16110453,0.18975896,0.66761386,1001.0705, , , , 
2026-03-20 17:53:40.066,-0.32063824,3.9194436,8.681161,0.26053384,-0.27259842,0.07742711,-16.743752,-38.11875,-15.262501,0.1616177,0.19356188,0.6686989,1001.0705, , , , 
2026-03-20 17:53:40.086,1.7515461,4.1491547,7.4129643,0.20677772,-0.7221949,-0.12782346,-16.5,-38.15625,-15.0375,0.16744761,0.19046496,0.6672205,1001.0705, , , , 
2026-03-20 17:53:40.106,-0.33020952,4.7425747,6.9344,0.055283263,-0.27504188,-0.35139996,-16.44375,-38.2125,-14.793751,0.1714223,0.18836996,0.66418433,1001.04926, , , , 
2026-03-20 17:53:40.126,-1.6893328,5.15414,7.111469,-0.11453715,-0.1357647,-0.15958843,-16.425001,-38.30625,-14.437501,0.17181507,0.18763748,0.66195494,1001.04926, , , , 
2026-03-20 17:53:40.146,-0.8327023,5.063213,7.6331043,-0.16951497,-0.16386448,0.05665771,-16.556252,-38.34375,-14.1,0.1718326,0.18559624,0.66157216,1001.04926, , , , 
2026-03-20 17:53:40.166,0.57427746,4.627719,8.073383,-0.116980605,0.051159926,0.116522454,-16.650002,-38.34375,-14.00625,0.17128731,0.18433079,0.6625013,1001.04926, , , , 
2026-03-20 17:53:40.186,0.4211368,4.125226,10.140782,-0.08888082,-0.38011062,-0.043524116,-16.575,-38.362503,-14.118751,0.17077829,0.18354598,0.6631353,1001.0167, , , , 
2026-03-20 17:53:40.206,-0.8662018,4.814359,9.19801,0.038179047,-0.4583013,-0.13881902,-16.575,-38.325,-14.137501,0.17309393,0.17991196,0.6616026,1001.0167, , , , 
2026-03-20 17:53:40.226,0.526421,3.9864426,9.159725,0.094378605,-0.064904384,-7.6358096E-4,-16.59375,-38.268753,-14.137501,0.17539261,0.17849146,0.6606433,1001.0167, , , , 
2026-03-20 17:53:40.246,-0.71306115,4.895715,9.614362,0.082161315,-0.060017463,-0.28787002,-16.59375,-38.268753,-14.118751,0.1754625,0.17918482,0.659115,1001.0167, , , , 
2026-03-20 17:53:40.266,-1.7180467,5.4843497,7.800602,0.1395826,-0.006261364,0.021227552,-16.63125,-38.287502,-13.9125,0.17650782,0.17994393,0.65765524,1001.004, , , , 
2026-03-20 17:53:40.286,-0.12921242,5.0392847,7.092326,-9.162972E-4,0.0377209,0.11041381,-16.78125,-38.268753,-13.743751,0.17697848,0.18080226,0.65808994,1001.004,37.88748412,127.73737386,170.670654296875,0.0
2026-03-20 17:53:40.306,0.2727818,4.6564326,7.7814593,-0.07910699,0.24297146,0.1311832,-16.6875,-38.25,-13.556251,0.17609353,0.1810472,0.6594113,1001.004, , , , 
2026-03-20 17:53:40.326,-0.41156548,4.6468616,9.690931,0.12125666,0.6546943,0.045662142,-16.612501,-38.268753,-13.368751,0.17309678,0.1842923,0.66077036,1001.004, , , , 
2026-03-20 17:53:40.346,-0.23928227,4.4602213,9.705289,0.014966187,-0.8223767,-0.1424842,-16.5,-38.30625,-13.387501,0.17364508,0.18482596,0.660662,1001.00464, , , , 
2026-03-20 17:53:40.366,0.42592242,4.733003,7.379465,-0.41752607,-1.8620685,-0.3025308,-16.275002,-38.456253,-13.556251,0.1814905,0.1739226,0.6567459,1001.00464, , , , 
2026-03-20 17:53:40.386,1.1676974,4.8526444,8.073383,-0.62766355,-1.4075851,-0.35506517,-16.3125,-38.643753,-13.575001,0.18829077,0.15832412,0.6520579,1001.00464, , , , 
2026-03-20 17:53:40.406,0.6269195,5.0775695,9.705289,-0.22693627,-0.40088,-0.29153523,-16.612501,-38.68125,-13.575001,0.19013356,0.15003955,0.6488323,1001.00464, , , , 
2026-03-20 17:53:40.426,0.32063824,4.8861437,8.6141615,0.12858704,-0.117438756,-0.2451095,-16.875,-38.5875,-13.462501,0.19090655,0.1494037,0.64665705,1001.0282, , , , 
2026-03-20 17:53:40.446,-0.014356935,5.168497,7.9298143,-0.04612029,-0.16142102,-0.2328922,-16.81875,-38.34375,-13.312501,0.1921245,0.14915249,0.6443996,1001.0282, , , , 
2026-03-20 17:53:40.466,-1.2107682,5.5896335,9.8632145,-0.08032872,-0.022143848,-0.006872229,-16.650002,-38.1375,-13.406251,0.19165376,0.14846659,0.6433547,1001.0282, , , , 
2026-03-20 17:53:40.486,-0.36370903,5.1876397,9.15494,0.032070402,-0.28725916,0.22403465,-16.331251,-37.987503,-13.462501,0.1926673,0.14720148,0.64407104,1001.0282, , , , 
2026-03-20 17:53:40.506,0.6364908,4.948357,7.685746,-0.12186752,-0.4754055,0.20448698,-15.8625,-37.96875,-13.44375,0.19551805,0.1436571,0.6449349,1001.0482, , , , 
2026-03-20 17:53:40.526,2.8235307,3.3020952,8.662018,-0.26358816,-0.39721483,0.043218683,-15.50625,-37.912502,-13.387501,0.19710164,0.13884646,0.64556926,1001.0482, , , , 
2026-03-20 17:53:40.546,-0.46899325,5.3312087,9.7196455,-0.008246674,-0.3593412,-0.20112723,-15.31875,-37.78125,-13.312501,0.1981795,0.13509378,0.64400095,1001.0482, , , , 
2026-03-20 17:53:40.566,-0.2105684,5.4843497,7.025327,0.1395826,-0.0025961753,0.16905683,-15.13125,-37.6875,-13.2375,0.2000944,0.13426216,0.6433387,1001.0482, , , , 
2026-03-20 17:53:40.586,-0.4546363,5.2642097,6.518049,-0.06811142,0.37369654,0.43539387,-15.13125,-37.55625,-13.275001,0.19967149,0.13617803,0.6460917,1001.0703, , , , 
2026-03-20 17:53:40.606,0.0047856453,4.910072,7.542177,-0.33933538,0.58994263,0.64919657,-15.375001,-37.55625,-13.368751,0.19604936,0.1372107,0.651176,1001.0703, , , , 
2026-03-20 17:53:40.626,0.8805587,3.2590244,11.093125,-0.31612253,0.9173662,0.6565269,-15.431251,-37.537502,-13.575001,0.18922892,0.1392319,0.65806746,1001.0703, , , , 
2026-03-20 17:53:40.646,1.8329022,3.4839497,11.475977,0.0736092,-0.12599087,0.2667952,-15.6,-37.575,-13.81875,0.18585084,0.1404435,0.66190207,1001.0703, , , , 
2026-03-20 17:53:40.666,0.19142582,4.469793,8.595019,0.18234314,-0.5584831,0.043218683,-15.88125,-37.518753,-14.08125,0.19030511,0.13812824,0.66203237,1001.0739, , , , 
2026-03-20 17:53:40.686,0.6652047,4.402794,7.1210403,0.03695732,-0.6073523,0.13607013,-16.0125,-37.40625,-14.400001,0.1951015,0.1346392,0.66129535,1001.0739, , , , 
2026-03-20 17:53:40.706,1.1006985,4.761717,7.34118,-0.038789913,-0.3006982,-0.015424335,-16.25625,-37.36875,-14.475,0.19821161,0.13109584,0.6608482,1001.0739, , , , 
2026-03-20 17:53:40.726,0.9236295,5.015356,8.82473,-0.04734202,0.29672757,0.11896592,-16.59375,-37.3875,-14.475,0.19806117,0.13058965,0.66103506,1001.0739, , , , 
2026-03-20 17:53:40.746,0.3684947,3.7471602,10.872986,0.20311254,0.44455683,0.19471315,-16.7625,-37.4625,-14.45625,0.1957424,0.13350418,0.6630661,1001.0754, , , , 
2026-03-20 17:53:40.766,1.1629118,3.723232,9.662218,0.6380483,0.18921536,0.093309596,-16.95,-37.4625,-14.38125,0.19677863,0.13811038,0.6642977,1001.0754, , , , 
2026-03-20 17:53:40.786,1.5026926,3.9242291,6.431907,0.57696176,0.15622866,-0.093615025,-17.118752,-37.48125,-14.437501,0.20061795,0.14346597,0.6635459,1001.0754, , , , 
2026-03-20 17:53:40.806,0.526421,4.9866424,7.623533,-0.0033597562,0.13301581,-0.40149087,-17.0625,-37.443752,-14.400001,0.20115596,0.14658971,0.6617463,1001.0754, , , , 
2026-03-20 17:53:40.826,-0.8662018,5.163711,8.34138,0.011300999,0.089033544,-0.1461494,-17.1,-37.518753,-14.212501,0.1998917,0.14795974,0.65965486,1001.0771, , , , 
2026-03-20 17:53:40.846,-0.36370903,5.1876397,6.910472,0.16768238,0.2942841,0.1018617,-17.15625,-37.575,-13.89375,0.1994372,0.1499707,0.6596759,1001.0771, , , , 
2026-03-20 17:53:40.866,0.1052842,5.144569,5.393422,0.00763581,0.88682294,0.28512114,-17.025002,-37.631252,-13.668751,0.19677123,0.15466195,0.6621275,1001.0771, , , , 
2026-03-20 17:53:40.886,0.148355,4.8909297,8.159525,-0.16584979,1.6149738,0.39752024,-16.893751,-37.725002,-13.556251,0.19073941,0.1600815,0.66569066,1001.0771, , , , 
2026-03-20 17:53:40.906,0.014356935,4.0295134,10.609776,0.28130323,2.0511312,0.4659371,-16.66875,-37.7625,-13.63125,0.17593694,0.1753185,0.6737859,1001.0848, , , , 
2026-03-20 17:53:40.926,0.91405827,3.493521,10.083355,0.22754712,0.23441936,-0.052076224,-16.35,-37.7625,-13.931251,0.17014958,0.1841569,0.6772749,1001.0848, , , , 
2026-03-20 17:53:40.946,-0.13878371,4.8047876,7.274181,-0.26725334,-1.2915208,-0.31719154,-16.1625,-37.74375,-14.2875,0.17461596,0.17952062,0.67448205,1001.0848, , , , 
2026-03-20 17:53:40.966,-0.0526421,4.9292145,8.944371,-0.6056724,-1.4955497,-0.25488332,-15.825001,-37.575,-14.512501,0.18056272,0.1660461,0.6705884,1001.0848, , , , 
2026-03-20 17:53:40.986,-0.019142581,5.3742795,9.226724,-0.25992295,-0.7661772,-0.047189303,-15.6,-37.48125,-14.64375,0.18504684,0.15492,0.6679294,1001.10406, , , , 
2026-03-20 17:53:41.006,1.0145568,4.910072,8.585447,0.12614357,0.1036943,0.14462224,-15.7875,-37.631252,-14.606251,0.18684134,0.15237683,0.6679552,1001.10406, , , , 
2026-03-20 17:53:41.026,1.5218352,4.546363,8.039884,0.2922988,0.53496486,0.046883874,-16.050001,-37.575,-14.418751,0.1862887,0.15626948,0.66906244,1001.10406, , , , 
2026-03-20 17:53:41.046,0.57906306,4.776074,8.504091,0.3423897,0.7402154,-0.099723674,-16.44375,-37.40625,-14.343751,0.1841586,0.16301575,0.6694911,1001.10406, , , , 
2026-03-20 17:53:41.066,0.023928227,4.9531426,8.513663,0.37171122,0.7304416,-0.0923933,-16.7625,-37.36875,-14.437501,0.18216911,0.16892663,0.66954154,1001.1098, , , , 
2026-03-20 17:53:41.086,-0.44985065,5.1254263,7.23111,0.057726722,0.15989386,0.007788526,-16.800001,-37.36875,-14.45625,0.18030246,0.1755459,0.6696983,1001.1098, , , , 
2026-03-20 17:53:41.106,-0.14356937,4.723432,7.30768,-0.40530878,-0.504727,0.084757484,-16.59375,-37.55625,-14.55,0.18038446,0.17314704,0.66997004,1001.1098, , , , 
2026-03-20 17:53:41.126,2.4215364,4.790431,7.8436728,-0.46883872,-0.8468113,-0.07773254,-16.25625,-38.025,-14.587501,0.18197744,0.16496347,0.6701209,1001.1098, , , , 
2026-03-20 17:53:41.146,1.0432707,4.5559344,7.5517483,-0.5506946,-0.5707004,-0.27687445,-16.03125,-38.2125,-14.512501,0.18318817,0.15656161,0.6680857,1001.1115, , , , 
2026-03-20 17:53:41.166,-0.8279166,5.0919266,8.360522,-0.4847212,-0.24449863,-0.14126249,-15.843751,-38.006252,-14.587501,0.18177702,0.15085503,0.66651297,1001.1115, , , , 
2026-03-20 17:53:41.186,-0.5024927,4.9770713,10.049855,-0.2538143,-0.0025961753,0.15317434,-15.806251,-37.725002,-14.718751,0.17973629,0.14764185,0.6670111,1001.1115, , , , 
2026-03-20 17:53:41.206,1.5361922,4.1778684,9.178867,0.0858265,0.04016436,0.16661337,-16.050001,-37.40625,-14.962501,0.17951867,0.1470076,0.6685969,1001.1115, , , , 
2026-03-20 17:53:41.226,1.402194,4.2352962,8.106883,0.09682207,-0.11255184,-0.067958705,-16.237501,-37.03125,-15.356251,0.18061626,0.14738609,0.6688093,1001.10876, , , , 
2026-03-20 17:53:41.246,0.44027936,4.6755753,8.56152,0.00763581,-0.2933678,-0.13515383,-16.40625,-36.9,-15.618751,0.18215796,0.1463983,0.6675081,1001.10876, , , , 
2026-03-20 17:53:41.266,0.71306115,4.7856455,8.786445,0.12614357,-0.22128576,-0.08628465,-16.556252,-36.862503,-15.731251,0.18430097,0.1448747,0.66609097,1001.10876, , , , 
2026-03-20 17:53:41.286,0.7800602,4.6899323,8.465807,0.24465135,0.16966769,-0.11438443,-16.612501,-36.80625,-15.69375,0.18586563,0.14595927,0.6650607,1001.10876,37.88748412,127.73737386,170.670654296875,0.0
2026-03-20 17:53:41.306,0.15792629,4.800002,8.221739,0.29474226,0.29672757,-0.15103632,-16.518751,-36.956253,-15.450001,0.18592362,0.14994308,0.6641834,1001.10474, , , , 
2026-03-20 17:53:41.326,-0.35413775,5.058427,7.800602,0.21655156,0.14034618,-0.09850194,-16.35,-37.143753,-15.337501,0.18611702,0.15363415,0.66324246,1001.10474, , , , 
2026-03-20 17:53:41.346,-0.4546363,5.058427,7.499106,0.068722285,-0.12110394,-0.019089524,-16.237501,-37.331253,-15.093751,0.18675636,0.15482435,0.6627246,1001.10474, , , , 
2026-03-20 17:53:41.366,-0.95712906,5.465207,7.585248,-0.07177661,-0.20784675,0.1018617,-16.10625,-37.3875,-14.925,0.18829548,0.15376072,0.6624124,1001.10474, , , , 
2026-03-20 17:53:41.386,-0.9906286,5.6997037,7.618747,-0.15118903,-0.17974696,0.29856017,-16.03125,-37.36875,-14.868751,0.18919109,0.15140904,0.66352713,1001.11664, , , , 
2026-03-20 17:53:41.406,-0.44506502,5.4891353,8.379665,-0.1414152,0.030390523,0.4696023,-16.050001,-37.40625,-14.7375,0.18915023,0.14931399,0.6663581,1001.11664, , , , 
2026-03-20 17:53:41.426,0.6364908,4.733003,8.939586,0.049174614,0.1904371,0.46349365,-16.06875,-37.3875,-14.981251,0.18876392,0.14885847,0.6691941,1001.11664, , , , 
2026-03-20 17:53:41.446,0.5312066,4.8861437,7.1162543,0.06139191,0.26251915,0.30955574,-16.143751,-37.29375,-15.056251,0.188525,0.15072086,0.67301077,1001.11664, , , , 
2026-03-20 17:53:41.466,0.05742774,4.733003,7.274181,-0.26847506,0.11957678,0.2667952,-16.35,-37.162502,-15.01875,0.1869951,0.15098344,0.67545336,1001.12616, , , , 
2026-03-20 17:53:41.486,1.1964114,5.020142,7.9680996,-0.22327107,0.056046844,0.09453133,-16.59375,-36.881252,-15.093751,0.184464,0.14969711,0.6779607,1001.12616, , , , 
2026-03-20 17:53:41.506,-0.3589234,5.2498527,8.427522,-0.37843072,-0.19440772,0.009010255,-16.78125,-36.61875,-14.981251,0.18261716,0.14706998,0.67842156,1001.12616, , , , 
2026-03-20 17:53:41.526,-0.17706887,5.6039906,8.312666,-0.3857611,-0.27015495,0.07987057,-16.95,-36.525,-14.962501,0.18164389,0.14285517,0.67885584,1001.12616, , , , 
2026-03-20 17:53:41.546,0.27756742,5.5704913,8.56152,-0.2941314,-0.24449863,0.09453133,-17.19375,-36.45,-15.075001,0.18123257,0.13862835,0.6794698,1001.13403, , , , 
2026-03-20 17:53:41.566,0.6939186,5.4987063,8.212168,-0.11209369,-0.17730351,0.055435978,-17.5125,-36.43125,-15.31875,0.1815065,0.13581342,0.67986757,1001.13403, , , , 
2026-03-20 17:53:41.586,1.6845472,5.757131,6.829116,0.0015271619,0.046273008,-0.12904519,-17.868752,-36.375,-15.712501,0.18213378,0.134772,0.67962843,1001.13403, , , , 
2026-03-20 17:53:41.606,-0.23449662,6.245267,6.910472,-0.038789913,0.5887209,-0.170584,-18.075,-36.16875,-15.993751,0.18058282,0.13658497,0.6790723,1001.13403, , , , 
2026-03-20 17:53:41.626,-1.6797615,6.250053,8.671589,-0.021685699,0.97112226,0.16539164,-18.28125,-36.0,-16.181252,0.17297007,0.14421453,0.6808042,1001.1442, , , , 
2026-03-20 17:53:41.646,-0.53599226,5.6997037,8.7577305,0.0015271619,0.5581777,0.32299474,-18.28125,-35.831253,-16.10625,0.16791768,0.14955926,0.6840109,1001.1442, , , , 
2026-03-20 17:53:41.666,-0.043070808,5.5226345,8.599805,-0.0058032153,0.115911596,0.22281294,-18.09375,-35.71875,-15.918751,0.16599411,0.15156437,0.68654436,1001.1442, , , , 
2026-03-20 17:53:41.686,-0.0047856453,5.709275,8.676374,0.0858265,-0.04780017,0.13240494,-18.018751,-35.90625,-15.8625,0.16643105,0.15173316,0.6876858,1001.1442, , , , 
2026-03-20 17:53:41.706,-0.2009971,5.895915,8.039884,0.15302163,-0.21762058,0.07620538,-17.60625,-35.86875,-16.125,0.16841045,0.15179859,0.68793476,1001.14703, , , , 
2026-03-20 17:53:41.726,-0.2727818,6.2787666,7.240681,0.0772744,-0.42775807,0.07131846,-17.362501,-35.7,-16.3125,0.17182778,0.15035595,0.68757534,1001.14703, , , , 
2026-03-20 17:53:41.746,0.07178468,6.3601227,7.097112,-0.008246674,-0.35323256,0.060322896,-17.400002,-35.568752,-16.518751,0.17518534,0.14779045,0.6872308,1001.14703, , , , 
2026-03-20 17:53:41.766,-0.2727818,6.5659056,7.5756764,-0.0070249448,-0.11377356,0.038331766,-17.456251,-35.41875,-16.7625,0.17703383,0.1462035,0.6870495,1001.14703, , , , 
2026-03-20 17:53:41.786,-0.34456646,6.570691,8.465807,0.012522728,0.08170316,0.08231403,-17.6625,-35.550003,-16.6875,0.17721634,0.14640163,0.68740237,1001.1555, , , , 
2026-03-20 17:53:41.806,0.0,6.513263,8.532805,0.038179047,0.012064579,0.08720095,-17.8125,-35.625,-16.6875,0.17723563,0.14712496,0.68802017,1001.1555, , , , 
2026-03-20 17:53:41.826,0.29671,6.8195443,8.30788,-0.037568185,-0.33857182,0.08353576,-17.98125,-35.60625,-16.575,0.17866957,0.14614928,0.6882391,1001.1555, , , , 
2026-03-20 17:53:41.846,-0.46899325,7.0540414,9.01137,-0.12797616,-0.32024586,0.16172644,-18.09375,-35.5125,-16.368752,0.18060768,0.14336173,0.6883874,1001.1555, , , , 
2026-03-20 17:53:41.866,0.35413775,6.6329045,9.274581,-0.15729769,-0.17974696,0.25335616,-18.2625,-35.287502,-16.2,0.18191426,0.14038508,0.68955135,1001.16, , , , 
2026-03-20 17:53:41.886,0.5168497,6.250053,8.906086,-0.35888305,0.012064579,0.23869541,-18.525002,-35.41875,-16.06875,0.18122193,0.13789842,0.69139487,1001.16, , , , 
2026-03-20 17:53:41.906,0.2632105,5.828916,10.700703,-0.59589857,0.059712034,0.15683953,-18.75,-35.60625,-16.237501,0.17778684,0.13457942,0.69345874,1001.16, , , , 
2026-03-20 17:53:41.926,0.8327023,5.245067,12.246467,-0.44562587,-0.08933897,0.16905683,-18.975,-35.568752,-16.556252,0.1743115,0.13043673,0.69530207,1001.16, , , , 
2026-03-20 17:53:41.946,2.6703901,4.6612186,11.408978,-0.10109812,-0.13820815,0.037110034,-19.1625,-35.5125,-16.9125,0.17350784,0.12738068,0.6963396,1001.1655, , , , 
2026-03-20 17:53:41.966,2.024328,4.23051,9.920643,0.029626941,-0.028252495,-0.29275694,-19.275002,-35.2125,-17.38125,0.17396656,0.12657659,0.69528407,1001.1655, , , , 
2026-03-20 17:53:41.986,1.2107682,4.019942,9.954143,0.14935644,-0.020922119,-0.42226028,-19.29375,-34.800003,-17.7,0.1740891,0.12759298,0.69273275,1001.1655, , , , 
2026-03-20 17:53:42.006,1.0336994,3.9194436,8.949157,0.44501498,-0.15286891,-0.49922925,-19.25625,-34.4625,-17.868752,0.1760895,0.12971707,0.6890519,1001.1655, , , , 
2026-03-20 17:53:42.026,0.4881358,4.359723,6.771688,0.6013964,-0.19318599,-0.49067715,-19.3125,-34.425003,-17.90625,0.18050912,0.13315253,0.6844903,1001.16846, , , , 
2026-03-20 17:53:42.046,0.27756742,4.881358,5.5465627,0.4816669,-0.055130545,-0.30130905,-19.40625,-34.612503,-17.8125,0.18401676,0.13592903,0.6813921,1001.16846, , , , 
2026-03-20 17:53:42.066,0.6412765,4.627719,6.546763,0.3668243,0.14401138,-0.1461494,-19.5,-34.912502,-17.681252,0.18689848,0.13961323,0.67890334,1001.16846, , , , 
2026-03-20 17:53:42.086,0.8997013,4.3501515,7.0396843,0.33139414,0.13057235,-0.107054055,-19.44375,-35.381252,-17.38125,0.18865915,0.14424524,0.6774716,1001.16846, , , , 
2026-03-20 17:53:42.106,0.5072784,4.4841495,6.838687,0.22266021,0.021838415,-0.07284562,-18.956251,-35.53125,-17.0625,0.1900704,0.14691521,0.67653835,1001.16956, , , , 
2026-03-20 17:53:42.126,0.10049855,4.651647,6.786045,-0.021685699,-0.023365578,0.009010255,-18.28125,-35.60625,-16.7625,0.19078322,0.1476465,0.6761291,1001.16956, , , , 
2026-03-20 17:53:42.146,-0.05742774,4.6325045,7.881958,-0.19883649,0.029168794,0.114079,-17.737501,-35.737503,-16.368752,0.19029321,0.14699452,0.67652774,1001.16956, , , , 
2026-03-20 17:53:42.166,0.14356937,4.26401,8.977871,-0.17684536,0.07803798,0.1800524,-17.681252,-35.831253,-16.143751,0.18828042,0.14545181,0.67832434,1001.16956, , , , 
2026-03-20 17:53:42.186,0.19621146,4.101298,8.9348,-0.066889696,0.023060145,0.1886045,-17.98125,-36.075,-16.0125,0.18729314,0.14467764,0.6798902,1001.1653, , , , 
2026-03-20 17:53:42.206,0.75613195,4.0007997,8.628518,-0.004581486,-0.056352276,0.1886045,-18.150002,-36.206253,-16.0125,0.18744381,0.1439389,0.68124676,1001.1653, , , , 
2026-03-20 17:53:42.226,1.4452649,3.694518,8.944371,0.14691298,-0.13698642,0.09575305,-18.45,-36.375,-16.2,0.18864197,0.14329375,0.6820962,1001.1653, , , , 
2026-03-20 17:53:42.246,1.7946169,3.751946,7.9537425,0.3423897,-0.25060728,-0.08628465,-18.50625,-36.600002,-16.3875,0.19176434,0.14351206,0.6814502,1001.1653, , , , 
2026-03-20 17:53:42.266,0.86141616,4.2017965,6.613762,0.36560258,-0.22006404,-0.260992,-18.581251,-36.65625,-16.575,0.19593546,0.14455974,0.6791356,1001.16144, , , , 
2026-03-20 17:53:42.286,0.5455636,5.211568,6.532406,0.36926776,-0.033139415,-0.26343542,-18.7875,-36.581253,-16.518751,0.19860606,0.14581446,0.67654294,1001.16144,37.88748412,127.73737386,170.670654296875,0.0
2026-03-20 17:53:42.306,0.76570326,5.2163534,6.8721867,0.37659815,0.13423753,-0.1791361,-18.75,-36.45,-16.35,0.2013255,0.14986153,0.6746148,1001.16144, , , , 
2026-03-20 17:53:42.326,0.5407779,5.4891353,6.8721867,0.33750278,0.15012002,-0.14737113,-18.69375,-36.45,-16.1625,0.20276333,0.15374646,0.67315924,1001.16144, , , , 
2026-03-20 17:53:42.346,-0.06699903,5.814559,7.5230346,0.1933387,0.13668099,-0.00320704,-18.5625,-36.693752,-15.993751,0.20346919,0.15693794,0.67245907,1001.1515, , , , 
2026-03-20 17:53:42.366,0.57427746,5.74756,8.49452,0.0980438,0.082924895,0.12873976,-18.45,-37.162502,-15.76875,0.20389813,0.1584118,0.67292213,1001.1515, , , , 
2026-03-20 17:53:42.386,0.72741807,5.7379885,8.848659,0.13469568,0.09269873,0.17883067,-18.393751,-37.55625,-15.468751,0.20428103,0.1596285,0.6740136,1001.1515, , , , 
2026-03-20 17:53:42.406,0.5455636,6.1447687,9.389436,0.1188132,-0.0050396346,0.28512114,-18.13125,-37.78125,-15.187501,0.20527202,0.16040231,0.675461,1001.1515, , , , 
2026-03-20 17:53:42.426,1.4452649,6.0011992,9.236296,0.1310305,-0.12476913,0.3901899,-18.0,-37.85625,-14.925,0.20731257,0.1600508,0.6774992,1001.1389, , , , 
2026-03-20 17:53:42.446,2.9958138,6.1591253,7.8436728,-0.097432934,0.042607818,0.2008218,-18.0,-37.706253,-14.718751,0.20894744,0.15917112,0.6795143,1001.1389, , , , 
2026-03-20 17:53:42.466,1.3351951,6.029913,9.355937,-0.48594293,0.25885394,-0.026419902,-18.112501,-37.518753,-14.625001,0.20615578,0.15803675,0.6808706,1001.1389, , , , 
2026-03-20 17:53:42.486,-0.57427746,5.8097734,12.155539,-0.45784315,0.3394881,-0.03008509,-18.35625,-37.3125,-14.587501,0.2004252,0.15677013,0.6819655,1001.1389, , , , 
2026-03-20 17:53:42.506,-0.59342,5.4029937,13.24188,-0.13530655,0.3272708,0.061544627,-18.487501,-37.0875,-14.700001,0.19593596,0.1570207,0.6832777,1001.136, , , , 
2026-03-20 17:53:42.526,-0.6221339,4.871787,13.328022,0.29840744,0.16355905,0.10430516,-18.431252,-36.862503,-14.906251,0.1946607,0.15861289,0.68405354,1001.136, , , , 
2026-03-20 17:53:42.546,-0.023928227,4.398008,11.227124,0.5732966,-0.21151192,0.11041381,-18.31875,-36.61875,-15.1125,0.19826971,0.16198681,0.68416893,1001.136, , , , 
2026-03-20 17:53:42.566,0.89013004,3.8285162,9.150154,0.607505,-0.38499752,0.037110034,-18.300001,-36.45,-15.262501,0.20455608,0.1636704,0.6831598,1001.136, , , , 
2026-03-20 17:53:42.586,1.3304094,3.737589,7.068398,0.42913252,-0.37033677,-0.08261946,-18.300001,-36.375,-15.20625,0.21072708,0.1646688,0.68132985,1001.14575, , , , 
2026-03-20 17:53:42.606,1.2107682,3.8668015,6.762117,0.06383537,-0.34834564,-0.1791361,-18.393751,-36.487503,-14.812501,0.2146496,0.16398133,0.6792487,1001.14575, , , , 
2026-03-20 17:53:42.626,0.26799613,4.1778684,7.6426754,0.017409647,-0.11988221,-0.12782346,-18.5625,-36.73125,-14.343751,0.21615753,0.16268714,0.6775291,1001.14575, , , , 
2026-03-20 17:53:42.646,-0.79441714,4.45065,7.30768,0.13713914,0.17455462,0.10308343,-18.675001,-36.956253,-13.875001,0.21634509,0.1636154,0.6773046,1001.14575, , , , 
2026-03-20 17:53:42.666,-0.52163535,4.508078,6.5228343,0.094378605,0.2612974,0.46349365,-18.7875,-37.237503,-13.556251,0.21593748,0.16580947,0.6795564,1001.15063, , , , 
2026-03-20 17:53:42.686,0.971486,3.9577286,6.1208405,-0.10354158,-0.0013744457,0.5233584,-18.806252,-37.3875,-13.51875,0.21578705,0.16581883,0.68338925,1001.15063, , , , 
2026-03-20 17:53:42.706,1.9094725,3.6610186,6.2787666,-0.1915061,-0.20784675,0.3168861,-18.7875,-37.48125,-13.575001,0.21635385,0.16284299,0.6863323,1001.15063, , , , 
2026-03-20 17:53:42.726,1.875973,3.7040894,6.2691956,-0.091324285,-0.077121675,0.034666575,-18.993752,-37.331253,-13.725,0.21679255,0.16026652,0.6873905,1001.15063, , , , 
2026-03-20 17:53:42.746,0.67477596,4.0869412,6.202196,0.010079269,0.09880738,-0.13515383,-19.25625,-37.050003,-13.856251,0.21634746,0.16029407,0.68702406,1001.1536, , , , 
2026-03-20 17:53:42.766,0.8327023,4.2831526,6.6759753,0.13469568,0.1122464,-0.13515383,-19.425001,-36.73125,-13.875001,0.21561882,0.16181073,0.6863779,1001.1536, , , , 
2026-03-20 17:53:42.786,0.5838487,4.3740797,5.9581285,0.0980438,-0.08811724,-0.19746204,-19.743752,-36.487503,-13.950001,0.21616672,0.16323453,0.685018,1001.1536, , , , 
2026-03-20 17:53:42.806,-0.19142582,5.3216376,6.259624,-0.01924224,-0.24205516,-0.13026692,-19.800001,-36.43125,-13.9125,0.21738127,0.16278991,0.6833315,1001.1536, , , , 
2026-03-20 17:53:42.826,-0.11485548,5.4987063,7.164111,-0.021685699,-0.18829907,0.021227552,-19.66875,-36.45,-13.70625,0.21867068,0.16112918,0.68248194,1001.15106, , , , 
2026-03-20 17:53:42.846,0.4354937,5.3359947,7.7383885,0.19211698,0.03527744,0.032223117,-19.743752,-36.6375,-13.687501,0.21980835,0.16101298,0.68241566,1001.15106, , , , 
2026-03-20 17:53:42.866,-0.06699903,5.852844,7.8197446,0.34361145,0.07192933,0.027336199,-19.59375,-36.65625,-13.743751,0.22117299,0.16356991,0.68226415,1001.15106, , , , 
2026-03-20 17:53:42.886,0.52163535,6.384051,7.757531,0.3167334,-0.21884231,0.039553493,-19.5,-36.693752,-13.725,0.22409494,0.16543591,0.68178105,1001.15106, , , , 
2026-03-20 17:53:42.906,0.90448695,6.9296145,7.5469627,0.20189081,-0.3923279,-0.00320704,-19.462502,-36.75,-13.725,0.22835442,0.1649265,0.6806355,1001.1438, , , , 
2026-03-20 17:53:42.926,0.90448695,7.2550383,6.838687,0.074830934,-0.19929464,-0.008093959,-19.40625,-36.787502,-13.575001,0.23173082,0.16392104,0.67953885,1001.1438, , , , 
2026-03-20 17:53:42.946,0.076570325,7.479964,6.8195443,-0.24159703,0.18310672,0.07620538,-19.5,-36.9,-13.462501,0.23156126,0.16350013,0.6796892,1001.1438, , , , 
2026-03-20 17:53:42.966,-0.014356935,7.4273214,9.288938,-0.56413364,0.3846921,0.21548255,-19.44375,-37.0125,-13.35,0.22680882,0.16267091,0.6821001,1001.1438, , , , 
2026-03-20 17:53:42.986,1.3447664,7.0301127,12.107682,-0.5067123,0.018173227,0.14217877,-19.650002,-37.18125,-13.275001,0.22259033,0.16082503,0.68440986,1001.14044, , , , 
2026-03-20 17:53:43.006,2.158326,6.9535427,11.542976,-0.35033095,-0.310472,-0.0594066,-19.931252,-37.18125,-13.44375,0.2199851,0.15578395,0.6855859,1001.14044, , , , 
2026-03-20 17:53:43.026,1.8185452,6.7812595,11.696117,-0.23304491,-0.29458955,-0.17302746,-19.95,-37.2,-13.650001,0.22002612,0.15175962,0.68447495,1001.14044, , , , 
2026-03-20 17:53:43.046,1.7371893,5.666204,11.174481,0.03329213,-0.090560704,-0.1461494,-19.96875,-37.0875,-13.9875,0.22053595,0.15002303,0.6831004,1001.14044, , , , 
2026-03-20 17:53:43.066,2.2301106,4.345366,9.992428,0.19700389,0.16966769,-0.1632536,-19.837502,-36.787502,-14.512501,0.22080629,0.15154245,0.6820731,1001.1445, , , , 
2026-03-20 17:53:43.086,2.6416762,3.4887354,9.159725,0.19822562,0.095142186,-0.274431,-19.800001,-36.693752,-14.775001,0.22080235,0.15427276,0.6807426,1001.1445, , , , 
2026-03-20 17:53:43.106,2.0338993,3.7423747,8.4705925,0.13469568,-0.066126116,-0.43447757,-20.025002,-36.600002,-14.681251,0.22134379,0.15599221,0.6780968,1001.1445, , , , 
2026-03-20 17:53:43.126,1.1246266,4.4841495,7.52782,0.08460477,0.012064579,-0.46013388,-20.212502,-36.5625,-14.45625,0.22173737,0.15731654,0.6747109,1001.1445, , , , 
2026-03-20 17:53:43.146,-0.148355,5.1206403,7.216753,-0.0962112,0.2771799,-0.2952004,-20.175001,-36.54375,-14.137501,0.22017886,0.15926486,0.6723004,1001.15125, , , , 
2026-03-20 17:53:43.166,-0.85184485,4.895715,7.905886,-0.2611447,0.3394881,-0.016646065,-19.987501,-36.45,-13.9875,0.21639782,0.16079386,0.67213416,1001.15125, , , , 
2026-03-20 17:53:43.186,-0.043070808,4.0869412,8.178668,-0.32467464,0.17088942,0.18616104,-19.462502,-36.45,-14.137501,0.2125701,0.16043498,0.6739102,1001.15125, , , , 
2026-03-20 17:53:43.206,0.8470592,3.7758741,7.5900335,-0.25503606,-0.0013744457,0.15439607,-18.862501,-36.506252,-14.437501,0.2103262,0.1584698,0.6758029,1001.15125, , , , 
2026-03-20 17:53:43.226,0.82313097,3.9338005,6.8913293,-0.14630212,0.04138609,0.05299252,-18.581251,-36.43125,-14.75625,0.20909525,0.15686522,0.6768665,1001.16315, , , , 
2026-03-20 17:53:43.246,0.124426775,4.254439,7.0492554,-0.0021380268,0.18310672,0.043218683,-18.393751,-36.3375,-15.093751,0.20788813,0.15698056,0.6774634,1001.16315, , , , 
2026-03-20 17:53:43.266,0.21535404,4.1491547,7.4129643,0.22143848,0.32482734,0.07742711,-18.393751,-36.225002,-15.31875,0.20689382,0.15945177,0.67828006,1001.16315, , , , 
2026-03-20 17:53:43.286,0.06699903,4.278367,6.6711893,0.33261588,0.23075417,0.09086613,-18.54375,-36.2625,-15.4875,0.20711815,0.16335571,0.6789337,1001.16315,37.88747068,127.73739318,170.8837890625,1.79
2026-03-20 17:53:43.306,0.5407779,4.345366,6.5850477,0.25442517,0.016951498,0.1434005,-18.6,-36.393753,-15.50625,0.20846704,0.16602644,0.67954665,1001.1644, , , , 
2026-03-20 17:53:43.326,1.3256238,4.3262234,6.474978,0.22021675,-0.15042545,0.073761925,-18.768751,-36.54375,-15.4125,0.21083489,0.1668095,0.67982185,1001.1644, , , , 
2026-03-20 17:53:43.346,1.2442678,4.4841495,6.1064835,0.26175556,-0.077121675,-0.0716239,-18.862501,-36.6375,-15.4125,0.21349174,0.16749108,0.6791232,1001.1644, , , , 
2026-03-20 17:53:43.366,0.2536392,5.0009995,6.6759753,0.2886336,0.18188499,-0.0716239,-18.862501,-36.487503,-15.31875,0.21485348,0.16998707,0.6781815,1001.1644, , , , 
2026-03-20 17:53:43.386,0.24885355,5.2546387,7.274181,0.33628106,0.3016145,0.114079,-18.73125,-36.412502,-15.20625,0.2152411,0.17413744,0.6783473,1001.1557, , , , 
2026-03-20 17:53:43.406,0.7322037,5.2498527,7.728817,0.23121232,0.17088942,0.18616104,-18.4125,-36.525,-15.075001,0.2159081,0.1774487,0.67939675,1001.1557, , , , 
2026-03-20 17:53:43.426,0.9906286,5.3216376,8.34138,0.1432478,0.056046844,0.1800524,-18.2625,-36.675003,-14.94375,0.21674491,0.17900687,0.68058884,1001.1557, , , , 
2026-03-20 17:53:43.446,1.0624132,5.5800624,7.8580294,-0.038789913,-0.13209951,0.16172644,-18.1875,-36.91875,-14.812501,0.21789107,0.17886004,0.68151283,1001.1557, , , , 
2026-03-20 17:53:43.466,0.94277215,6.058627,8.973084,-0.2953531,-0.066126116,0.23869541,-18.16875,-37.162502,-14.7375,0.21796346,0.17645583,0.68282145,1001.15125, , , , 
2026-03-20 17:53:43.486,0.7752745,5.8241305,9.7196455,-0.36743516,0.2600757,0.34376416,-18.2625,-37.40625,-14.7375,0.21578199,0.17403305,0.68552035,1001.15125, , , , 
2026-03-20 17:53:43.506,0.08135597,5.4699926,11.030912,-0.61055934,0.5508473,0.41951138,-18.375,-37.48125,-14.55,0.2100902,0.17286517,0.68990326,1001.15125, , , , 
2026-03-20 17:53:43.526,-0.18185452,4.551149,13.710874,-0.7571669,0.3272708,0.4659371,-18.487501,-37.3125,-14.531251,0.20441012,0.17099838,0.6938556,1001.15125, , , , 
2026-03-20 17:53:43.546,0.65084773,3.5318062,15.548561,-0.3979784,-0.10766492,0.32177302,-18.806252,-37.0125,-14.775001,0.19829567,0.16514593,0.69919723,1001.1498, , , , 
2026-03-20 17:53:43.566,0.9284152,3.2350962,13.663017,0.24953826,-0.19196425,0.039553493,-19.050001,-36.46875,-15.1125,0.19898473,0.162756,0.70032555,1001.1498, , , , 
2026-03-20 17:53:43.586,-0.33499518,4.048656,9.71486,0.49632764,-0.05146536,-0.07040217,-19.275002,-35.8875,-15.712501,0.20244682,0.1649045,0.6991237,1001.1498, , , , 
2026-03-20 17:53:43.606,-0.8327023,4.575077,7.111469,0.1310305,-0.020922119,0.13240494,-19.743752,-35.662502,-16.143751,0.20485067,0.1672911,0.69855833,1001.1498, , , , 
2026-03-20 17:53:43.626,0.15792629,4.024728,7.2119675,-0.30390522,-0.030695954,0.29489496,-20.1,-35.5875,-16.237501,0.20477946,0.16605568,0.70013195,1001.1564, , , , 
2026-03-20 17:53:43.646,1.2729816,3.2350962,7.5756764,-0.47861254,-0.008704823,0.21792601,-20.41875,-35.643753,-16.21875,0.20265444,0.16240673,0.7026128,1001.1564, , , , 
2026-03-20 17:53:43.666,0.9284152,3.0963125,8.130812,-0.42119128,-0.0013744457,-0.006872229,-20.71875,-35.850002,-16.10625,0.19973089,0.15872602,0.70405215,1001.1564, , , , 
2026-03-20 17:53:43.686,-0.15314065,3.7950168,8.082955,-0.08643737,0.013286309,0.017562363,-20.775002,-35.90625,-16.2,0.1977943,0.15690987,0.7043376,1001.1564, , , , 
2026-03-20 17:53:43.706,0.7178468,3.8237305,5.6709895,0.028405212,0.024281874,0.084757484,-20.71875,-35.737503,-16.425001,0.19778094,0.15687482,0.70475703,1001.1634, , , , 
2026-03-20 17:53:43.726,0.8662018,4.197011,5.436493,-0.123089254,0.057268575,0.07864884,-20.5125,-35.568752,-16.725,0.19740552,0.15677102,0.7054107,1001.1634, , , , 
2026-03-20 17:53:43.746,1.5888343,4.019942,6.5276203,-0.16340633,-0.044134982,0.0065667965,-20.4375,-35.4,-16.96875,0.19640943,0.15561959,0.70605254,1001.1634, , , , 
2026-03-20 17:53:43.766,1.875973,4.082155,6.5659056,-0.029016078,-0.10644319,-0.19013166,-20.625,-35.23125,-17.1375,0.19638002,0.15437825,0.7054096,1001.1634, , , , 
2026-03-20 17:53:43.786,0.9092726,4.551149,6.7238317,0.08949169,-0.060017463,-0.35017824,-20.775002,-35.25,-17.175001,0.19687293,0.15447402,0.7033457,1001.16425, , , , 
2026-03-20 17:53:43.806,-0.1052842,5.508278,6.63769,0.160352,0.091477,-0.24633121,-20.925001,-35.381252,-17.1375,0.19733958,0.15617754,0.70101005,1001.16425, , , , 
2026-03-20 17:53:43.826,0.71306115,5.3886366,7.8628154,0.11759147,0.19165882,-0.12293654,-20.8125,-35.456253,-17.15625,0.19689739,0.15868337,0.6999948,1001.16425, , , , 
2026-03-20 17:53:43.846,1.3543376,5.15414,8.647661,0.25198174,0.018173227,-0.30130905,-20.475,-35.53125,-17.1375,0.19702384,0.16099052,0.6986299,1001.16425, , , , 
2026-03-20 17:53:43.866,0.25842485,5.7667027,7.9633136,0.3741547,-0.07834341,-0.4308124,-20.268751,-35.4375,-17.15625,0.19884413,0.16378467,0.695485,1001.161, , , , 
2026-03-20 17:53:43.886,-0.94277215,6.5659056,8.030313,0.3265072,-0.11133011,-0.2952004,-20.1375,-35.287502,-17.175001,0.201373,0.16652404,0.69206256,1001.161, , , , 
2026-03-20 17:53:43.906,0.12921242,6.3696938,9.073584,0.29840744,-0.1357647,-0.06918044,-19.893751,-35.325,-17.1375,0.20397027,0.16827714,0.69020444,1001.161, , , , 
2026-03-20 17:53:43.926,1.3112668,5.910272,8.652447,0.33261588,-0.13698642,-0.12049308,-19.725,-35.456253,-17.025002,0.20712385,0.1696775,0.68884426,1001.161, , , , 
2026-03-20 17:53:43.946,0.4833502,5.8863435,8.19781,0.15913028,0.0059559317,-0.23777911,-19.66875,-35.71875,-16.837502,0.2092367,0.17144336,0.6869563,1001.1536, , , , 
2026-03-20 17:53:43.966,-0.10049855,6.398408,10.346565,-0.010690134,-0.03924806,-0.1876882,-19.462502,-36.018753,-16.5375,0.20905207,0.17241523,0.6853837,1001.1536, , , , 
2026-03-20 17:53:43.986,0.7848458,6.4941206,9.925428,-0.109650224,-0.30558512,-0.1339321,-19.368752,-36.2625,-16.143751,0.20971455,0.17117153,0.6840452,1001.1536, , , , 
2026-03-20 17:53:44.006,1.8568304,6.3218374,9.9015,-0.27458373,-0.43508843,-0.1876882,-19.29375,-36.35625,-15.88125,0.21058749,0.16846456,0.68291825,1001.1536, , , , 
2026-03-20 17:53:44.026,1.9573289,5.6327047,10.537991,-0.22204934,-0.23350306,-0.27320927,-19.143751,-36.318752,-15.712501,0.21113247,0.1634168,0.6805954,1001.1449, , , , 
2026-03-20 17:53:44.046,1.6079768,4.9196434,10.547563,0.014966187,0.12202024,-0.31230462,-19.10625,-36.393753,-15.50625,0.21027865,0.16290247,0.67868507,1001.1449, , , , 
2026-03-20 17:53:44.066,0.91884387,4.6372905,9.475577,0.051618073,0.23319763,-0.30130905,-18.956251,-36.43125,-15.431251,0.20875043,0.16528049,0.6769004,1001.1449, , , , 
2026-03-20 17:53:44.086,0.4211368,4.388437,8.953942,-0.14019346,0.18066326,-0.20112723,-18.581251,-36.525,-15.431251,0.20658529,0.16694148,0.6756704,1001.1449, , , , 
2026-03-20 17:53:44.106,0.7800602,4.0438704,9.241081,-0.30024004,0.17333288,-0.13271037,-18.150002,-36.80625,-15.450001,0.20434119,0.16699794,0.6753813,1001.1466, , , , 
2026-03-20 17:53:44.126,0.49292147,4.1635113,9.571291,-0.40408704,0.15378521,-0.17791437,-17.868752,-36.825,-15.712501,0.19949158,0.16570207,0.6752761,1001.1466, , , , 
2026-03-20 17:53:44.146,0.019142581,4.125226,9.68136,-0.39675668,0.051159926,-0.16569707,-17.737501,-36.75,-16.03125,0.19555505,0.16393358,0.67498606,1001.1466, , , , 
2026-03-20 17:53:44.166,0.13399807,3.8668015,9.035298,-0.24281874,-0.14553854,-0.16203189,-17.625,-36.7125,-16.331251,0.19321708,0.1616421,0.67434055,1001.1466, , , , 
2026-03-20 17:53:44.186,0.45942193,3.751946,7.618747,0.00763581,-0.26282457,-0.20112723,-17.56875,-36.5625,-16.6875,0.19346109,0.15959385,0.67290264,1001.15106, , , , 
2026-03-20 17:53:44.206,0.46899325,3.8476589,5.5274205,0.19822562,-0.12232567,-0.24266604,-17.5125,-36.581253,-17.04375,0.1953712,0.1593964,0.6707324,1001.15106, , , , 
2026-03-20 17:53:44.226,-0.148355,4.249653,5.0344987,0.17623448,0.07192933,-0.18524474,-17.456251,-36.693752,-17.306252,0.1965299,0.16119398,0.6687618,1001.15106, , , , 
2026-03-20 17:53:44.246,0.033499517,4.359723,5.087141,0.054061532,0.08536835,-0.054519683,-17.493752,-36.825,-17.34375,0.19669798,0.16302747,0.6678437,1001.15106, , , , 
2026-03-20 17:53:44.266,-0.2009971,4.345366,6.3122663,-0.029016078,0.06093376,0.034666575,-17.362501,-37.03125,-17.23125,0.19634375,0.16353187,0.66783077,1001.1498, , , , 
2026-03-20 17:53:44.286,0.39720857,4.082155,7.556534,0.12125666,0.0707076,0.12996148,-16.95,-37.256252,-16.987501,0.19619206,0.16419561,0.6685854,1001.1498,37.88746038,127.73740135,170.97698974609375,1.66
2026-03-20 17:53:44.306,1.7324036,3.952943,7.2693954,0.26542073,-0.10522146,0.029779658,-16.650002,-37.350002,-16.743752,0.19788677,0.16525093,0.66895705,1001.1498, , , , 
2026-03-20 17:53:44.326,2.062613,4.0390844,6.6041903,0.30573782,-0.20784675,-0.1962403,-16.48125,-37.29375,-16.66875,0.20021074,0.16582859,0.6681111,1001.1498, , , , 
2026-03-20 17:53:44.346,0.29192436,4.895715,6.546763,0.24831653,0.015729768,-0.35017824,-16.48125,-37.2,-16.706251,0.20334417,0.1676954,0.6646884,1001.14594, , , , 
2026-03-20 17:53:44.366,-0.85184485,5.532206,7.4033933,0.23854269,0.2942841,-0.08872811,-16.5375,-37.143753,-16.66875,0.20350729,0.17108785,0.6629448,1001.14594, , , , 
2026-03-20 17:53:44.386,-0.19142582,5.1924253,7.628319,0.08704823,0.27595815,0.1556178,-16.3875,-37.237503,-16.5375,0.20296371,0.17382479,0.66334057,1001.14594, , , , 
2026-03-20 17:53:44.406,-0.09092726,5.005785,9.269794,-0.10354158,0.013286309,0.23991714,-16.181252,-37.443752,-16.462502,0.2019145,0.17481114,0.6654889,1001.14594, , , , 
2026-03-20 17:53:44.426,0.8853444,4.6468616,10.734202,-0.040011644,-0.21517712,0.19226968,-16.050001,-37.612503,-16.35,0.20233642,0.17294317,0.66709346,1001.137, , , , 
2026-03-20 17:53:44.446,0.9619147,5.1349974,10.906486,0.047952887,-0.17852524,0.0151189035,-16.087502,-37.575,-16.29375,0.20398982,0.17109953,0.6673155,1001.137, , , , 
2026-03-20 17:53:44.466,0.37328035,5.790631,10.710274,0.14202607,0.09392046,-0.03252855,-16.3125,-37.36875,-16.368752,0.20498385,0.17141972,0.66689235,1001.137, , , , 
2026-03-20 17:53:44.486,-0.6987042,5.905486,11.155339,0.018631376,0.24174973,0.05054906,-16.5,-37.143753,-16.237501,0.20422947,0.1734011,0.66712177,1001.137, , , , 
2026-03-20 17:53:44.506,-1.0145568,5.6470613,11.12184,-0.1499673,0.046273008,0.20326525,-16.6875,-36.975002,-15.95625,0.2028805,0.17383647,0.6683837,1001.13763, , , , 
2026-03-20 17:53:44.526,-0.63170516,4.9770713,11.5621195,-0.2525926,-0.18219042,0.30711228,-16.9125,-37.068752,-15.937501,0.2021639,0.17126395,0.6704653,1001.13763, , , , 
2026-03-20 17:53:44.546,-0.45942193,4.493721,11.389835,-0.109650224,-0.20295982,0.36819875,-17.04375,-37.36875,-15.975,0.20260473,0.16769439,0.672731,1001.13763, , , , 
2026-03-20 17:53:44.566,-0.009571291,4.1635113,9.891929,0.013744458,0.008399391,0.36819875,-17.23125,-37.575,-15.993751,0.20356806,0.16581433,0.6751704,1001.13763, , , , 
2026-03-20 17:53:44.586,-0.086141616,4.0677986,9.226724,-0.057115857,0.18066326,0.3376555,-17.41875,-37.612503,-16.181252,0.20321298,0.1657044,0.6778583,1001.1528, , , , 
2026-03-20 17:53:44.606,-0.014356935,3.8955152,9.040084,-0.1621846,0.13912445,0.34742934,-17.56875,-37.518753,-16.21875,0.20169659,0.1653984,0.68077236,1001.1528, , , , 
2026-03-20 17:53:44.626,0.41156548,3.5653057,8.403593,-0.2196059,0.069485866,0.30955574,-17.71875,-37.331253,-16.1625,0.20016609,0.16391152,0.68358815,1001.1528, , , , 
2026-03-20 17:53:44.646,0.60777694,3.4408789,7.7910304,-0.16829325,0.12324197,0.21303909,-18.0375,-37.125,-16.35,0.1985547,0.16256051,0.6859251,1001.1528, , , , 
2026-03-20 17:53:44.666,0.3589234,3.5557344,7.092326,-0.07055488,0.18310672,0.1385136,-18.35625,-36.975002,-16.575,0.19687639,0.1624751,0.6876057,1001.1604, , , , 
2026-03-20 17:53:44.686,0.34456646,3.7663028,6.3792653,-0.098654665,0.09880738,0.116522454,-18.525002,-36.65625,-16.66875,0.1954826,0.16276447,0.6888914,1001.1604, , , , 
2026-03-20 17:53:44.706,-0.2440679,4.15394,6.0107703,-0.22937973,-0.16752967,0.19471315,-18.825,-36.393753,-16.743752,0.19490255,0.16117714,0.6900063,1001.1604, , , , 
2026-03-20 17:53:44.726,0.33020952,4.034299,6.1447687,-0.30757043,-0.31902415,0.34742934,-18.9375,-36.28125,-16.800001,0.19522548,0.15708005,0.69178766,1001.1604, , , , 
2026-03-20 17:53:44.746,1.6845472,3.603591,7.0396843,-0.19394957,-0.14065161,0.30711228,-18.956251,-36.112503,-16.96875,0.19571568,0.15276772,0.69407225,1001.1638, , , , 
2026-03-20 17:53:44.766,1.8041883,3.7615173,7.2789664,0.11759147,0.095142186,0.08353576,-19.25625,-35.90625,-17.34375,0.19590674,0.15209001,0.69543475,1001.1638, , , , 
2026-03-20 17:53:44.786,0.7752745,4.6612186,6.393622,0.22388195,0.095142186,-0.08628465,-19.575,-35.737503,-17.60625,0.19647327,0.15435503,0.6952107,1001.1638, , , , 
2026-03-20 17:53:44.806,0.3589234,5.2259245,6.364908,0.09560034,-0.10522146,-0.08261946,-19.706251,-35.49375,-17.550001,0.197493,0.15584666,0.69431174,1001.1638, , , , 
2026-03-20 17:53:44.826,0.8997013,5.3647084,6.3122663,-0.037568185,-0.26526803,-0.07651082,-19.81875,-35.5125,-17.34375,0.19910507,0.15487276,0.6933327,1001.157, , , , 
2026-03-20 17:53:44.847,1.4596218,5.2977095,7.350751,-0.009468404,-0.110108376,-0.23411393,-19.743752,-35.737503,-17.118752,0.20013238,0.15343408,0.69203,1001.157, , , , 
2026-03-20 17:53:44.866,0.59342,5.6949177,7.9346,0.160352,0.095142186,-0.468686,-19.650002,-35.79375,-16.931252,0.20031324,0.15451619,0.68950844,1001.157, , , , 
2026-03-20 17:53:44.886,-1.4404793,6.63769,8.5423765,0.27030766,0.17333288,-0.35995206,-19.66875,-35.756252,-17.025002,0.20013711,0.15817983,0.6863498,1001.157, , , , 
2026-03-20 17:53:44.906,-1.1389836,6.6759753,8.283952,0.1725693,0.03649917,-0.081397735,-19.518751,-35.643753,-17.25,0.20067696,0.16122636,0.6846777,1001.1483, , , , 
2026-03-20 17:53:44.926,-0.6891329,6.4271216,9.040084,-0.07055488,0.082924895,0.10674862,-19.29375,-35.68125,-17.41875,0.2007549,0.16185184,0.68480855,1001.1483, , , , 
2026-03-20 17:53:44.946,0.009571291,6.2931237,10.447063,-0.24648394,0.17333288,0.19104797,-18.993752,-35.943752,-17.456251,0.19886658,0.1615686,0.6864619,1001.1483, , , , 
2026-03-20 17:53:44.966,0.2105684,6.4414787,11.217552,-0.4517345,-0.024587307,0.19226968,-18.7875,-36.112503,-17.325,0.1962113,0.15946865,0.68848383,1001.1483, , , , 
2026-03-20 17:53:44.986,0.3397808,6.570691,12.60539,-0.5348121,-0.13209951,0.22769985,-18.84375,-35.98125,-17.118752,0.1936602,0.15481903,0.6904953,1001.14, , , , 
2026-03-20 17:53:45.007,1.3064811,5.608776,13.194024,-0.2122755,0.06093376,0.21548255,-19.237501,-35.49375,-17.0625,0.19159316,0.15099764,0.69267905,1001.14, , , , 
2026-03-20 17:53:45.026,1.4644074,4.9052863,12.117254,0.016187917,0.09636392,0.1434005,-19.35,-35.25,-17.19375,0.1904634,0.15039484,0.6943185,1001.14, , , , 
2026-03-20 17:53:45.046,1.6654046,4.2592244,10.71506,0.03573559,-0.16264275,0.05177079,-19.518751,-34.93125,-17.625,0.19096532,0.150196,0.6949199,1001.14, , , , 
2026-03-20 17:53:45.066,2.6608188,3.8285162,9.533006,0.044287696,-0.27992877,-0.081397735,-19.743752,-34.893753,-18.0375,0.19300495,0.14849064,0.6943608,1001.1419, , , , 
2026-03-20 17:53:45.086,2.7852457,3.8141594,8.480164,0.1273653,0.06704241,-0.35384342,-19.837502,-34.96875,-18.2625,0.1942649,0.14839149,0.692593,1001.1419, , , , 
2026-03-20 17:53:45.106,1.1294123,4.091727,8.336594,0.14446951,0.32482734,-0.46135563,-19.81875,-35.04375,-18.431252,0.1931761,0.15152721,0.6899332,1001.1419, , , , 
2026-03-20 17:53:45.126,0.4546363,3.952943,8.1738825,0.068722285,0.24174973,-0.38072148,-19.612501,-35.11875,-18.4125,0.19117849,0.15519375,0.68746364,1001.1419, , , , 
2026-03-20 17:53:45.146,0.5312066,3.6370904,7.8628154,-0.022907428,0.023060145,-0.3245219,-19.21875,-35.100002,-18.35625,0.18990076,0.15674803,0.6853076,1001.1462, , , , 
2026-03-20 17:53:45.167,0.45942193,3.4743786,7.6713896,-0.004581486,0.0035124724,-0.2988656,-18.73125,-35.175003,-18.2625,0.18927199,0.15696745,0.68320435,1001.1462, , , , 
2026-03-20 17:53:45.186,0.3493521,3.8620157,7.446464,0.06750056,0.06093376,-0.22800528,-18.618752,-35.23125,-18.243752,0.18878819,0.15788324,0.6813535,1001.1462, , , , 
2026-03-20 17:53:45.206,0.41635114,3.9146578,7.140183,0.045509428,-0.030695954,-0.16936226,-18.4125,-35.34375,-18.375,0.18873931,0.1588605,0.6799673,1001.1462, , , , 
2026-03-20 17:53:45.226,0.19142582,3.9242291,7.1976104,0.05650499,-0.14798199,-0.11071924,-18.243752,-35.643753,-18.393751,0.18947814,0.15872936,0.6787422,1001.15594, , , , 
2026-03-20 17:53:45.246,-0.09092726,3.9098723,6.977471,0.14935644,-0.052687086,-0.03619374,-17.85,-35.737503,-18.45,0.19088374,0.15872128,0.67782503,1001.15594, , , , 
2026-03-20 17:53:45.266,0.08135597,3.9768713,7.288538,0.24342962,0.07925971,0.07864884,-17.493752,-35.68125,-18.45,0.19208449,0.16021065,0.67769015,1001.15594, , , , 
2026-03-20 17:53:45.286,0.8135597,3.804588,7.207182,0.2764163,-0.090560704,0.046883874,-17.34375,-35.79375,-18.375,0.1939102,0.16199127,0.67784494,1001.15594,37.88745033,127.73741116,171.0452880859375,1.51
2026-03-20 17:53:45.306,0.82313097,4.024728,6.690332,0.29840744,-0.28237224,-0.09850194,-17.2875,-35.9625,-18.375,0.19732417,0.16242538,0.6767503,1001.15656, , , , 
2026-03-20 17:53:45.327,-0.4546363,4.5128636,6.704689,0.43768463,0.014508039,-0.10216714,-17.53125,-36.24375,-18.225,0.20081855,0.16384566,0.67493445,1001.15656, , , , 
2026-03-20 17:53:45.346,-1.0193424,4.8526444,6.652047,0.42302385,0.18066326,0.114079,-17.60625,-36.28125,-18.056252,0.20313963,0.16775005,0.67422163,1001.15656, , , , 
2026-03-20 17:53:45.366,0.35413775,4.3357944,7.0205417,0.26053384,-0.07589995,0.25702137,-17.681252,-36.487503,-17.587502,0.20532091,0.17022248,0.67522264,1001.15656, , , , 
2026-03-20 17:53:45.386,1.4644074,4.0965123,7.5900335,0.18112141,-0.28359398,0.159283,-17.868752,-36.600002,-16.95,0.20855394,0.16962686,0.6759387,1001.1508, , , , 
2026-03-20 17:53:45.406,1.4404793,4.752146,7.2933235,0.21532984,-0.22861615,-0.0044287695,-18.0375,-36.768753,-16.425001,0.21203145,0.16895981,0.6754908,1001.1508, , , , 
2026-03-20 17:53:45.426,0.6556334,5.7762737,6.977471,0.025961753,-0.11377356,0.043218683,-18.28125,-37.050003,-16.125,0.21428248,0.16874789,0.6748475,1001.1508, , , , 
2026-03-20 17:53:45.446,0.61734825,6.096912,7.628319,-0.28069237,-0.08689552,0.21426082,-18.6,-37.256252,-15.88125,0.21429834,0.16704759,0.6757509,1001.1508, , , , 
2026-03-20 17:53:45.466,0.64606214,5.733203,8.432307,-0.5421425,-0.07345649,0.38408124,-18.73125,-37.3125,-15.937501,0.21256573,0.16298643,0.6783512,1001.1489, , , , 
2026-03-20 17:53:45.486,0.57906306,4.5894337,10.671989,-0.8854485,0.07192933,0.44638944,-18.75,-37.275,-16.125,0.20822176,0.15722467,0.68247384,1001.1489, , , , 
2026-03-20 17:53:45.506,0.21535404,3.804588,14.323437,-0.8817833,-0.034361143,0.40485063,-18.88125,-37.10625,-16.35,0.20207061,0.15012255,0.68697995,1001.1489, , , , 
2026-03-20 17:53:45.526,0.31585258,3.5270207,15.337994,-0.36376998,-0.12232567,0.29000807,-18.91875,-36.84375,-16.66875,0.1985219,0.14412175,0.69020104,1001.1489, , , , 
2026-03-20 17:53:45.546,0.57427746,3.5605202,12.734602,0.120034926,-0.060017463,0.10919208,-18.993752,-36.5625,-17.00625,0.19865394,0.14242186,0.6915047,1001.1498, , , , 
2026-03-20 17:53:45.566,0.2632105,3.7998023,9.571291,0.23121232,-0.0490219,-0.047189303,-19.2,-36.206253,-17.306252,0.20030987,0.14350873,0.69126016,1001.1498, , , , 
2026-03-20 17:53:45.586,-0.7082755,4.3070807,7.9680996,-0.04734202,-0.11499529,0.012675445,-19.40625,-35.775,-17.60625,0.20142253,0.14393964,0.69065905,1001.1498, , , , 
2026-03-20 17:53:45.606,0.07178468,4.0438704,7.2502527,-0.43340856,-0.22739442,0.18249585,-19.78125,-35.49375,-17.8875,0.2011084,0.1409061,0.6913579,1001.1498, , , , 
2026-03-20 17:53:45.626,0.94755775,3.5700915,8.360522,-0.6850849,-0.17852524,0.19960007,-20.025002,-35.381252,-18.13125,0.1987647,0.13490355,0.693149,1001.15765, , , , 
2026-03-20 17:53:45.646,1.5170496,3.2303107,9.336794,-0.51526445,0.016951498,0.072540194,-20.081251,-35.475002,-18.300001,0.19523735,0.12949423,0.69482505,1001.15765, , , , 
2026-03-20 17:53:45.666,1.2251252,3.4408789,9.083155,-0.1621846,0.16722423,-0.0594066,-20.19375,-35.60625,-18.431252,0.19211051,0.12770107,0.69552374,1001.15765, , , , 
2026-03-20 17:53:45.686,1.1964114,3.6993039,7.183254,0.08704823,0.095142186,-0.1375973,-20.362501,-35.53125,-18.65625,0.19092165,0.12870769,0.69513416,1001.15765, , , , 
2026-03-20 17:53:45.706,0.86141616,4.130012,5.5800624,3.054324E-4,-0.060017463,-0.20967934,-20.56875,-35.193752,-18.91875,0.19108526,0.12962651,0.6938409,1001.16144, , , , 
2026-03-20 17:53:45.726,-0.17706887,4.7042894,6.34098,-0.13164136,-0.18585561,-0.08506292,-20.868752,-34.8375,-19.087502,0.19135277,0.12845293,0.6924662,1001.16144, , , , 
2026-03-20 17:53:45.746,0.8135597,4.26401,6.9296145,0.027183482,-0.0368046,0.034666575,-21.09375,-34.537502,-19.1625,0.19184506,0.12720698,0.6922028,1001.16144, , , , 
2026-03-20 17:53:45.766,1.2777673,4.1443686,6.920043,0.18356487,0.18555018,-0.0044287695,-21.112501,-34.425003,-19.143751,0.19209239,0.12869498,0.69237655,1001.16144, , , , 
2026-03-20 17:53:45.786,0.7800602,4.4458647,7.0636125,0.18112141,0.09636392,-0.075289086,-21.112501,-34.55625,-19.03125,0.19219139,0.13067946,0.6922314,1001.15894, , , , 
2026-03-20 17:53:45.806,0.6939186,4.6899323,7.259824,0.14202607,-0.13820815,-0.09850194,-20.98125,-34.74375,-18.956251,0.19311759,0.13217822,0.69146836,1001.15894, , , , 
2026-03-20 17:53:45.826,0.5168497,4.981857,6.948757,0.13591741,-0.20173809,-0.1375973,-20.587502,-35.006252,-18.975,0.19584814,0.13215448,0.6897445,1001.15894, , , , 
2026-03-20 17:53:45.846,0.124426775,5.5130634,8.063812,0.1725693,-0.012370012,-0.06429352,-20.118752,-35.11875,-19.050001,0.19747178,0.13278711,0.68857163,1001.15894, , , , 
2026-03-20 17:53:45.866,0.80877405,5.5896335,8.303095,0.20922118,-0.05146536,-0.05818487,-19.893751,-35.15625,-19.087502,0.19886123,0.13442992,0.68795323,1001.1553, , , , 
2026-03-20 17:53:45.886,1.0145568,5.5657053,8.384451,0.11759147,-0.15531237,-0.14737113,-19.837502,-35.25,-18.9375,0.20077154,0.13508417,0.6867862,1001.1553, , , , 
2026-03-20 17:53:45.906,0.07178468,5.7810597,9.580862,0.100487255,-0.006261364,-0.15347977,-19.7625,-35.362503,-18.825,0.20194125,0.13548805,0.68527347,1001.1553, , , , 
2026-03-20 17:53:45.926,0.3397808,5.8911295,9.8632145,0.113926284,0.11102467,-0.03619374,-19.800001,-35.53125,-18.581251,0.20209432,0.1370409,0.6846108,1001.1553, , , , 
2026-03-20 17:53:45.946,0.7752745,6.0634127,9.217153,-0.1414152,0.1867719,0.0016798781,-19.800001,-35.737503,-18.35625,0.20125139,0.13825996,0.6847724,1001.1502, , , , 
2026-03-20 17:53:45.966,0.35413775,6.125626,11.289337,-0.46150833,0.23930627,0.057879437,-19.893751,-35.8125,-18.28125,0.19764097,0.13772088,0.6857639,1001.1502, , , , 
2026-03-20 17:53:45.986,0.67477596,5.493921,13.194024,-0.4798343,0.047494736,0.14828743,-20.118752,-35.8875,-18.2625,0.19323744,0.135222,0.68748355,1001.1502, , , , 
2026-03-20 17:53:46.006,1.6510476,4.503292,13.514663,-0.28802276,-0.13332124,0.093309596,-20.268751,-35.86875,-18.393751,0.19096088,0.13180023,0.6888638,1001.1502, , , , 
2026-03-20 17:53:46.026,1.8376877,4.139583,11.667403,-0.036346454,-0.21273366,-0.028863361,-20.4375,-35.775,-18.5625,0.1909652,0.12987764,0.68900114,1001.1472, , , , 
2026-03-20 17:53:46.046,1.8329022,4.0534415,9.643075,0.003970621,-0.18829907,-0.06918044,-20.38125,-35.550003,-18.862501,0.19267447,0.12785009,0.6881098,1001.1472, , , , 
2026-03-20 17:53:46.066,1.861616,3.9242291,8.953942,0.03695732,0.054825112,-0.11194097,-20.23125,-35.2125,-19.087502,0.1932552,0.12745112,0.6873331,1001.1472, , , , 
2026-03-20 17:53:46.086,1.6319051,3.737589,8.537591,0.088269964,0.3272708,-0.14981459,-20.19375,-34.912502,-19.2,0.19209869,0.12958543,0.686782,1001.1472, , , , 
2026-03-20 17:53:46.106,0.8805587,3.694518,8.389236,0.07238748,0.3846921,-0.15714496,-19.96875,-34.66875,-19.40625,0.19048002,0.13212155,0.6864107,1001.1508, , , , 
2026-03-20 17:53:46.126,0.47856453,3.603591,8.269595,0.047952887,0.18188499,-0.09483676,-19.66875,-34.78125,-19.518751,0.18799524,0.13561712,0.685935,1001.1508, , , , 
2026-03-20 17:53:46.146,0.72263247,3.4600215,7.3698936,0.076052666,-0.041691523,-0.067958705,-19.44375,-35.006252,-19.556252,0.18788502,0.13653591,0.6854329,1001.1508, , , , 
2026-03-20 17:53:46.166,1.0576276,3.5270207,6.259624,0.11636974,-0.10033454,-0.081397735,-19.25625,-35.23125,-19.612501,0.18908793,0.13675371,0.6846349,1001.1508, , , , 
2026-03-20 17:53:46.186,0.9810573,3.7854455,5.541777,0.0772744,0.06582068,-0.09117157,-19.125,-35.550003,-19.35,0.19004191,0.13745001,0.6837689,1001.1521, , , , 
2026-03-20 17:53:46.206,0.81834537,3.7136607,6.326623,0.057726722,0.18555018,-0.041080657,-18.993752,-35.550003,-18.993752,0.18953617,0.13889605,0.68346167,1001.1521, , , , 
2026-03-20 17:53:46.226,0.6891329,3.641876,6.719046,0.100487255,0.2234238,-7.6358096E-4,-18.900002,-35.5125,-18.88125,0.18862523,0.14098565,0.6836105,1001.1521, , , , 
2026-03-20 17:53:46.246,0.7896315,3.6993039,7.207182,0.12980877,0.08170316,0.005345067,-18.69375,-35.49375,-18.825,0.18829915,0.14290202,0.68380266,1001.1521, , , , 
2026-03-20 17:53:46.266,1.3447664,3.7854455,7.2502527,0.17501275,-0.2102902,-0.07773254,-18.54375,-35.325,-18.975,0.18986776,0.14337488,0.68324596,1001.1479, , , , 
2026-03-20 17:53:46.286,1.3639089,4.0677986,6.786045,0.24220788,-0.20906848,-0.1791361,-18.431252,-35.287502,-19.181252,0.1928561,0.143355,0.6815861,1001.1479,37.88743981,127.73742136,171.11834716796875,1.47
2026-03-20 17:53:46.306,0.5407779,4.4602213,7.0636125,0.36071566,0.091477,-0.17424917,-18.337502,-35.5125,-19.125,0.19516474,0.14531489,0.67970383,1001.1479, , , , 
2026-03-20 17:53:46.326,0.41635114,4.642076,7.5182486,0.3924806,0.27351472,-0.022754714,-18.337502,-35.7,-18.975,0.19626158,0.14975566,0.67883205,1001.1479, , , , 
2026-03-20 17:53:46.346,1.0767702,4.2927237,7.5900335,0.26664248,0.1452331,0.0016798781,-18.31875,-35.737503,-18.712502,0.19727932,0.1536077,0.67871404,1001.1415, , , , 
2026-03-20 17:53:46.366,0.6652047,4.412365,8.796016,0.05894845,0.075594515,-0.025198173,-18.2625,-35.8125,-18.50625,0.1976347,0.15541656,0.6785744,1001.1415, , , , 
2026-03-20 17:53:46.386,0.57427746,5.0536413,9.829716,-0.05589413,-0.016035201,0.08353576,-18.243752,-35.850002,-18.393751,0.19739278,0.15551507,0.67880464,1001.1415, , , , 
2026-03-20 17:53:46.406,1.5601203,5.4987063,9.772287,-0.1744019,-0.116217025,0.17394374,-18.243752,-36.0,-18.225,0.19735561,0.1538893,0.67983985,1001.1415, , , , 
2026-03-20 17:53:46.426,1.7228323,5.8337016,9.997213,-0.38209593,0.048716467,0.22036947,-18.35625,-36.300003,-18.09375,0.1962593,0.15110788,0.68150526,1001.13, , , , 
2026-03-20 17:53:46.446,0.93320084,5.541777,12.208181,-0.5250383,0.1867719,0.22281294,-18.525002,-36.35625,-18.112501,0.19242398,0.14843622,0.6840412,1001.13, , , , 
2026-03-20 17:53:46.466,0.13878371,4.991428,13.706088,-0.4517345,-0.03924806,0.24113888,-18.6375,-36.300003,-18.16875,0.1885937,0.14509282,0.6865453,1001.13, , , , 
2026-03-20 17:53:46.486,0.61734825,4.278367,13.586447,-0.22571453,-0.28725916,0.20204352,-18.84375,-36.206253,-18.393751,0.18767051,0.14092107,0.6883001,1001.13, , , , 
2026-03-20 17:53:46.506,0.8279166,3.4791641,12.074183,0.11514801,-0.18219042,0.039553493,-19.06875,-36.018753,-18.806252,0.18919577,0.13834165,0.68875825,1001.1298, , , , 
2026-03-20 17:53:46.526,0.40677986,3.4983068,10.523634,0.35216355,0.114689864,-0.08261946,-19.25625,-35.86875,-19.10625,0.19089492,0.13973746,0.68820995,1001.1298, , , , 
2026-03-20 17:53:46.546,-0.086141616,3.5509489,8.772088,0.33628106,0.15622866,-0.119271345,-19.556252,-35.662502,-19.3125,0.19199786,0.14358246,0.6872862,1001.1298, , , , 
2026-03-20 17:53:46.566,-0.4211368,3.723232,7.2215385,0.012522728,-0.04046979,-0.056963142,-19.556252,-35.625,-19.275002,0.19271675,0.14550357,0.68644845,1001.1298, , , , 
2026-03-20 17:53:46.586,-0.27756742,3.6993039,7.6809607,-0.2611447,-0.07223476,0.02611447,-19.425001,-35.79375,-19.06875,0.1920985,0.1442082,0.6864108,1001.13745, , , , 
2026-03-20 17:53:46.606,0.076570325,3.4983068,8.001599,-0.25992295,-0.031917684,0.05054906,-19.425001,-35.8125,-19.0125,0.19059126,0.14184633,0.6870105,1001.13745, , , , 
2026-03-20 17:53:46.626,0.18185452,3.4600215,7.771888,-0.10231985,-0.0074830935,0.022449281,-19.40625,-35.79375,-19.087502,0.1894453,0.14038014,0.6874958,1001.13745, , , , 
2026-03-20 17:53:46.646,0.15792629,3.5413775,6.695118,0.08093958,0.04382955,0.029779658,-19.3875,-35.7,-19.3125,0.18935855,0.14038835,0.68766844,1001.13745, , , , 
2026-03-20 17:53:46.666,0.53599226,3.4648073,6.206982,0.13591741,0.15378521,0.06276636,-19.48125,-35.5125,-19.575,0.18952733,0.14184146,0.68802035,1001.1396, , , , 
2026-03-20 17:53:46.686,0.971486,3.4217365,6.125626,0.120034926,0.1036943,-7.6358096E-4,-19.59375,-35.4375,-19.5,0.18954505,0.143622,0.68835974,1001.1396, , , , 
2026-03-20 17:53:46.706,0.49292147,3.7328033,6.0155563,0.09193515,-0.028252495,-0.07651082,-19.63125,-35.34375,-19.368752,0.18999194,0.14469875,0.6879495,1001.1396, , , , 
2026-03-20 17:53:46.726,0.30149564,4.072584,6.1447687,0.08093958,-0.10033454,-0.054519683,-19.650002,-35.2125,-19.125,0.190727,0.14489563,0.68737954,1001.1396, , , , 
2026-03-20 17:53:46.746,0.38763726,4.388437,6.3457656,0.19089524,0.029168794,-0.047189303,-19.5375,-35.175003,-18.900002,0.19227232,0.14564428,0.6865646,1001.1383, , , , 
2026-03-20 17:53:46.766,0.25842485,4.9579287,6.398408,0.19578215,0.13423753,-0.03619374,-19.29375,-35.30625,-18.900002,0.19304211,0.14788981,0.68610746,1001.1383, , , , 
2026-03-20 17:53:46.786,0.0526421,5.355137,7.183254,0.076052666,0.04382955,-0.0019853106,-19.40625,-35.662502,-18.806252,0.19334276,0.1496983,0.6859222,1001.1383, , , , 
2026-03-20 17:53:46.806,0.8422736,5.3312087,8.709874,0.05894845,-0.21762058,-0.021532983,-19.462502,-35.86875,-18.7875,0.19433469,0.14942361,0.6856973,1001.1383, , , , 
2026-03-20 17:53:46.826,0.7322037,5.6757755,8.595019,0.29718572,-0.07834341,-0.14737113,-19.44375,-35.943752,-18.75,0.19672322,0.14945558,0.6844667,1001.1311, , , , 
2026-03-20 17:53:46.846,-0.39720857,6.3792653,7.9298143,0.3839285,0.15012002,-0.10461059,-19.5375,-35.9625,-18.712502,0.19869488,0.15274093,0.68300384,1001.1311, , , , 
2026-03-20 17:53:46.866,-0.7704889,6.7525454,7.834101,0.17745622,0.17577635,0.099418245,-19.331251,-35.71875,-18.675001,0.19960766,0.15613446,0.68279743,1001.1311, , , , 
2026-03-20 17:53:46.886,0.2440679,6.4127645,9.786645,-0.10598504,0.25030184,0.25579962,-19.2,-35.60625,-18.6,0.19856016,0.1575309,0.6845151,1001.1311, , , , 
2026-03-20 17:53:46.906,0.9810573,6.2309103,11.155339,-0.21838416,0.07437278,0.18616104,-19.237501,-35.662502,-18.581251,0.19661696,0.15717538,0.6867143,1001.1283, , , , 
2026-03-20 17:53:46.926,0.72263247,6.1591253,12.227324,-0.24648394,-0.07467822,0.0810923,-19.3125,-35.86875,-18.54375,0.19521035,0.15514137,0.687957,1001.1283, , , , 
2026-03-20 17:53:46.946,0.3684947,6.029913,12.830315,-0.09498947,-0.061239194,0.114079,-19.3875,-36.09375,-18.712502,0.19467647,0.15313733,0.68865067,1001.1283, , , , 
2026-03-20 17:53:46.966,0.79441714,5.020142,12.4426775,0.17379104,0.06704241,0.19715661,-19.368752,-36.2625,-18.88125,0.19500421,0.15320164,0.6897556,1001.1283, , , , 
2026-03-20 17:53:46.986,1.5936198,4.4458647,10.738988,0.21655156,-0.05146536,0.1678351,-19.3125,-36.35625,-18.84375,0.19647963,0.1544198,0.6908255,1001.13513, , , , 
2026-03-20 17:53:47.006,2.2348964,4.005585,9.413364,0.043065965,-0.19318599,0.0810923,-19.21875,-36.225002,-18.825,0.19860935,0.15396307,0.6912249,1001.13513, , , , 
2026-03-20 17:53:47.026,2.617748,3.804588,9.437292,-0.05222894,-0.056352276,-0.113162704,-19.25625,-36.09375,-18.862501,0.19952969,0.15257227,0.6909887,1001.13513, , , , 
2026-03-20 17:53:47.046,1.4691931,4.1443686,9.336794,0.025961753,0.2319759,-0.229227,-19.48125,-36.075,-18.900002,0.19860117,0.15315653,0.68998593,1001.13513, , , , 
2026-03-20 17:53:47.066,0.7369894,4.278367,8.671589,-0.031459536,0.285732,-0.1547015,-19.7625,-36.15,-19.0125,0.19642726,0.15554252,0.68917656,1001.14105, , , , 
2026-03-20 17:53:47.089,1.0959128,3.7136607,8.800801,-0.1951713,0.03161225,-0.09850194,-19.987501,-36.318752,-19.03125,0.19414464,0.15613417,0.6889581,1001.14105, , , , 
2026-03-20 17:53:47.106,1.6127625,3.4791641,8.566305,-0.13408482,-0.116217025,-0.15592323,-20.00625,-36.318752,-18.975,0.19309904,0.15464461,0.68834764,1001.14105, , , , 
2026-03-20 17:53:47.126,1.7850457,3.5988052,7.30768,0.054061532,-0.029474225,-0.31474808,-19.96875,-36.35625,-18.975,0.1931655,0.1540698,0.6866534,1001.14105, , , , 
2026-03-20 17:53:47.146,0.7752745,4.0677986,6.503692,0.12492185,0.12935062,-0.38438666,-19.837502,-36.3375,-18.975,0.19303495,0.15574898,0.68411124,1001.1472, , , , 
2026-03-20 17:53:47.166,-0.07178468,4.1874394,6.9152575,0.14813471,0.2075413,-0.28053966,-19.59375,-36.506252,-18.91875,0.19220608,0.1585472,0.6819128,1001.1472, , , , 
2026-03-20 17:53:47.186,0.16749759,3.9625144,7.2646093,0.2764163,0.19532402,-0.1375973,-19.3125,-36.6375,-18.862501,0.19176354,0.16188991,0.68061775,1001.1472, , , , 
2026-03-20 17:53:47.206,0.5982057,3.9146578,6.6089764,0.36193737,-0.031917684,-0.14981459,-19.143751,-36.6375,-18.88125,0.19306505,0.16507533,0.679374,1001.1472, , , , 
2026-03-20 17:53:47.226,0.6029913,4.2831526,5.962914,0.34483317,-0.22372922,-0.17669263,-18.900002,-36.693752,-18.88125,0.19628756,0.1667994,0.67733693,1001.1534, , , , 
2026-03-20 17:53:47.246,0.42592242,4.5655055,6.0346985,0.42180213,-0.12232567,-0.14859286,-18.5625,-36.675003,-18.7875,0.19997825,0.16837567,0.6751744,1001.1534, , , , 
2026-03-20 17:53:47.266,0.038285162,4.723432,5.8097734,0.5061015,0.095142186,-0.056963142,-18.243752,-36.80625,-18.65625,0.20244074,0.17087264,0.6739213,1001.1534, , , , 
2026-03-20 17:53:47.286,0.14356937,4.7569313,5.8624153,0.3668243,0.06093376,0.1018617,-17.868752,-37.0875,-18.393751,0.20570302,0.17571692,0.673193,1001.1534,37.88742911,127.73743179,171.19354248046875,1.52
2026-03-20 17:53:47.306,0.9810573,4.4602213,6.4606214,0.22143848,-0.04780017,0.11896592,-17.60625,-37.331253,-18.056252,0.20739163,0.17719088,0.6734535,1001.1508, , , , 
2026-03-20 17:53:47.326,0.5982057,4.7282176,7.6331043,0.1640172,0.019394957,0.073761925,-17.5125,-37.59375,-17.75625,0.20953663,0.17826088,0.6737727,1001.1508, , , , 
2026-03-20 17:53:47.346,0.16749759,5.096712,7.7910304,0.0980438,0.06582068,0.16294818,-17.362501,-37.78125,-17.4375,0.21025555,0.17924023,0.67413884,1001.1508, , , , 
2026-03-20 17:53:47.366,0.79920274,5.168497,9.504292,-0.123089254,0.11835505,0.24846925,-17.325,-37.93125,-17.0625,0.21013665,0.17958264,0.67601347,1001.1508, , , , 
2026-03-20 17:53:47.386,2.053042,5.015356,12.01197,-0.015577052,0.089033544,0.08353576,-17.587502,-38.100002,-16.725,0.20901148,0.17910099,0.6777929,1001.1485, , , , 
2026-03-20 17:53:47.406,1.6414764,5.2259245,13.131811,0.33750278,0.26740605,-0.2866483,-17.90625,-38.15625,-16.518751,0.20864105,0.18126643,0.67719626,1001.1485, , , , 
2026-03-20 17:53:47.426,-0.64606214,6.273981,11.179267,0.6514873,0.39202246,-0.4637991,-18.16875,-38.2125,-16.40625,0.20895422,0.18601277,0.6749674,1001.1485, , , , 
2026-03-20 17:53:47.446,-2.0865414,6.948757,8.374879,0.39858928,0.6339249,-0.1583667,-18.28125,-38.4375,-16.425001,0.2088617,0.19628818,0.67173916,1001.1485, , , , 
2026-03-20 17:53:47.466,-1.8711873,6.2787666,9.389436,-0.19761476,0.48487392,0.1556178,-18.2625,-38.550003,-16.368752,0.20542751,0.20128989,0.6728181,1001.1521, , , , 
2026-03-20 17:53:47.486,-1.0336994,5.087141,11.566905,-0.46883872,0.002290743,0.26557347,-17.98125,-38.625,-16.237501,0.20149356,0.19983946,0.6756419,1001.1521, , , , 
2026-03-20 17:53:47.506,0.124426775,4.2448673,11.179267,-0.24159703,-0.25671592,0.1311832,-17.643751,-38.775,-16.143751,0.20023905,0.19554374,0.67760414,1001.1521, , , , 
2026-03-20 17:53:47.526,-0.32063824,4.4602213,8.427522,-0.06933315,-0.1443168,0.004123337,-17.362501,-38.8125,-16.143751,0.20082937,0.19286086,0.67781866,1001.1521, , , , 
2026-03-20 17:53:47.546,-1.4835501,4.5320063,6.9296145,-0.21838416,0.07925971,0.111635536,-17.04375,-38.79375,-16.35,0.20018925,0.19183141,0.6782515,1001.1585, , , , 
2026-03-20 17:53:47.566,-1.416551,4.106084,8.178668,-0.4309651,0.1989892,0.3339903,-16.893751,-38.756252,-16.612501,0.19713928,0.19010913,0.68078643,1001.1585, , , , 
2026-03-20 17:53:47.586,0.10049855,3.330809,10.499705,-0.18417573,0.16478078,0.3498728,-16.95,-38.475002,-16.85625,0.19379774,0.18823269,0.6844436,1001.1585, , , , 
2026-03-20 17:53:47.606,0.5312066,3.330809,8.49452,0.22510368,-0.08933897,0.1434005,-16.931252,-38.081253,-17.1375,0.19404835,0.18806237,0.68623465,1001.1585, , , , 
2026-03-20 17:53:47.626,0.21535404,3.7615173,5.5369916,0.25686863,-0.14553854,0.055435978,-17.00625,-37.818752,-17.4375,0.19696178,0.18882455,0.6860401,1001.1693, , , , 
2026-03-20 17:53:47.646,-0.22013968,3.9960139,4.9052863,0.05894845,-0.11377356,0.10430516,-17.325,-37.725002,-17.775002,0.19910288,0.18896908,0.6859152,1001.1693, , , , 
2026-03-20 17:53:47.666,0.15314065,3.8620157,5.278567,-0.01924224,-0.08933897,0.18982624,-17.681252,-37.800003,-18.018751,0.20021336,0.18814018,0.6866713,1001.1693, , , , 
2026-03-20 17:53:47.686,0.66041905,3.8093736,5.1206403,0.0051923506,-0.14676027,0.1556178,-18.09375,-38.0625,-18.018751,0.2013029,0.18699178,0.6876926,1001.1693, , , , 
2026-03-20 17:53:47.706,0.6029913,4.287938,4.9196434,-0.04734202,-0.19807291,0.067653276,-18.31875,-38.25,-17.925001,0.20270571,0.18548782,0.6880922,1001.168, , , , 
2026-03-20 17:53:47.726,-0.1052842,5.0344987,5.426922,-0.06933315,-0.19807291,0.06398808,-18.337502,-38.2125,-17.79375,0.20387498,0.18363728,0.68811876,1001.168, , , , 
2026-03-20 17:53:47.746,-0.047856454,5.359923,7.240681,0.00763581,0.12079851,0.17883067,-18.45,-38.081253,-17.56875,0.20431098,0.18274598,0.68885255,1001.168, , , , 
2026-03-20 17:53:47.766,1.1485549,5.0919266,9.949356,0.33261588,0.43966994,0.093309596,-18.6375,-37.93125,-17.362501,0.20348041,0.18537632,0.69029164,1001.168, , , , 
2026-03-20 17:53:47.786,0.98584294,5.5513487,9.355937,0.6563742,0.2771799,-0.1999055,-18.7875,-37.7625,-17.19375,0.20422365,0.19158334,0.6897512,1001.15405, , , , 
2026-03-20 17:53:47.806,-0.18664017,6.45105,7.3459654,0.5574141,-0.058795735,-0.36361727,-18.825,-37.8375,-17.04375,0.20728818,0.19725002,0.68664116,1001.15405, , , , 
2026-03-20 17:53:47.826,-1.3543376,7.436893,6.5515485,0.15057817,-0.27748534,-0.21700971,-18.618752,-38.025,-16.9125,0.21050456,0.1992425,0.68328863,1001.15405, , , , 
2026-03-20 17:53:47.846,-1.2011969,7.52782,7.365108,-0.15607595,-0.16630794,0.016340632,-18.35625,-38.268753,-16.575,0.21195997,0.1980336,0.6820299,1001.15405, , , , 
2026-03-20 17:53:47.866,0.124426775,7.580462,9.30808,-0.29290965,-0.07345649,0.15439607,-18.1875,-38.60625,-16.21875,0.21118475,0.19568172,0.6829819,1001.1485, , , , 
2026-03-20 17:53:47.886,1.4835501,7.685746,9.619147,-0.29779658,-0.04291325,0.031001387,-18.1875,-38.86875,-15.937501,0.21006794,0.19294764,0.68408275,1001.1485, , , , 
2026-03-20 17:53:47.906,1.1294123,7.838887,10.389636,-0.3564396,0.25152358,-0.10949751,-18.28125,-38.943752,-15.7875,0.20722815,0.19162008,0.68453586,1001.1485, , , , 
2026-03-20 17:53:47.926,0.124426775,7.0875406,11.696117,-0.4566214,0.26740605,-0.099723674,-18.35625,-38.79375,-15.88125,0.20244983,0.19096951,0.6851058,1001.1485, , , , 
2026-03-20 17:53:47.946,-0.4881358,5.6614184,13.174882,-0.481056,0.10980295,0.028557928,-18.45,-38.7,-16.125,0.19760649,0.18906352,0.6861775,1001.1468, , , , 
2026-03-20 17:53:47.966,0.9523434,4.321438,12.677175,-0.32223117,-0.22617269,0.092087865,-18.50625,-38.643753,-16.331251,0.19538952,0.1854925,0.6873925,1001.1468, , , , 
2026-03-20 17:53:47.986,2.210968,3.507878,10.916057,-0.118202336,-0.31413722,-0.09117157,-18.431252,-38.643753,-16.612501,0.19588438,0.18156968,0.6874003,1001.1468, , , , 
2026-03-20 17:53:48.006,2.0195422,3.885944,8.834301,0.03451386,-0.08567379,-0.34651303,-18.243752,-38.625,-16.875,0.19675422,0.18003005,0.6856228,1001.1468, , , , 
2026-03-20 17:53:48.026,0.72741807,4.479364,7.135397,0.011300999,0.089033544,-0.46746427,-18.150002,-38.4375,-17.04375,0.19611166,0.18123047,0.6827566,1001.15485, , , , 
2026-03-20 17:53:48.046,-0.49292147,4.6707897,6.087341,-0.27214026,-0.044134982,-0.37094763,-17.8125,-38.23125,-17.1375,0.19430955,0.18162104,0.6800508,1001.15485, , , , 
2026-03-20 17:53:48.066,-0.7465607,4.302295,6.5084777,-0.43340856,-0.18707734,-0.1999055,-17.493752,-38.287502,-17.118752,0.19205835,0.17894843,0.67846215,1001.15485, , , , 
2026-03-20 17:53:48.086,-0.15314065,3.9577286,6.5371914,-0.3527744,-0.08567379,-0.080176,-17.41875,-38.34375,-17.1375,0.1900925,0.17540646,0.6779462,1001.15485, , , , 
2026-03-20 17:53:48.106,0.28713873,3.723232,6.2883377,-0.11331542,0.19654575,-0.07651082,-17.4375,-38.456253,-17.2875,0.1879731,0.1744097,0.6779766,1001.1598, , , , 
2026-03-20 17:53:48.126,-0.46899325,3.9816568,6.096912,-0.029016078,0.43600473,-0.0716239,-17.643751,-38.41875,-17.56875,0.18599215,0.17588612,0.67804205,1001.1598, , , , 
2026-03-20 17:53:48.146,-0.8566305,3.9720855,7.312466,-0.009468404,0.39080074,0.07742711,-17.79375,-38.325,-17.85,0.18198588,0.17959498,0.6789702,1001.1598, , , , 
2026-03-20 17:53:48.166,-0.2536392,3.8380876,7.8197446,0.010079269,0.089033544,0.123852834,-17.643751,-38.30625,-18.0375,0.18040289,0.18120843,0.68018025,1001.1598, , , , 
2026-03-20 17:53:48.186,0.33499518,3.9098723,7.6713896,0.017409647,-0.24449863,0.07864884,-17.362501,-38.15625,-18.150002,0.18133844,0.18037662,0.6807028,1001.1604, , , , 
2026-03-20 17:53:48.206,0.7082755,4.1108694,7.312466,0.07238748,-0.38988444,0.007788526,-17.1,-38.1375,-18.1875,0.18402314,0.17819452,0.6803182,1001.1604, , , , 
2026-03-20 17:53:48.226,0.9906286,4.3357944,6.9583282,0.205556,-0.20295982,-0.047189303,-16.95,-38.0625,-18.243752,0.18717098,0.17678282,0.6793389,1001.1604, , , , 
2026-03-20 17:53:48.246,1.1629118,4.4075794,5.919843,0.29352054,0.027947064,-0.07651082,-17.025002,-37.95,-18.2625,0.18950713,0.17819747,0.67830354,1001.1604, , , , 
2026-03-20 17:53:48.266,1.3160524,4.5415773,5.1828537,0.06627883,0.0108428495,-0.119271345,-17.19375,-38.100002,-18.150002,0.1905603,0.17998753,0.6773683,1001.1604, , , , 
2026-03-20 17:53:48.286,-0.07178468,5.0009995,7.1784678,-0.26358816,-0.006261364,-0.09850194,-17.1375,-38.15625,-17.98125,0.1897618,0.17923257,0.67661816,1001.1604,37.8874183,127.73744171,171.302001953125,1.51
2026-03-20 17:53:48.306,-0.55513483,5.221139,9.934999,-0.15485422,0.047494736,0.066431545,-17.0625,-38.175003,-17.90625,0.18836337,0.17817523,0.67677325,1001.1604, , , , 
2026-03-20 17:53:48.326,0.13399807,5.221139,9.801002,-0.057115857,-0.030695954,0.18738277,-17.04375,-38.287502,-17.831251,0.18765198,0.17735578,0.6781441,1001.1604, , , , 
2026-03-20 17:53:48.346,0.8039884,5.5274205,10.60499,-0.2782489,-0.117438756,0.19471315,-16.893751,-38.2125,-17.868752,0.18748295,0.17521375,0.6796326,1001.15594, , , , 
2026-03-20 17:53:48.366,1.3878372,5.3790655,13.849657,-0.23182319,-0.2677115,0.08353576,-17.1,-38.34375,-18.09375,0.1867984,0.17157274,0.6809457,1001.15594, , , , 
2026-03-20 17:53:48.386,1.1533405,5.1493545,13.883157,0.023518294,-0.42653632,-0.12660173,-17.38125,-38.5125,-18.13125,0.18839644,0.1681256,0.68040395,1001.15594, , , , 
2026-03-20 17:53:48.406,0.17228323,5.3647084,12.557533,0.29107708,-0.42042768,-0.260992,-17.56875,-38.4375,-18.1875,0.19198905,0.16649762,0.67790604,1001.15594, , , , 
2026-03-20 17:53:48.426,-0.55034924,5.584848,10.025927,0.36071566,-0.24816382,-0.1669188,-17.775002,-38.475002,-18.393751,0.1962411,0.1670263,0.67509615,1001.1561, , , , 
2026-03-20 17:53:48.446,-0.53599226,5.2833524,8.685946,0.15546508,0.08048143,0.029779658,-17.737501,-38.5125,-18.243752,0.1985832,0.16835828,0.6739726,1001.1561, , , , 
2026-03-20 17:53:48.466,-0.76570326,4.479364,8.685946,-0.01802051,0.32116216,0.18127412,-17.53125,-38.49375,-17.94375,0.1976549,0.17020646,0.67502874,1001.1561, , , , 
2026-03-20 17:53:48.486,-0.8135597,3.9050865,8.633304,-0.2159407,0.33337945,0.28512114,-17.4375,-38.60625,-17.71875,0.19481364,0.17130685,0.6775368,1001.1561, , , , 
2026-03-20 17:53:48.506,-0.7800602,3.5796626,8.963513,-0.35766134,0.10980295,0.35598144,-17.456251,-38.60625,-17.2875,0.19157937,0.17020963,0.68072784,1001.15955, , , , 
2026-03-20 17:53:48.526,-0.014356935,3.3212378,8.116454,-0.45784315,-0.006261364,0.36331183,-17.550001,-38.53125,-16.987501,0.18912809,0.16679253,0.68401635,1001.15955, , , , 
2026-03-20 17:53:48.546,0.10049855,3.2877383,8.523234,-0.45295623,0.14034618,0.2838994,-17.6625,-38.456253,-17.175001,0.18595695,0.16324939,0.687149,1001.15955, , , , 
2026-03-20 17:53:48.566,0.17228323,3.1920254,8.973084,-0.24770567,0.20509785,0.21548255,-17.831251,-38.268753,-17.41875,0.18248361,0.16155162,0.6898149,1001.15955, , , , 
2026-03-20 17:53:48.586,0.43070808,3.062813,7.7479596,-0.016798781,0.063377224,0.09575305,-17.85,-38.11875,-17.8875,0.18095164,0.16133577,0.6913195,1001.1627, , , , 
2026-03-20 17:53:48.606,0.23449662,3.4025939,6.0729837,-0.01924224,-0.014813471,0.020005822,-17.962502,-37.875,-18.431252,0.18104006,0.1612879,0.69162357,1001.1627, , , , 
2026-03-20 17:53:48.626,-0.148355,3.818945,6.1447687,-0.042455103,0.020616686,0.043218683,-18.1875,-37.48125,-18.675001,0.18085909,0.16099645,0.69182694,1001.1627, , , , 
2026-03-20 17:53:48.646,-0.13399807,4.024728,6.3744793,-0.015577052,0.15378521,0.10797035,-18.393751,-37.40625,-18.9375,0.1801838,0.16127078,0.692546,1001.1627, , , , 
2026-03-20 17:53:48.666,0.19621146,4.063013,6.7812595,0.074830934,0.20387612,0.1434005,-18.54375,-37.3875,-19.050001,0.17924382,0.16266914,0.6937413,1001.16144, , , , 
2026-03-20 17:53:48.686,0.6795616,4.23051,6.0346985,0.052839804,-0.016035201,0.06520981,-18.54375,-37.40625,-18.975,0.17936127,0.16372375,0.69453233,1001.16144, , , , 
2026-03-20 17:53:48.706,0.3062813,4.709075,5.5130634,-0.083993904,-0.16752967,-0.021532983,-18.4125,-37.55625,-19.03125,0.1801816,0.1630305,0.6944321,1001.16144, , , , 
2026-03-20 17:53:48.726,-0.05742774,5.221139,7.097112,-0.13652828,-0.12110394,0.02611447,-18.243752,-37.5,-19.087502,0.18040869,0.1611287,0.6942748,1001.16144, , , , 
2026-03-20 17:53:48.746,0.66041905,5.1924253,7.3603225,0.054061532,0.004734202,0.05054906,-18.2625,-37.40625,-19.087502,0.18063006,0.16042861,0.69447154,1001.1553, , , , 
2026-03-20 17:53:48.766,0.33020952,5.6374903,7.690532,0.12125666,0.23686282,-0.03619374,-18.393751,-37.3125,-19.1625,0.18070294,0.16216081,0.69461757,1001.1553, , , , 
2026-03-20 17:53:48.786,-0.6987042,6.2979093,9.025727,0.10415245,0.2283107,0.0151189035,-18.65625,-37.21875,-19.050001,0.1797548,0.1648887,0.69466,1001.1553, , , , 
2026-03-20 17:53:48.806,-0.06699903,6.202196,10.753345,0.023518294,-0.07223476,0.07620538,-18.75,-37.21875,-18.862501,0.1795669,0.16591266,0.695115,1001.1553, , , , 
2026-03-20 17:53:48.826,0.44985065,6.1304116,10.992627,0.15546508,-0.31413722,-0.023976443,-18.6375,-37.162502,-18.75,0.18182094,0.1646841,0.6947643,1001.1426, , , , 
2026-03-20 17:53:48.846,-0.014356935,6.3074803,10.183853,0.27763805,-0.19196425,-0.07651082,-18.581251,-37.125,-18.675001,0.18503049,0.16474137,0.69352245,1001.1426, , , , 
2026-03-20 17:53:48.866,-0.3589234,7.0205417,10.073783,0.0650571,-0.38133234,-0.00320704,-18.581251,-37.143753,-18.6,0.18797325,0.16457576,0.692386,1001.1426, , , , 
2026-03-20 17:53:48.886,0.11006984,7.3268228,10.001999,-0.23060146,-0.717308,0.16539164,-18.825,-37.21875,-18.50625,0.19150291,0.16006228,0.691971,1001.1426, , , , 
2026-03-20 17:53:48.906,2.0386848,6.5946193,11.207981,-0.40408704,-0.6330086,0.22281294,-18.993752,-37.3875,-18.375,0.1946214,0.15225329,0.69254816,1001.14044, , , , 
2026-03-20 17:53:48.926,2.7326035,5.015356,12.538391,-0.10720677,-0.008704823,0.04444041,-19.143751,-37.5,-18.243752,0.19549482,0.14734212,0.6933431,1001.14044, , , , 
2026-03-20 17:53:48.946,1.727618,4.1587257,12.217752,0.26908594,0.39446592,-0.17424917,-19.331251,-37.4625,-18.16875,0.19426396,0.14961788,0.69324994,1001.14044, , , , 
2026-03-20 17:53:48.966,0.7896315,3.9720855,10.676775,0.37659815,0.25763223,-0.2328922,-19.48125,-37.256252,-18.075,0.19377407,0.1546122,0.6919749,1001.14044, , , , 
2026-03-20 17:53:48.986,0.42592242,3.9481573,9.30808,0.3497201,0.13301581,-0.1547015,-19.5375,-37.03125,-17.90625,0.1943826,0.15770014,0.69075316,1001.1442, , , , 
2026-03-20 17:53:49.006,0.8470592,3.7710886,8.145168,0.21655156,0.27473643,-0.12660173,-19.40625,-36.91875,-17.71875,0.19503191,0.16218424,0.6894325,1001.1442, , , , 
2026-03-20 17:53:49.026,0.31106696,3.8285162,8.255239,-0.016798781,0.21609342,-0.1339321,-19.2,-36.99375,-17.550001,0.19364302,0.16490948,0.6888833,1001.1442, , , , 
2026-03-20 17:53:49.046,0.22013968,3.6801612,8.547162,-0.16829325,-0.062460925,-0.099723674,-19.06875,-37.2,-17.2875,0.19215828,0.16478674,0.6884254,1001.1442, , , , 
2026-03-20 17:53:49.066,0.6269195,3.3499517,8.1738825,-0.14385866,-0.15409064,-0.08994984,-19.125,-37.425003,-17.118752,0.19168957,0.1627718,0.68787915,1001.1455, , , , 
2026-03-20 17:53:49.086,0.7369894,3.3355947,7.5756764,0.050396346,-0.07956514,-0.12293654,-19.143751,-37.55625,-17.1375,0.19192882,0.16162884,0.6870479,1001.1455, , , , 
2026-03-20 17:53:49.106,0.9762716,3.4504502,6.503692,0.23487751,0.108581215,-0.170584,-19.087502,-37.5,-17.19375,0.19251807,0.16242631,0.6861577,1001.1455, , , , 
2026-03-20 17:53:49.126,0.7369894,3.574877,5.8337016,0.22876886,0.18188499,-0.25121814,-18.975,-37.256252,-17.306252,0.1927924,0.16655655,0.6842904,1001.1455, , , , 
2026-03-20 17:53:49.146,0.28235307,3.7423747,5.8672013,0.046731155,-0.0025961753,-0.2695441,-18.825,-37.143753,-17.34375,0.19277291,0.16857941,0.6823873,1001.1462, , , , 
2026-03-20 17:53:49.166,0.124426775,3.7184465,6.896115,0.024740024,0.020616686,-0.21945317,-18.6375,-37.18125,-17.15625,0.19251315,0.1690877,0.6806476,1001.1462, , , , 
2026-03-20 17:53:49.186,0.17228323,3.804588,7.60439,0.25809038,0.17455462,-0.1913534,-18.375,-37.3875,-17.025002,0.19233362,0.1710813,0.67924994,1001.1462, , , , 
2026-03-20 17:53:49.206,0.014356935,4.1922255,7.0636125,0.3668243,0.08170316,-0.170584,-18.13125,-37.6875,-17.025002,0.19330798,0.17475466,0.6777168,1001.1462, , , , 
2026-03-20 17:53:49.226,0.19621146,4.5272202,6.422336,0.33750278,-0.20784675,-0.1424842,-17.737501,-37.875,-17.23125,0.19601369,0.17695276,0.67586577,1001.1406, , , , 
2026-03-20 17:53:49.246,0.63170516,4.699504,6.087341,0.33261588,-0.12476913,-0.13515383,-17.306252,-37.875,-17.306252,0.19945484,0.17810935,0.67393106,1001.1406, , , , 
2026-03-20 17:53:49.266,0.3493521,4.8861437,5.6709895,0.29596397,0.14156792,-0.1424842,-17.04375,-37.818752,-17.081251,0.20149305,0.18074723,0.6723629,1001.1406, , , , 
2026-03-20 17:53:49.286,-1.0001999,5.436493,6.7429743,0.0772744,0.21609342,-0.0019853106,-16.893751,-38.081253,-16.59375,0.20124723,0.18370453,0.67182046,1001.1406,37.88740773,127.73745105,171.38909912109375,1.48
2026-03-20 17:53:49.306,0.009571291,5.144569,8.437093,-0.109650224,0.04382955,0.19837834,-16.875,-38.381252,-16.050001,0.2002885,0.1842339,0.6730061,1001.13617, , , , 
2026-03-20 17:53:49.326,1.1533405,4.7856455,9.145369,-0.05222894,-0.04291325,0.10430516,-17.1,-38.60625,-15.618751,0.2000031,0.18309823,0.67435694,1001.13617, , , , 
2026-03-20 17:53:49.346,0.8135597,5.0823555,8.537591,0.045509428,0.008399391,-0.048411034,-17.19375,-38.71875,-15.4125,0.20027524,0.18286306,0.6744278,1001.13617, , , , 
2026-03-20 17:53:49.366,-0.08135597,5.6614184,8.370093,-0.1291979,0.047494736,-0.015424335,-17.118752,-38.49375,-15.39375,0.19984445,0.18316232,0.6741696,1001.13617, , , , 
2026-03-20 17:53:49.386,-0.49292147,5.905486,9.844072,-0.4150826,0.12935062,0.093309596,-17.04375,-38.287502,-15.356251,0.19768617,0.18178713,0.67497575,1001.1366, , , , 
2026-03-20 17:53:49.406,-1.3543376,5.838487,12.098111,-0.5006037,0.25885394,0.25213444,-16.931252,-38.193752,-15.31875,0.19320576,0.17971642,0.6773566,1001.1366, , , , 
2026-03-20 17:53:49.426,-1.2059826,5.2689953,12.768102,-0.5702423,0.00962112,0.41706792,-16.893751,-38.100002,-15.50625,0.1888425,0.17668344,0.68101513,1001.1366, , , , 
2026-03-20 17:53:49.446,0.014356935,4.6707897,12.9547415,-0.5433642,-0.5157226,0.3999637,-17.1375,-38.193752,-15.825001,0.18727928,0.16980697,0.68446517,1001.1366, , , , 
2026-03-20 17:53:49.466,0.8039884,4.3405805,11.739188,-0.22082762,-0.36178467,0.28634286,-17.456251,-38.081253,-16.087502,0.18830173,0.16286913,0.68665785,1001.1402, , , , 
2026-03-20 17:53:49.486,0.93320084,4.139583,9.896714,-0.065667965,-0.027030766,0.14217877,-17.775002,-37.800003,-16.59375,0.18900676,0.16033672,0.6880334,1001.1402, , , , 
2026-03-20 17:53:49.506,0.5407779,4.115655,8.920443,-0.17318016,-0.030695954,0.034666575,-18.0375,-37.537502,-17.1,0.18840937,0.15930769,0.68875635,1001.1402, , , , 
2026-03-20 17:53:49.526,0.28235307,3.9768713,8.748159,-0.3112356,-0.066126116,0.004123337,-18.13125,-37.256252,-17.306252,0.18743521,0.15772207,0.6890567,1001.1402, , , , 
2026-03-20 17:53:49.546,-0.05742774,3.8380876,8.906086,-0.25992295,-0.006261364,0.010231985,-18.4125,-37.050003,-17.550001,0.18517213,0.1546743,0.68958884,1001.1462, , , , 
2026-03-20 17:53:49.566,-0.4019942,3.900301,8.451449,-0.21105379,-0.10033454,0.06276636,-18.6375,-36.881252,-17.7,0.18381111,0.15278658,0.690112,1001.1462, , , , 
2026-03-20 17:53:49.586,-0.34456646,3.9960139,7.8963146,-0.16340633,-0.10399973,0.13362667,-18.825,-36.7125,-17.79375,0.1835224,0.15041375,0.69081116,1001.1462, , , , 
2026-03-20 17:53:49.606,0.09092726,3.900301,7.63789,0.06627883,0.09758565,0.1886045,-19.143751,-36.46875,-18.09375,0.18330412,0.1496722,0.69171983,1001.1462, , , , 
2026-03-20 17:53:49.626,0.3062813,3.9242291,5.910272,0.1640172,0.10491603,0.17760894,-19.181252,-36.1875,-18.431252,0.18369459,0.15119526,0.69331145,1001.15424, , , , 
2026-03-20 17:53:49.646,0.23449662,4.139583,5.211568,-0.0058032153,-0.006261364,0.17883067,-19.25625,-36.037502,-18.6,0.18426839,0.15188874,0.69445616,1001.15424, , , , 
2026-03-20 17:53:49.666,0.3589234,4.2927237,6.4031935,-0.058337588,0.059712034,0.21303909,-19.35,-35.831253,-18.6375,0.18416831,0.15130022,0.69586706,1001.15424, , , , 
2026-03-20 17:53:49.686,0.6843473,4.125226,7.834101,0.16890411,0.14767656,0.17883067,-19.331251,-35.643753,-18.75,0.18390067,0.15173048,0.69706196,1001.15424, , , , 
2026-03-20 17:53:49.706,0.46899325,4.4554358,7.0301127,0.36560258,0.08536835,0.111635536,-19.368752,-35.625,-18.768751,0.18542147,0.15479665,0.69804746,1001.15295, , , , 
2026-03-20 17:53:49.726,0.49292147,4.761717,6.7669024,0.32406378,-0.025809037,0.116522454,-19.425001,-35.60625,-18.75,0.18778802,0.15736006,0.69830054,1001.15295, , , , 
2026-03-20 17:53:49.746,1.0671989,4.847859,7.025327,0.22754712,-0.22739442,0.07131846,-19.63125,-35.71875,-18.73125,0.19074486,0.1582529,0.6982964,1001.15295, , , , 
2026-03-20 17:53:49.766,1.1629118,5.058427,7.8963146,0.205556,-0.3434587,-0.10338886,-19.800001,-35.8875,-18.50625,0.19429187,0.15759449,0.6973026,1001.15295, , , , 
2026-03-20 17:53:49.786,0.75613195,5.7667027,8.106883,0.3497201,-0.20906848,-0.15958843,-19.931252,-36.09375,-18.300001,0.19809866,0.157779,0.69529575,1001.14703, , , , 
2026-03-20 17:53:49.806,0.91405827,6.087341,8.16431,0.40958482,0.0707076,-0.14004076,-20.0625,-36.300003,-18.13125,0.20102102,0.16050722,0.69353473,1001.14703, , , , 
2026-03-20 17:53:49.826,0.37806597,6.1830535,8.221739,0.24709481,0.1660025,-0.11194097,-19.85625,-36.487503,-17.71875,0.20235702,0.16420989,0.69231206,1001.14703, , , , 
2026-03-20 17:53:49.846,0.11006984,6.068198,9.169296,-0.036346454,0.06093376,-0.066736974,-19.706251,-36.581253,-17.400002,0.20215577,0.16613968,0.6917364,1001.14703, , , , 
2026-03-20 17:53:49.866,0.3589234,6.1495543,10.289138,-0.13897173,-0.016035201,-0.052076224,-19.556252,-36.61875,-17.00625,0.2013071,0.16567232,0.691534,1001.14465, , , , 
2026-03-20 17:53:49.886,0.4354937,6.355337,10.772488,-0.28802276,-0.013591741,-0.075289086,-19.35,-36.75,-16.7625,0.19987696,0.16437952,0.69142705,1001.14465, , , , 
2026-03-20 17:53:49.906,0.5072784,6.302695,12.241681,-0.35766134,-0.16875139,-0.042302385,-19.48125,-36.787502,-16.931252,0.19798447,0.16151686,0.69137,1001.14465, , , , 
2026-03-20 17:53:49.926,1.4787644,5.3982077,12.433106,-0.11453715,-0.1565341,-0.06062833,-19.63125,-36.881252,-17.0625,0.19730483,0.15845235,0.69120145,1001.14465, , , , 
2026-03-20 17:53:49.946,1.7228323,4.7282176,10.581061,0.205556,-0.050243627,-0.16203189,-19.7625,-36.9,-17.268751,0.19817089,0.15820017,0.6902086,1001.1462, , , , 
2026-03-20 17:53:49.966,1.402194,4.45065,7.834101,0.11148282,-0.07467822,-0.1669188,-19.78125,-36.825,-17.38125,0.19966276,0.15948133,0.68863034,1001.1462, , , , 
2026-03-20 17:53:49.986,1.0911272,4.220939,8.178668,-0.2489274,-0.14920372,-0.11071924,-19.63125,-36.825,-17.23125,0.19965376,0.15823834,0.6876362,1001.1462, , , , 
2026-03-20 17:53:50.006,1.18684,3.885944,8.997013,-0.30390522,-0.10155627,-0.016646065,-19.44375,-36.80625,-17.1375,0.1984079,0.15519512,0.6874696,1001.1462, , , , 
2026-03-20 17:53:50.026,1.6893328,3.6466618,8.647661,-0.24159703,0.076816246,-0.054519683,-19.2,-36.862503,-17.118752,0.19664165,0.15313494,0.6877411,1001.1538, , , , 
2026-03-20 17:53:50.046,1.0097711,3.7280176,8.872586,-0.23060146,0.09269873,-0.1547015,-19.087502,-36.825,-17.212502,0.19411796,0.15230364,0.6875963,1001.1538, , , , 
2026-03-20 17:53:50.066,0.37328035,3.871587,8.944371,-0.14752385,-0.09544762,-0.16814053,-19.25625,-36.787502,-17.493752,0.19247754,0.15120092,0.68676203,1001.1538, , , , 
2026-03-20 17:53:50.086,0.5886344,3.9338005,7.479964,0.010079269,-0.2689332,-0.14981459,-19.48125,-36.7125,-17.94375,0.19321778,0.14963993,0.6853955,1001.1538, , , , 
2026-03-20 17:53:50.106,0.5599205,3.9098723,6.546763,0.055283263,-0.16630794,-0.1461494,-19.706251,-36.45,-18.31875,0.19453725,0.14875337,0.6842207,1001.15656, , , , 
2026-03-20 17:53:50.126,0.44506502,3.7280176,6.8817577,0.16768238,0.056046844,-0.1424842,-19.9125,-36.393753,-18.375,0.19561711,0.14946474,0.68266,1001.15656, , , , 
2026-03-20 17:53:50.146,0.2727818,3.8141594,6.546763,0.25809038,0.102472566,-0.14004076,-19.95,-36.46875,-18.31875,0.19629881,0.15197404,0.68151194,1001.15656, , , , 
2026-03-20 17:53:50.166,0.06699903,3.8476589,5.85763,0.11026109,-0.11499529,-0.12904519,-19.63125,-36.54375,-18.243752,0.19746596,0.1537071,0.68029827,1001.15656, , , , 
2026-03-20 17:53:50.186,0.22013968,4.0438704,6.7669024,0.06627883,-0.19685118,-0.09117157,-19.275002,-36.675003,-18.28125,0.19889554,0.15319759,0.67908084,1001.1536, , , , 
2026-03-20 17:53:50.206,0.75613195,4.412365,6.398408,0.19089524,-0.009926553,-0.0923933,-18.975,-36.75,-18.35625,0.20052847,0.15349793,0.6780036,1001.1536, , , , 
2026-03-20 17:53:50.226,0.51206404,4.6803613,6.422336,0.1847866,0.16111559,-0.07895427,-18.712502,-36.693752,-18.28125,0.20122658,0.15578425,0.6772423,1001.1536, , , , 
2026-03-20 17:53:50.246,0.2440679,4.8239303,7.3698936,0.13591741,0.14401138,0.02367101,-18.6375,-36.65625,-18.112501,0.20122954,0.15805833,0.6770339,1001.1536, , , , 
2026-03-20 17:53:50.266,0.94755775,4.5894337,7.8628154,0.22388195,0.20387612,0.05177079,-18.6,-36.75,-17.831251,0.20145142,0.16023317,0.67742354,1001.1502, , , , 
2026-03-20 17:53:50.286,0.8039884,4.74736,7.905886,0.21532984,0.25030184,0.011453714,-18.618752,-36.787502,-17.643751,0.20144944,0.16353555,0.67777175,1001.1502,37.88739714,127.73746122,171.48828125,1.44
2026-03-20 17:53:50.306,0.124426775,5.2833524,8.71466,0.041844238,0.03405571,0.028557928,-18.6,-36.862503,-17.587502,0.2013605,0.16508263,0.677874,1001.1502, , , , 
2026-03-20 17:53:50.326,0.3397808,5.7667027,9.5665045,0.003970621,0.024281874,0.17883067,-18.487501,-36.9375,-17.38125,0.20159358,0.16510981,0.6785642,1001.1502, , , , 
2026-03-20 17:53:50.346,1.253839,5.8863435,9.513863,-0.01802051,0.08536835,0.26557347,-18.431252,-36.9375,-17.04375,0.20164016,0.16515774,0.6802618,1001.14764, , , , 
2026-03-20 17:53:50.366,1.3160524,5.962914,9.183653,-0.35888305,-0.11133011,0.26068655,-18.487501,-36.975002,-16.85625,0.20103185,0.16340858,0.6823437,1001.14764, , , , 
2026-03-20 17:53:50.386,0.6029913,5.6757755,11.408978,-0.6545416,-0.091782436,0.29367325,-18.54375,-37.050003,-16.725,0.19883141,0.1579489,0.6847352,1001.14764, , , , 
2026-03-20 17:53:50.406,0.6987042,4.776074,13.409378,-0.4517345,0.16233732,0.3291034,-18.75,-37.0875,-16.743752,0.19495521,0.15359454,0.687948,1001.14764, , , , 
2026-03-20 17:53:50.426,0.86141616,3.991228,13.509876,-0.24648394,-0.15409064,0.22281294,-18.956251,-37.0125,-17.175001,0.19247131,0.15097229,0.69059235,1001.1481, , , , 
2026-03-20 17:53:50.446,0.8709874,3.7328033,11.777473,-0.12553272,-0.49617493,0.05177079,-19.06875,-36.73125,-17.60625,0.19396313,0.14664474,0.69103914,1001.1481, , , , 
2026-03-20 17:53:50.466,0.9284152,3.6801612,11.251052,0.14935644,-0.083230324,-0.06918044,-19.181252,-36.45,-18.0375,0.19559233,0.14447135,0.690557,1001.1481, , , , 
2026-03-20 17:53:50.486,0.6125626,3.885944,9.738789,0.399811,0.3969094,-0.170584,-19.425001,-36.28125,-18.35625,0.19636968,0.14822078,0.6894955,1001.1481, , , , 
2026-03-20 17:53:50.506,0.37328035,4.0965123,8.446664,0.38881543,0.44333512,-0.2536616,-19.63125,-36.16875,-18.225,0.19590095,0.1528386,0.688668,1001.1553, , , , 
2026-03-20 17:53:50.526,-0.19621146,4.546363,7.125826,0.23732096,0.2930624,-0.260992,-19.650002,-36.2625,-17.831251,0.19486386,0.15962939,0.6867048,1001.1553, , , , 
2026-03-20 17:53:50.546,-0.2009971,4.5320063,6.2213387,0.076052666,0.15500695,-0.16814053,-19.5,-36.412502,-17.6625,0.19402988,0.16271128,0.68539995,1001.1553, , , , 
2026-03-20 17:53:50.566,-0.31585258,4.316652,5.5704913,-0.05222894,0.107359484,-0.080176,-19.1625,-36.43125,-17.643751,0.1931595,0.16394553,0.6846961,1001.1553, , , , 
2026-03-20 17:53:50.586,-0.37328035,3.9960139,5.9724855,-0.041233372,0.20265439,0.039553493,-18.91875,-36.600002,-17.6625,0.19166182,0.1647039,0.68492115,1001.16425, , , , 
2026-03-20 17:53:50.606,0.11485548,3.6179478,5.85763,0.028405212,0.28206682,0.10797035,-18.768751,-36.91875,-17.79375,0.19003454,0.16632487,0.68598735,1001.16425, , , , 
2026-03-20 17:53:50.626,0.6364908,3.4360933,5.369494,-0.0033597562,0.13912445,0.060322896,-18.69375,-37.0875,-17.831251,0.18879592,0.16793339,0.68702996,1001.16425, , , , 
2026-03-20 17:53:50.646,0.71306115,3.5653057,5.0009995,-0.13897173,-0.066126116,-0.028863361,-18.69375,-37.0125,-17.79375,0.18827808,0.1677118,0.6873085,1001.16425, , , , 
2026-03-20 17:53:50.666,0.15314065,3.871587,5.9724855,-0.23548837,-0.09666935,-0.06551525,-18.69375,-36.84375,-17.8125,0.18751407,0.16577202,0.6870694,1001.1644, , , , 
2026-03-20 17:53:50.686,0.2009971,4.0677986,6.9678993,-0.14630212,0.020616686,-0.03375028,-18.675001,-36.525,-17.79375,0.18633804,0.16434714,0.6870182,1001.1644, , , , 
2026-03-20 17:53:50.706,-0.11964113,4.56072,7.2119675,-0.09498947,0.076816246,-0.07895427,-18.675001,-36.412502,-17.79375,0.18546776,0.16413411,0.68693465,1001.1644, , , , 
2026-03-20 17:53:50.726,0.023928227,5.1254263,8.221739,-0.13408482,-0.038026333,-0.100945406,-18.5625,-36.61875,-17.775002,0.18395711,0.16382352,0.68652236,1001.1644, , , , 
2026-03-20 17:53:50.746,0.3684947,5.608776,8.729017,-0.14263692,-0.20906848,-0.18402301,-18.31875,-36.73125,-17.868752,0.18373488,0.16225661,0.68552816,1001.1617, , , , 
2026-03-20 17:53:50.766,-0.32063824,6.1974106,9.3511505,-0.058337588,-0.22128576,-0.21334453,-18.13125,-36.75,-18.09375,0.18435565,0.16035207,0.68376905,1001.1617, , , , 
2026-03-20 17:53:50.786,-0.32542387,6.2644095,9.762716,0.13836087,-0.07223476,-0.12782346,-17.925001,-36.600002,-18.206251,0.18541285,0.15999334,0.682252,1001.1617, , , , 
2026-03-20 17:53:50.806,-0.16749759,6.1304116,9.489935,0.24098615,0.10002911,-0.11560616,-17.8125,-36.45,-18.31875,0.18651746,0.16185404,0.681118,1001.1617, , , , 
2026-03-20 17:53:50.826,-0.5982057,6.2691956,9.255438,0.044287696,-0.09911281,-0.107054055,-17.737501,-36.600002,-18.31875,0.1871977,0.16363555,0.68009347,1001.1515, , , , 
2026-03-20 17:53:50.846,-0.9092726,6.541977,10.188639,-0.30146176,-0.40088,0.0065667965,-17.625,-36.75,-18.112501,0.18819366,0.16062899,0.6792612,1001.1515, , , , 
2026-03-20 17:53:50.866,0.33499518,6.302695,12.078969,-0.09498947,0.16233732,0.16050471,-17.60625,-36.975002,-18.018751,0.18777259,0.15766032,0.67991436,1001.1515, , , , 
2026-03-20 17:53:50.886,1.0959128,5.4843497,11.432906,0.16768238,0.6913462,0.12996148,-17.5125,-36.956253,-18.0,0.18544658,0.16083102,0.68177176,1001.1515, , , , 
2026-03-20 17:53:50.906,0.8709874,4.8095737,11.52862,0.09682207,0.6693551,0.028557928,-17.60625,-36.73125,-17.962502,0.18154907,0.16664003,0.6834387,1001.1534, , , , 
2026-03-20 17:53:50.926,0.9810573,4.321438,11.117054,-0.015577052,0.2075413,0.0151189035,-17.75625,-36.675003,-18.056252,0.17879608,0.16968001,0.68428236,1001.1534, , , , 
2026-03-20 17:53:50.946,2.0003998,3.8093736,9.724431,-0.19272783,-0.061239194,-0.039858926,-17.90625,-36.7125,-18.056252,0.17771256,0.16938116,0.68461573,1001.1534, , , , 
2026-03-20 17:53:50.966,2.0721843,3.8668015,9.470792,-0.35766134,-0.21273366,-0.17791437,-18.0375,-36.84375,-17.962502,0.1766247,0.16642557,0.68416154,1001.1534, , , , 
2026-03-20 17:53:50.986,1.3160524,4.0390844,9.260223,-0.34055713,-0.16386448,-0.23900084,-17.94375,-36.9375,-17.962502,0.17525928,0.16267762,0.6828968,1001.16614, , , , 
2026-03-20 17:53:51.006,0.90448695,3.790231,9.245867,-0.16340633,0.11835505,-0.21823144,-17.737501,-36.73125,-18.0375,0.17319079,0.16111743,0.6817428,1001.16614, , , , 
2026-03-20 17:53:51.026,0.52163535,3.5988052,9.001799,-0.07177661,0.053603385,-0.229227,-17.475,-36.487503,-18.31875,0.17120571,0.16142754,0.68063176,1001.16614, , , , 
2026-03-20 17:53:51.046,0.37328035,3.5796626,8.1020975,0.0051923506,-0.15897755,-0.25488332,-17.19375,-36.24375,-18.806252,0.17096743,0.16109724,0.67894185,1001.16614, , , , 
2026-03-20 17:53:51.066,0.3397808,3.8093736,6.9296145,0.10415245,-0.19074252,-0.28542656,-16.95,-36.075,-19.237501,0.17220898,0.16063139,0.67664146,1001.17145, , , , 
2026-03-20 17:53:51.086,-0.18664017,4.091727,5.599205,0.07849612,-0.084452055,-0.25488332,-16.875,-36.112503,-19.44375,0.17333646,0.1607573,0.67478675,1001.17145, , , , 
2026-03-20 17:53:51.106,-0.81834537,4.1204405,6.125626,-0.016798781,0.03649917,-0.107054055,-16.706251,-36.09375,-19.35,0.17367865,0.16131303,0.6727494,1001.17145, , , , 
2026-03-20 17:53:51.126,-0.047856454,3.8093736,7.192825,0.07238748,0.18555018,0.04444041,-16.425001,-36.225002,-18.993752,0.17292579,0.16231942,0.6727779,1001.17145, , , , 
2026-03-20 17:53:51.146,0.7848458,3.4360933,6.943971,0.2629773,0.16355905,-0.037415467,-16.29375,-36.412502,-18.65625,0.17290987,0.16478373,0.6729872,1001.1727, , , , 
2026-03-20 17:53:51.166,-0.0526421,3.842873,5.8480587,0.30573782,0.057268575,-0.18402301,-16.125,-36.581253,-18.54375,0.17421116,0.16781425,0.6717791,1001.1727, , , , 
2026-03-20 17:53:51.186,-1.0959128,4.316652,6.407979,0.24831653,0.026725333,-0.11194097,-16.1625,-36.84375,-18.45,0.17557625,0.17030907,0.67020273,1001.1727, , , , 
2026-03-20 17:53:51.206,-1.1485549,4.4841495,6.273981,0.17012584,0.0035124724,0.07742711,-16.35,-37.0125,-18.375,0.1769933,0.17203312,0.66967356,1001.1727, , , , 
2026-03-20 17:53:51.226,-0.29671,4.3788652,7.4943204,0.0015271619,-0.04657844,0.26068655,-16.237501,-37.03125,-18.393751,0.17794783,0.1722204,0.67072934,1001.1672, , , , 
2026-03-20 17:53:51.246,0.70348984,4.3118663,8.886943,0.0858265,0.008399391,0.23503022,-15.843751,-37.18125,-18.54375,0.17876552,0.17159657,0.6724752,1001.1672, , , , 
2026-03-20 17:53:51.266,0.60777694,4.493721,8.992228,0.17012584,0.013286309,0.1226311,-15.58125,-37.275,-18.6375,0.17985079,0.17239709,0.67357767,1001.1672, , , , 
2026-03-20 17:53:51.286,0.27756742,4.9674997,8.906086,0.00763581,-0.13332124,0.07498365,-15.637501,-37.29375,-18.50625,0.18122047,0.17237312,0.67391974,1001.1672,37.88738624,127.73747209,171.48175048828125,1.48
2026-03-20 17:53:51.306,-0.062213387,5.4795637,10.025927,-0.11575887,-0.110108376,0.1800524,-15.975,-37.40625,-18.1875,0.18182838,0.17073247,0.67462754,1001.1634, , , , 
2026-03-20 17:53:51.326,0.4354937,5.623133,10.657632,-0.11209369,0.053603385,0.34376416,-16.48125,-37.331253,-17.71875,0.18170772,0.16925152,0.6766089,1001.1634, , , , 
2026-03-20 17:53:51.346,0.8805587,5.1589255,10.614561,-0.2855793,0.075594515,0.3620901,-16.706251,-37.18125,-17.475,0.18061143,0.16786444,0.6795902,1001.1634, , , , 
2026-03-20 17:53:51.366,0.41635114,4.575077,12.284752,-0.5213731,-0.003817905,0.2875646,-16.95,-37.0875,-17.625,0.17800124,0.16455159,0.68263525,1001.1634, , , , 
2026-03-20 17:53:51.386,-0.41635114,4.058227,14.658431,-0.38209593,-0.066126116,0.23869541,-17.19375,-36.9,-17.85,0.17510566,0.1604292,0.68519056,1001.1672, , , , 
2026-03-20 17:53:51.406,-0.85184485,3.818945,13.825729,0.06750056,-0.18096869,0.25702137,-17.493752,-36.7125,-18.206251,0.1750934,0.15792257,0.6868868,1001.1672, , , , 
2026-03-20 17:53:51.426,0.3397808,3.804588,11.538191,0.24953826,-0.15775582,0.19593488,-17.737501,-36.393753,-18.618752,0.17776425,0.15729737,0.6879846,1001.1672, , , , 
2026-03-20 17:53:51.446,0.39720857,4.0869412,10.246066,0.29718572,0.004734202,0.040775225,-17.85,-36.05625,-18.84375,0.18026993,0.15835539,0.68823063,1001.1672, , , , 
2026-03-20 17:53:51.466,-0.19142582,4.254439,8.642876,0.21288638,0.062155493,4.581486E-4,-17.98125,-35.8125,-19.03125,0.18170953,0.16050008,0.68796206,1001.17444, , , , 
2026-03-20 17:53:51.486,-0.17706887,3.9768713,7.948957,0.03329213,-0.03924806,0.012675445,-18.150002,-35.737503,-18.91875,0.18229906,0.16144115,0.68788475,1001.17444, , , , 
2026-03-20 17:53:51.506,-0.038285162,3.7663028,7.446464,-0.021685699,-0.22739442,0.004123337,-18.431252,-35.98125,-18.525002,0.18308264,0.16054466,0.6877301,1001.17444, , , , 
2026-03-20 17:53:51.526,0.28713873,3.6753755,5.938986,-0.04734202,-0.36422813,-0.03252855,-18.581251,-36.300003,-18.225,0.18497607,0.15823054,0.68712115,1001.17444, , , , 
2026-03-20 17:53:51.546,0.22013968,3.7280176,5.2929235,-0.058337588,-0.25305074,-0.05574141,-18.6375,-36.600002,-18.13125,0.1867822,0.15569375,0.6862381,1001.181, , , , 
2026-03-20 17:53:51.566,0.37328035,3.6275191,4.938786,-0.014355322,0.08536835,-0.037415467,-18.618752,-36.675003,-18.0375,0.18716459,0.15510175,0.68581396,1001.181, , , , 
2026-03-20 17:53:51.586,0.47856453,3.6658044,5.3742795,-0.10476331,0.14889829,-0.0716239,-18.6375,-36.43125,-17.925001,0.18581243,0.15589003,0.68581325,1001.181, , , , 
2026-03-20 17:53:51.606,-0.07178468,3.9098723,6.168697,-0.16584979,-0.04535671,-0.1339321,-18.712502,-36.318752,-17.98125,0.18429895,0.15548459,0.6853795,1001.181, , , , 
2026-03-20 17:53:51.626,-0.40677986,4.23051,6.302695,-0.092546016,-0.050243627,-0.09483676,-18.69375,-36.2625,-18.056252,0.18367413,0.1543845,0.68461424,1001.18634, , , , 
2026-03-20 17:53:51.646,-0.4019942,4.402794,6.0777693,0.013744458,0.11346813,-0.011759147,-18.69375,-36.393753,-18.225,0.1831771,0.15463914,0.6843346,1001.18634, , , , 
2026-03-20 17:53:51.666,-0.4019942,4.6085763,6.3601227,-0.07055488,0.13790272,0.04444041,-18.50625,-36.5625,-18.487501,0.18221863,0.15555406,0.68470824,1001.18634, , , , 
2026-03-20 17:53:51.686,-0.038285162,4.924429,8.446664,-0.16707152,0.07315106,0.07131846,-18.243752,-36.581253,-18.675001,0.18069047,0.15538765,0.6855122,1001.18634, , , , 
2026-03-20 17:53:51.706,0.6221339,5.0440702,9.882358,0.06994402,-0.16019928,-0.048411034,-18.09375,-36.46875,-18.6375,0.18026799,0.15471578,0.685815,1001.18274, , , , 
2026-03-20 17:53:51.726,0.21535404,5.7284174,8.9826565,0.31428993,-0.13820815,-0.17669263,-18.112501,-36.28125,-18.65625,0.18290286,0.15487902,0.6842849,1001.18274, , , , 
2026-03-20 17:53:51.746,-0.033499517,6.0490556,9.509077,0.46822786,0.10002911,-0.17180572,-18.13125,-36.16875,-18.806252,0.18550621,0.15783072,0.68237984,1001.18274, , , , 
2026-03-20 17:53:51.766,0.89491564,5.8480587,9.79143,0.59528774,0.12079851,-0.25732678,-18.0,-36.09375,-18.6375,0.18808398,0.16285011,0.6803694,1001.18274, , , , 
2026-03-20 17:53:51.786,0.22971097,6.3601227,8.073383,0.43157595,0.012064579,-0.4027126,-17.831251,-36.15,-18.50625,0.19035724,0.16663586,0.6780307,1001.1753, , , , 
2026-03-20 17:53:51.806,-1.564906,7.288538,8.748159,-0.08888082,-0.066126116,-0.19257513,-17.587502,-36.412502,-18.300001,0.19179699,0.16932757,0.67446357,1001.1753, , , , 
2026-03-20 17:53:51.826,-0.7848458,7.015756,10.557134,-0.32833982,0.17088942,0.15806127,-17.38125,-36.7125,-17.79375,0.19001433,0.16815592,0.6747661,1001.1753, , , , 
2026-03-20 17:53:51.846,0.85184485,6.1639113,12.117254,-0.3112356,0.26496258,0.22769985,-17.306252,-36.862503,-17.34375,0.18637201,0.1672386,0.6773306,1001.1753, , , , 
2026-03-20 17:53:51.866,1.1820544,4.9866424,12.265609,-0.19639303,-0.01847866,0.08964441,-17.212502,-36.9375,-17.118752,0.18385845,0.16614512,0.67922896,1001.17316, , , , 
2026-03-20 17:53:51.886,1.1820544,4.766503,10.514063,-0.10476331,-0.35323256,-0.0129808765,-17.23125,-36.825,-17.19375,0.18419927,0.16354565,0.6793694,1001.17316, , , , 
2026-03-20 17:53:51.906,1.105484,4.5224347,8.599805,-0.15851942,-0.23350306,0.0065667965,-17.25,-36.6375,-17.53125,0.18562786,0.16034853,0.6789088,1001.17316, , , , 
2026-03-20 17:53:51.926,1.5936198,3.9625144,8.772088,-0.20494513,0.18432845,0.038331766,-17.475,-36.61875,-17.90625,0.18451832,0.15883255,0.6794036,1001.17316, , , , 
2026-03-20 17:53:51.946,1.3830515,3.2733815,9.710074,-0.23793183,0.2197586,-0.07895427,-17.79375,-36.693752,-18.112501,0.18118669,0.15893623,0.6801926,1001.1766, , , , 
2026-03-20 17:53:51.966,0.74177504,3.2877383,9.700503,-0.23548837,0.04016436,-0.16936226,-17.831251,-36.675003,-18.206251,0.17835052,0.15824997,0.67996085,1001.1766, , , , 
2026-03-20 17:53:51.986,0.39720857,3.4169507,9.274581,-0.1499673,0.03161225,-0.17791437,-17.625,-36.581253,-18.243752,0.17644347,0.1572565,0.6791135,1001.1766, , , , 
2026-03-20 17:53:52.006,0.37328035,3.3116665,8.269595,-0.038789913,-0.0013744457,-0.17180572,-17.41875,-36.600002,-18.431252,0.17538121,0.15705968,0.6781127,1001.1766, , , , 
2026-03-20 17:53:52.026,0.15792629,3.4313076,7.04447,0.013744458,-0.09666935,-0.18035783,-17.00625,-36.412502,-18.525002,0.17535846,0.15687892,0.6768025,1001.18317, , , , 
2026-03-20 17:53:52.046,0.32063824,3.5796626,6.862615,0.083383046,0.018173227,-0.14981459,-16.6875,-36.206253,-18.54375,0.17575155,0.15704617,0.6755025,1001.18317, , , , 
2026-03-20 17:53:52.066,0.5168497,3.7184465,6.5228343,0.18234314,0.12079851,-0.170584,-16.85625,-36.206253,-18.69375,0.17603175,0.15883204,0.674308,1001.18317, , , , 
2026-03-20 17:53:52.086,-0.1052842,3.885944,6.6281185,0.15668681,0.07315106,-0.1754709,-16.893751,-36.131252,-18.825,0.17626233,0.1610648,0.6729614,1001.18317, , , , 
2026-03-20 17:53:52.106,-0.6029913,3.9864426,6.910472,0.17379104,-0.030695954,-0.08872811,-16.9125,-36.16875,-18.7875,0.17677146,0.16223738,0.67203325,1001.1812, , , , 
2026-03-20 17:53:52.126,-0.17228323,4.063013,7.1018977,0.28741187,0.026725333,0.022449281,-16.96875,-36.318752,-18.73125,0.17869025,0.16403118,0.6712048,1001.1812, , , , 
2026-03-20 17:53:52.146,0.5694918,4.421936,6.2213387,0.35582873,0.016951498,0.06276636,-16.59375,-36.375,-18.69375,0.18106113,0.1664687,0.67099243,1001.1812, , , , 
2026-03-20 17:53:52.166,0.44027936,4.7952166,6.2548385,0.17745622,-0.016035201,0.06887501,-16.25625,-36.46875,-18.45,0.183219,0.16818178,0.6709345,1001.1812, , , , 
2026-03-20 17:53:52.186,0.24885355,4.74736,8.216953,0.044287696,-0.06368265,0.12751803,-16.087502,-36.61875,-18.35625,0.18431689,0.16832456,0.671416,1001.1704, , , , 
2026-03-20 17:53:52.206,0.33499518,4.685147,9.891929,0.17867795,0.025503604,0.16416991,-15.95625,-36.80625,-18.2625,0.1853769,0.16844171,0.67224985,1001.1704, , , , 
2026-03-20 17:53:52.226,0.94277215,4.5559344,10.025927,0.458454,0.07315106,0.08720095,-16.125,-36.9,-18.0375,0.18743417,0.17061266,0.672791,1001.1704, , , , 
2026-03-20 17:53:52.246,0.53599226,5.020142,8.322237,0.5244274,0.08414663,-0.050854493,-16.35,-36.9,-18.056252,0.19054088,0.17482498,0.6721234,1001.1704, , , , 
2026-03-20 17:53:52.266,-0.12921242,5.7954164,6.771688,0.09193515,-0.1443168,0.0016798781,-16.63125,-36.99375,-17.98125,0.19310842,0.17727102,0.6711884,1001.1638, , , , 
2026-03-20 17:53:52.286,0.13878371,6.135197,8.207381,-0.39920014,-0.102778,0.15073088,-16.81875,-37.18125,-17.75625,0.19329986,0.17492883,0.6716213,1001.1638,37.88737538,127.73748342,171.49810791015625,1.47
2026-03-20 17:53:52.306,0.3924229,5.910272,10.8969145,-0.5555815,0.3394881,0.24724752,-16.7625,-37.48125,-17.4375,0.18943933,0.17199223,0.6741646,1001.1638, , , , 
2026-03-20 17:53:52.326,-0.08135597,5.197211,14.677574,-0.43829548,0.51908237,0.27656904,-16.725,-37.6875,-16.987501,0.1826371,0.17134415,0.6779102,1001.1638, , , , 
2026-03-20 17:53:52.346,0.16749759,4.575077,14.557933,-0.15118903,-0.013591741,0.18371758,-16.44375,-37.65,-16.9125,0.17873345,0.17065614,0.68071216,1001.15826, , , , 
2026-03-20 17:53:52.366,0.26799613,4.345366,12.289537,0.11026109,-0.44852746,0.09086613,-16.3125,-37.3125,-17.19375,0.1804205,0.16833638,0.6812826,1001.15826, , , , 
2026-03-20 17:53:52.386,0.56470615,4.4315076,9.667004,0.33628106,-0.4045452,-0.011759147,-16.425001,-36.9,-17.60625,0.18518338,0.16652678,0.6803231,1001.15826, , , , 
2026-03-20 17:53:52.406,0.038285162,4.508078,8.035098,0.44623673,-0.0074830935,-0.052076224,-16.518751,-36.675003,-18.075,0.18924108,0.16795056,0.67898273,1001.15826, , , , 
2026-03-20 17:53:52.426,-0.25842485,4.2017965,6.896115,0.4156935,0.20265439,0.022449281,-16.7625,-36.6375,-18.28125,0.19133243,0.17208955,0.6783756,1001.1587, , , , 
2026-03-20 17:53:52.446,-0.076570325,3.8620157,5.7954164,0.07849612,0.049938194,0.049327333,-17.025002,-36.975002,-18.112501,0.19229661,0.17488004,0.6784408,1001.1587, , , , 
2026-03-20 17:53:52.466,-0.08135597,3.7663028,6.2691956,-0.34300056,-0.14309508,0.06276636,-17.0625,-37.237503,-17.831251,0.19176756,0.17333357,0.6789515,1001.1587, , , , 
2026-03-20 17:53:52.486,0.047856454,3.5126636,8.015956,-0.5079341,-0.050243627,0.084757484,-16.95,-37.275,-17.493752,0.19020626,0.17027535,0.6797275,1001.1587, , , , 
2026-03-20 17:53:52.506,0.5168497,3.1872396,9.5665045,-0.19272783,0.11102467,0.05054906,-16.893751,-37.162502,-17.212502,0.18652336,0.1667589,0.6813945,1001.1606, , , , 
2026-03-20 17:53:52.526,0.7465607,3.4169507,7.623533,0.11514801,0.0059559317,-0.09850194,-16.875,-36.9375,-17.212502,0.18582627,0.16705906,0.68145835,1001.1606, , , , 
2026-03-20 17:53:52.546,0.11006984,3.8380876,5.8241305,0.09071342,-0.07345649,-0.18890993,-16.9125,-36.975002,-17.25,0.18671851,0.16783267,0.6801158,1001.1606, , , , 
2026-03-20 17:53:52.566,-0.82313097,4.546363,5.790631,-0.051007207,-0.0697913,-0.075289086,-17.175001,-37.162502,-17.34375,0.18707955,0.16786441,0.6788571,1001.1606, , , , 
2026-03-20 17:53:52.586,-0.12921242,4.508078,5.7523456,-0.13286309,-0.13209951,0.10430516,-17.34375,-37.3125,-17.587502,0.18718721,0.16668792,0.6788983,1001.1591, , , , 
2026-03-20 17:53:52.606,0.8135597,4.206582,6.3744793,-0.13897173,-0.08811724,0.07864884,-17.325,-37.3875,-17.587502,0.18723623,0.16464648,0.67966187,1001.1591, , , , 
2026-03-20 17:53:52.626,0.44506502,4.56072,6.9344,-0.011911863,0.14401138,-0.010537418,-17.456251,-37.21875,-17.587502,0.18670803,0.16429898,0.68000364,1001.1591, , , , 
2026-03-20 17:53:52.646,0.023928227,4.9531426,7.408179,0.083383046,0.1660025,-0.05574141,-17.38125,-36.975002,-17.737501,0.18575934,0.16598439,0.68002075,1001.1591, , , , 
2026-03-20 17:53:52.666,-0.2632105,5.3359947,7.379465,0.03329213,0.004734202,-0.07040217,-17.19375,-36.825,-17.775002,0.18554327,0.16731371,0.67961967,1001.1551, , , , 
2026-03-20 17:53:52.686,-0.7322037,5.948557,8.427522,0.014966187,-0.0697913,-0.050854493,-17.04375,-36.7125,-17.79375,0.18587296,0.1673371,0.6790057,1001.1551, , , , 
2026-03-20 17:53:52.706,-0.09092726,5.9724855,9.346365,0.2556469,-0.08811724,-0.044745844,-16.875,-36.768753,-17.85,0.18718936,0.16781026,0.67837465,1001.1551, , , , 
2026-03-20 17:53:52.726,0.51206404,6.029913,7.690532,0.458454,-0.09666935,-0.2035707,-16.837502,-36.787502,-17.90625,0.1904278,0.17001107,0.6767099,1001.1551, , , , 
2026-03-20 17:53:52.746,-0.5024927,6.259624,6.6424756,0.3594939,0.048716467,-0.29397866,-16.95,-36.825,-17.8125,0.19342792,0.17317797,0.67402065,1001.14746, , , , 
2026-03-20 17:53:52.766,-1.4500505,6.422336,8.178668,0.25198174,0.42378744,-0.099723674,-17.04375,-37.068752,-17.643751,0.19350317,0.17743172,0.67243224,1001.14746, , , , 
2026-03-20 17:53:52.786,-0.7609176,6.1447687,8.819944,0.088269964,0.4641045,0.057879437,-17.04375,-37.29375,-17.400002,0.19144091,0.18227638,0.67300063,1001.14746, , , , 
2026-03-20 17:53:52.806,-0.74177504,6.135197,9.432507,-0.4016436,0.0707076,0.093309596,-16.85625,-37.518753,-17.118752,0.18887258,0.18297996,0.6742476,1001.14746, , , , 
2026-03-20 17:53:52.826,-0.42592242,6.04427,12.064611,-0.52992517,-0.0025961753,0.16416991,-16.725,-37.800003,-16.95,0.18546547,0.17939681,0.67605263,1001.13873, , , , 
2026-03-20 17:53:52.846,0.56470615,5.3312087,12.68196,-0.2196059,0.17577635,0.17027856,-16.556252,-37.706253,-16.931252,0.18243687,0.17696415,0.67817783,1001.13873, , , , 
2026-03-20 17:53:52.866,0.51206404,5.0823555,11.117054,-0.009468404,0.13423753,0.09575305,-16.3875,-37.443752,-17.0625,0.18080555,0.17726044,0.67955744,1001.13873, , , , 
2026-03-20 17:53:52.886,0.41156548,4.843073,8.556734,-0.097432934,-0.04535671,0.14462224,-16.40625,-37.256252,-17.23125,0.18072131,0.17698437,0.6804187,1001.13873, , , , 
2026-03-20 17:53:52.906,0.6125626,4.6037908,8.384451,-0.37110037,0.076816246,0.22525638,-16.5,-36.9375,-17.456251,0.17997733,0.17561902,0.68157834,1001.14105, , , , 
2026-03-20 17:53:52.926,1.2155539,3.842873,10.250853,-0.54092073,0.15378521,0.24480405,-16.575,-36.693752,-17.8125,0.17533992,0.17213844,0.6850585,1001.14105, , , , 
2026-03-20 17:53:52.946,1.7371893,3.3499517,10.700703,-0.4480693,-0.003817905,0.037110034,-16.650002,-36.393753,-18.16875,0.17154227,0.168628,0.68722767,1001.14105, , , , 
2026-03-20 17:53:52.966,0.95712906,3.5126636,10.073783,-0.22937973,-0.0050396346,-0.14737113,-16.7625,-36.112503,-18.45,0.1690589,0.16602431,0.6874618,1001.14105, , , , 
2026-03-20 17:53:52.986,0.30149564,3.7184465,8.7577305,-0.083993904,-0.04657844,-0.18646647,-16.81875,-35.9625,-18.712502,0.16785266,0.16504745,0.6865044,1001.1515, , , , 
2026-03-20 17:53:53.006,0.19621146,3.7280176,7.9968133,-0.04367683,-0.12599087,-0.170584,-16.800001,-35.737503,-18.956251,0.16771857,0.16429187,0.6852483,1001.1515, , , , 
2026-03-20 17:53:53.026,0.6652047,3.4217365,7.6139617,0.038179047,-0.2310596,-0.1876882,-16.837502,-35.775,-19.1625,0.1686741,0.16320844,0.68377113,1001.1515, , , , 
2026-03-20 17:53:53.046,0.6795616,3.3690944,6.4606214,0.14569125,-0.15531237,-0.2622137,-16.725,-35.79375,-19.368752,0.17051728,0.16270815,0.681679,1001.1515, , , , 
2026-03-20 17:53:53.066,-0.16271193,3.5365918,6.2309103,0.1640172,-0.0050396346,-0.25732678,-16.612501,-35.568752,-19.5,0.17172404,0.16369799,0.6794208,1001.157, , , , 
2026-03-20 17:53:53.086,-0.2727818,3.603591,6.250053,0.18234314,0.021838415,-0.15714496,-16.575,-35.5875,-19.5,0.17243932,0.16544443,0.67773956,1001.157, , , , 
2026-03-20 17:53:53.106,0.076570325,3.6849468,6.2309103,0.14446951,0.014508039,-0.11071924,-16.5375,-35.5875,-19.40625,0.173273,0.16690533,0.6766025,1001.157, , , , 
2026-03-20 17:53:53.126,-0.12921242,4.1491547,6.795616,0.120034926,-0.034361143,-0.0594066,-16.40625,-35.68125,-19.368752,0.17408729,0.1678888,0.67574453,1001.157, , , , 
2026-03-20 17:53:53.146,0.15792629,4.2975097,6.599405,0.14569125,-0.09789108,0.020005822,-16.21875,-36.05625,-19.368752,0.1755183,0.16840613,0.6752703,1001.1608, , , , 
2026-03-20 17:53:53.166,0.18664017,4.436293,6.9248285,0.06383537,0.024281874,0.06276636,-16.2,-36.412502,-19.237501,0.17673571,0.16868748,0.6752914,1001.1608, , , , 
2026-03-20 17:53:53.186,0.05742774,4.5559344,8.480164,0.0858265,0.2283107,0.11530073,-16.29375,-36.693752,-18.956251,0.17636436,0.16996907,0.676087,1001.1608, , , , 
2026-03-20 17:53:53.206,0.13399807,4.6707897,9.001799,0.18845178,0.23686282,0.15439607,-16.3875,-36.787502,-18.806252,0.17593156,0.17184074,0.67696476,1001.1608, , , , 
2026-03-20 17:53:53.226,0.19142582,4.9292145,8.805588,0.00641408,-0.027030766,0.1556178,-16.35,-36.80625,-18.65625,0.17629002,0.17375164,0.6783151,1001.1604, , , , 
2026-03-20 17:53:53.246,0.1052842,5.326423,10.585847,-0.18051054,-0.18829907,0.20570871,-16.2,-36.881252,-18.487501,0.17671224,0.17171347,0.67948323,1001.1604, , , , 
2026-03-20 17:53:53.266,1.134198,5.2019963,12.658031,0.012522728,0.0035124724,0.21914774,-16.03125,-36.862503,-18.487501,0.17691188,0.1696624,0.6811462,1001.1604, , , , 
2026-03-20 17:53:53.286,1.4739788,5.235496,12.059826,0.23365578,0.114689864,0.041996952,-16.143751,-36.825,-18.525002,0.1776028,0.17058067,0.68208736,1001.1604,37.88736461,127.73749432,171.65289306640625,1.48
2026-03-20 17:53:53.306,0.67477596,5.503492,11.093125,0.3167334,0.1574504,-0.11071924,-16.425001,-36.80625,-18.54375,0.17852502,0.17337812,0.68157244,1001.1604, , , , 
2026-03-20 17:53:53.326,-0.6269195,5.503492,10.164711,0.28252497,0.059712034,-0.107054055,-16.575,-36.75,-18.5625,0.17966394,0.17651297,0.68037814,1001.1604, , , , 
2026-03-20 17:53:53.346,-1.052842,5.0392847,9.710074,0.20311254,-0.07223476,0.066431545,-16.63125,-36.7125,-18.5625,0.18133922,0.17819314,0.6797338,1001.1604, , , , 
2026-03-20 17:53:53.366,-0.55034924,4.359723,9.020942,0.160352,-0.12721258,0.16294818,-16.518751,-36.91875,-18.431252,0.18339764,0.17851159,0.68004876,1001.1604, , , , 
2026-03-20 17:53:53.386,-0.55034924,4.1874394,8.269595,0.040622506,0.09392046,0.15073088,-16.368752,-37.0875,-18.206251,0.18462567,0.17863697,0.6808638,1001.1651, , , , 
2026-03-20 17:53:53.406,-0.8135597,3.9864426,9.600004,0.038179047,0.4091267,0.17150028,-16.425001,-37.03125,-18.056252,0.18305725,0.18030348,0.68242824,1001.1651, , , , 
2026-03-20 17:53:53.426,-0.40677986,3.6993039,8.49452,0.12125666,0.36270097,0.13607013,-16.556252,-37.162502,-17.962502,0.18143772,0.18272685,0.6837503,1001.1651, , , , 
2026-03-20 17:53:53.446,-0.27756742,3.8476589,6.4606214,-0.1707367,0.14278965,0.05421425,-16.59375,-37.10625,-17.75625,0.17947264,0.18499242,0.6851737,1001.1651, , , , 
