Time,Accel_X,Accel_Y,Accel_Z,Gyro_X,Gyro_Y,Gyro_Z,Mag_X,Mag_Y,Mag_Z,Orient_X,Orient_Y,Orient_Z,Pressure,Lat,Lng,Alt,Speed
2026-03-20 17:47:20.842,2.6321049,6.3314085,5.709275,0.54901475,0.69256794,0.1301142,-21.993752,-53.1375,-17.587502,0.31109172,0.18583472,0.63966125,1001.0977,37.88747555,127.73737388,169.6868896484375,0.0
2026-03-20 17:47:20.860,1.0815558,6.814759,5.9916277,0.116522454,1.1629338,-0.051923506,-22.143751,-53.025,-17.38125,0.30415723,0.2024435,0.6439753,1001.0977, , , , 
2026-03-20 17:47:20.880,0.3493521,6.862615,6.1495543,-0.24633121,0.6913462,0.017715078,-21.9375,-53.006252,-17.2875,0.29600382,0.21033967,0.64744115,1001.0979, , , , 
2026-03-20 17:47:20.900,0.23928227,6.3457656,6.795616,-0.540768,0.18066326,0.13255766,-21.73125,-53.062504,-17.493752,0.2919155,0.21072239,0.6493917,1001.0979, , , , 
2026-03-20 17:47:20.920,0.31106696,6.1830535,7.623533,-0.6714931,-0.19807291,0.23396121,-21.525002,-53.2125,-17.90625,0.28796357,0.20666255,0.6518862,1001.0979, , , , 
2026-03-20 17:47:20.940,0.6987042,6.1639113,7.4512496,-0.636063,-0.23350306,0.32314748,-21.50625,-53.4,-18.337502,0.28500852,0.19822495,0.65498686,1001.0979, , , , 
2026-03-20 17:47:20.960,1.3399807,6.3314085,6.63769,-0.5896372,0.07192933,0.35857764,-21.675001,-53.456253,-18.5625,0.28222346,0.1927179,0.6582297,1001.0967, , , , 
2026-03-20 17:47:20.980,1.861616,5.9964137,6.317052,-0.65683234,0.41890052,0.30482152,-22.25625,-53.156254,-19.35,0.2785444,0.19022481,0.6613348,1001.0967, , , , 
2026-03-20 17:47:21.001,1.8329022,5.6853466,7.5230346,-0.78877914,0.45799586,0.09224058,-22.78125,-52.93125,-19.81875,0.26935005,0.1873144,0.66647273,1001.0967, , , , 
2026-03-20 17:47:21.020,0.8757731,5.8432727,8.30788,-0.7838922,0.38591382,-0.010384701,-23.2875,-52.725002,-20.587502,0.2613346,0.18460965,0.66916084,1001.0967, , , , 
2026-03-20 17:47:21.040,0.82313097,6.178268,8.236095,-0.67760175,0.49953467,0.08857539,-23.2875,-52.518753,-21.056252,0.25356823,0.18258417,0.6718579,1001.08813, , , , 
2026-03-20 17:47:21.060,0.89013004,6.1591253,7.436893,-0.72647095,0.6241511,0.24006985,-23.19375,-51.975002,-22.3125,0.24538937,0.18156461,0.6756637,1001.08813, , , , 
2026-03-20 17:47:21.080,1.4117653,5.6614184,7.149754,-0.93783015,0.6058251,0.26450446,-23.1375,-51.73125,-22.7625,0.23862466,0.18011318,0.6792016,1001.08813, , , , 
2026-03-20 17:47:21.100,2.1343977,5.493921,7.5900335,-1.1577414,0.7353285,0.14599667,-22.96875,-51.206253,-23.643751,0.22791615,0.17680071,0.6840316,1001.08813, , , , 
2026-03-20 17:47:21.120,1.5744773,6.168697,8.786445,-1.2029455,1.0468695,0.08491021,-22.85625,-50.775,-24.468752,0.21441226,0.17407632,0.6887192,1001.07947, , , , 
2026-03-20 17:47:21.140,-0.11964113,5.1206403,9.533006,-1.1345286,1.1128429,0.20341797,-22.893751,-50.568752,-26.062502,0.1990654,0.17314525,0.69390714,1001.07947, , , , 
2026-03-20 17:47:21.161,0.7704889,3.8572302,9.595219,-1.0661118,0.94913113,0.16798781,-22.78125,-50.49375,-27.45,0.18097128,0.17172028,0.70051336,1001.07947, , , , 
2026-03-20 17:47:21.180,1.4356936,4.4745784,10.614561,-0.9024,0.79274976,-0.11911863,-22.743752,-50.156254,-29.118752,0.1683614,0.1703037,0.7039497,1001.07947, , , , 
2026-03-20 17:47:21.200,-0.25842485,6.2787666,11.480763,-0.6507237,0.47754353,-0.2877173,-22.612501,-49.987503,-30.91875,0.1581939,0.16963288,0.70476377,1001.08026, , , , 
2026-03-20 17:47:21.220,-1.1916257,5.2977095,9.671789,-0.4027126,-0.18219042,-0.23640467,-22.5375,-49.968754,-32.7,0.15422167,0.16805004,0.7042426,1001.08026, , , , 
2026-03-20 17:47:21.240,-1.4596218,2.210968,8.106883,-0.30497423,-0.10033454,-0.1508836,-22.837502,-50.2125,-34.36875,0.15295245,0.16342193,0.70278585,1001.08026, , , , 
2026-03-20 17:47:21.260,-0.95712906,2.4837499,8.891729,-0.36850417,0.5752819,0.0140498895,-23.081251,-50.475002,-35.04375,0.14977826,0.1629896,0.7030713,1001.08026, , , , 
2026-03-20 17:47:21.280,-0.37806597,4.8622155,10.116854,-0.4027126,0.39202246,-0.026267186,-23.23125,-51.600002,-37.0125,0.14139043,0.164183,0.70498157,1001.092, , , , 
2026-03-20 17:47:21.300,-0.5407779,3.6179478,9.284152,-0.35628688,-0.50106186,-0.06658426,-22.425001,-51.881252,-37.893753,0.1392221,0.16242512,0.70508,1001.092, , , , 
2026-03-20 17:47:21.320,-0.7704889,3.2542388,8.920443,-0.34162614,-0.4094321,0.083688475,-21.7875,-51.825,-38.100002,0.14072941,0.15615965,0.70483154,1001.092, , , , 
2026-03-20 17:47:21.340,0.4881358,4.1204405,7.456035,-0.3611738,0.12079851,-0.2046397,-20.34375,-51.45,-38.193752,0.1397055,0.15247859,0.7051839,1001.092, , , , 
2026-03-20 17:47:21.360,-0.033499517,3.7710886,8.111669,-0.45524698,0.69378966,-0.5430588,-18.862501,-50.23125,-37.443752,0.13426979,0.15249573,0.70371455,1001.1115, , , , 
2026-03-20 17:47:21.380,0.16749759,2.3545375,9.619147,-0.604298,0.5422952,-0.6395754,-18.75,-49.3875,-36.73125,0.12487591,0.15462491,0.7015883,1001.1115, , , , 
2026-03-20 17:47:21.400,-1.4213367,2.7948167,10.767702,-0.6214022,-0.56459177,-0.81916964,-18.806252,-49.031254,-36.43125,0.11703272,0.15076412,0.69674116,1001.1115, , , , 
2026-03-20 17:47:21.420,-1.4787644,3.5605202,9.911072,-0.20601414,-1.5334233,-0.90469074,-18.768751,-48.16875,-35.8125,0.1202906,0.14108613,0.69000953,1001.1115, , , , 
2026-03-20 17:47:21.440,0.40677986,3.2733815,9.968499,0.4732675,-1.6042836,-0.72509646,-18.618752,-47.71875,-35.643753,0.12846209,0.13329175,0.68379337,1001.1445, , , , 
2026-03-20 17:47:21.460,0.6891329,3.4025939,9.437292,1.1769837,-0.32879797,-0.051923506,-18.6,-47.30625,-35.4,0.14128695,0.12998609,0.67745286,1001.1445, , , , 
2026-03-20 17:47:21.480,-0.21535404,5.2259245,8.709874,1.5557199,1.1690425,0.45020735,-18.7875,-46.912502,-35.006252,0.15020753,0.1448952,0.6777983,1001.1445, , , , 
2026-03-20 17:47:21.500,-1.3208381,4.2831526,6.9966135,1.388343,1.243568,0.53328496,-18.88125,-46.78125,-34.6875,0.15251546,0.15882722,0.679968,1001.1445, , , , 
2026-03-20 17:47:21.520,-0.15314065,4.321438,8.293523,0.77625644,1.243568,0.6200278,-18.993752,-46.85625,-33.43125,0.15286589,0.17474003,0.684146,1001.14105, , , , 
2026-03-20 17:47:21.540,0.5407779,3.211168,8.441878,0.44272426,0.14156792,0.46364638,-19.03125,-47.23125,-32.625,0.15211597,0.18476123,0.68822646,1001.14105, , , , 
2026-03-20 17:47:21.560,-0.019142581,4.570291,8.097312,0.07620538,-0.7014255,0.25717407,-19.0125,-47.53125,-32.268753,0.15666494,0.18444131,0.6900635,1001.14105, , , , 
2026-03-20 17:47:21.580,-0.81834537,5.5226345,8.920443,0.05299252,-0.6391173,0.25228715,-19.181252,-48.15,-31.5375,0.16193715,0.17965978,0.69047326,1001.14105, , , , 
2026-03-20 17:47:21.600,-0.74177504,5.3982077,7.3746796,0.114079,-0.0820086,0.62735814,-19.95,-48.693752,-30.712502,0.16670436,0.17667198,0.69215375,1001.1149, , , , 
2026-03-20 17:47:21.620,0.023928227,5.0823555,7.460821,0.046883874,0.2686278,0.6969967,-20.775002,-48.9,-30.187502,0.16808411,0.17670102,0.6965679,1001.1149, , , , 
2026-03-20 17:47:21.640,0.8135597,4.6564326,8.532805,0.1348484,0.5239693,0.6383537,-21.712502,-48.975002,-29.812502,0.16700402,0.1789242,0.7029387,1001.1149, , , , 
2026-03-20 17:47:21.660,0.57906306,4.2592244,9.614362,0.46715885,1.2643374,0.47586367,-22.143751,-48.99375,-29.7,0.16480711,0.18373227,0.70643663,1001.1149, , , , 
2026-03-20 17:47:21.680,2.0051854,2.5938199,7.9776707,-0.12782346,-0.297033,0.27550003,-22.96875,-48.693752,-29.7,0.15976855,0.19471255,0.7102881,1001.0975, , , , 
2026-03-20 17:47:21.700,0.4019942,4.5798626,6.3457656,-0.93416494,-1.4515674,-0.3488038,-23.0625,-48.525,-29.737501,0.1624148,0.18711515,0.70987177,1001.0975, , , , 
2026-03-20 17:47:21.720,1.2873386,5.584848,7.877172,-1.58046,-1.1473567,-0.5833759,-23.1375,-48.187504,-29.79375,0.16333443,0.17037521,0.7070809,1001.0975, , , , 
2026-03-20 17:47:21.740,0.22971097,3.7806597,7.1162543,-1.8406883,-1.0581706,-0.7202096,-23.306252,-47.737503,-30.056252,0.15864931,0.1519686,0.70344573,1001.0975, , , , 
2026-03-20 17:47:21.760,0.4977071,4.249653,9.01137,-1.421635,0.41523534,-0.64079714,-23.7,-47.362503,-30.300001,0.15067802,0.13610631,0.70002663,1001.0752, , , , 
2026-03-20 17:47:21.780,-0.043070808,3.8093736,10.633704,-0.69104075,1.4928008,-0.36102107,-23.85,-47.34375,-30.45,0.13531639,0.13515727,0.6993381,1001.0752, , , , 
2026-03-20 17:47:21.800,-2.4023938,4.4554358,10.992627,0.12751803,1.0920736,0.03604102,-23.6625,-47.081253,-31.518751,0.12219075,0.14278655,0.7001173,1001.0752, , , , 
2026-03-20 17:47:21.820,-0.82313097,3.2877383,9.772287,0.5270236,-0.4583013,0.21074834,-23.41875,-46.95,-31.931252,0.12113978,0.14819132,0.7010597,1001.0752, , , , 
2026-03-20 17:47:21.840,2.254039,3.0053852,8.078169,0.46227193,-0.7637337,-0.19975278,-22.650002,-46.40625,-33.206253,0.13038364,0.14662173,0.70002395,1001.0452,37.88747555,127.73737388,169.6868896484375,0.0
2026-03-20 17:47:21.860,0.2009971,3.5796626,7.5230346,0.19471315,0.4922043,-0.46120292,-22.2,-46.143753,-33.487503,0.1351817,0.14695667,0.6966525,1001.0452, , , , 
2026-03-20 17:47:21.880,-2.2061825,5.0249276,9.293723,0.093309596,1.3413063,-0.026267186,-22.143751,-46.2,-33.35625,0.12705833,0.1571875,0.69539917,1001.0452, , , , 
2026-03-20 17:47:21.900,-1.1533405,4.3118663,12.658031,0.34376416,0.014508039,0.57848895,-22.2,-46.256252,-33.24375,0.12233528,0.16363126,0.6975391,1001.0452, , , , 
2026-03-20 17:47:21.920,1.1772687,2.8809586,10.140782,0.6675225,-0.7014255,0.3830122,-22.050001,-46.66875,-33.0,0.12806422,0.16391413,0.7005273,1001.021, , , , 
2026-03-20 17:47:21.940,2.009971,2.981457,9.844072,0.9827287,-0.17241658,-0.47830713,-21.806252,-46.706253,-33.075,0.13765454,0.16514508,0.6993993,1001.021, , , , 
2026-03-20 17:47:21.960,-1.698904,5.5800624,8.733803,0.6369792,0.28817546,-0.16554436,-21.6375,-46.59375,-33.037502,0.14265333,0.17247494,0.6942371,1001.021, , , , 
2026-03-20 17:47:21.980,-1.7659031,4.9770713,6.6711893,0.46105018,0.45188722,0.20219624,-21.206251,-46.818752,-32.381252,0.14478351,0.17820373,0.6934672,1001.021, , , , 
2026-03-20 17:47:22.000,-1.0097711,5.2689953,7.092326,0.114079,1.2545636,0.46853328,-21.018751,-47.006252,-31.518751,0.1427027,0.18530191,0.6957828,1000.9804, , , , 
2026-03-20 17:47:22.020,0.1052842,4.3357944,9.79143,0.1678351,1.5587742,0.5528326,-20.925001,-47.2125,-31.087502,0.13466792,0.19473697,0.70103383,1000.9804, , , , 
2026-03-20 17:47:22.040,0.10049855,3.062813,10.8969145,0.13973531,0.52885616,0.216857,-20.775002,-47.68125,-30.468752,0.12688759,0.20630774,0.70571667,1000.9804, , , , 
2026-03-20 17:47:22.060,-1.052842,4.4745784,9.413364,-0.16814053,-2.1161883,-0.6163626,-20.493752,-47.8875,-30.375002,0.13400127,0.19747326,0.7020666,1000.9804, , , , 
2026-03-20 17:47:22.080,-0.6939186,4.895715,7.0301127,-0.23044874,-1.8913901,-0.47708538,-20.475,-48.093754,-30.50625,0.14400949,0.18563803,0.69735247,1000.96234, , , , 
2026-03-20 17:47:22.100,-0.66999036,5.312066,7.245467,0.035888307,-0.0074830935,0.018936807,-20.56875,-48.112503,-30.562502,0.1517022,0.17655319,0.6928703,1000.96234, , , , 
2026-03-20 17:47:22.120,0.44027936,3.6849468,9.45165,0.12018765,0.6571378,-0.055588696,-20.7,-48.018753,-30.375002,0.14925618,0.18007927,0.6936734,1000.96234, , , , 
2026-03-20 17:47:22.140,-1.9286151,4.2257247,9.829716,0.28267768,0.23930627,-0.10079269,-20.925001,-47.925003,-30.093752,0.1472238,0.18376581,0.6934109,1000.96234, , , , 
2026-03-20 17:47:22.160,-2.3545375,4.6564326,9.064013,0.33643377,0.26618433,0.10445788,-21.0,-47.756252,-29.906252,0.14760156,0.18745656,0.6928754,1000.9536, , , , 
2026-03-20 17:47:22.180,0.11006984,4.139583,7.393822,0.34498587,0.46166107,0.12889247,-20.98125,-47.850002,-29.7,0.14811915,0.19185162,0.6936041,1000.9536, , , , 
2026-03-20 17:47:22.200,-0.08135597,4.5942197,7.8436728,0.20815217,0.6669116,-0.109344795,-20.90625,-47.98125,-29.56875,0.1460455,0.19788581,0.69394386,1000.9536, , , , 
2026-03-20 17:47:22.220,-1.3734802,4.627719,8.274381,0.10430516,0.25518876,-0.20952661,-20.71875,-48.24375,-29.343752,0.1432257,0.20286997,0.6933318,1000.9536, , , , 
2026-03-20 17:47:22.240,-1.8664017,4.7569313,8.532805,0.098196514,0.063377224,-0.22052218,-20.5125,-48.225002,-29.118752,0.14217782,0.20509031,0.69191456,1000.9524, , , , 
2026-03-20 17:47:22.260,-1.9812572,4.9770713,7.6809607,0.21792601,0.08170316,-0.12278382,-20.456251,-48.187504,-28.875002,0.14246525,0.20735936,0.6899622,1000.9524, , , , 
2026-03-20 17:47:22.280,-2.1008983,5.426922,7.1306114,0.19715661,0.1122464,-0.053145237,-20.325,-48.206253,-28.800001,0.14310038,0.20969918,0.68893874,1000.9524, , , , 
2026-03-20 17:47:22.300,-0.6891329,4.910072,8.279166,0.14217877,-0.09789108,0.03604102,-19.837502,-48.24375,-28.48125,0.14337118,0.21122794,0.6888223,1000.9524, , , , 
2026-03-20 17:47:22.320,-0.55513483,4.723432,8.226524,0.19104797,-0.18463388,-0.109344795,-19.518751,-48.3375,-28.218752,0.14546144,0.21145703,0.6881548,1000.956, , , , 
2026-03-20 17:47:22.340,-1.402194,5.2307105,7.9106717,0.099418245,-0.1565341,-0.116675176,-19.29375,-48.35625,-28.181252,0.14757022,0.2116103,0.6866595,1000.956, , , , 
2026-03-20 17:47:22.360,-1.1676974,5.1158547,8.973084,-0.008093959,-0.14065161,-0.0042760535,-19.06875,-48.225002,-28.031252,0.14868729,0.21115674,0.6858722,1000.956, , , , 
2026-03-20 17:47:22.380,-0.7513463,4.517649,9.987641,-0.026419902,-0.28970262,-0.034819294,-19.0125,-48.131252,-27.768751,0.1498365,0.20967089,0.6856211,1000.956, , , , 
2026-03-20 17:47:22.400,-1.0336994,4.517649,9.71486,0.13973531,-0.32268932,-0.07391464,-18.69375,-48.093754,-27.54375,0.15198945,0.20760977,0.6847458,1000.96765, , , , 
2026-03-20 17:47:22.420,-0.7896315,4.8765726,7.6953177,0.23380849,0.054825112,0.043371398,-18.35625,-47.925003,-27.300001,0.15507826,0.20785281,0.683684,1000.96765, , , , 
2026-03-20 17:47:22.440,-0.53599226,4.9292145,7.4416785,0.18127412,0.1989892,0.0971275,-18.075,-47.850002,-27.187502,0.15552936,0.20967154,0.6838753,1000.96765, , , , 
2026-03-20 17:47:22.460,-0.033499517,4.8191447,7.489535,0.15439607,0.21242823,0.049480047,-17.1375,-47.625,-26.925001,0.1554761,0.21202408,0.6844973,1000.96765, , , , 
2026-03-20 17:47:22.480,-1.2873386,5.2546387,7.183254,0.037110034,0.17944153,0.037262753,-16.95,-47.550003,-26.85,0.15509786,0.21422105,0.6847365,1000.9749, , , , 
2026-03-20 17:47:22.500,-2.0721843,5.493921,7.3842506,-0.119271345,0.002290743,0.2583958,-16.63125,-47.643753,-26.737501,0.1543346,0.21495068,0.6856709,1000.9749, , , , 
2026-03-20 17:47:22.520,-0.7082755,4.85743,7.618747,-0.35873035,-0.30314165,0.3781253,-16.237501,-47.662502,-26.681252,0.1543937,0.21233484,0.68812686,1000.9749, , , , 
2026-03-20 17:47:22.540,0.4833502,4.3740797,9.188439,-0.468686,-0.5377137,0.20341797,-15.975,-47.71875,-26.962502,0.155028,0.20605484,0.69064873,1000.9749, , , , 
2026-03-20 17:47:22.560,0.15314065,4.3740797,9.15494,-0.32574365,-0.59513503,0.03848448,-15.993751,-47.68125,-27.112501,0.15642186,0.1989302,0.69159555,1000.9821, , , , 
2026-03-20 17:47:22.580,-0.9379865,4.6372905,9.044869,-0.170584,-0.3507891,0.031154104,-16.181252,-47.41875,-27.468752,0.15817586,0.19348954,0.6914444,1000.9821, , , , 
2026-03-20 17:47:22.600,-1.0624132,4.125226,9.30808,0.08353576,-0.016035201,0.2583958,-16.81875,-47.268753,-27.806252,0.15929005,0.19146824,0.6922095,1000.9821, , , , 
2026-03-20 17:47:22.620,0.11485548,4.8239303,8.647661,0.16416991,0.14156792,0.18875721,-17.0625,-47.1375,-27.806252,0.16046484,0.19210187,0.6933573,1000.9821, , , , 
2026-03-20 17:47:22.640,-0.32542387,4.910072,8.690732,0.061544627,-0.19807291,0.08491021,-17.19375,-47.081253,-27.862501,0.16170411,0.19285147,0.69438285,1000.9955, , , , 
2026-03-20 17:47:22.660,-1.0336994,5.316852,8.599805,0.05421425,-0.26648977,0.07147118,-17.25,-47.100002,-27.91875,0.1633242,0.19183539,0.6942705,1000.9955, , , , 
2026-03-20 17:47:22.680,-0.94277215,5.7523456,8.2456665,0.1018617,-0.27015495,0.06780599,-17.2875,-47.04375,-27.956251,0.16639204,0.19011451,0.69394064,1000.9955, , , , 
2026-03-20 17:47:22.700,-0.40677986,5.642276,7.04447,0.022449281,-0.08078687,0.28038692,-17.268751,-46.95,-27.900002,0.16821375,0.18932101,0.69441074,1000.9955, , , , 
2026-03-20 17:47:22.720,0.32063824,5.2402816,6.695118,-0.11438443,0.1782198,0.3243692,-17.23125,-46.912502,-27.7875,0.16865316,0.1888738,0.6964762,1001.0008, , , , 
2026-03-20 17:47:22.740,0.26799613,5.15414,8.078169,-0.18035783,0.479987,0.27794346,-17.475,-46.95,-27.45,0.16554223,0.18934555,0.7000021,1001.0008, , , , 
2026-03-20 17:47:22.760,0.28235307,4.6612186,8.676374,-0.0386372,0.65591604,0.2376264,-17.75625,-47.025,-27.337502,0.1622461,0.19130294,0.7022577,1001.0008, , , , 
2026-03-20 17:47:22.780,-0.6269195,4.7042894,8.695518,4.581486E-4,0.5728384,0.18264857,-18.09375,-47.15625,-27.581251,0.1579242,0.19526623,0.7047983,1001.0008, , , , 
2026-03-20 17:47:22.800,-0.6843473,4.9435716,8.590233,-0.06185006,0.054825112,0.17409647,-18.243752,-47.193752,-27.7875,0.15525344,0.19759354,0.7066582,1001.0059, , , , 
2026-03-20 17:47:22.820,0.6269195,4.5655055,8.154739,-0.18035783,-0.26160285,0.13133593,-18.35625,-47.15625,-28.237501,0.15589793,0.19562967,0.7077587,1001.0059, , , , 
2026-03-20 17:47:22.840,0.8805587,4.2448673,9.30808,-0.09728022,-0.008704823,-0.09834923,-18.31875,-47.025,-28.35,0.15579475,0.1929259,0.7081472,1001.0059,37.88747555,127.73737388,169.6868896484375,0.0
2026-03-20 17:47:22.860,-0.57427746,5.096712,7.877172,-0.03252855,-0.11866048,-0.14844014,-18.206251,-46.59375,-28.425001,0.15572745,0.19250137,0.70739293,1001.0059, , , , 
2026-03-20 17:47:22.880,-0.13878371,4.996214,7.4177504,-0.24266604,-0.062460925,-0.0042760535,-18.16875,-46.443752,-28.368752,0.15540987,0.19095741,0.70676446,1001.0089, , , , 
2026-03-20 17:47:22.900,0.7178468,4.6037908,8.839087,-0.28420484,-0.003817905,-0.089797124,-18.075,-46.29375,-28.5375,0.15381987,0.18870787,0.7070186,1001.0089, , , , 
2026-03-20 17:47:22.920,-0.124426775,4.752146,9.652647,-0.010537418,0.08414663,-0.18142684,-18.075,-46.36875,-28.85625,0.15247643,0.18796353,0.70658743,1001.0089, , , , 
2026-03-20 17:47:22.940,-0.4211368,4.9052863,8.260024,0.23747368,0.08659008,-0.06536253,-18.150002,-46.518753,-29.081251,0.15219763,0.18932228,0.7056129,1001.0089, , , , 
2026-03-20 17:47:22.960,0.09092726,4.790431,6.762117,0.12751803,0.114689864,0.027488915,-18.31875,-46.518753,-29.19375,0.15314184,0.19217841,0.70511514,1001.01166, , , , 
2026-03-20 17:47:22.980,0.67477596,5.0105705,8.628518,-0.05818487,-0.04046979,-0.1386663,-18.35625,-46.537502,-29.268751,0.15255526,0.192765,0.7048693,1001.01166, , , , 
2026-03-20 17:47:23.000,-0.18185452,4.9292145,8.16431,0.022449281,-0.10155627,-0.032375835,-18.2625,-46.59375,-29.23125,0.15284808,0.19235256,0.7041955,1001.01166, , , , 
2026-03-20 17:47:23.020,-0.4211368,4.981857,7.8867435,0.034666575,-0.12232567,-6.108648E-4,-18.056252,-46.66875,-29.19375,0.15381688,0.19187115,0.7038328,1001.01166, , , , 
2026-03-20 17:47:23.040,-0.086141616,4.948357,8.087741,-0.05329795,-0.2921461,0.059253883,-17.8875,-46.6875,-29.118752,0.15509489,0.19087665,0.70372593,1001.0167, , , , 
2026-03-20 17:47:23.060,0.26799613,4.814359,8.154739,-0.13637556,-0.4705186,-0.0018325944,-17.550001,-46.537502,-28.968752,0.157936,0.18658973,0.7034339,1001.0167, , , , 
2026-03-20 17:47:23.080,-0.44506502,4.8287163,9.537791,-0.015424335,-0.26648977,0.010384701,-17.56875,-46.143753,-29.00625,0.15940855,0.18416484,0.7031141,1001.0167, , , , 
2026-03-20 17:47:23.100,0.0526421,4.699504,8.623733,0.22281294,-0.21884231,0.07513637,-17.625,-45.9375,-28.9125,0.16171734,0.18282901,0.70284885,1001.0167, , , , 
2026-03-20 17:47:23.120,0.9954142,4.517649,7.1449685,0.23869541,-0.12599087,-0.049480047,-17.79375,-45.99375,-28.968752,0.16477227,0.18317734,0.7024193,1001.0187, , , , 
2026-03-20 17:47:23.140,-0.014356935,4.613362,8.1738825,0.16050471,-0.013591741,-0.19364414,-18.13125,-46.18125,-29.118752,0.16647348,0.18429351,0.7011937,1001.0187, , , , 
2026-03-20 17:47:23.160,-0.74177504,5.063213,8.9826565,0.3168861,-0.35201082,-0.19120067,-18.28125,-46.4625,-28.800001,0.16831316,0.18529172,0.6992475,1001.0187, , , , 
2026-03-20 17:47:23.180,0.31106696,5.3072805,7.9776707,0.42806348,-0.6647736,-0.23396121,-18.431252,-46.55625,-28.48125,0.17363359,0.1850599,0.6964743,1001.0187, , , , 
2026-03-20 17:47:23.200,-0.3493521,6.0107703,6.029913,0.36453354,-0.6562215,-0.2791652,-18.337502,-46.48125,-28.275002,0.18097761,0.18395732,0.69263035,1001.0159, , , , 
2026-03-20 17:47:23.220,-1.5840486,6.7764735,4.924429,0.033444848,-0.23472479,-0.016493348,-18.28125,-46.706253,-27.6,0.18711126,0.18248658,0.6892757,1001.0159, , , , 
2026-03-20 17:47:23.240,-0.94755775,6.518049,6.786045,-0.26343542,0.38591382,0.27427828,-18.35625,-46.85625,-27.243752,0.18649921,0.18223307,0.6901199,1001.0159, , , , 
2026-03-20 17:47:23.260,-0.5886344,6.0729837,8.580662,-0.33429575,0.56428635,0.3158171,-18.4125,-46.893753,-27.16875,0.1817757,0.18300602,0.6935165,1001.0159, , , , 
2026-03-20 17:47:23.280,-0.4833502,5.7667027,8.973084,-0.29031348,0.44577858,0.21930045,-18.525002,-46.95,-27.225,0.17650914,0.1838838,0.69693685,1001.0144, , , , 
2026-03-20 17:47:23.300,-0.3397808,5.613562,8.71466,-0.21090107,0.31261006,0.07391464,-18.69375,-46.818752,-27.45,0.17138794,0.1846289,0.6996169,1001.0144, , , , 
2026-03-20 17:47:23.320,-0.34456646,5.85763,8.140383,-0.07773254,0.23564109,-0.023823727,-18.675001,-46.725002,-27.6375,0.16923787,0.18517464,0.70027333,1001.0144, , , , 
2026-03-20 17:47:23.340,-0.2440679,5.9820566,6.762117,-0.0044287695,0.17455462,-0.048258316,-18.65625,-46.7625,-27.712502,0.16745345,0.18650874,0.7004651,1001.0144, , , , 
2026-03-20 17:47:23.360,-0.7609176,6.1591253,5.804988,-0.18890993,0.101250835,-0.026267186,-18.5625,-46.55625,-27.937502,0.16566688,0.1873855,0.70047647,1001.01483, , , , 
2026-03-20 17:47:23.380,-1.1102697,5.9916277,6.7334027,-0.38927358,-0.056352276,0.116675176,-18.581251,-46.3875,-28.10625,0.16356458,0.18562898,0.70135456,1001.01483, , , , 
2026-03-20 17:47:23.400,-0.3684947,5.7379885,7.9776707,-0.42226028,-0.34712392,0.1960876,-18.69375,-46.256252,-28.35,0.16255094,0.18106972,0.7029238,1001.01483, , , , 
2026-03-20 17:47:23.420,-0.12921242,5.5800624,8.355737,-0.30130905,-0.523053,0.2083049,-18.69375,-46.21875,-28.518751,0.16319485,0.17678733,0.7038998,1001.01483, , , , 
2026-03-20 17:47:23.440,0.37328035,5.5704913,7.867601,-0.15103632,-0.5254964,0.15332706,-18.84375,-46.331253,-28.725,0.16584289,0.17117661,0.7047188,1001.0187, , , , 
2026-03-20 17:47:23.460,0.7800602,6.0921264,7.5182486,-0.066736974,-0.32268932,0.01527162,-19.275002,-46.48125,-28.875002,0.16923063,0.16631375,0.7048094,1001.0187, , , , 
2026-03-20 17:47:23.480,0.009571291,6.5228343,7.9106717,-0.100945406,-0.029474225,-0.04214967,-19.59375,-46.350002,-29.025002,0.17004636,0.16506155,0.7044988,1001.0187, , , , 
2026-03-20 17:47:23.500,-0.02871387,6.2931237,10.27478,0.084757484,-0.10033454,-0.04459313,-19.987501,-46.068752,-29.118752,0.16990052,0.16468994,0.7041995,1001.0187, , , , 
2026-03-20 17:47:23.520,0.31585258,6.4701924,9.638289,0.32299474,-0.2102902,-0.14844014,-20.175001,-45.975002,-29.212502,0.17171721,0.16504689,0.7033114,1001.02246, , , , 
2026-03-20 17:47:23.540,-0.60777694,7.5326056,8.465807,0.43539387,0.059712034,-0.1875355,-20.34375,-45.91875,-29.175001,0.17573543,0.16817728,0.7006324,1001.02246, , , , 
2026-03-20 17:47:23.560,-0.65084773,7.6713896,8.63809,0.45249808,0.37125307,-0.11300998,-20.325,-46.0875,-28.987501,0.1766658,0.17199853,0.6995545,1001.02246, , , , 
2026-03-20 17:47:23.580,-0.6652047,7.7671022,8.250452,0.36942047,0.32116216,-0.07880156,-20.34375,-46.2,-28.893751,0.17679004,0.17814629,0.69877684,1001.02246, , , , 
2026-03-20 17:47:23.600,-0.8566305,8.135597,7.685746,0.1385136,0.045051277,-0.056810424,-20.15625,-46.40625,-28.725,0.17715134,0.18229756,0.6980767,1001.03143, , , , 
2026-03-20 17:47:23.620,-1.0719845,8.092526,7.853244,-0.2328922,-0.22250749,0.03604102,-19.7625,-46.706253,-28.575,0.17792036,0.1814296,0.6976561,1001.03143, , , , 
2026-03-20 17:47:23.640,-0.5838487,7.408179,9.01137,-0.31719154,-0.044134982,0.1594357,-19.5375,-46.85625,-28.650002,0.17755997,0.1790519,0.69824994,1001.03143, , , , 
2026-03-20 17:47:23.660,-0.25842485,6.465407,9.442079,-0.30619597,0.25885394,0.18264857,-19.425001,-46.912502,-28.66875,0.17537163,0.17721207,0.7000444,1001.03143, , , , 
2026-03-20 17:47:23.680,0.043070808,5.651847,9.834501,-0.32085672,0.240528,0.16432263,-19.3875,-46.95,-28.743752,0.17071694,0.17654943,0.7027927,1001.0363, , , , 
2026-03-20 17:47:23.700,0.9092726,4.9196434,9.504292,-0.33429575,-0.003817905,0.091018856,-19.5,-46.95,-28.85625,0.16853403,0.17534178,0.70410717,1001.0363, , , , 
2026-03-20 17:47:23.720,1.6845472,4.0534415,9.078369,-0.31230462,-0.055130545,-0.09834923,-19.650002,-46.800003,-28.987501,0.16674468,0.17256874,0.70488906,1001.0363, , , , 
2026-03-20 17:47:23.740,1.7228323,4.0438704,10.375279,-0.017867794,0.082924895,-0.30237806,-19.78125,-46.59375,-29.23125,0.16470791,0.17078827,0.7044102,1001.0363, , , , 
2026-03-20 17:47:23.760,-0.18185452,3.5365918,9.844072,0.26190826,0.11835505,-0.3035998,-19.725,-46.331253,-29.56875,0.16327907,0.17331228,0.7019182,1001.0405, , , , 
2026-03-20 17:47:23.780,0.37328035,4.0390844,8.446664,0.5392409,-0.12476913,-0.31703883,-19.63125,-46.03125,-29.8875,0.16476622,0.17574206,0.6998989,1001.0405, , , , 
2026-03-20 17:47:23.800,-0.36370903,4.8239303,7.183254,0.64430964,-0.091782436,-0.27427828,-19.556252,-45.956253,-30.093752,0.16902532,0.17949905,0.6965373,1001.0405, , , , 
2026-03-20 17:47:23.820,-0.15314065,5.2163534,6.178268,0.5539016,-0.09300416,-0.10567961,-19.48125,-46.10625,-30.093752,0.1735822,0.18369922,0.6937526,1001.0405, , , , 
2026-03-20 17:47:23.840,1.5026926,5.1254263,5.4987063,0.26190826,-0.14920372,-0.056810424,-19.1625,-46.40625,-29.906252,0.17744878,0.1862523,0.6922769,1001.04736,37.88747555,127.73737388,169.6868896484375,0.0
2026-03-20 17:47:23.860,0.41635114,5.1014977,7.140183,-0.09117157,0.00962112,-0.1594357,-18.956251,-46.875,-29.437502,0.17883182,0.18660006,0.6911357,1001.04736, , , , 
2026-03-20 17:47:23.880,-0.46899325,4.8239303,8.987442,-0.03375028,0.025503604,-0.082466744,-18.825,-47.100002,-29.081251,0.17779925,0.18640736,0.69039565,1001.04736, , , , 
2026-03-20 17:47:23.900,-0.27756742,4.5128636,8.556734,0.117744185,0.056046844,0.025045456,-18.7875,-47.1375,-28.968752,0.17762598,0.18685625,0.690133,1001.04736, , , , 
2026-03-20 17:47:23.920,-0.0526421,4.287938,7.676175,0.18738277,0.16111559,0.064140804,-18.65625,-47.25,-28.7625,0.17808379,0.18841474,0.69031096,1001.0491, , , , 
2026-03-20 17:47:23.940,0.086141616,4.197011,7.379465,0.1886045,0.26496258,0.06658426,-18.431252,-47.287502,-28.556252,0.17806184,0.19101614,0.6907981,1001.0491, , , , 
2026-03-20 17:47:23.960,0.0,4.1347976,7.948957,0.23258677,0.17088942,0.029932374,-18.31875,-47.2125,-28.44375,0.1777158,0.19396238,0.6912555,1001.0491, , , , 
2026-03-20 17:47:23.980,0.2105684,4.254439,7.1306114,0.308334,-0.077121675,-0.045814857,-18.2625,-47.15625,-28.35,0.17895092,0.19624744,0.690914,1001.0491, , , , 
2026-03-20 17:47:24.000,0.17228323,4.56072,5.905486,0.28145593,-0.13698642,-0.115453444,-18.150002,-47.04375,-27.975,0.18169203,0.1977665,0.6896046,1001.05035, , , , 
2026-03-20 17:47:24.020,-0.19621146,5.0536413,5.938986,0.14095704,-0.052687086,-0.07391464,-18.206251,-47.04375,-27.618752,0.18388645,0.19884396,0.6881478,1001.05035, , , , 
2026-03-20 17:47:24.040,0.47377887,4.996214,6.814759,0.16416991,0.069485866,-0.03848448,-18.13125,-47.0625,-27.54375,0.18484041,0.19987182,0.6874697,1001.05035, , , , 
2026-03-20 17:47:24.060,0.86141616,4.9340005,7.379465,0.31932956,0.1660025,-0.1178969,-17.962502,-47.193752,-27.562502,0.18549119,0.20222497,0.6868643,1001.05035, , , , 
2026-03-20 17:47:24.080,-0.18664017,5.508278,6.8482585,0.36942047,0.13423753,-0.18264857,-18.112501,-47.381252,-27.6,0.18683082,0.20711023,0.6849571,1001.0497, , , , 
2026-03-20 17:47:24.100,-0.93320084,5.938986,7.125826,0.2423606,0.08536835,-0.06169734,-18.09375,-47.60625,-27.468752,0.18756634,0.20957455,0.6838989,1001.0497, , , , 
2026-03-20 17:47:24.120,-0.23928227,6.0729837,7.0492554,-0.0044287695,0.024281874,0.043371398,-18.018751,-47.775,-27.375002,0.18853591,0.2110707,0.68339103,1001.0497, , , , 
2026-03-20 17:47:24.140,0.12921242,5.9294147,8.183454,-0.16081016,0.059712034,0.03970621,-17.8125,-48.037502,-27.093752,0.18766256,0.21068424,0.68411595,1001.0497, , , , 
2026-03-20 17:47:24.160,-0.27756742,6.3074803,9.12144,-0.1339321,0.04382955,0.10079269,-17.493752,-48.112503,-26.94375,0.18633707,0.20990762,0.68499696,1001.0484, , , , 
2026-03-20 17:47:24.180,-0.3493521,6.623333,9.12144,-0.1375973,-0.008704823,0.22052218,-16.987501,-47.90625,-26.906252,0.18592487,0.2091899,0.68594664,1001.0484, , , , 
2026-03-20 17:47:24.200,0.31585258,6.728617,8.781659,-0.2622137,-0.16264275,0.2950477,-16.95,-47.71875,-26.925001,0.18580142,0.20718183,0.6878696,1001.0484, , , , 
2026-03-20 17:47:24.220,0.30149564,6.7334027,8.006385,-0.6226239,-0.17241658,0.2535089,-17.212502,-47.550003,-27.13125,0.18488555,0.20157444,0.69083035,1001.0484, , , , 
2026-03-20 17:47:24.240,-1.3878372,6.245267,9.973285,-1.006247,-0.123547405,0.30237806,-17.456251,-47.568752,-27.375002,0.18081626,0.1943078,0.6939651,1001.04755, , , , 
2026-03-20 17:47:24.260,-1.9716859,5.0919266,13.878371,-0.8975131,-0.15531237,0.47830713,-17.7,-47.381252,-27.675001,0.17667753,0.18792355,0.69717056,1001.04755, , , , 
2026-03-20 17:47:24.280,-0.7513463,4.1491547,14.830715,-0.14126249,-0.32879797,0.47586367,-17.85,-47.325,-27.843752,0.1741833,0.18069458,0.7014361,1001.04755, , , , 
2026-03-20 17:47:24.300,0.06699903,3.9433718,11.834901,0.37308568,-0.36056295,0.35124725,-18.056252,-46.987503,-28.35,0.17725882,0.1776769,0.7037925,1001.04755, , , , 
2026-03-20 17:47:24.320,0.31106696,4.1922255,7.8293157,0.46838057,-0.25671592,0.21197008,-18.6,-46.48125,-28.987501,0.18462247,0.17820968,0.7043255,1001.0491, , , , 
2026-03-20 17:47:24.340,0.31106696,4.3357944,6.7764735,0.22403465,0.049938194,0.19120067,-19.237501,-46.36875,-29.118752,0.18739435,0.17921866,0.70461375,1001.0491, , , , 
2026-03-20 17:47:24.361,0.26799613,4.168297,6.9966135,-0.050854493,0.42745262,0.18142684,-19.800001,-46.350002,-29.081251,0.18670774,0.18149279,0.7064679,1001.0491, , , , 
2026-03-20 17:47:24.380,-0.5312066,4.0103707,7.8484583,-0.1913534,0.46532625,0.19486587,-20.025002,-46.3875,-28.931252,0.18385084,0.18294418,0.708195,1001.0491, , , , 
2026-03-20 17:47:24.400,-0.3062813,3.8285162,8.618947,-0.1424842,0.20387612,0.27672175,-20.475,-46.3125,-28.63125,0.18014939,0.18365875,0.7107446,1001.05286, , , , 
2026-03-20 17:47:24.420,0.83748794,3.8620157,7.556534,-0.027641632,0.04016436,0.19120067,-20.53125,-46.125,-28.593752,0.17890856,0.18332838,0.7129041,1001.05286, , , , 
2026-03-20 17:47:24.440,0.44985065,4.369294,6.0634127,-0.00320704,0.03649917,0.077579826,-20.681252,-45.91875,-28.743752,0.17901675,0.18312451,0.7140756,1001.05286, , , , 
2026-03-20 17:47:24.460,-0.009571291,4.718646,6.058627,-0.048411034,0.2234238,0.12522727,-20.681252,-45.80625,-28.893751,0.17819384,0.1836138,0.7149415,1001.05286, , , , 
2026-03-20 17:47:24.480,-0.009571291,4.551149,7.513463,0.093309596,0.40301803,0.14966187,-20.550001,-45.675003,-29.1,0.17661014,0.18497115,0.7160648,1001.05524, , , , 
2026-03-20 17:47:24.500,0.10049855,4.570291,7.192825,0.33643377,0.3517054,0.10445788,-20.6625,-45.768753,-29.23125,0.17520562,0.18864049,0.71733063,1001.05524, , , , 
2026-03-20 17:47:24.521,-0.3924229,4.9292145,6.0634127,0.308334,0.062155493,0.055588696,-20.6625,-45.7125,-29.362501,0.1761842,0.19351624,0.71759695,1001.05524, , , , 
2026-03-20 17:47:24.540,-0.67477596,5.1589255,6.2213387,0.16905683,-0.08567379,0.12400555,-20.71875,-45.693752,-29.362501,0.17759472,0.19474743,0.71755654,1001.05524, , , , 
2026-03-20 17:47:24.560,0.32063824,5.1924253,6.7764735,0.16294818,0.0059559317,0.1545488,-21.0375,-45.75,-29.475,0.17946906,0.19528586,0.718006,1001.0569, , , , 
2026-03-20 17:47:24.580,0.8566305,5.359923,7.3459654,0.21059564,0.17577635,0.04703659,-21.0,-45.693752,-29.343752,0.1804526,0.1968196,0.71858,1001.0569, , , , 
2026-03-20 17:47:24.600,0.5982057,5.7667027,7.728817,0.19837834,0.13423753,-0.10079269,-20.98125,-45.73125,-29.025002,0.18070346,0.20016971,0.7182601,1001.0569, , , , 
2026-03-20 17:47:24.620,0.17228323,5.948557,8.484949,0.17760894,0.024281874,-0.13500112,-21.0,-45.73125,-28.875002,0.18098821,0.20176591,0.7174974,1001.0569, , , , 
2026-03-20 17:47:24.640,-0.20578274,6.1399827,9.480363,0.32665995,0.053603385,-0.08491021,-21.056252,-45.61875,-28.5375,0.18198995,0.20369466,0.7163044,1001.05884, , , , 
2026-03-20 17:47:24.660,0.28713873,6.259624,8.30788,0.41340274,0.23808455,-0.077579826,-21.018751,-45.61875,-28.3875,0.18381818,0.20840304,0.71503896,1001.05884, , , , 
2026-03-20 17:47:24.681,-0.41635114,6.8339014,7.3172517,0.05177079,0.15256348,-0.08124501,-21.075,-45.693752,-28.2,0.18384843,0.21201889,0.7142946,1001.05884, , , , 
2026-03-20 17:47:24.700,-0.38763726,7.082755,9.537791,-0.4393645,-0.13698642,-0.058032155,-21.018751,-45.84375,-28.10625,0.18219483,0.21060109,0.7143402,1001.05884, , , , 
2026-03-20 17:47:24.720,0.38285163,6.5850477,11.648261,-0.43325585,-0.21151192,-0.060475614,-20.8875,-45.956253,-28.125002,0.18091896,0.20709072,0.7145585,1001.06055, , , , 
2026-03-20 17:47:24.740,1.119841,6.1495543,12.131611,-0.11194097,-0.11988221,-0.15210533,-20.8125,-46.068752,-28.181252,0.17991602,0.20356826,0.7144044,1001.06055, , , , 
2026-03-20 17:47:24.760,0.91405827,5.5896335,10.892129,0.20448698,-0.020922119,-0.29382595,-20.775002,-46.125,-28.331251,0.18018061,0.20323391,0.7129767,1001.06055, , , , 
2026-03-20 17:47:24.780,0.6843473,5.4412785,9.236296,0.2753473,0.069485866,-0.29260424,-20.643751,-46.125,-28.612501,0.18105681,0.20540875,0.710622,1001.06055, , , , 
2026-03-20 17:47:24.800,0.80877405,5.0679984,8.336594,0.159283,0.049938194,-0.2877173,-20.475,-45.9375,-28.875002,0.18157835,0.20809765,0.7084073,1001.0646, , , , 
2026-03-20 17:47:24.820,0.5407779,5.1158547,8.207381,-0.03619374,-0.01725693,-0.2877173,-20.41875,-45.975002,-28.931252,0.1814908,0.20939149,0.70638996,1001.0646, , , , 
2026-03-20 17:47:24.840,0.038285162,5.2689953,8.623733,-0.229227,-0.07223476,-0.2254091,-19.95,-46.10625,-28.687502,0.18015712,0.20846662,0.70447296,1001.0646,37.88747244,127.73738995,169.4991455078125,0.74
2026-03-20 17:47:24.860,-0.1052842,5.0823555,8.729017,-0.37094763,-0.09422589,-0.15332706,-19.800001,-46.10625,-28.63125,0.17890662,0.20676616,0.70384705,1001.0646, , , , 
2026-03-20 17:47:24.880,-0.3493521,4.5415773,9.461221,-0.41737336,-0.110108376,-0.06658426,-19.612501,-46.29375,-28.575,0.17664997,0.20354696,0.70367575,1001.06604, , , , 
2026-03-20 17:47:24.900,0.038285162,3.9720855,9.360723,-0.1999055,-0.12599087,-0.04214967,-19.3875,-46.331253,-28.800001,0.17489468,0.2001494,0.7038959,1001.06604, , , , 
2026-03-20 17:47:24.920,0.21535404,3.9338005,7.8484583,0.059101168,-0.058795735,-0.055588696,-19.237501,-46.237503,-29.04375,0.1747155,0.19853973,0.7036734,1001.06604, , , , 
2026-03-20 17:47:24.940,-0.09092726,4.3262234,6.3696938,0.2594648,0.03894263,-0.048258316,-19.0125,-46.0875,-29.456251,0.17568348,0.19952275,0.7029443,1001.06604, , , , 
2026-03-20 17:47:24.960,-0.06699903,4.412365,5.393422,0.21792601,0.029168794,0.0018325944,-18.618752,-45.99375,-29.475,0.17709875,0.20171605,0.7022891,1001.0669, , , , 
2026-03-20 17:47:24.980,-0.34456646,4.4458647,5.910272,0.09086613,0.03405571,0.06658426,-18.6,-46.0125,-29.456251,0.17817284,0.20307314,0.70210487,1001.0669, , , , 
2026-03-20 17:47:25.001,-0.44027936,4.436293,6.9009004,0.1226311,0.10980295,0.15332706,-18.6,-46.143753,-29.38125,0.17854324,0.2040096,0.70266336,1001.0669, , , , 
2026-03-20 17:47:25.020,0.062213387,4.23051,7.058827,0.24969098,0.058490302,0.20219624,-18.768751,-46.350002,-29.1,0.17965421,0.20601995,0.7039295,1001.0669, , , , 
2026-03-20 17:47:25.040,0.32063824,4.23051,6.728617,0.3205513,0.026725333,0.18509203,-18.73125,-46.425003,-28.931252,0.18122238,0.20736386,0.70449775,1001.0654, , , , 
2026-03-20 17:47:25.060,0.3589234,4.2448673,6.8817577,0.41218102,0.17699806,0.12278382,-18.825,-46.443752,-28.66875,0.18341234,0.20989962,0.7050048,1001.0654, , , , 
2026-03-20 17:47:25.080,-0.11964113,4.4602213,7.556534,0.4818196,0.28206682,0.0971275,-18.9375,-46.443752,-28.575,0.18495531,0.2140965,0.70522845,1001.0654, , , , 
2026-03-20 17:47:25.100,0.014356935,4.551149,8.073383,0.5526799,0.16111559,0.07147118,-19.1625,-46.912502,-28.44375,0.18718137,0.22030099,0.7051372,1001.0654, , , , 
2026-03-20 17:47:25.120,-0.11006984,4.991428,7.3603225,0.5526799,0.03649917,0.053145237,-19.331251,-47.1375,-28.3875,0.18952261,0.22359546,0.7046048,1001.0637, , , , 
2026-03-20 17:47:25.140,-0.3924229,5.804988,6.948757,0.4366156,0.10980295,0.13988803,-19.3875,-47.287502,-28.29375,0.19268918,0.22746186,0.70399934,1001.0637, , , , 
2026-03-20 17:47:25.161,0.57906306,6.4366927,6.9056864,0.04444041,0.20387612,0.2290743,-19.237501,-47.268753,-28.143751,0.19427523,0.23088834,0.7051012,1001.0637, , , , 
2026-03-20 17:47:25.180,0.4354937,6.518049,9.882358,-0.41248643,0.10613775,0.1924224,-19.125,-47.25,-28.050001,0.19289097,0.23058632,0.7066977,1001.0637, , , , 
2026-03-20 17:47:25.200,0.18185452,5.9246287,12.131611,-0.5395463,-0.21639885,0.1594357,-19.1625,-47.30625,-28.0125,0.19026674,0.22679669,0.7089883,1001.0614, , , , 
2026-03-20 17:47:25.220,-0.023928227,5.316852,12.528819,-0.45402524,-0.3752237,0.109344795,-19.3125,-47.362503,-28.10625,0.18913987,0.21919504,0.71083814,1001.0614, , , , 
2026-03-20 17:47:25.240,0.28235307,4.8382874,12.236895,-0.2695441,-0.21395539,0.06169734,-19.63125,-47.41875,-28.218752,0.18907103,0.21526788,0.7115212,1001.0614, , , , 
2026-03-20 17:47:25.260,-0.1052842,4.733003,11.653047,-0.0129808765,0.025503604,-0.027488915,-19.85625,-47.2125,-28.1625,0.18873778,0.21269664,0.7119466,1001.0614, , , , 
2026-03-20 17:47:25.280,-0.70348984,4.8382874,10.4566345,0.21426082,0.16233732,-0.04214967,-19.85625,-46.912502,-28.25625,0.18839307,0.21359715,0.711757,1001.0614, , , , 
2026-03-20 17:47:25.300,-0.82313097,5.0392847,8.623733,0.2594648,0.2075413,-0.022601997,-19.743752,-46.78125,-28.331251,0.18850096,0.21654935,0.7113422,1001.0614, , , , 
2026-03-20 17:47:25.320,-1.5457634,5.326423,7.1976104,0.043218683,0.1660025,0.043371398,-19.59375,-46.706253,-28.368752,0.18807872,0.2196914,0.7112756,1001.0614, , , , 
2026-03-20 17:47:25.340,-1.3830515,5.1014977,6.4558353,-0.229227,0.15500695,0.21197008,-19.59375,-46.7625,-28.48125,0.18706986,0.219982,0.7121441,1001.0614, , , , 
2026-03-20 17:47:25.360,-0.71306115,4.465007,7.0636125,-0.45891216,0.19410229,0.26083925,-19.85625,-47.0625,-28.518751,0.18432854,0.2184789,0.71464765,1001.06226, , , , 
2026-03-20 17:47:25.380,-0.3924229,4.23051,7.9968133,-0.48456848,0.17211115,0.19364414,-20.15625,-47.2125,-28.500002,0.18032469,0.21581022,0.7175702,1001.06226, , , , 
2026-03-20 17:47:25.400,-0.062213387,4.130012,8.020741,-0.28909177,0.052381653,0.10567961,-20.212502,-47.193752,-28.556252,0.1769648,0.21328335,0.7197514,1001.06226, , , , 
2026-03-20 17:47:25.420,-0.6939186,4.699504,6.6568327,-0.13026692,0.03527744,0.07391464,-20.25,-46.912502,-28.893751,0.17550838,0.21181914,0.7207432,1001.06226, , , , 
2026-03-20 17:47:25.440,-0.76570326,4.900501,6.398408,-0.15592323,0.013286309,0.16798781,-20.118752,-46.36875,-29.212502,0.17466511,0.21095765,0.7217039,1001.0639, , , , 
2026-03-20 17:47:25.460,0.1052842,4.5798626,6.9535427,-0.080176,-0.10522146,0.18631376,-20.0625,-45.9375,-29.587502,0.17436129,0.20916718,0.7234632,1001.0639, , , , 
2026-03-20 17:47:25.480,0.3397808,4.618148,6.1064835,0.040775225,-0.1565341,0.10079269,-20.1,-45.787502,-29.737501,0.17572358,0.20791708,0.72410774,1001.0639, , , , 
2026-03-20 17:47:25.500,-0.13399807,4.881358,5.828916,0.017562363,-0.0697913,0.09468404,-20.5125,-45.46875,-30.000002,0.17682582,0.20748195,0.72425836,1001.0639, , , , 
2026-03-20 17:47:25.520,0.2727818,4.800002,6.920043,0.06276636,-0.014813471,0.10567961,-20.587502,-45.525,-30.13125,0.17753601,0.2072142,0.7248048,1001.06433, , , , 
2026-03-20 17:47:25.540,0.6221339,4.9722853,7.01097,0.17150028,-0.006261364,0.0030543238,-20.550001,-45.525,-30.112501,0.17873403,0.2079299,0.7250564,1001.06433, , , , 
2026-03-20 17:47:25.560,0.3397808,5.2833524,6.876972,0.2008218,-0.016035201,-0.0971275,-20.550001,-45.46875,-30.0375,0.17969342,0.20900968,0.7245215,1001.06433, , , , 
2026-03-20 17:47:25.580,-0.18664017,5.7427745,7.513463,0.20693044,-0.16386448,-0.11911863,-20.56875,-45.581253,-29.8875,0.18117304,0.21037892,0.7232539,1001.06433, , , , 
2026-03-20 17:47:25.600,0.32542387,6.1734824,7.63789,0.2215912,-0.25060728,-0.14110976,-20.587502,-45.675003,-29.812502,0.18386115,0.21084303,0.72163075,1001.0626, , , , 
2026-03-20 17:47:25.620,-0.062213387,6.8195443,8.116454,0.24724752,-0.027030766,-0.16676609,-20.550001,-46.068752,-29.456251,0.18691778,0.21212007,0.7193473,1001.0626, , , , 
2026-03-20 17:47:25.641,-0.41635114,6.943971,8.3174515,0.18738277,0.07192933,-0.13744457,-20.587502,-46.21875,-29.400002,0.18764852,0.21389,0.718255,1001.0626, , , , 
2026-03-20 17:47:25.660,-0.79441714,6.7573314,8.456235,-0.048411034,0.012064579,-0.10690133,-20.4375,-46.48125,-29.025002,0.18780398,0.215496,0.71723336,1001.0626, , , , 
2026-03-20 17:47:25.680,-0.66999036,7.082755,10.140782,-0.26343542,-0.16142102,-0.028710645,-20.362501,-46.537502,-28.9125,0.18701833,0.21453188,0.7169072,1001.0618, , , , 
2026-03-20 17:47:25.700,0.4833502,7.173682,10.920842,-0.2451095,-0.33124143,-0.08735366,-20.456251,-46.4625,-28.9125,0.18690127,0.21122903,0.7168387,1001.0618, , , , 
2026-03-20 17:47:25.720,1.0049855,7.1066833,11.1936245,-0.1962403,-0.37400195,-0.24617851,-20.56875,-46.4625,-29.081251,0.18786114,0.20670097,0.71541643,1001.0618, , , , 
2026-03-20 17:47:25.740,0.60777694,6.5228343,11.375479,-0.066736974,-0.20295982,-0.3488038,-20.7,-46.350002,-29.306252,0.18851043,0.20463867,0.7137377,1001.0618, , , , 
2026-03-20 17:47:25.760,-0.30149564,5.5704913,11.653047,0.23503022,0.17577635,-0.31093016,-20.775002,-46.29375,-29.437502,0.18838581,0.20501192,0.7113492,1001.062, , , , 
2026-03-20 17:47:25.780,0.23928227,4.766503,10.293923,0.41828966,0.19165882,-0.22785257,-20.71875,-46.40625,-29.531252,0.18824942,0.20908418,0.7093622,1001.062, , , , 
2026-03-20 17:47:25.801,0.66999036,4.3501515,7.867601,0.23869541,-0.15042545,-0.24251331,-20.4375,-46.612503,-29.493752,0.19023955,0.21308564,0.7066322,1001.062, , , , 
2026-03-20 17:47:25.820,0.9284152,4.398008,7.04447,0.007788526,-0.24816382,-0.24129158,-20.15625,-46.78125,-29.325,0.19173805,0.21313106,0.70493424,1001.062, , , , 
2026-03-20 17:47:25.840,0.7704889,4.5224347,7.283752,-0.170584,-0.01847866,-0.21930045,-20.0625,-46.875,-29.23125,0.19220579,0.2118927,0.7031889,1001.0639,37.8874605,127.73740702,169.86883544921875,1.78
2026-03-20 17:47:25.860,0.41635114,4.503292,7.52782,-0.26832235,0.08414663,-0.19120067,-19.987501,-46.96875,-29.118752,0.18969831,0.21077678,0.7021469,1001.0639, , , , 
2026-03-20 17:47:25.880,0.05742774,4.2017965,7.905886,-0.33796093,-0.04780017,-0.16920954,-20.00625,-47.025,-29.062502,0.18712306,0.20897089,0.70169395,1001.0639, , , , 
2026-03-20 17:47:25.900,-0.15792629,4.048656,8.288737,-0.22556181,-0.20051636,-0.14966187,-19.931252,-47.175003,-29.00625,0.18596682,0.20690225,0.7012443,1001.0639, , , , 
2026-03-20 17:47:25.920,-0.09571291,4.206582,7.489535,0.046883874,-0.18829907,-0.13377939,-19.650002,-47.287502,-28.987501,0.18643123,0.20446393,0.69990164,1001.06476, , , , 
2026-03-20 17:47:25.940,-0.019142581,4.6372905,5.7379885,0.21059564,-0.06734784,-0.13377939,-19.331251,-47.268753,-29.118752,0.18763387,0.20463318,0.69883263,1001.06476, , , , 
2026-03-20 17:47:25.960,-0.25842485,4.9435716,4.6037908,0.06398808,-0.01725693,-0.09346231,-19.087502,-47.1375,-29.23125,0.18898258,0.20593025,0.6975269,1001.06476, , , , 
2026-03-20 17:47:25.980,-0.4546363,4.7856455,5.690132,-0.11804962,-0.020922119,-0.016493348,-19.0125,-47.100002,-29.306252,0.189056,0.20599431,0.6969911,1001.06476, , , , 
2026-03-20 17:47:26.000,-0.4977071,4.469793,7.3603225,0.046883874,0.069485866,0.05070178,-18.975,-47.081253,-29.343752,0.18846358,0.20547976,0.69722176,1001.06476, , , , 
2026-03-20 17:47:26.020,-0.13399807,4.4075794,7.240681,0.31444263,0.17455462,0.08735366,-18.91875,-47.11875,-29.437502,0.18874943,0.20724086,0.69760585,1001.06476, , , , 
2026-03-20 17:47:26.040,-0.124426775,4.6468616,6.4797635,0.30100363,0.03649917,0.055588696,-18.75,-47.23125,-29.41875,0.1901699,0.21039802,0.69764966,1001.06476, , , , 
2026-03-20 17:47:26.060,-0.16749759,4.733003,6.4462643,0.17516547,-0.11866048,0.037262753,-18.618752,-47.25,-29.306252,0.19218564,0.21194568,0.6973478,1001.06476, , , , 
2026-03-20 17:47:26.080,-0.06699903,4.7808595,6.6568327,0.14217877,0.004734202,0.07513637,-18.65625,-47.362503,-29.212502,0.1943298,0.2124952,0.6971471,1001.06433, , , , 
2026-03-20 17:47:26.100,0.18185452,4.723432,7.0061846,0.15439607,0.1782198,0.103236146,-18.618752,-47.456253,-29.062502,0.19476898,0.21358845,0.6974858,1001.06433, , , , 
2026-03-20 17:47:26.121,0.3062813,4.881358,8.451449,0.14584397,0.16478078,0.06658426,-18.75,-47.7,-28.500002,0.19442362,0.21627069,0.69836915,1001.06433, , , , 
2026-03-20 17:47:26.140,0.44985065,5.235496,9.442079,0.1385136,-0.064904384,0.0030543238,-18.956251,-47.98125,-28.25625,0.19472392,0.21731248,0.6985064,1001.06433, , , , 
2026-03-20 17:47:26.160,0.43070808,6.068198,9.288938,0.041996952,-0.2554942,-0.07391464,-19.10625,-48.112503,-28.10625,0.19700786,0.21686912,0.6975332,1001.0639, , , , 
2026-03-20 17:47:26.180,-0.06699903,6.5850477,10.0163555,-0.093615025,-0.08078687,-0.018936807,-19.143751,-48.112503,-28.10625,0.19790725,0.2157737,0.6969416,1001.0639, , , , 
2026-03-20 17:47:26.200,-0.23928227,6.2979093,11.16491,-0.1424842,0.22953244,0.07269291,-19.368752,-48.05625,-28.181252,0.1970014,0.21509494,0.697342,1001.0639, , , , 
2026-03-20 17:47:26.220,-0.5838487,5.814559,12.059826,-0.13026692,0.21853687,0.054366965,-19.3875,-47.943752,-28.25625,0.19441523,0.21550226,0.69862306,1001.0639, , , , 
2026-03-20 17:47:26.240,-0.8327023,5.474778,11.767901,-0.080176,0.07192933,0.009162972,-19.29375,-47.86875,-28.331251,0.19244923,0.21561193,0.6994734,1001.065, , , , 
2026-03-20 17:47:26.260,-1.9238294,5.4556355,11.040483,-0.08872811,-0.027030766,0.04703659,-19.25625,-47.756252,-28.35,0.19149272,0.21524943,0.6998396,1001.065, , , , 
2026-03-20 17:47:26.280,-1.2873386,4.9435716,10.265209,-0.11804962,-0.08933897,0.171653,-19.2,-47.643753,-28.425001,0.1911952,0.21406262,0.7004638,1001.065, , , , 
2026-03-20 17:47:26.300,-0.38285163,4.752146,9.456435,-0.11682789,-0.07467822,0.1386663,-19.237501,-47.5875,-28.462502,0.19126624,0.21228398,0.70165706,1001.065, , , , 
2026-03-20 17:47:26.320,-0.23449662,4.800002,8.484949,-0.13515383,0.020616686,0.06780599,-19.35,-47.49375,-28.425001,0.19096054,0.21087545,0.70257086,1001.06836, , , , 
2026-03-20 17:47:26.340,-0.6125626,4.776074,7.259824,-0.21090107,0.14401138,0.059253883,-19.612501,-47.381252,-28.35,0.18906647,0.20991723,0.7036441,1001.06836, , , , 
2026-03-20 17:47:26.360,-0.5407779,4.584648,6.9966135,-0.33429575,0.1867719,0.108123064,-19.63125,-47.268753,-28.575,0.18693341,0.20926663,0.7047191,1001.06836, , , , 
2026-03-20 17:47:26.380,-0.20578274,4.3070807,6.9248285,-0.32574365,0.11957678,0.083688475,-19.575,-47.175003,-28.706251,0.18370864,0.20776789,0.7064191,1001.06836, , , , 
2026-03-20 17:47:26.400,-0.57427746,4.249653,5.4699926,-0.23777911,0.15134175,0.051923506,-19.331251,-46.7625,-29.156252,0.18060435,0.20612082,0.70791924,1001.0737, , , , 
2026-03-20 17:47:26.420,-1.1533405,4.4075794,6.096912,-0.26343542,0.36514443,0.17653993,-19.425001,-46.706253,-29.5125,0.17709869,0.20609058,0.709645,1001.0737, , , , 
2026-03-20 17:47:26.440,-0.74177504,4.3357944,7.025327,-0.24999641,0.23686282,0.26939136,-19.575,-46.631252,-29.8875,0.17430812,0.20616876,0.711608,1001.0737, , , , 
2026-03-20 17:47:26.460,-0.12921242,4.2017965,7.3363943,-0.21945317,-0.16142102,0.26328272,-19.63125,-46.537502,-30.0375,0.1725836,0.20464039,0.7140443,1001.0737, , , , 
2026-03-20 17:47:26.480,0.2440679,4.3262234,7.393822,-0.03375028,-0.2848157,0.1875355,-19.7625,-46.40625,-30.45,0.17366011,0.20143391,0.71550274,1001.0754, , , , 
2026-03-20 17:47:26.500,0.5407779,4.776074,6.250053,0.14950916,-0.09911281,0.15210533,-19.837502,-45.9,-30.618752,0.17647707,0.19980817,0.71629244,1001.0754, , , , 
2026-03-20 17:47:26.520,0.4211368,5.3216376,5.723632,0.093309596,0.047494736,0.09346231,-19.96875,-45.693752,-30.6,0.17757498,0.20034851,0.7166618,1001.0754, , , , 
2026-03-20 17:47:26.540,-0.22492532,5.757131,7.025327,-0.027641632,0.075594515,0.08613193,-20.081251,-45.73125,-30.618752,0.17759898,0.2011521,0.71739084,1001.0754, , , , 
2026-03-20 17:47:26.560,-0.22492532,5.704489,8.566305,0.034666575,-0.031917684,0.07513637,-20.493752,-45.84375,-30.54375,0.17753603,0.20117268,0.71785736,1001.07623, , , , 
2026-03-20 17:47:26.580,0.24885355,6.0107703,9.399008,0.24724752,-0.12721258,-0.0042760535,-20.90625,-45.99375,-30.562502,0.17948475,0.20162341,0.71766555,1001.07623, , , , 
2026-03-20 17:47:26.600,0.20578274,6.4127645,8.9826565,0.4243983,-0.077121675,-0.108123064,-20.831251,-45.91875,-30.45,0.18251656,0.2035197,0.71632516,1001.07623, , , , 
2026-03-20 17:47:26.620,-0.75613195,6.8051877,8.082955,0.40362892,0.06459895,-0.082466744,-20.75625,-45.84375,-30.35625,0.18461251,0.20596133,0.7150685,1001.07623, , , , 
2026-03-20 17:47:26.640,-1.4644074,6.771688,8.532805,0.067653276,0.13301581,0.12156209,-20.5125,-45.825,-30.112501,0.18567653,0.20955005,0.71462,1001.0758, , , , 
2026-03-20 17:47:26.660,-0.32063824,6.34098,10.260424,-0.22556181,-0.14065161,0.20097451,-20.4375,-46.143753,-29.85,0.1853995,0.20849113,0.7159873,1001.0758, , , , 
2026-03-20 17:47:26.680,0.29671,6.350551,11.365908,-0.29275694,-0.33612835,0.09224058,-20.4375,-46.275,-29.625002,0.18567882,0.20549113,0.7168366,1001.0758, , , , 
2026-03-20 17:47:26.700,0.67477596,6.3218374,11.782259,-0.1754709,-0.24938555,0.0018325944,-20.493752,-46.256252,-29.5125,0.18631618,0.20133609,0.7172024,1001.0758, , , , 
2026-03-20 17:47:26.720,1.0145568,5.881558,11.1936245,-0.027641632,-0.08689552,-0.07513637,-20.5125,-46.256252,-29.493752,0.18692839,0.19902784,0.71697176,1001.07605, , , , 
2026-03-20 17:47:26.740,0.44027936,5.556134,10.403993,0.12018765,0.1244637,-0.11300998,-20.587502,-45.862503,-29.643751,0.18692838,0.19936445,0.7162821,1001.07605, , , , 
2026-03-20 17:47:26.760,0.79920274,5.2259245,9.040084,0.08842268,0.057268575,-0.08613193,-20.681252,-45.61875,-29.775002,0.18672673,0.20110601,0.7156062,1001.07605, , , , 
2026-03-20 17:47:26.780,1.0815558,4.9052863,8.432307,-0.06429352,0.046273008,-0.109344795,-20.60625,-45.5625,-29.868752,0.18636872,0.20168181,0.7148964,1001.07605, , , , 
2026-03-20 17:47:26.800,0.63170516,4.766503,8.188239,-0.15225805,0.19532402,-0.115453444,-20.587502,-45.6375,-29.925001,0.18521336,0.20174126,0.7146338,1001.0792, , , , 
2026-03-20 17:47:26.820,0.25842485,4.5559344,8.489735,-0.26343542,0.26496258,-0.059253883,-20.643751,-45.881252,-29.98125,0.18222243,0.20200697,0.71480334,1001.0792, , , , 
2026-03-20 17:47:26.840,0.42592242,4.1635113,9.01137,-0.33063057,0.16111559,-0.049480047,-20.493752,-46.0875,-30.056252,0.17850912,0.2014712,0.7155296,1001.0792,37.88744984,127.73741617,170.3072509765625,1.53
2026-03-20 17:47:26.860,0.37806597,3.9050865,9.164511,-0.21090107,-0.0074830935,-0.12156209,-20.34375,-46.10625,-30.300001,0.17559092,0.19992189,0.7159051,1001.0792, , , , 
2026-03-20 17:47:26.880,0.14356937,3.9577286,8.274381,0.005345067,-0.0368046,-0.15210533,-20.268751,-46.050003,-30.468752,0.17449532,0.19884592,0.71532375,1001.0805, , , , 
2026-03-20 17:47:26.900,0.2009971,4.206582,6.317052,0.2093739,0.014508039,-0.13133593,-19.837502,-45.825,-30.900002,0.1749485,0.19966295,0.71416366,1001.0805, , , , 
2026-03-20 17:47:26.920,0.22492532,4.321438,4.9292145,0.12018765,0.042607818,-0.13988803,-19.85625,-45.787502,-31.087502,0.17597084,0.20194723,0.71266294,1001.0805, , , , 
2026-03-20 17:47:26.940,-0.4977071,4.2257247,5.8097734,-0.06185006,0.014508039,-0.07269291,-19.9125,-45.73125,-31.06875,0.17585683,0.20259187,0.7120149,1001.0805, , , , 
2026-03-20 17:47:26.960,-0.4642076,3.8093736,7.283752,-0.048411034,-0.06856957,0.031154104,-20.1375,-45.675003,-30.768751,0.17545348,0.20189342,0.71189135,1001.08136, , , , 
2026-03-20 17:47:26.980,-0.0047856453,3.6993039,8.035098,0.20448698,-0.016035201,0.064140804,-20.00625,-45.675003,-30.581251,0.17598459,0.20178846,0.7120425,1001.08136, , , , 
2026-03-20 17:47:27.000,0.3924229,4.1874394,7.0348988,0.34498587,-0.04535671,0.043371398,-19.81875,-45.61875,-30.50625,0.17798223,0.20340918,0.71185255,1001.08136, , , , 
2026-03-20 17:47:27.020,0.39720857,4.570291,6.364908,0.25213444,-0.15042545,0.022601997,-19.7625,-45.61875,-30.525002,0.18080051,0.20512617,0.71125174,1001.08136, , , , 
2026-03-20 17:47:27.040,0.6269195,4.536792,7.173682,0.17394374,-0.09300416,0.03970621,-19.5,-45.881252,-30.73125,0.1838658,0.20580783,0.71066415,1001.08136, , , , 
2026-03-20 17:47:27.060,0.66999036,4.618148,8.020741,0.31077746,0.06459895,0.01527162,-19.3875,-46.0125,-30.656252,0.1851617,0.20678504,0.7104407,1001.08136, , , , 
2026-03-20 17:47:27.081,0.8566305,4.74736,7.877172,0.44272426,0.1660025,-0.07024945,-19.3875,-46.256252,-30.525002,0.18723309,0.21096186,0.7096225,1001.08136, , , , 
2026-03-20 17:47:27.100,0.31585258,5.168497,7.8197446,0.3657553,0.19654575,-0.12889247,-19.368752,-46.4625,-30.45,0.18812484,0.21427673,0.70874506,1001.08136, , , , 
2026-03-20 17:47:27.120,-0.2105684,5.733203,8.188239,0.14217877,0.0707076,-0.09224058,-19.3125,-46.7625,-30.112501,0.18876405,0.21825713,0.70737743,1001.0811, , , , 
2026-03-20 17:47:27.140,0.05742774,5.9437714,9.044869,-0.050854493,-0.08689552,-0.01282816,-19.237501,-47.081253,-29.6625,0.18897058,0.21856645,0.70701814,1001.0811, , , , 
2026-03-20 17:47:27.160,0.4977071,6.0490556,10.365707,-0.1424842,-0.062460925,-0.018936807,-19.143751,-47.1375,-29.531252,0.18894826,0.21730702,0.70702124,1001.0811, , , , 
2026-03-20 17:47:27.180,0.13399807,5.9294147,10.734202,-0.054519683,0.13057235,-0.089797124,-19.050001,-47.193752,-29.306252,0.18819973,0.21636449,0.70701236,1001.0811, , , , 
2026-03-20 17:47:27.200,-1.0719845,5.9916277,10.758131,0.041996952,0.25763223,-0.08002329,-19.125,-47.15625,-29.23125,0.18603463,0.21797173,0.70677865,1001.0839, , , , 
2026-03-20 17:47:27.220,-1.9286151,5.85763,10.030712,-0.0056504994,0.20998476,0.029932374,-19.2,-47.11875,-29.5125,0.18465963,0.2195189,0.70687443,1001.0839, , , , 
2026-03-20 17:47:27.240,-1.4500505,5.584848,9.461221,-0.1424842,-0.11988221,0.13500112,-19.237501,-47.2125,-29.681252,0.18345188,0.21956883,0.70786154,1001.0839, , , , 
2026-03-20 17:47:27.260,-0.82313097,5.2737813,9.01137,-0.260992,-0.2921461,0.18142684,-19.275002,-47.268753,-29.75625,0.18391225,0.2172128,0.70859843,1001.0839, , , , 
2026-03-20 17:47:27.280,0.086141616,4.6468616,8.891729,-0.22311836,-0.07345649,0.15332706,-19.06875,-47.34375,-29.925001,0.1843234,0.21347208,0.70986754,1001.0867, , , , 
2026-03-20 17:47:27.300,-0.25842485,4.45065,8.657232,-0.23044874,0.114689864,0.07513637,-19.087502,-47.23125,-29.79375,0.18312292,0.2116253,0.71117944,1001.0867, , , , 
2026-03-20 17:47:27.320,-0.47856453,4.3070807,8.303095,-0.3489565,0.042607818,0.034819294,-19.125,-47.100002,-29.6625,0.18075368,0.21023574,0.7123303,1001.0867, , , , 
2026-03-20 17:47:27.340,-0.28713873,4.130012,8.020741,-0.45769045,-0.084452055,0.0030543238,-19.25625,-46.78125,-29.5125,0.17824286,0.20728238,0.7133142,1001.0867, , , , 
2026-03-20 17:47:27.360,-0.2727818,4.26401,7.60439,-0.45769045,-0.17119485,-0.01282816,-19.518751,-46.631252,-29.587502,0.17601469,0.20312274,0.7140118,1001.08923, , , , 
2026-03-20 17:47:27.380,-0.31585258,4.412365,7.092326,-0.31841326,-0.10155627,6.108648E-4,-19.66875,-46.631252,-30.112501,0.17437057,0.19908755,0.71451086,1001.08923, , , , 
2026-03-20 17:47:27.401,-0.32063824,4.4889355,6.623333,-0.11804962,0.16111559,0.064140804,-19.7625,-46.612503,-30.69375,0.1725775,0.19703151,0.715301,1001.08923, , , , 
2026-03-20 17:47:27.420,-0.09571291,4.402794,7.025327,0.059101168,0.30405796,0.06902772,-19.800001,-46.59375,-30.88125,0.17110536,0.19791904,0.71605647,1001.08923, , , , 
2026-03-20 17:47:27.440,-0.11006984,4.503292,6.317052,0.06398808,0.056046844,0.0030543238,-19.931252,-46.3875,-31.050001,0.16992155,0.20027702,0.7166632,1001.093, , , , 
2026-03-20 17:47:27.460,-0.86141616,4.871787,6.283552,-0.044745844,-0.18341215,0.025045456,-19.81875,-46.2,-31.087502,0.17042805,0.20002733,0.71648777,1001.093, , , , 
2026-03-20 17:47:27.480,-0.52163535,4.9292145,6.6759753,-0.05818487,-0.18829907,0.17409647,-19.78125,-46.068752,-31.10625,0.17164253,0.1983453,0.7167102,1001.093, , , , 
2026-03-20 17:47:27.500,0.2440679,4.9435716,7.2023964,0.02611447,-0.14676027,0.1838703,-19.575,-45.91875,-31.181252,0.17304496,0.19668221,0.7176573,1001.093, , , , 
2026-03-20 17:47:27.520,0.7178468,5.020142,6.9152575,0.12507457,-0.04657844,0.07513637,-19.368752,-45.693752,-31.368752,0.17471668,0.19605386,0.7183333,1001.09344, , , , 
2026-03-20 17:47:27.540,0.009571291,5.235496,7.1545396,0.1470657,0.023060145,-0.03848448,-19.518751,-45.525,-31.406252,0.17607346,0.19718094,0.71814704,1001.09344, , , , 
2026-03-20 17:47:27.562,-0.67477596,5.704489,8.135597,0.1470657,0.008399391,-0.021380268,-19.875,-45.675003,-31.3875,0.17671292,0.19858538,0.7176318,1001.09344, , , , 
2026-03-20 17:47:27.580,-0.3397808,5.905486,8.571091,0.19104797,-0.13209951,-0.011606431,-20.025002,-45.768753,-31.3875,0.17766346,0.19934537,0.71725786,1001.09344, , , , 
2026-03-20 17:47:27.600,0.44027936,6.580262,8.063812,0.1886045,-0.20295982,-0.07880156,-20.268751,-46.068752,-31.35,0.18010588,0.19981049,0.71637076,1001.09283, , , , 
2026-03-20 17:47:27.620,-0.3589234,7.0779696,7.7671022,0.028557928,-0.011148282,-0.077579826,-20.268751,-46.275,-30.993752,0.18211444,0.20015109,0.7151798,1001.09283, , , , 
2026-03-20 17:47:27.640,-0.55513483,6.977471,9.2075815,-0.27320927,0.09025527,0.07513637,-20.175001,-46.350002,-30.843752,0.1813305,0.20025554,0.7151736,1001.09283, , , , 
2026-03-20 17:47:27.660,0.30149564,6.7764735,10.9017,-0.4637991,-0.16508621,0.076358095,-20.00625,-46.3875,-30.562502,0.17916934,0.1978971,0.71641415,1001.09283, , , , 
2026-03-20 17:47:27.680,0.40677986,6.6568327,11.854043,-0.51144654,-0.35689774,-0.06291907,-19.743752,-46.2,-30.393751,0.17800058,0.19254367,0.71704817,1001.0926, , , , 
2026-03-20 17:47:27.700,0.5455636,6.206982,12.337394,-0.38316494,-0.2640463,-0.103236146,-19.893751,-46.0125,-30.825,0.17718665,0.18701318,0.71685565,1001.0926, , , , 
2026-03-20 17:47:27.721,1.0671989,5.020142,11.944971,-0.08872811,-0.060017463,-0.23151775,-20.2875,-45.7125,-31.406252,0.17625089,0.18346755,0.7159085,1001.0926, , , , 
2026-03-20 17:47:27.740,0.6939186,4.723432,10.767702,0.117744185,-0.0074830935,-0.33169958,-20.475,-45.600002,-31.593752,0.17601012,0.18367873,0.7145073,1001.0926, , , , 
2026-03-20 17:47:27.760,0.72263247,4.685147,8.906086,0.19715661,-0.020922119,-0.33536476,-20.90625,-45.581253,-31.95,0.17658143,0.1852166,0.7119893,1001.09326, , , , 
2026-03-20 17:47:27.780,0.8566305,4.685147,8.255239,0.15806127,0.06582068,-0.36102107,-20.75625,-45.581253,-32.0625,0.17715733,0.18708141,0.70943373,1001.09326, , , , 
2026-03-20 17:47:27.800,0.07178468,4.776074,7.795816,0.066431545,0.12568542,-0.320704,-20.550001,-45.581253,-32.081253,0.17676426,0.18927087,0.7069844,1001.09326, , , , 
2026-03-20 17:47:27.820,-0.31585258,4.6564326,7.570891,-0.08506292,0.075594515,-0.1802051,-20.04375,-45.487503,-32.006252,0.17558542,0.19070688,0.705316,1001.09326, , , , 
2026-03-20 17:47:27.840,0.22013968,3.9864426,8.303095,-0.27931792,-0.057574004,-0.07269291,-19.425001,-45.16875,-31.893751,0.17401893,0.18994042,0.7048325,1001.09454,37.88744034,127.73742805,170.3795166015625,1.48
2026-03-20 17:47:27.860,0.53599226,3.3930225,8.958728,-0.22189663,-0.19074252,-0.09468404,-19.368752,-45.375,-31.781252,0.17276739,0.18729845,0.7046986,1001.09454, , , , 
2026-03-20 17:47:27.880,0.5455636,3.3116665,8.437093,0.05665771,-0.17363831,-0.15210533,-19.40625,-45.693752,-31.743752,0.17326577,0.18480109,0.7035869,1001.09454, , , , 
2026-03-20 17:47:27.900,0.0047856453,3.6227336,7.489535,0.28145593,-0.031917684,-0.15821397,-19.44375,-45.881252,-31.706251,0.1744158,0.1852269,0.7024031,1001.09454, , , , 
2026-03-20 17:47:27.920,0.033499517,3.9194436,6.45105,0.36819875,0.046273008,-0.13988803,-19.331251,-46.350002,-31.743752,0.17622773,0.18768692,0.7008205,1001.09454, , , , 
2026-03-20 17:47:27.940,-0.16271193,4.0773697,5.74756,0.31444263,0.046273008,-0.12278382,-19.237501,-46.36875,-31.743752,0.1780418,0.19082703,0.69932556,1001.09454, , , , 
2026-03-20 17:47:27.960,-0.37328035,4.1108694,5.895915,0.22647811,-0.07589995,-0.082466744,-18.993752,-46.2,-31.7625,0.17968608,0.1930929,0.6980577,1001.09454, , , , 
2026-03-20 17:47:27.980,-0.79441714,4.182654,6.5084777,0.16416991,-0.09422589,-0.01282816,-18.88125,-46.2,-31.743752,0.1819812,0.19412811,0.6969105,1001.09454, , , , 
2026-03-20 17:47:28.000,-0.33020952,4.254439,6.896115,0.28023422,-0.028252495,0.06169734,-18.88125,-46.350002,-31.706251,0.18338338,0.1948496,0.69664717,1001.093, , , , 
2026-03-20 17:47:28.020,0.019142581,4.6037908,6.053841,0.3413207,0.07803798,0.06169734,-18.88125,-46.518753,-31.3875,0.18555798,0.19696818,0.69646174,1001.093, , , , 
2026-03-20 17:47:28.041,0.148355,4.843073,5.5465627,0.14950916,0.11713332,0.06780599,-18.88125,-46.7625,-31.06875,0.18719144,0.20033409,0.6965471,1001.093, , , , 
2026-03-20 17:47:28.060,-0.043070808,4.847859,6.9678993,-0.026419902,0.10980295,0.08613193,-18.91875,-47.025,-30.7875,0.18698847,0.20134906,0.6971203,1001.093, , , , 
2026-03-20 17:47:28.080,-0.2009971,4.8047876,8.556734,-0.048411034,0.1452331,0.103236146,-18.862501,-47.04375,-30.50625,0.18621735,0.20162787,0.69784933,1001.09216, , , , 
2026-03-20 17:47:28.100,-0.2727818,5.1828537,9.662218,-0.006872229,0.09880738,0.12156209,-18.75,-47.006252,-30.487501,0.18517564,0.20206755,0.6988999,1001.09216, , , , 
2026-03-20 17:47:28.120,0.25842485,5.642276,10.389636,0.02489274,-0.04657844,0.11178826,-18.675001,-46.912502,-30.50625,0.18502419,0.20215103,0.69982165,1001.09216, , , , 
2026-03-20 17:47:28.140,0.5072784,6.0490556,10.648061,0.05054906,-0.083230324,0.07147118,-18.46875,-46.725002,-30.581251,0.1858877,0.20171057,0.7003193,1001.09216, , , , 
2026-03-20 17:47:28.160,0.38763726,6.2787666,10.006784,0.035888307,-0.020922119,0.076358095,-18.73125,-46.55625,-30.525002,0.18694218,0.20142883,0.7005554,1001.0924, , , , 
2026-03-20 17:47:28.180,-0.23449662,6.1064835,9.934999,-0.12660173,0.09636392,0.0971275,-18.956251,-46.59375,-30.393751,0.1868446,0.20131919,0.7011694,1001.0924, , , , 
2026-03-20 17:47:28.200,-0.5407779,5.2977095,11.251052,-0.3025308,0.08659008,0.16554436,-19.03125,-46.706253,-30.206251,0.18435542,0.19997533,0.7030513,1001.0924, , , , 
2026-03-20 17:47:28.220,-0.55513483,4.4889355,12.126825,-0.1962403,0.018173227,0.12522727,-19.050001,-46.74375,-30.16875,0.18280087,0.19848286,0.7043265,1001.0924, , , , 
2026-03-20 17:47:28.240,-0.56470615,4.206582,11.155339,0.027336199,0.004734202,0.08124501,-18.9375,-46.66875,-30.468752,0.18191253,0.19737236,0.7053622,1001.0947, , , , 
2026-03-20 17:47:28.260,-0.20578274,4.345366,9.097511,-0.0019853106,-0.008704823,-0.0030543238,-18.993752,-46.443752,-30.843752,0.18210235,0.19750676,0.70569366,1001.0947, , , , 
2026-03-20 17:47:28.280,-0.11006984,4.345366,8.068598,-0.12171481,-0.090560704,-0.056810424,-19.10625,-46.3875,-31.050001,0.18199483,0.19698071,0.70558244,1001.0947, , , , 
2026-03-20 17:47:28.300,-0.18185452,4.3788652,6.7238317,-0.24388777,-0.008704823,-0.059253883,-19.275002,-46.162502,-31.25625,0.18127997,0.19539416,0.70536506,1001.0947, , , , 
2026-03-20 17:47:28.320,-0.42592242,4.56072,5.556134,-0.37949973,0.10613775,0.029932374,-19.143751,-46.10625,-31.35,0.17911397,0.19374943,0.70573074,1001.0975, , , , 
2026-03-20 17:47:28.342,-0.7082755,4.4171505,6.235696,-0.62384564,0.15622866,0.15332706,-19.10625,-46.275,-31.3875,0.17426224,0.19053489,0.707761,1001.0975, , , , 
2026-03-20 17:47:28.361,-0.3924229,4.063013,8.082955,-0.5688678,0.1452331,0.1838703,-19.125,-46.331253,-31.406252,0.16948354,0.18698582,0.71029633,1001.0975, , , , 
2026-03-20 17:47:28.380,0.062213387,3.9290147,8.207381,-0.274431,0.015729768,0.11423171,-19.425001,-46.29375,-31.81875,0.16713162,0.18493928,0.7117862,1001.0975, , , , 
2026-03-20 17:47:28.400,-0.31106696,4.1874394,7.159325,-0.14859286,-0.09666935,0.07269291,-19.650002,-46.18125,-32.11875,0.16602361,0.18299596,0.71276253,1001.1013, , , , 
2026-03-20 17:47:28.420,0.19621146,4.139583,6.876972,-0.052076224,-0.0368046,0.12767074,-19.706251,-45.881252,-32.287502,0.16600318,0.18146698,0.7134465,1001.1013, , , , 
2026-03-20 17:47:28.440,0.34456646,4.1778684,6.838687,0.02489274,0.10002911,0.06291907,-19.706251,-45.73125,-32.4375,0.16605507,0.18113935,0.7142274,1001.1013, , , , 
2026-03-20 17:47:28.460,-0.6652047,4.723432,7.3268228,0.073761925,0.09636392,0.033597562,-19.81875,-45.375,-32.9625,0.1655819,0.1822542,0.7146,1001.1013, , , , 
2026-03-20 17:47:28.480,-0.38285163,4.766503,7.379465,0.04444041,-0.10766492,0.07147118,-19.9125,-45.16875,-33.09375,0.16588119,0.18293773,0.7148488,1001.103, , , , 
2026-03-20 17:47:28.500,0.09092726,4.642076,8.585447,0.16294818,-0.18952079,6.108648E-4,-19.987501,-45.018753,-33.1875,0.1674389,0.18230098,0.71486074,1001.103, , , , 
2026-03-20 17:47:28.521,-0.08135597,5.197211,8.499306,0.47693267,-0.11133011,-0.10079269,-19.931252,-44.8875,-33.037502,0.17121279,0.183691,0.7134927,1001.103, , , , 
2026-03-20 17:47:28.540,-0.3684947,6.04427,7.0348988,0.50991935,-0.0820086,-0.14110976,-19.875,-44.8125,-32.71875,0.17414205,0.18634577,0.7120127,1001.103, , , , 
2026-03-20 17:47:28.560,-0.9954142,6.580262,7.2502527,0.22403465,-0.064904384,-0.09468404,-19.81875,-44.9625,-32.41875,0.17737101,0.18918099,0.7101355,1001.10406, , , , 
2026-03-20 17:47:28.580,-0.86141616,6.235696,9.217153,0.085979216,-0.003817905,0.037262753,-19.800001,-45.28125,-32.175003,0.17863992,0.19025591,0.70944035,1001.10406, , , , 
2026-03-20 17:47:28.600,-0.4642076,5.733203,10.437492,0.13240494,0.027947064,0.04459313,-19.81875,-45.375,-32.100002,0.17913175,0.19109346,0.70960915,1001.10406, , , , 
2026-03-20 17:47:28.620,-0.0526421,6.1160545,9.820144,0.07987057,-0.24205516,-0.033597562,-19.78125,-45.693752,-31.893751,0.18033104,0.1917384,0.7093833,1001.10406, , , , 
2026-03-20 17:47:28.640,0.02871387,6.71426,9.245867,-0.14859286,-0.42042768,-0.089797124,-19.85625,-45.80625,-31.837502,0.18268181,0.18974699,0.70836544,1001.1049, , , , 
2026-03-20 17:47:28.660,0.7369894,6.7764735,10.083355,-0.23044874,-0.3019199,-0.058032155,-20.00625,-46.050003,-31.63125,0.18406442,0.18605031,0.7075106,1001.1049, , , , 
2026-03-20 17:47:28.680,1.2729816,5.962914,10.772488,-0.13637556,-0.08567379,-0.108123064,-19.96875,-46.2,-31.63125,0.18418904,0.1827461,0.7068785,1001.1049, , , , 
2026-03-20 17:47:28.700,1.1676974,5.211568,10.451849,0.06887501,0.00962112,-0.16554436,-20.1,-46.3125,-31.63125,0.18395603,0.18248348,0.7062573,1001.1049, , , , 
2026-03-20 17:47:28.720,1.0815558,4.8191447,8.662018,0.0016798781,0.00962112,-0.15699224,-20.0625,-46.256252,-31.706251,0.18407057,0.18326253,0.7050708,1001.10535, , , , 
2026-03-20 17:47:28.740,1.2490535,4.5655055,8.403593,-0.2328922,0.045051277,-0.15332706,-19.987501,-46.143753,-31.931252,0.18319862,0.1829448,0.704261,1001.10535, , , , 
2026-03-20 17:47:28.760,0.8662018,4.3645086,8.848659,-0.40026915,0.13912445,-0.1508836,-19.96875,-46.162502,-31.987501,0.1794353,0.18114518,0.7039688,1001.10535, , , , 
2026-03-20 17:47:28.780,0.2632105,4.1778684,9.432507,-0.5236638,0.12324197,-0.11423171,-19.837502,-46.331253,-32.15625,0.17622487,0.17954321,0.7040986,1001.10535, , , , 
2026-03-20 17:47:28.800,0.25842485,3.6514473,10.12164,-0.47112945,0.053603385,-0.07880156,-19.78125,-46.331253,-32.25,0.17081425,0.17579925,0.704693,1001.106, , , , 
2026-03-20 17:47:28.820,0.37806597,3.5030923,9.772287,-0.24022257,0.06459895,-0.103236146,-19.78125,-46.143753,-32.49375,0.16843984,0.17405501,0.70486593,1001.106, , , , 
2026-03-20 17:47:28.840,0.26799613,3.8811584,7.5469627,0.09697478,0.16355905,-0.13988803,-19.875,-45.825,-32.775,0.16655277,0.17433825,0.7042666,1001.106,37.88743,127.73743674,170.545166015625,1.47
2026-03-20 17:47:28.860,0.05742774,4.0390844,5.7858453,0.1226311,0.12568542,-0.13255766,-19.95,-45.46875,-33.075,0.1661946,0.17598572,0.7036088,1001.106, , , , 
2026-03-20 17:47:28.880,-0.6125626,4.125226,5.5226345,-0.093615025,0.07315106,-0.06658426,-19.987501,-45.35625,-33.1875,0.16565688,0.17737228,0.70288426,1001.10645, , , , 
2026-03-20 17:47:28.900,0.08135597,3.6849468,7.5469627,-0.1461494,-0.034361143,0.0042760535,-19.85625,-45.600002,-33.54375,0.16440772,0.17677356,0.7029796,1001.10645, , , , 
2026-03-20 17:47:28.920,0.55513483,3.6083765,8.312666,0.1348484,-0.17608178,-0.060475614,-19.706251,-45.693752,-33.6375,0.16506943,0.17556955,0.7026521,1001.10645, , , , 
2026-03-20 17:47:28.940,0.4642076,3.952943,7.001399,0.3914116,-0.12110394,-0.10445788,-19.35,-45.9,-33.7125,0.16722955,0.17616934,0.7016626,1001.10645, , , , 
2026-03-20 17:47:28.960,0.32542387,4.398008,5.7188463,0.48914996,0.059712034,-0.08124501,-19.237501,-45.9375,-33.7125,0.17047924,0.17896307,0.70010346,1001.1062, , , , 
2026-03-20 17:47:28.980,-0.16271193,4.74736,5.235496,0.27046037,0.25396705,-0.027488915,-19.2,-45.975002,-33.525,0.17234434,0.18317488,0.6991169,1001.1062, , , , 
2026-03-20 17:47:29.001,-0.2105684,4.546363,7.436893,-0.015424335,0.07925971,0.045814857,-19.29375,-45.99375,-33.393753,0.17189792,0.18563195,0.69922996,1001.1062, , , , 
2026-03-20 17:47:29.020,0.4546363,4.106084,9.753145,0.10674862,-0.11377356,-0.025045456,-19.181252,-46.125,-32.9625,0.17205217,0.18523853,0.6994225,1001.1062, , , , 
2026-03-20 17:47:29.040,0.12921242,4.359723,9.202796,0.5404626,0.14767656,-0.11423171,-19.10625,-46.2,-32.850002,0.17396578,0.18663286,0.69849473,1001.1049, , , , 
2026-03-20 17:47:29.060,-0.93320084,5.2642097,7.676175,0.47204575,0.2784016,-0.049480047,-18.84375,-46.36875,-32.71875,0.17595907,0.19205317,0.6971125,1001.1049, , , , 
2026-03-20 17:47:29.080,-0.6795616,5.656633,8.484949,0.041996952,0.016951498,0.06902772,-18.618752,-46.48125,-32.60625,0.17679034,0.19602384,0.6967088,1001.1049, , , , 
2026-03-20 17:47:29.100,-0.4546363,5.733203,10.57149,-0.1791361,-0.16142102,0.1753182,-18.618752,-46.725002,-32.5125,0.17707554,0.19511174,0.697375,1001.1049, , , , 
2026-03-20 17:47:29.120,0.51206404,5.1924253,11.710474,-0.113162704,-0.15042545,0.2083049,-18.6,-46.800003,-32.475002,0.17742004,0.1924511,0.6988142,1001.1049, , , , 
2026-03-20 17:47:29.140,0.32063824,4.981857,11.542976,-0.056963142,-0.09544762,0.103236146,-18.50625,-46.893753,-32.193752,0.17805253,0.19041088,0.6999547,1001.1049, , , , 
2026-03-20 17:47:29.161,-1.119841,4.800002,11.456835,-0.028863361,0.03894263,0.09468404,-18.46875,-46.893753,-32.175003,0.178053,0.18959945,0.7005695,1001.1049, , , , 
2026-03-20 17:47:29.180,-1.5601203,4.5320063,11.361122,0.020005822,-0.0013744457,0.22052218,-18.525002,-46.7625,-32.268753,0.17772233,0.18951315,0.7016104,1001.1049, , , , 
2026-03-20 17:47:29.200,-0.4354937,4.0151563,10.284351,0.04444041,-0.12110394,0.27305657,-18.65625,-46.74375,-32.287502,0.17861237,0.18889834,0.70316386,1001.1094, , , , 
2026-03-20 17:47:29.220,-0.11964113,3.9768713,9.379865,0.0016798781,-0.08933897,0.1924224,-18.88125,-46.725002,-32.4375,0.17992797,0.18788145,0.70458233,1001.1094, , , , 
2026-03-20 17:47:29.240,0.4354937,4.125226,8.025527,-0.17791437,-0.14676027,0.12889247,-19.48125,-46.631252,-32.5875,0.18064135,0.18636997,0.70565015,1001.1094, , , , 
2026-03-20 17:47:29.260,0.76570326,3.9720855,7.570891,-0.30863944,-0.04780017,0.031154104,-19.706251,-46.4625,-32.475002,0.18020356,0.18366618,0.70651144,1001.1094, , , , 
2026-03-20 17:47:29.280,0.19621146,4.019942,7.331609,-0.29642212,0.13668099,-0.045814857,-19.893751,-46.237503,-32.381252,0.17796701,0.18156879,0.70711744,1001.1132, , , , 
2026-03-20 17:47:29.300,-0.4546363,4.2257247,6.695118,-0.2622137,0.13423753,-0.025045456,-19.96875,-46.237503,-32.30625,0.17493254,0.18061139,0.7075924,1001.1132, , , , 
2026-03-20 17:47:29.320,-0.5312066,4.278367,5.666204,-0.33429575,0.04138609,0.009162972,-20.00625,-46.3875,-32.325,0.17237213,0.17945091,0.7081552,1001.1132, , , , 
2026-03-20 17:47:29.340,-0.9092726,4.345366,5.6709895,-0.44425142,0.042607818,0.089797124,-19.95,-46.425003,-32.7,0.16970955,0.17710993,0.7090578,1001.1132, , , , 
2026-03-20 17:47:29.360,-0.43070808,3.8811584,7.355537,-0.37949973,0.059712034,0.18142684,-19.85625,-46.40625,-32.925003,0.16657782,0.17415674,0.71075505,1001.11707, , , , 
2026-03-20 17:47:29.380,0.2632105,3.5844483,7.7383885,-0.006872229,0.059712034,0.116675176,-19.462502,-45.91875,-33.45,0.16442144,0.17223375,0.7126926,1001.11707, , , , 
2026-03-20 17:47:29.400,-0.12921242,4.182654,5.9294147,0.11041381,0.049938194,0.06169734,-19.44375,-45.581253,-33.787502,0.16465631,0.17296982,0.71305287,1001.11707, , , , 
2026-03-20 17:47:29.420,0.047856454,4.5128636,5.838487,-0.08384119,-0.13332124,0.09224058,-19.44375,-45.43125,-33.956253,0.16526681,0.17337283,0.71341497,1001.11707, , , , 
2026-03-20 17:47:29.440,0.4881358,4.5894337,7.2502527,-0.11804962,-0.16142102,0.060475614,-19.5375,-45.43125,-33.99375,0.16589776,0.17153426,0.71390855,1001.1217, , , , 
2026-03-20 17:47:29.460,0.7369894,4.7138605,8.647661,0.09697478,-0.0025961753,-0.032375835,-19.85625,-45.600002,-34.0125,0.16657406,0.1703415,0.7139955,1001.1217, , , , 
2026-03-20 17:47:29.480,0.27756742,5.3742795,8.556734,0.27412558,-0.023365578,-0.09346231,-19.9125,-45.412502,-34.10625,0.1673805,0.17153852,0.7134242,1001.1217, , , , 
2026-03-20 17:47:29.500,0.2440679,5.704489,8.116454,0.2215912,-0.117438756,-0.102014415,-19.9125,-45.300003,-34.125,0.16949712,0.17328312,0.71220124,1001.1217, , , , 
2026-03-20 17:47:29.520,0.24885355,5.584848,9.260223,0.12018765,-0.05146536,-0.083688475,-20.0625,-45.112503,-34.162502,0.17155926,0.1743004,0.71087843,1001.1224, , , , 
2026-03-20 17:47:29.540,-0.39720857,5.56092,9.987641,0.12140937,0.019394957,-0.07391464,-20.118752,-45.15,-34.143753,0.17230006,0.17528294,0.7100716,1001.1224, , , , 
2026-03-20 17:47:29.560,0.18664017,5.7140603,10.265209,0.09453133,-0.116217025,-0.06291907,-20.212502,-45.581253,-33.956253,0.1729005,0.17589246,0.70958704,1001.1224, , , , 
2026-03-20 17:47:29.580,0.66999036,6.2548385,9.992428,-0.044745844,-0.26282457,-0.13744457,-20.118752,-45.693752,-33.84375,0.17436843,0.17535232,0.7086322,1001.1224, , , , 
2026-03-20 17:47:29.600,0.17228323,6.719046,10.375279,-0.25488332,-0.19807291,-0.13744457,-19.7625,-45.825,-33.600002,0.17525056,0.17258409,0.7071364,1001.12384, , , , 
2026-03-20 17:47:29.620,0.79920274,5.9820566,11.002198,-0.3159698,-0.1443168,-0.07880156,-19.44375,-45.73125,-33.375,0.17442839,0.16954087,0.7066895,1001.12384, , , , 
2026-03-20 17:47:29.640,0.95712906,5.020142,12.232109,-0.21823144,-0.038026333,-0.16676609,-19.462502,-45.65625,-33.300003,0.17286892,0.16696768,0.70627606,1001.12384, , , , 
2026-03-20 17:47:29.660,0.74177504,4.752146,11.365908,0.045662142,0.09392046,-0.18997894,-19.518751,-45.73125,-33.3375,0.1719959,0.16659008,0.705554,1001.12384, , , , 
2026-03-20 17:47:29.680,0.59342,4.761717,9.116654,0.057879437,0.25396705,-0.19120067,-19.81875,-45.84375,-33.61875,0.1710946,0.16908568,0.7042062,1001.12494, , , , 
2026-03-20 17:47:29.700,-0.20578274,4.6037908,8.623733,-0.25732678,0.13668099,-0.12889247,-19.875,-46.0875,-33.768753,0.16815154,0.17000365,0.7036718,1001.12494, , , , 
2026-03-20 17:47:29.720,-0.019142581,4.125226,9.064013,-0.51511174,-0.061239194,-0.017715078,-19.556252,-46.143753,-33.91875,0.16589013,0.16821893,0.7038361,1001.12494, , , , 
2026-03-20 17:47:29.740,0.6795616,3.4648073,9.336794,-0.57741994,-0.10522146,-0.022601997,-19.1625,-46.10625,-34.050003,0.1619542,0.16249575,0.7047671,1001.12494, , , , 
2026-03-20 17:47:29.760,0.59342,3.158526,9.667004,-0.44913834,-0.084452055,-0.0971275,-18.956251,-46.0875,-34.162502,0.15968367,0.15912327,0.7050471,1001.12537, , , , 
2026-03-20 17:47:29.780,0.6891329,2.9910283,9.193225,-0.0594066,0.04016436,-0.19120067,-18.73125,-45.84375,-34.443752,0.15759219,0.15663855,0.70463836,1001.12537, , , , 
2026-03-20 17:47:29.801,0.52163535,3.3786657,7.422536,0.1886045,0.063377224,-0.2999346,-18.69375,-45.768753,-34.55625,0.1570889,0.15754896,0.70315504,1001.12537, , , , 
2026-03-20 17:47:29.820,-0.2632105,3.6514473,6.920043,0.19226968,0.008399391,-0.32314748,-18.825,-45.768753,-34.66875,0.15754946,0.15974225,0.7007837,1001.12537, , , , 
2026-03-20 17:47:29.840,-0.4019942,3.6610186,7.159325,0.23991714,0.0108428495,-0.2376264,-18.993752,-45.825,-34.85625,0.15872197,0.16212961,0.6979285,1001.1241,37.88741952,127.73744716,170.68817138671875,1.53
2026-03-20 17:47:29.860,-0.2727818,3.6275191,6.6329045,0.34009898,0.042607818,-0.1508836,-18.88125,-45.91875,-34.8375,0.15985386,0.16405986,0.6965617,1001.1241, , , , 
2026-03-20 17:47:29.880,-0.06699903,3.7088752,6.532406,0.3254382,0.030390523,-0.09346231,-18.69375,-46.068752,-34.65,0.16167249,0.16694082,0.6951794,1001.1241, , , , 
2026-03-20 17:47:29.900,0.19142582,3.8955152,6.876972,0.3743074,-0.013591741,-0.083688475,-18.618752,-46.18125,-34.48125,0.16368964,0.16949233,0.69404745,1001.1241, , , , 
2026-03-20 17:47:29.920,0.23928227,4.220939,5.8911295,0.45005462,0.12079851,-0.08002329,-18.13125,-46.331253,-34.050003,0.16685557,0.17348681,0.69250524,1001.1217, , , , 
2026-03-20 17:47:29.940,-0.70348984,4.479364,6.326623,0.3168861,0.344375,0.04703659,-17.90625,-46.518753,-33.787502,0.16774294,0.17694904,0.69200927,1001.1217, , , , 
2026-03-20 17:47:29.960,0.06699903,4.2352962,8.403593,0.19226968,0.12935062,0.15699224,-17.8125,-46.800003,-33.6375,0.16763663,0.18075092,0.69267714,1001.1217, , , , 
2026-03-20 17:47:29.980,0.65084773,4.125226,9.183653,0.26068655,-0.052687086,0.09224058,-17.737501,-46.912502,-33.600002,0.16904764,0.18205984,0.69333696,1001.1217, , , , 
2026-03-20 17:47:30.000,-0.009571291,4.6037908,8.963513,0.40118545,0.115911596,0.07147118,-17.7,-47.193752,-33.487503,0.17130658,0.18415052,0.6932651,1001.11426, , , , 
2026-03-20 17:47:30.020,-0.0526421,5.278567,8.848659,0.22769985,-0.012370012,0.16065744,-17.79375,-47.456253,-33.1875,0.17320903,0.18725516,0.69345963,1001.11426, , , , 
2026-03-20 17:47:30.040,1.038485,5.426922,9.82493,-0.08872811,-0.2603811,0.19120067,-17.8125,-47.550003,-33.0,0.1755153,0.18644519,0.69452184,1001.11426, , , , 
2026-03-20 17:47:30.060,1.105484,5.407779,10.289138,-0.18646647,-0.15531237,0.171653,-17.90625,-47.550003,-32.925003,0.17636499,0.1841942,0.69533473,1001.11426, , , , 
2026-03-20 17:47:30.080,-0.18664017,5.4029937,11.298908,-0.3037525,-0.016035201,0.18509203,-18.150002,-47.325,-32.831253,0.1756747,0.1817049,0.69677,1001.11066, , , , 
2026-03-20 17:47:30.100,-0.38763726,4.618148,12.758531,-0.3575086,-0.17119485,0.20341797,-18.2625,-47.081253,-32.775,0.17412506,0.17844196,0.6986402,1001.11066, , , , 
2026-03-20 17:47:30.120,-0.34456646,3.9481573,13.265809,-0.08506292,-0.07956514,0.091018856,-18.45,-47.1375,-32.71875,0.17340276,0.17424098,0.70029384,1001.11066, , , , 
2026-03-20 17:47:30.140,-1.0863415,3.7854455,11.897114,0.24358234,0.16111559,0.0140498895,-18.50625,-47.1375,-32.7,0.1735052,0.1744094,0.7005345,1001.11066, , , , 
2026-03-20 17:47:30.160,-1.134198,3.9864426,9.834501,0.29000807,0.2600757,0.0018325944,-18.487501,-47.175003,-32.60625,0.17367034,0.17760469,0.7005043,1001.10834, , , , 
2026-03-20 17:47:30.180,-0.65084773,4.1635113,8.293523,0.18127412,0.21731515,-0.022601997,-18.45,-47.1375,-32.68125,0.173513,0.18102035,0.7004308,1001.10834, , , , 
2026-03-20 17:47:30.200,-0.4642076,4.101298,6.704689,-0.011759147,0.17699806,-0.064140804,-18.431252,-47.0625,-32.71875,0.172871,0.18333794,0.7003181,1001.10834, , , , 
2026-03-20 17:47:30.220,-1.3639089,4.130012,7.479964,-0.29031348,0.18555018,-0.023823727,-18.431252,-46.987503,-32.7,0.17058732,0.18396506,0.7004249,1001.10834, , , , 
2026-03-20 17:47:30.240,-0.8135597,4.0007997,8.628518,-0.20479241,0.052381653,0.076358095,-18.45,-47.175003,-32.5875,0.1675766,0.18299481,0.7012347,1001.1066, , , , 
2026-03-20 17:47:30.260,-0.038285162,4.1347976,7.283752,-0.042302385,0.06093376,0.06536253,-18.6375,-47.325,-32.550003,0.16636547,0.18212293,0.7021006,1001.1066, , , , 
2026-03-20 17:47:30.280,-0.9523434,4.613362,6.407979,0.07864884,0.2234238,0.0971275,-18.69375,-47.11875,-32.643753,0.16548884,0.18326421,0.7028787,1001.1066, , , , 
2026-03-20 17:47:30.300,-1.1724831,4.5559344,5.8480587,0.07498365,0.17577635,0.23640467,-18.768751,-47.04375,-32.71875,0.1649847,0.18474583,0.7037753,1001.1066, , , , 
2026-03-20 17:47:30.320,-0.17706887,4.058227,5.814559,4.581486E-4,0.04138609,0.32925612,-18.84375,-46.7625,-32.9625,0.16492432,0.18557855,0.7057701,1001.1062, , , , 
2026-03-20 17:47:30.340,0.67477596,3.804588,5.9437714,-0.07651082,-0.12476913,0.2913825,-18.900002,-46.65,-33.018753,0.16555095,0.18467242,0.7079081,1001.1062, , , , 
2026-03-20 17:47:30.360,1.0001999,3.7184465,6.771688,-0.027641632,-0.13209951,0.19364414,-18.91875,-46.725002,-32.9625,0.16663809,0.1827362,0.7095431,1001.1062, , , , 
2026-03-20 17:47:30.380,0.5407779,3.938586,7.456035,0.18127412,0.014508039,0.1301142,-19.1625,-46.893753,-32.850002,0.16783126,0.18219951,0.7104316,1001.1062, , , , 
2026-03-20 17:47:30.400,0.8279166,4.402794,6.8865438,0.28634286,0.051159926,0.023823727,-19.44375,-47.04375,-32.625,0.16969308,0.18463185,0.71071327,1001.1028, , , , 
2026-03-20 17:47:30.420,0.33020952,5.0919266,7.164111,0.17150028,-0.09422589,-0.06169734,-19.5375,-46.95,-32.568752,0.17092097,0.18594618,0.7102537,1001.1028, , , , 
2026-03-20 17:47:30.441,0.37806597,5.436493,8.073383,0.098196514,-0.21151192,-0.09346231,-19.35,-46.987503,-32.4375,0.17338605,0.18596432,0.7089545,1001.1028, , , , 
2026-03-20 17:47:30.460,0.6556334,5.302495,9.102298,0.20693044,-0.077121675,-0.1631009,-19.1625,-47.0625,-32.362503,0.1747871,0.18599851,0.70798403,1001.1028, , , , 
2026-03-20 17:47:30.480,-0.076570325,5.584848,9.365508,0.36942047,0.12324197,-0.25106543,-18.91875,-47.4375,-32.0625,0.17650816,0.18925259,0.7056211,1001.10046, , , , 
2026-03-20 17:47:30.500,-1.0576276,5.9007006,8.848659,0.25824308,0.03527744,-0.2290743,-18.862501,-47.625,-31.893751,0.17729358,0.1920939,0.7040099,1001.10046, , , , 
2026-03-20 17:47:30.520,-0.8662018,6.4175506,9.68136,-0.041080657,-0.3251328,-0.13500112,-18.91875,-47.5875,-31.85625,0.1788378,0.19275597,0.7018501,1001.10046, , , , 
2026-03-20 17:47:30.540,0.3684947,6.695118,9.982856,-0.09605849,-0.3764454,-0.1301142,-18.9375,-47.41875,-31.837502,0.18036835,0.190561,0.7008186,1001.10046, , , , 
2026-03-20 17:47:30.560,0.9092726,6.8913293,9.810573,-0.05818487,-0.13087778,-0.1545488,-18.75,-47.1375,-31.556252,0.18178263,0.18826945,0.69950914,1001.0983, , , , 
2026-03-20 17:47:30.580,0.7513463,6.0777693,9.509077,-0.12049308,-0.014813471,-0.1802051,-18.6375,-47.11875,-31.35,0.18170124,0.18753025,0.69840336,1001.0983, , , , 
2026-03-20 17:47:30.600,0.2727818,5.45085,9.911072,-0.30863944,-0.04657844,-0.12522727,-18.6,-47.193752,-31.237501,0.18031837,0.18648332,0.6975837,1001.0983, , , , 
2026-03-20 17:47:30.620,1.1006985,4.3836513,10.303494,-0.45769045,-0.2591594,-0.09468404,-18.712502,-47.456253,-30.937502,0.17854936,0.1831532,0.69737,1001.0983, , , , 
2026-03-20 17:47:30.640,1.3543376,3.9577286,10.561919,-0.49312058,-0.17119485,-0.13988803,-18.862501,-47.550003,-31.143751,0.17693292,0.17810889,0.6971238,1001.0958, , , , 
2026-03-20 17:47:30.660,0.45942193,4.082155,11.179267,-0.3367392,0.063377224,-0.18264857,-18.956251,-47.625,-31.331251,0.17415953,0.1744679,0.6967548,1001.0958, , , , 
2026-03-20 17:47:30.680,0.34456646,4.15394,9.9015,-0.18890993,0.11957678,-0.18142684,-18.956251,-47.5875,-31.462502,0.17130998,0.17336592,0.6962037,1001.0958, , , , 
2026-03-20 17:47:30.700,0.28713873,4.1204405,8.810373,-0.18280129,0.1036943,-0.20586143,-18.806252,-47.49375,-31.85625,0.16886935,0.1731755,0.6954644,1001.0958, , , , 
2026-03-20 17:47:30.720,-0.05742774,4.1108694,8.092526,-0.20234896,-0.009926553,-0.1924224,-18.6375,-47.381252,-32.1375,0.16672507,0.17257589,0.694524,1001.0954, , , , 
2026-03-20 17:47:30.740,-0.0526421,4.082155,7.771888,-0.11682789,-0.025809037,-0.115453444,-18.4125,-47.2125,-32.362503,0.16535437,0.17140834,0.6936583,1001.0954, , , , 
2026-03-20 17:47:30.761,0.13399807,3.9720855,7.23111,0.08842268,0.13057235,-0.10690133,-18.112501,-47.081253,-32.568752,0.16461079,0.17164974,0.69289243,1001.0954, , , , 
2026-03-20 17:47:30.780,-0.22013968,4.0390844,6.896115,0.22525638,0.2197586,-0.11300998,-18.0375,-47.100002,-32.643753,0.16430695,0.17356281,0.6923414,1001.0954, , , , 
2026-03-20 17:47:30.800,-0.9284152,4.4075794,5.733203,0.18738277,0.03894263,-0.023823727,-17.98125,-47.193752,-32.90625,0.16457555,0.17666176,0.69156003,1001.0926, , , , 
2026-03-20 17:47:30.820,-0.9762716,4.508078,6.1974106,-0.037415467,-0.17852524,0.12889247,-17.8875,-47.287502,-32.98125,0.16567804,0.17721452,0.6914378,1001.0926, , , , 
2026-03-20 17:47:30.840,-0.19142582,3.9768713,7.685746,0.010231985,-0.20784675,0.24495678,-17.8875,-47.25,-33.0,0.16747038,0.17483877,0.692712,1001.0926,37.88740957,127.73745839,170.7763671875,1.55
2026-03-20 17:47:30.860,0.7322037,3.6753755,7.609176,0.23380849,-0.10522146,0.22663084,-17.868752,-47.15625,-33.037502,0.16925536,0.17417945,0.69361794,1001.0926, , , , 
2026-03-20 17:47:30.880,0.70348984,3.8141594,6.8051877,0.3168861,0.06582068,0.116675176,-17.6625,-46.7625,-32.831253,0.17184475,0.17564791,0.6942951,1001.08966, , , , 
2026-03-20 17:47:30.900,0.83748794,3.7950168,7.8436728,0.23014331,-0.0025961753,0.07391464,-17.85,-46.55625,-32.71875,0.17357604,0.17776856,0.6946182,1001.08966, , , , 
2026-03-20 17:47:30.920,0.8422736,3.991228,8.360522,0.29367325,-0.023365578,0.009162972,-18.13125,-46.5,-32.550003,0.17555729,0.1790131,0.694471,1001.08966, , , , 
2026-03-20 17:47:30.940,0.7848458,4.26401,8.250452,0.41218102,0.2283107,-0.03604102,-18.31875,-46.706253,-32.2125,0.17790185,0.1825297,0.693803,1001.08966, , , , 
2026-03-20 17:47:30.960,0.18185452,4.776074,8.839087,0.36086836,0.2930624,-0.045814857,-18.31875,-46.875,-31.9125,0.17830731,0.18618758,0.6934171,1001.0867, , , , 
2026-03-20 17:47:30.980,0.13399807,5.383851,8.733803,0.18982624,0.091477,-0.026267186,-18.337502,-46.912502,-31.725,0.17878854,0.18987624,0.6929571,1001.0867, , , , 
2026-03-20 17:47:31.000,-0.11964113,6.0490556,8.532805,-0.05329795,0.015729768,0.059253883,-18.31875,-46.95,-31.368752,0.17923188,0.19100013,0.69281274,1001.0867, , , , 
2026-03-20 17:47:31.020,-0.12921242,6.0490556,9.442079,-0.3440696,0.007177661,0.1838703,-18.4125,-47.0625,-31.087502,0.17819858,0.18980071,0.6938849,1001.0867, , , , 
2026-03-20 17:47:31.040,0.14356937,5.4317074,10.8251295,-0.62384564,-0.084452055,0.24251331,-18.581251,-47.006252,-31.050001,0.17568883,0.18606816,0.6961666,1001.0818, , , , 
2026-03-20 17:47:31.060,0.05742774,4.6899323,12.552748,-0.64094985,-0.1357647,0.19486587,-18.525002,-47.04375,-31.143751,0.17243,0.18028256,0.6987464,1001.0818, , , , 
2026-03-20 17:47:31.081,0.15792629,4.0103707,13.672588,-0.2952004,-0.06856957,0.10690133,-18.6,-46.93125,-31.29375,0.16923834,0.17418347,0.7010946,1001.0818, , , , 
2026-03-20 17:47:31.100,-0.5599205,4.0438704,11.79183,0.098196514,0.18066326,0.032375835,-18.73125,-46.725002,-31.518751,0.16831937,0.17382014,0.70171124,1001.0818, , , , 
2026-03-20 17:47:31.120,-1.2251252,4.2592244,9.710074,0.1311832,0.30527967,0.083688475,-18.6375,-46.3875,-31.837502,0.16758142,0.17594232,0.70210147,1001.0811, , , , 
2026-03-20 17:47:31.140,-1.0815558,4.254439,8.863015,-0.1424842,0.0059559317,0.18509203,-18.675001,-46.2,-32.11875,0.16642493,0.17756057,0.70318025,1001.0811, , , , 
2026-03-20 17:47:31.160,-0.28235307,3.8763726,9.030513,-0.30497423,-0.18341215,0.21807873,-18.65625,-46.2,-32.2125,0.1658088,0.17508674,0.7047975,1001.0811, , , , 
2026-03-20 17:47:31.180,0.09092726,3.5605202,8.719446,-0.1913534,-0.090560704,0.14599667,-18.7875,-46.2,-32.5125,0.16529137,0.1710232,0.7066545,1001.0811, , , , 
2026-03-20 17:47:31.200,-0.2440679,3.7088752,7.499106,-0.009315688,0.023060145,0.09224058,-19.125,-46.21875,-32.7,0.16505659,0.17009714,0.70733124,1001.0807, , , , 
2026-03-20 17:47:31.220,-0.6125626,4.0103707,5.757131,0.027336199,0.09025527,0.102014415,-19.5375,-46.237503,-32.775,0.16485661,0.17072783,0.70816875,1001.0807, , , , 
2026-03-20 17:47:31.241,-0.6269195,4.058227,6.0251274,-0.113162704,0.014508039,0.1594357,-19.81875,-46.0875,-33.0,0.1643965,0.17067549,0.7091766,1001.0807, , , , 
2026-03-20 17:47:31.260,-0.2632105,3.900301,6.695118,-0.048411034,-0.05146536,0.16065744,-19.95,-45.9,-33.037502,0.16428463,0.16959734,0.71036214,1001.0807, , , , 
2026-03-20 17:47:31.280,-0.4019942,4.024728,6.4175506,0.098196514,0.06826414,0.20097451,-20.1375,-45.91875,-32.86875,0.1646707,0.16948755,0.7111628,1001.07965, , , , 
2026-03-20 17:47:31.300,-0.124426775,4.072584,6.2404814,0.13607013,0.09636392,0.21074834,-20.23125,-45.91875,-32.850002,0.16518427,0.17073745,0.7124745,1001.07965, , , , 
2026-03-20 17:47:31.320,-0.086141616,4.206582,6.728617,0.16416991,-0.006261364,0.17653993,-20.362501,-45.84375,-32.850002,0.16601235,0.17179725,0.7136559,1001.07965, , , , 
2026-03-20 17:47:31.340,-0.23449662,4.6325045,6.2787666,0.23747368,0.012064579,0.14844014,-20.56875,-45.975002,-32.79375,0.167604,0.17289855,0.7144064,1001.07965, , , , 
2026-03-20 17:47:31.360,-0.27756742,4.9052863,6.5659056,0.1800524,-0.025809037,0.1838703,-20.71875,-45.9375,-32.90625,0.16935025,0.17443734,0.71503973,1001.07776, , , , 
2026-03-20 17:47:31.380,-0.014356935,5.087141,7.8197446,0.117744185,-0.11255184,0.17409647,-20.71875,-45.768753,-32.98125,0.17119136,0.17491782,0.7158147,1001.07776, , , , 
2026-03-20 17:47:31.400,0.7848458,5.2498527,8.810373,0.2667952,-0.10522146,0.10079269,-20.643751,-45.6375,-32.7,0.17405987,0.17523822,0.7163765,1001.07776, , , , 
2026-03-20 17:47:31.420,0.7752745,5.895915,8.015956,0.30344707,-0.052687086,-0.011606431,-20.643751,-45.675003,-32.4375,0.17616485,0.17645001,0.7160891,1001.07776, , , , 
2026-03-20 17:47:31.440,0.21535404,6.3314085,8.489735,0.14828743,-0.064904384,-0.023823727,-20.60625,-45.75,-32.175003,0.17827617,0.17803246,0.7153837,1001.0737, , , , 
2026-03-20 17:47:31.460,0.009571291,5.9916277,9.375079,0.0151189035,0.0059559317,0.025045456,-20.6625,-45.80625,-32.025,0.1793146,0.17857839,0.7150813,1001.0737, , , , 
2026-03-20 17:47:31.480,0.2727818,5.7427745,10.820344,-0.08261946,-0.123547405,0.021380268,-20.75625,-46.050003,-31.893751,0.17937154,0.1782014,0.71526986,1001.0737, , , , 
2026-03-20 17:47:31.500,1.3256238,6.0490556,11.140983,-0.04963276,-0.17730351,-0.06902772,-20.925001,-46.29375,-32.006252,0.18028565,0.17622283,0.71502405,1001.0737, , , , 
2026-03-20 17:47:31.520,1.4739788,6.34098,11.52862,0.12996148,0.22464553,-0.18509203,-20.90625,-46.143753,-32.2125,0.18056771,0.17606542,0.71422744,1001.07245, , , , 
2026-03-20 17:47:31.540,1.3782659,6.2548385,11.49512,0.27656904,0.29061893,-0.2498437,-20.868752,-45.956253,-32.287502,0.17923768,0.18064986,0.712714,1001.07245, , , , 
2026-03-20 17:47:31.560,1.105484,5.575277,10.628919,0.23991714,0.09636392,-0.3488038,-20.6625,-45.675003,-32.15625,0.17914112,0.18423562,0.7106033,1001.07245, , , , 
2026-03-20 17:47:31.580,0.47377887,5.1876397,9.657433,0.11285727,-0.10155627,-0.33536476,-20.325,-45.487503,-31.85625,0.17960228,0.18571411,0.70859456,1001.07245, , , , 
2026-03-20 17:47:31.600,0.7465607,4.7138605,9.040084,-0.04963276,-0.15531237,-0.23640467,-19.96875,-45.600002,-31.462502,0.18036026,0.18573101,0.70628947,1001.0741, , , , 
2026-03-20 17:47:31.620,1.2299109,4.388437,9.2793665,-0.1375973,-0.056352276,-0.25228715,-19.6875,-45.825,-31.10625,0.18023427,0.18455073,0.7047374,1001.0741, , , , 
2026-03-20 17:47:31.640,0.8997013,4.3357944,8.752945,-0.14981459,0.012064579,-0.30237806,-19.612501,-45.975002,-31.0125,0.17904451,0.18371503,0.7032009,1001.0741, , , , 
2026-03-20 17:47:31.660,0.0,4.2687955,8.059027,-0.28420484,-0.035582874,-0.28893903,-19.650002,-46.3125,-31.143751,0.17713545,0.18294051,0.7015607,1001.0741, , , , 
2026-03-20 17:47:31.680,0.12921242,3.8093736,8.19781,-0.3611738,-0.21639885,-0.24862197,-19.612501,-46.518753,-31.25625,0.17511193,0.18049963,0.70018667,1001.0754, , , , 
2026-03-20 17:47:31.700,0.8327023,3.5940197,7.4177504,-0.25243986,-0.25671592,-0.29871288,-19.331251,-46.706253,-31.35,0.1741376,0.1768912,0.6986341,1001.0754, , , , 
2026-03-20 17:47:31.720,0.5024927,3.8237305,6.2404814,-0.08261946,-0.028252495,-0.40866855,-19.03125,-46.8375,-31.462502,0.1733758,0.17474529,0.69570816,1001.0754, , , , 
2026-03-20 17:47:31.740,-0.63170516,4.0677986,5.953343,-0.008093959,0.15256348,-0.37934703,-18.712502,-46.85625,-31.462502,0.1722979,0.1754193,0.6937617,1001.0754, , , , 
2026-03-20 17:47:31.760,-0.7896315,3.9577286,6.3122663,0.04444041,0.20021093,-0.25228715,-18.6,-46.800003,-31.462502,0.17054118,0.17736389,0.69174415,1001.07666, , , , 
2026-03-20 17:47:31.780,-0.47377887,3.7423747,6.704689,0.1385136,0.108581215,-0.19730933,-18.16875,-46.631252,-31.81875,0.16944936,0.17955337,0.69033116,1001.07666, , , , 
2026-03-20 17:47:31.800,0.1052842,3.737589,6.9822564,0.2875646,0.04382955,-0.22174391,-17.85,-46.40625,-31.987501,0.17020743,0.18223408,0.6882913,1001.07666, , , , 
2026-03-20 17:47:31.820,-0.3684947,4.278367,6.4701924,0.3999637,0.03527744,-0.23396121,-17.550001,-46.350002,-31.95,0.1714399,0.18462151,0.68665373,1001.07666, , , , 
2026-03-20 17:47:31.840,-0.8135597,4.733003,5.8432727,0.25335616,0.024281874,-0.07880156,-17.23125,-46.4625,-31.706251,0.1738164,0.18837385,0.6843384,1001.07837,37.8873999,127.73746869,170.9130859375,1.52
2026-03-20 17:47:31.860,-0.22492532,4.4458647,6.7381887,0.098196514,0.058490302,0.03970621,-17.1,-46.7625,-31.406252,0.17456038,0.18958102,0.6839999,1001.07837, , , , 
2026-03-20 17:47:31.880,0.45942193,3.9768713,9.250652,0.24602579,0.18799363,0.007941242,-17.118752,-47.175003,-31.2,0.17484511,0.191595,0.6842488,1001.07837, , , , 
2026-03-20 17:47:31.900,-0.11964113,4.2352962,8.906086,0.48792824,0.24785839,-0.03848448,-17.1375,-47.456253,-31.1625,0.17553876,0.19464135,0.68391687,1001.07837, , , , 
2026-03-20 17:47:31.920,-0.4354937,4.766503,8.547162,0.30100363,0.026725333,-0.031154104,-17.15625,-47.60625,-31.143751,0.17750587,0.19984382,0.6829524,1001.07837, , , , 
2026-03-20 17:47:31.940,-0.18664017,5.1349974,8.738588,0.12507457,-0.1443168,0.029932374,-17.081251,-47.71875,-31.0125,0.178961,0.20055181,0.6824973,1001.07837, , , , 
2026-03-20 17:47:31.960,0.5886344,5.393422,9.619147,0.08231403,0.0108428495,0.08613193,-16.875,-47.86875,-30.825,0.18063831,0.20049173,0.6826264,1001.07837, , , , 
2026-03-20 17:47:31.980,0.7465607,5.6614184,9.781859,0.055435978,0.03527744,0.049480047,-16.78125,-48.131252,-30.675001,0.18102938,0.20089139,0.68293774,1001.07837, , , , 
2026-03-20 17:47:32.000,0.29192436,5.541777,9.786645,-0.0386372,0.059712034,-0.0030543238,-16.837502,-48.24375,-30.6,0.18103641,0.20116328,0.68319994,1001.08136, , , , 
2026-03-20 17:47:32.020,-1.1533405,5.6039906,9.265009,-0.24633121,0.089033544,0.07513637,-16.95,-48.24375,-30.431252,0.17932576,0.20085067,0.6838423,1001.08136, , , , 
2026-03-20 17:47:32.041,-1.18684,4.895715,10.533205,-0.58230686,-0.12843432,0.16554436,-16.85625,-48.16875,-30.337502,0.17663676,0.19767088,0.68555725,1001.08136, , , , 
2026-03-20 17:47:32.060,-1.1676974,4.517649,11.834901,-0.53343767,-0.16142102,0.20341797,-16.612501,-47.90625,-30.35625,0.1746135,0.19349949,0.687116,1001.08136, , , , 
2026-03-20 17:47:32.080,-0.4019942,4.139583,11.107483,-0.2084576,0.029168794,0.20097451,-16.48125,-47.737503,-30.712502,0.17226867,0.18893196,0.6897027,1001.08453, , , , 
2026-03-20 17:47:32.101,-0.6891329,4.287938,10.12164,-0.3037525,0.03405571,0.14355323,-16.5375,-47.643753,-31.1625,0.1705609,0.18735655,0.6913698,1001.08453, , , , 
2026-03-20 17:47:32.120,-0.9667004,4.206582,11.126625,-0.4063778,-0.18707734,0.15821397,-16.800001,-47.325,-31.556252,0.16903822,0.1849027,0.6925698,1001.08453, , , , 
2026-03-20 17:47:32.140,-0.5982057,4.0295134,10.700703,-0.25243986,-0.23228133,0.15699224,-17.118752,-46.893753,-31.875002,0.16820467,0.18049553,0.69398063,1001.08453, , , , 
2026-03-20 17:47:32.160,-0.5886344,4.106084,9.145369,0.010231985,-0.058795735,0.12034036,-17.268751,-46.48125,-31.931252,0.16858682,0.17759775,0.6951553,1001.0884, , , , 
2026-03-20 17:47:32.180,-0.8135597,4.369294,7.01097,0.1018617,-0.0050396346,0.1508836,-17.41875,-46.237503,-32.006252,0.16945198,0.17779458,0.6958436,1001.0884, , , , 
2026-03-20 17:47:32.201,-0.51206404,4.3836513,5.6709895,0.055435978,0.002290743,0.20952661,-17.56875,-46.256252,-32.04375,0.17016289,0.17807665,0.6966176,1001.0884, , , , 
2026-03-20 17:47:32.220,-0.3589234,4.2831526,5.369494,-0.03252855,0.059712034,0.2290743,-18.018751,-46.29375,-32.04375,0.17054641,0.17816135,0.69808334,1001.0884, , , , 
2026-03-20 17:47:32.240,-0.5982057,4.058227,6.0394845,-0.17302746,-0.08078687,0.27427828,-18.300001,-46.425003,-31.9125,0.1702369,0.17697299,0.7003396,1001.0954, , , , 
2026-03-20 17:47:32.260,0.37806597,3.7040894,6.9009004,-0.16936226,-0.15164718,0.2706131,-18.4125,-46.425003,-31.893751,0.17034422,0.17505564,0.70184183,1001.0954, , , , 
2026-03-20 17:47:32.280,0.9379865,3.7328033,7.4943204,-0.0019853106,-0.060017463,0.12522727,-18.69375,-46.350002,-31.875002,0.17090935,0.17289124,0.7033257,1001.0954, , , , 
2026-03-20 17:47:32.300,0.81834537,4.1347976,7.30768,0.25579962,0.0059559317,0.01282816,-18.75,-46.40625,-32.1375,0.17185801,0.17305689,0.70372444,1001.0954, , , , 
2026-03-20 17:47:32.320,0.2009971,4.74736,5.9820566,0.40362892,0.1244637,-0.10567961,-18.862501,-46.3875,-32.475002,0.1737871,0.17555484,0.7030068,1001.09686, , , , 
2026-03-20 17:47:32.340,-0.8422736,5.2546387,5.938986,0.36942047,0.28206682,-0.07513637,-19.03125,-46.425003,-32.5125,0.1752677,0.18106921,0.7016884,1001.09686, , , , 
2026-03-20 17:47:32.360,-1.1437693,5.757131,7.04447,0.17394374,0.07803798,0.056810424,-19.5,-46.537502,-32.456253,0.1755306,0.18401212,0.7014288,1001.09686, , , , 
2026-03-20 17:47:32.380,0.55034924,5.814559,8.484949,0.04444041,-0.28359398,0.07024945,-19.725,-46.518753,-32.0625,0.1768795,0.18445191,0.70160234,1001.09686, , , , 
2026-03-20 17:47:32.400,0.66041905,5.881558,9.274581,0.1385136,-0.18585561,-0.06291907,-19.81875,-46.518753,-31.85625,0.17945047,0.1829547,0.7011047,1001.0967, , , , 
2026-03-20 17:47:32.420,-0.5599205,6.1495543,9.513863,0.24480405,0.2197586,-0.048258316,-19.59375,-46.2,-31.368752,0.18089023,0.18504505,0.7000815,1001.0967, , , , 
2026-03-20 17:47:32.440,-0.9523434,6.053841,9.667004,0.10919208,0.16111559,0.058032155,-19.3125,-46.18125,-31.2,0.18067932,0.18738604,0.700081,1001.0967, , , , 
2026-03-20 17:47:32.460,0.35413775,6.04427,10.336994,-0.045967575,-0.27259842,0.028710645,-19.275002,-46.21875,-31.125002,0.18084829,0.1878544,0.70045865,1001.0967, , , , 
2026-03-20 17:47:32.480,1.0001999,6.4701924,9.906285,-0.0594066,-0.38866273,-0.115453444,-19.237501,-46.40625,-31.087502,0.18304333,0.18493891,0.69976294,1001.09625, , , , 
2026-03-20 17:47:32.500,0.31106696,6.8243303,10.150353,0.031001387,-0.052687086,-0.12400555,-19.35,-46.65,-30.956251,0.18484803,0.18296568,0.69815695,1001.09625, , , , 
2026-03-20 17:47:32.520,0.8997013,6.1304116,10.12164,0.039553493,0.07192933,-0.077579826,-19.518751,-46.818752,-30.768751,0.18488586,0.18351085,0.6976821,1001.09625, , , , 
2026-03-20 17:47:32.540,0.72741807,5.2307105,10.006784,0.0151189035,0.10002911,-0.126449,-19.59375,-46.893753,-30.69375,0.18443027,0.18434016,0.6971324,1001.09625, , , , 
2026-03-20 17:47:32.560,0.43070808,4.5320063,9.102298,-0.08628465,0.19288056,-0.11056653,-19.706251,-47.11875,-30.50625,0.18274264,0.18554465,0.6964938,1001.09625, , , , 
2026-03-20 17:47:32.580,0.2009971,4.0103707,8.733803,-0.33796093,0.15989386,-0.022601997,-19.63125,-47.325,-30.468752,0.1798216,0.18540967,0.69681275,1001.09625, , , , 
2026-03-20 17:47:32.600,0.8805587,3.5126636,9.083155,-0.5994111,0.030390523,0.005497783,-19.40625,-47.362503,-30.6,0.17694089,0.18337624,0.6976244,1001.09625, , , , 
2026-03-20 17:47:32.620,0.8566305,3.3643086,9.552148,-0.6385064,0.0707076,-0.09346231,-19.29375,-47.325,-30.712502,0.17241605,0.17905752,0.6986942,1001.09625, , , , 
2026-03-20 17:47:32.640,-0.2440679,3.7423747,9.236296,-0.47968158,0.07803798,-0.115453444,-19.050001,-47.081253,-31.312502,0.16649173,0.17490147,0.6992159,1001.09686, , , , 
2026-03-20 17:47:32.660,0.033499517,3.8285162,7.8293157,-0.34529132,-0.013591741,-0.059253883,-18.900002,-46.8375,-31.800001,0.16342318,0.17234536,0.6994122,1001.09686, , , , 
2026-03-20 17:47:32.680,0.82313097,3.6179478,6.728617,-0.20479241,0.04138609,-0.10567961,-18.7875,-46.631252,-32.175003,0.16193885,0.17086843,0.69945383,1001.09686, , , , 
2026-03-20 17:47:32.700,0.062213387,3.723232,5.800202,-0.12293654,0.23319763,-0.1960876,-18.69375,-46.537502,-32.268753,0.15996635,0.17061765,0.6989355,1001.09686, , , , 
2026-03-20 17:47:32.720,-1.2107682,3.938586,7.092326,-0.18035783,0.19532402,-0.11056653,-18.50625,-46.48125,-32.5125,0.15703171,0.17155473,0.6983368,1001.09705, , , , 
2026-03-20 17:47:32.740,-0.56470615,3.885944,8.23131,-0.054519683,-0.060017463,0.037262753,-18.150002,-46.143753,-32.737503,0.15505485,0.17121258,0.69848096,1001.09705, , , , 
2026-03-20 17:47:32.760,0.3493521,3.7710886,7.5900335,0.10308343,-0.12843432,0.01282816,-18.018751,-45.9,-33.0,0.15585814,0.17059028,0.6985175,1001.09705, , , , 
2026-03-20 17:47:32.780,-0.19621146,3.938586,7.3746796,0.26435173,0.013286309,-0.016493348,-18.0,-45.84375,-33.225002,0.15751982,0.17115185,0.69808984,1001.09705, , , , 
2026-03-20 17:47:32.800,-0.038285162,3.9864426,7.0636125,0.34498587,0.021838415,0.029932374,-18.018751,-45.65625,-33.46875,0.15940529,0.17348646,0.69761145,1001.09644, , , , 
2026-03-20 17:47:32.820,0.07178468,4.1347976,6.977471,0.30589053,0.09758565,0.054366965,-18.300001,-45.80625,-33.46875,0.16196233,0.17670688,0.69731325,1001.09644, , , , 
2026-03-20 17:47:32.841,-0.124426775,4.1922255,8.1020975,0.23869541,0.17577635,0.09590577,-18.431252,-45.91875,-33.318752,0.16283873,0.17955443,0.6975876,1001.09644,37.88738967,127.73747842,171.03546142578125,1.5
2026-03-20 17:47:32.860,-0.32063824,4.1443686,8.973084,0.23380849,0.10002911,0.13988803,-18.431252,-45.9375,-33.16875,0.16331649,0.18137759,0.6980185,1001.09644, , , , 
2026-03-20 17:47:32.880,-0.11006984,4.3645086,8.700303,0.18616104,0.11835505,0.19120067,-18.375,-46.143753,-32.850002,0.16437669,0.18333653,0.6988115,1001.096, , , , 
2026-03-20 17:47:32.900,0.53599226,4.56072,9.671789,0.09453133,0.057268575,0.2290743,-18.337502,-46.425003,-32.53125,0.1648927,0.18475841,0.70016575,1001.096, , , , 
2026-03-20 17:47:32.920,0.9762716,4.733003,9.446864,-0.015424335,-0.050243627,0.1545488,-18.28125,-46.4625,-32.287502,0.16568008,0.18489428,0.70148754,1001.096, , , , 
2026-03-20 17:47:32.940,0.83748794,5.063213,10.762917,-0.107054055,-0.10766492,0.08735366,-18.35625,-46.40625,-32.11875,0.16598724,0.1836502,0.7023938,1001.096, , , , 
2026-03-20 17:47:32.960,0.8039884,5.2689953,10.499705,-0.042302385,0.024281874,0.058032155,-18.45,-46.36875,-32.081253,0.16618267,0.18227696,0.7029495,1001.09625, , , , 
2026-03-20 17:47:32.980,0.2440679,5.3886366,10.183853,-0.09117157,0.20265439,0.011606431,-18.7875,-46.143753,-32.1375,0.16523477,0.18255888,0.70348436,1001.09625, , , , 
2026-03-20 17:47:33.001,-0.75613195,5.1924253,10.595419,-0.28053966,0.115911596,0.058032155,-18.956251,-46.10625,-32.175003,0.16224699,0.18254228,0.704437,1001.09625, , , , 
2026-03-20 17:47:33.020,-0.6269195,4.7282176,11.040483,-0.3733911,-0.038026333,0.108123064,-19.0125,-46.0875,-32.2125,0.16042064,0.18093473,0.705371,1001.09625, , , , 
2026-03-20 17:47:33.040,-0.27756742,4.0869412,11.571691,-0.28909177,-0.04291325,0.07513637,-19.03125,-46.03125,-32.25,0.1585328,0.17779243,0.7066218,1001.0977, , , , 
2026-03-20 17:47:33.060,-0.5407779,3.6658044,11.294123,-0.06307179,0.03649917,-0.018936807,-18.862501,-45.768753,-32.381252,0.15711358,0.1761192,0.70728403,1001.0977, , , , 
2026-03-20 17:47:33.080,-0.80877405,3.6610186,9.8727865,0.043218683,0.069485866,-0.06169734,-18.9375,-45.600002,-32.68125,0.15644254,0.17622441,0.7071713,1001.0977, , , , 
2026-03-20 17:47:33.100,-1.402194,3.7710886,8.207381,0.06520981,0.16233732,-0.034819294,-18.993752,-45.600002,-32.79375,0.15591556,0.17736033,0.7068396,1001.0977, , , , 
2026-03-20 17:47:33.120,-2.0482562,3.842873,7.580462,-0.09117157,0.11957678,0.14477496,-18.84375,-45.525,-32.98125,0.15432177,0.1788853,0.70748717,1001.0996, , , , 
2026-03-20 17:47:33.140,-1.2203395,3.6897326,7.5086775,-0.23900084,-0.18341215,0.23884813,-18.6,-45.581253,-32.9625,0.15370981,0.17778139,0.70865864,1001.0996, , , , 
2026-03-20 17:47:33.161,-0.16749759,3.6849468,6.8817577,-0.2121228,-0.21395539,0.2535089,-18.375,-45.600002,-32.831253,0.15420249,0.17341956,0.7108239,1001.0996, , , , 
2026-03-20 17:47:33.180,0.076570325,3.6466618,7.058827,-0.13271037,-0.064904384,0.18997894,-18.35625,-45.525,-32.850002,0.15440926,0.1713944,0.7120342,1001.0996, , , , 
2026-03-20 17:47:33.200,-0.44027936,3.8524444,6.9248285,-0.056963142,-0.0490219,0.17043127,-18.50625,-45.3375,-32.90625,0.15439214,0.17001751,0.7133021,1001.10114, , , , 
2026-03-20 17:47:33.220,-0.17228323,3.8763726,6.4031935,-0.09605849,-0.116217025,0.2083049,-18.84375,-45.15,-32.90625,0.1547622,0.16890395,0.71452326,1001.10114, , , , 
2026-03-20 17:47:33.240,0.4642076,3.9050865,7.1976104,-0.11071924,-0.15286891,0.1594357,-19.0125,-45.112503,-33.0,0.15537223,0.16690953,0.71581036,1001.10114, , , , 
2026-03-20 17:47:33.260,0.7322037,4.173083,7.6331043,0.159283,-0.117438756,0.04214967,-19.650002,-44.8875,-33.16875,0.15645298,0.16546538,0.7164746,1001.10114, , , , 
2026-03-20 17:47:33.280,0.4977071,4.5894337,6.6855464,0.308334,-0.060017463,-0.06902772,-19.800001,-44.8125,-33.206253,0.1586543,0.1663797,0.7160047,1001.1009, , , , 
2026-03-20 17:47:33.300,-0.6269195,5.2019963,6.168697,0.23625195,-0.020922119,-0.102014415,-20.41875,-44.53125,-33.43125,0.16090746,0.16846316,0.7147686,1001.1009, , , , 
2026-03-20 17:47:33.320,-1.1437693,5.666204,7.2502527,0.12140937,0.013286309,0.09224058,-20.53125,-44.60625,-33.3375,0.16240297,0.17041512,0.71408075,1001.1009, , , , 
2026-03-20 17:47:33.340,0.21535404,5.493921,8.949157,0.1018617,-0.110108376,0.10690133,-20.456251,-44.775,-33.300003,0.16352953,0.17082754,0.7146387,1001.1009, , , , 
2026-03-20 17:47:33.360,0.7609176,5.5944195,9.08794,0.25335616,-0.19318599,-0.025045456,-20.306252,-45.16875,-33.09375,0.16539235,0.17079848,0.7144646,1001.09985, , , , 
2026-03-20 17:47:33.380,-0.20578274,5.895915,8.01117,0.33887723,0.063377224,-0.10567961,-20.175001,-45.768753,-32.625,0.1682189,0.1724515,0.7132633,1001.09985, , , , 
2026-03-20 17:47:33.400,-1.2921243,5.8863435,8.480164,0.20204352,0.22098033,0.021380268,-20.118752,-45.862503,-32.5125,0.16926765,0.175719,0.7123899,1001.09985, , , , 
2026-03-20 17:47:33.420,-0.24885355,5.6183476,9.5665045,0.10063997,0.09636392,0.08735366,-20.118752,-45.768753,-32.268753,0.16904618,0.17873177,0.7128465,1001.09985, , , , 
2026-03-20 17:47:33.440,0.4019942,6.0634127,9.332008,-0.044745844,-0.13209951,-0.0042760535,-20.081251,-45.506252,-32.11875,0.16956289,0.17867811,0.7130058,1001.0973, , , , 
2026-03-20 17:47:33.460,0.52163535,6.3361945,9.805787,-0.24022257,-0.12232567,-0.051923506,-20.0625,-45.3375,-31.9125,0.16974422,0.17731434,0.71282154,1001.0973, , , , 
2026-03-20 17:47:33.480,1.3734802,5.986842,11.538191,-0.26710063,-0.2102902,-0.11423171,-20.1,-45.2625,-31.687502,0.16877683,0.17372404,0.7125319,1001.0973, , , , 
2026-03-20 17:47:33.500,1.5553347,5.2498527,11.52862,-0.13026692,-0.091782436,-0.26328272,-20.118752,-45.28125,-31.650002,0.16855998,0.17172736,0.7117639,1001.0973, , , , 
2026-03-20 17:47:33.520,0.55034924,4.7808595,10.963913,-0.044745844,0.06459895,-0.28038692,-20.118752,-45.61875,-31.612501,0.16771613,0.17117009,0.7100525,1001.09705, , , , 
2026-03-20 17:47:33.540,0.38285163,4.331009,10.600204,-0.08872811,0.058490302,-0.18997894,-20.212502,-45.7125,-31.781252,0.16638494,0.1715391,0.70861477,1001.09705, , , , 
2026-03-20 17:47:33.560,0.71306115,3.8907297,10.30828,-0.119271345,0.062155493,-0.16432263,-20.25,-45.693752,-31.968752,0.16498931,0.17135789,0.70772296,1001.09705, , , , 
2026-03-20 17:47:33.580,0.2727818,3.6849468,10.112068,-0.14004076,0.06459895,-0.14599667,-20.306252,-45.61875,-32.362503,0.16330822,0.17105833,0.70701164,1001.09705, , , , 
2026-03-20 17:47:33.600,-0.019142581,3.5892339,9.403793,-0.16081016,0.002290743,-0.06902772,-19.96875,-45.393753,-32.775,0.16138078,0.17019254,0.70646924,1001.0983, , , , 
2026-03-20 17:47:33.620,0.34456646,3.1776686,8.733803,-0.17180572,-0.055130545,-0.04092794,-19.5375,-45.2625,-32.831253,0.16054952,0.1691437,0.70644057,1001.0983, , , , 
2026-03-20 17:47:33.640,0.6221339,2.9623144,7.834101,-0.05329795,-0.10399973,-0.09346231,-19.1625,-45.28125,-32.8125,0.15995131,0.16736288,0.706109,1001.0983, , , , 
2026-03-20 17:47:33.660,0.66041905,3.182454,6.541977,0.028557928,-0.15897755,-0.1753182,-19.03125,-45.300003,-32.775,0.16039263,0.16676368,0.7053647,1001.0983, , , , 
2026-03-20 17:47:33.680,-0.38763726,3.603591,5.709275,-0.03252855,-0.10644319,-0.16432263,-18.7875,-45.24375,-32.9625,0.16137294,0.16617052,0.7038453,1001.099, , , , 
2026-03-20 17:47:33.700,-0.40677986,3.359523,7.5182486,-0.08384119,-0.10644319,-0.021380268,-18.7875,-45.225002,-33.1875,0.1613945,0.16536064,0.70301247,1001.099, , , , 
2026-03-20 17:47:33.720,0.25842485,3.2015967,8.3174515,0.11896592,-0.22006404,-0.022601997,-18.768751,-45.225002,-33.225002,0.16220593,0.16401447,0.70274216,1001.099, , , , 
2026-03-20 17:47:33.740,0.28235307,3.8333018,6.786045,0.37064222,-0.12965605,-0.06536253,-18.91875,-45.300003,-33.16875,0.1649127,0.16404168,0.7018363,1001.099, , , , 
2026-03-20 17:47:33.760,-0.3062813,4.2687955,6.2117677,0.31932956,-0.06856957,0.005497783,-19.06875,-45.43125,-33.018753,0.1680377,0.1661025,0.70070803,1001.0983, , , , 
2026-03-20 17:47:33.780,0.11006984,4.1347976,7.456035,0.28634286,-0.108886644,0.12278382,-19.10625,-45.61875,-32.775,0.17068112,0.16757874,0.7003736,1001.0983, , , , 
2026-03-20 17:47:33.800,0.8039884,3.9050865,7.1449685,0.40607235,0.013286309,0.09834923,-19.143751,-45.675003,-32.5125,0.17449008,0.16972233,0.7005291,1001.0983, , , , 
2026-03-20 17:47:33.820,0.14356937,4.206582,7.283752,0.39752024,0.1574504,0.083688475,-19.181252,-45.65625,-32.4,0.17625171,0.17217669,0.70054805,1001.0983, , , , 
2026-03-20 17:47:33.840,0.023928227,4.4075794,7.647461,0.38774642,0.13423753,0.12278382,-19.237501,-45.6375,-32.04375,0.17794028,0.17590567,0.7008119,1001.0954,37.88737877,127.73748795,171.220703125,1.53
2026-03-20 17:47:33.860,0.31106696,4.7952166,7.60439,0.26557347,0.075594515,0.126449,-19.5,-45.73125,-31.9125,0.17972925,0.17894319,0.701229,1001.0954, , , , 
2026-03-20 17:47:33.880,0.086141616,5.4699926,8.059027,0.08231403,0.024281874,0.1472184,-19.556252,-45.768753,-31.9125,0.18094468,0.1805715,0.7018024,1001.0954, , , , 
2026-03-20 17:47:33.900,1.0241281,5.5657053,9.571291,-0.10949751,-0.008704823,0.20341797,-19.6875,-46.162502,-31.781252,0.1813211,0.18005976,0.70334566,1001.0954, , , , 
2026-03-20 17:47:33.920,2.07697,5.517849,11.174481,-0.03375028,0.047494736,0.07269291,-19.800001,-46.237503,-31.48125,0.18107572,0.17918502,0.7043119,1001.09344, , , , 
2026-03-20 17:47:33.940,1.402194,5.5226345,10.662417,0.1556178,0.4054615,-0.13500112,-19.837502,-46.162502,-31.368752,0.18000554,0.18101297,0.7044966,1001.09344, , , , 
2026-03-20 17:47:33.961,-0.47856453,5.709275,10.0163555,0.085979216,0.53496486,-0.19364414,-19.875,-46.162502,-31.312502,0.17708209,0.1856559,0.70393467,1001.09344, , , , 
2026-03-20 17:47:33.980,-1.282553,5.1493545,10.566705,-0.15714496,0.39813113,-0.10445788,-19.9125,-46.2,-31.35,0.17406799,0.18823625,0.7038387,1001.09344, , , , 
2026-03-20 17:47:34.000,-1.1676974,4.436293,11.624332,-0.25121814,-0.031917684,-0.034819294,-19.66875,-46.21875,-31.7625,0.17070445,0.1882982,0.70417386,1001.095, , , , 
2026-03-20 17:47:34.020,-0.39720857,4.034299,10.6815605,-0.05329795,-0.09300416,0.0030543238,-19.1625,-46.18125,-32.04375,0.16980515,0.18632144,0.70430857,1001.095, , , , 
2026-03-20 17:47:34.040,-0.5982057,4.182654,8.733803,0.07498365,0.15989386,-6.108648E-4,-18.956251,-46.162502,-32.1375,0.16978271,0.18622606,0.70428884,1001.095, , , , 
2026-03-20 17:47:34.060,-1.0049855,4.240082,6.843473,-0.10583232,0.23686282,0.06169734,-18.675001,-46.0875,-32.1375,0.16876715,0.18778808,0.7046001,1001.095, , , , 
2026-03-20 17:47:34.080,-1.2921243,3.9050865,7.216753,-0.45891216,0.13912445,0.14844014,-18.675001,-46.162502,-32.0625,0.16581811,0.18766735,0.7059559,1001.0975, , , , 
2026-03-20 17:47:34.100,-1.0193424,3.4313076,7.958528,-0.70570153,-0.14065161,0.24617851,-18.712502,-46.162502,-32.081253,0.16203885,0.18388715,0.70825744,1001.0975, , , , 
2026-03-20 17:47:34.121,-0.3589234,2.9718857,9.288938,-0.6592758,-0.23838998,0.25106543,-18.675001,-46.0125,-32.23125,0.15827765,0.17545146,0.7115714,1001.0975, , , , 
2026-03-20 17:47:34.140,0.1052842,3.0867412,8.642876,-0.34529132,-0.10766492,0.22663084,-18.5625,-45.65625,-32.7,0.15660295,0.17025262,0.7137597,1001.0975, , , , 
2026-03-20 17:47:34.160,0.09571291,3.426522,7.0348988,-0.21945317,0.0377209,0.18509203,-18.5625,-45.2625,-33.112503,0.15569964,0.16847038,0.7150936,1001.10046, , , , 
2026-03-20 17:47:34.180,0.019142581,3.7280176,6.5898337,-0.36850417,-0.17974696,0.17043127,-18.712502,-45.037502,-33.300003,0.15440555,0.16626748,0.71668744,1001.10046, , , , 
2026-03-20 17:47:34.200,0.31585258,3.9098723,7.8197446,-0.39293876,-0.4167625,0.16187917,-19.125,-44.625,-33.73125,0.15414965,0.15975699,0.71830416,1001.10046, , , , 
2026-03-20 17:47:34.220,0.61734825,3.9960139,7.834101,-0.10461059,-0.24205516,0.12278382,-19.518751,-44.456253,-33.80625,0.15528512,0.1554885,0.7191022,1001.10046, , , , 
2026-03-20 17:47:34.240,0.4642076,4.254439,7.1880393,0.15683953,-0.020922119,0.05070178,-19.987501,-44.287502,-34.03125,0.15629427,0.15486652,0.7193427,1001.1045, , , , 
2026-03-20 17:47:34.260,0.32063824,4.5942197,6.393622,0.23869541,0.018173227,0.0030543238,-20.325,-44.268753,-34.162502,0.15806629,0.15676257,0.7191918,1001.1045, , , , 
2026-03-20 17:47:34.280,-0.1052842,5.029713,6.532406,0.18249585,0.048716467,-0.0067195124,-20.493752,-44.11875,-34.275,0.15934373,0.1586115,0.7188188,1001.1045, , , , 
2026-03-20 17:47:34.300,-0.44027936,5.111069,7.9920278,0.21426082,0.04016436,-0.005497783,-20.493752,-44.006252,-34.331253,0.16020124,0.16043556,0.71854615,1001.1045, , , , 
2026-03-20 17:47:34.320,0.0,5.2259245,8.327023,0.30344707,-0.06368265,6.108648E-4,-20.550001,-44.025,-34.21875,0.16147962,0.16189827,0.7182467,1001.10535, , , , 
2026-03-20 17:47:34.340,0.2632105,5.6757755,7.920243,0.30100363,-0.13332124,-0.07269291,-20.362501,-44.025,-34.03125,0.16506909,0.16396262,0.71709985,1001.10535, , , , 
2026-03-20 17:47:34.360,-0.19142582,5.9342003,8.015956,0.19715661,0.030390523,-0.06536253,-20.268751,-44.081253,-33.975002,0.16675173,0.16521929,0.71628237,1001.10535, , , , 
2026-03-20 17:47:34.380,-0.94755775,5.45085,9.906285,0.059101168,0.13912445,0.03970621,-20.456251,-44.362503,-33.7125,0.16678242,0.16737628,0.7160668,1001.10535, , , , 
2026-03-20 17:47:34.400,-0.25842485,5.278567,11.059627,0.022449281,0.014508039,0.09834923,-20.550001,-44.456253,-33.525,0.16643539,0.16797554,0.7165159,1001.1075, , , , 
2026-03-20 17:47:34.420,0.52163535,5.852844,9.973285,-0.06185006,-0.12965605,-0.0042760535,-20.456251,-44.625,-33.375,0.1669799,0.16767038,0.7168631,1001.1075, , , , 
2026-03-20 17:47:34.441,-0.18664017,6.4366927,10.169497,-0.32574365,0.0059559317,0.005497783,-20.325,-44.737503,-33.300003,0.16640218,0.16564634,0.7169151,1001.1075, , , , 
2026-03-20 17:47:34.460,0.43070808,5.6327047,12.112468,-0.43325585,0.07315106,0.08613193,-20.19375,-44.79375,-33.35625,0.16431507,0.16368958,0.71769243,1001.1075, , , , 
2026-03-20 17:47:34.480,1.0193424,4.278367,14.007584,-0.23777911,0.063377224,-0.032375835,-20.1,-44.71875,-33.506252,0.1611588,0.16121419,0.7188698,1001.1102, , , , 
2026-03-20 17:47:34.500,1.3447664,3.8668015,12.519248,0.18493931,-0.044134982,-0.17776164,-20.1375,-44.41875,-33.6375,0.16022286,0.16060016,0.7185308,1001.1102, , , , 
2026-03-20 17:47:34.520,1.5218352,3.9768713,9.078369,0.34498587,0.0707076,-0.26450446,-20.23125,-44.362503,-33.6375,0.16181092,0.16264193,0.71668047,1001.1102, , , , 
2026-03-20 17:47:34.540,1.4644074,4.345366,8.547162,0.17883067,0.2197586,-0.3035998,-20.5125,-44.456253,-33.487503,0.16229095,0.16598362,0.7146438,1001.1102, , , , 
2026-03-20 17:47:34.560,0.93320084,4.5224347,8.303095,0.0810923,0.12935062,-0.31337363,-20.400002,-44.662502,-33.300003,0.16143864,0.1687432,0.71268666,1001.1149, , , , 
2026-03-20 17:47:34.580,0.3924229,4.546363,7.5661054,-0.12660173,0.008399391,-0.28527385,-20.175001,-44.98125,-33.206253,0.16052882,0.1698952,0.7107671,1001.1149, , , , 
2026-03-20 17:47:34.600,-0.2727818,4.0869412,8.60459,-0.31474808,-0.041691523,-0.16676609,-19.893751,-45.24375,-33.225002,0.15831046,0.16818184,0.7092418,1001.1149, , , , 
2026-03-20 17:47:34.620,0.23449662,3.4504502,9.456435,-0.21945317,-0.04780017,-0.08002329,-19.5,-45.2625,-33.35625,0.15686953,0.16647418,0.70900583,1001.1149, , , , 
2026-03-20 17:47:34.640,0.7800602,3.2590244,9.15494,0.06276636,0.0059559317,-0.1423315,-19.368752,-45.225002,-33.600002,0.15600191,0.165364,0.70859754,1001.1232, , , , 
2026-03-20 17:47:34.660,0.32542387,3.6179478,7.810173,0.2667952,0.020616686,-0.26083925,-19.44375,-45.112503,-33.75,0.15654407,0.16672932,0.70714563,1001.1232, , , , 
2026-03-20 17:47:34.680,-0.5407779,3.8380876,7.2933235,0.2838994,-0.07834341,-0.24006985,-19.40625,-45.018753,-33.80625,0.1579499,0.16901614,0.7049236,1001.1232, , , , 
2026-03-20 17:47:34.700,-0.33499518,3.6897326,6.786045,0.3755291,-0.110108376,-0.1631009,-19.087502,-44.90625,-33.91875,0.16034403,0.17091437,0.702783,1001.1232, , , , 
2026-03-20 17:47:34.720,0.22971097,3.4504502,6.3696938,0.534354,0.0035124724,-0.15332706,-18.956251,-45.225002,-33.9375,0.16347559,0.17363325,0.7008851,1001.1266, , , , 
2026-03-20 17:47:34.740,0.55513483,3.7040894,5.1349974,0.6760746,0.11346813,-0.20586143,-18.7875,-45.5625,-33.65625,0.16779122,0.17984478,0.6982003,1001.1266, , , , 
2026-03-20 17:47:34.760,-0.22013968,4.26401,4.694718,0.48548478,0.12812889,-0.17043127,-18.6,-45.768753,-33.300003,0.1705871,0.18527134,0.69599277,1001.1266, , , , 
2026-03-20 17:47:34.780,-0.18664017,4.4745784,5.168497,0.22769985,0.101250835,-0.0030543238,-18.431252,-45.9,-32.8875,0.1718902,0.1879627,0.6950734,1001.1266, , , , 
2026-03-20 17:47:34.800,0.15792629,4.2975097,6.5084777,0.012675445,0.15256348,0.06536253,-18.28125,-45.9,-32.60625,0.1722651,0.18977189,0.695134,1001.12726, , , , 
2026-03-20 17:47:34.820,0.033499517,4.0534415,9.092726,-0.025198173,0.18555018,0.053145237,-17.831251,-46.0875,-32.100002,0.17100826,0.19068938,0.6959638,1001.12726, , , , 
2026-03-20 17:47:34.840,-0.6891329,4.316652,10.035499,0.08842268,0.076816246,0.051923506,-17.75625,-46.18125,-31.968752,0.16991876,0.1916309,0.69656307,1001.12726,37.8873676,127.73749763,171.509521484375,1.48
2026-03-20 17:47:34.860,-0.6364908,4.9674997,9.250652,0.10674862,0.052381653,0.1545488,-17.587502,-46.3875,-31.612501,0.17029577,0.19256483,0.6969928,1001.12726, , , , 
2026-03-20 17:47:34.880,-0.014356935,5.4699926,9.212367,-0.043524116,0.108581215,0.22174391,-17.6625,-46.59375,-31.425001,0.1704655,0.19331178,0.69861054,1001.1264, , , , 
2026-03-20 17:47:34.900,0.24885355,5.690132,9.973285,-0.23044874,0.059712034,0.24251331,-17.79375,-46.66875,-31.3875,0.16969796,0.19281255,0.7000901,1001.1264, , , , 
2026-03-20 17:47:34.921,0.019142581,5.316852,11.509477,-0.40759954,-0.008704823,0.19730933,-17.925001,-46.800003,-31.593752,0.1673188,0.18962471,0.70281726,1001.1264, , , , 
2026-03-20 17:47:34.940,-0.8135597,4.9052863,12.60539,-0.36728245,-0.033139415,0.18997894,-18.056252,-46.6875,-31.9125,0.16564076,0.18699908,0.7042832,1001.1264, , , , 
2026-03-20 17:47:34.960,-0.5838487,4.197011,13.342379,-0.16936226,-0.031917684,0.1753182,-18.206251,-46.48125,-32.081253,0.1638468,0.18427761,0.70615643,1001.1264, , , , 
