Time,Accel_X,Accel_Y,Accel_Z,Gyro_X,Gyro_Y,Gyro_Z,Mag_X,Mag_Y,Mag_Z,Orient_X,Orient_Y,Orient_Z,Pressure,Lat,Lng,Alt,Speed
2026-03-20 18:12:06.245,1.9716859,5.9007006,6.1208405,0.14920372,0.13530655,0.32864526,-33.525,-11.493751,-33.375,0.2897368,0.09480503,0.53057915,1001.32574,37.88747566,127.73739187,184.59222412109375,0.0
2026-03-20 18:12:06.265,1.9381863,5.7140603,5.910272,-0.5422952,0.5861248,0.20036365,-33.7125,-11.6625,-33.075,0.28477445,0.097925596,0.53696805,1001.32294, , , , 
2026-03-20 18:12:06.285,1.9286151,5.6853466,6.135197,-1.0297652,0.54947287,0.15149446,-33.84375,-11.4375,-33.09375,0.27594924,0.09784255,0.5406875,1001.32294, , , , 
2026-03-20 18:12:06.305,1.7324036,5.7140603,7.331609,-1.5111268,0.43585202,0.13927718,-33.768753,-10.950001,-33.2625,0.26357415,0.09472527,0.54442227,1001.32294, , , , 
2026-03-20 18:12:06.325,1.134198,5.8337016,9.3511505,-1.7542509,0.19028437,0.18325943,-33.768753,-10.40625,-33.61875,0.24897537,0.08820284,0.54798514,1001.32294, , , , 
2026-03-20 18:12:06.345,0.9236295,5.8863435,11.380264,-1.7066035,-0.0736092,0.4178315,-33.65625,-9.618751,-33.99375,0.23488668,0.07849237,0.5517922,1001.3202, , , , 
2026-03-20 18:12:06.365,1.2155539,4.5559344,11.60519,-1.483027,-0.06017018,0.68050337,-33.35625,-8.587501,-34.36875,0.22284621,0.06767932,0.55709064,1001.3202, , , , 
2026-03-20 18:12:06.385,2.6608188,3.8668015,10.983056,-1.166599,0.29901832,0.7012728,-33.206253,-7.425,-34.65,0.21219064,0.05898869,0.56392705,1001.3202, , , , 
2026-03-20 18:12:06.405,3.0723844,3.306881,10.987842,-0.95646155,0.52992517,0.3420843,-33.09375,-6.15,-34.78125,0.20152672,0.055032697,0.56997865,1001.3202, , , , 
2026-03-20 18:12:06.425,4.1778684,3.6514473,11.973684,-0.850171,0.4969385,-0.239459,-33.05625,-4.78125,-34.7625,0.19136265,0.05359174,0.57229066,1001.33167, , , , 
2026-03-20 18:12:06.445,1.052842,3.6370904,12.753745,-0.66080296,0.5042689,-0.5558869,-33.16875,-3.6000001,-34.66875,0.18241388,0.053459935,0.569947,1001.33167, , , , 
2026-03-20 18:12:06.465,1.7228323,4.1443686,10.815558,-0.3724748,-0.1273653,-0.62919074,-33.225002,-2.68125,-34.631252,0.17610969,0.05403341,0.5663858,1001.33167, , , , 
2026-03-20 18:12:06.485,0.7609176,1.5696917,9.9015,-0.3846921,-0.75655603,-0.95539254,-33.2625,-2.15625,-34.6875,0.17518137,0.049925394,0.559724,1001.33167, , , , 
2026-03-20 18:12:06.505,-0.11964113,2.172683,10.959127,-0.525191,-1.2244785,-1.1252129,-33.206253,-1.85625,-34.8375,0.17607996,0.04151694,0.5496054,1001.3434, , , , 
2026-03-20 18:12:06.525,-0.94755775,4.1635113,12.251252,-0.3724748,-1.7571526,-0.7696896,-33.28125,-1.81875,-34.875,0.17965966,0.02854086,0.538896,1001.3434, , , , 
2026-03-20 18:12:06.545,-0.4546363,3.4839497,9.997213,0.09911281,-1.7107269,-0.05131264,-33.65625,-2.15625,-34.59375,0.18770073,0.013850026,0.5320008,1001.3434, , , , 
2026-03-20 18:12:06.565,0.65084773,1.7324036,7.944171,0.3349066,-1.163392,0.21624613,-34.237503,-2.5500002,-34.068752,0.19737889,0.0024481246,0.52987653,1001.3434, , , , 
2026-03-20 18:12:06.585,1.8376877,2.885744,8.49452,0.4827359,-0.00763581,0.22235478,-35.025,-3.0375001,-33.24375,0.2041953,-0.0015435524,0.5303469,1001.35333, , , , 
2026-03-20 18:12:06.605,1.1676974,2.766103,7.2358956,0.5218312,1.0149518,0.53023064,-35.662502,-3.43125,-32.268753,0.20564166,0.0050241454,0.53398097,1001.35333, , , , 
2026-03-20 18:12:06.625,2.4215364,2.158326,4.3405805,0.19807291,0.083993904,0.7648027,-35.9625,-3.5625002,-31.406252,0.20486887,0.012102017,0.5409334,1001.35333, , , , 
2026-03-20 18:12:06.645,2.9479575,1.4739788,5.288138,-0.15134175,-0.6808088,0.41538805,-35.9625,-3.43125,-30.956251,0.20737256,0.008031279,0.54559267,1001.35333, , , , 
2026-03-20 18:12:06.665,2.7421749,1.7946169,7.408179,-0.5581777,-0.4621192,-0.3518581,-35.831253,-3.15,-30.862501,0.20795414,0.0010359847,0.54503256,1001.3619, , , , 
2026-03-20 18:12:06.685,3.4360933,2.3928227,7.1449685,-0.8929316,-1.1890483,-0.95417076,-35.8125,-2.7562501,-30.843752,0.20512949,-0.0062891897,0.5385351,1001.3619, , , , 
2026-03-20 18:12:06.705,3.9242291,2.3928227,6.4797635,-0.7279981,-2.2177446,-1.1239913,-36.16875,-2.34375,-30.712502,0.20764647,-0.023462037,0.5260241,1001.3619, , , , 
2026-03-20 18:12:06.725,2.1870399,2.1487548,6.087341,-0.2075413,-0.4987711,-0.61208653,-36.787502,-2.0625,-30.075,0.21253002,-0.03828658,0.51445395,1001.3619, , , , 
2026-03-20 18:12:06.745,1.7898313,3.6370904,10.447063,0.46074477,2.6288567,0.17348559,-37.65,-2.2125,-29.04375,0.20838031,-0.029093508,0.5144123,1001.3536, , , , 
2026-03-20 18:12:06.765,0.7609176,2.8426733,13.342379,1.521206,1.8432845,0.9505056,-38.25,-2.53125,-28.218752,0.20232825,-0.0037863497,0.5242254,1001.3536, , , , 
2026-03-20 18:12:06.785,1.430908,1.7467605,10.547563,2.4362814,0.49082986,0.7171553,-38.4,-2.90625,-27.91875,0.21160929,0.013842412,0.5344072,1001.3536, , , , 
2026-03-20 18:12:06.805,0.9906286,2.4215364,4.1874394,2.5437937,0.091324285,-0.20158538,-38.25,-3.3937502,-28.143751,0.23206055,0.029036991,0.5361091,1001.3536, , , , 
2026-03-20 18:12:06.825,3.1633115,6.0155563,0.0,-0.24785839,0.603229,-0.34819293,-37.725002,-3.8625002,-28.7625,0.2400401,0.041043535,0.53463334,1001.31274, , , , 
2026-03-20 18:12:06.845,0.10049855,5.0440702,9.006584,-0.64614224,1.3191625,-0.02443459,-37.29375,-4.55625,-29.268751,0.23137917,0.04322233,0.5346641,1001.31274, , , , 
2026-03-20 18:12:06.865,-0.44985065,5.221139,9.126225,0.19807291,2.6105306,0.39950556,-36.825,-5.3812504,-29.531252,0.21877797,0.056878053,0.5401794,1001.31274, , , , 
2026-03-20 18:12:06.885,2.2827528,3.723232,8.432307,0.26282457,3.165196,0.5033526,-36.3375,-5.9625,-30.112501,0.20587496,0.08086889,0.5500709,1001.31274, , , , 
2026-03-20 18:12:06.905,4.8861437,3.2638102,9.15494,-0.0059559317,2.292881,0.013439025,-35.625,-6.1125,-31.050001,0.18987693,0.107468754,0.559337,1001.28156, , , , 
2026-03-20 18:12:06.925,-2.210968,4.871787,7.652247,-0.31383178,1.1591159,-0.5033526,-34.256252,-5.8875003,-32.5125,0.17960602,0.12043416,0.5587269,1001.28156, , , , 
2026-03-20 18:12:06.945,-0.95712906,4.2161536,7.810173,-0.7841977,0.58245957,-0.37140578,-32.625,-5.6062503,-34.3125,0.1699117,0.12576023,0.55778307,1001.28156, , , , 
2026-03-20 18:12:06.965,-0.9954142,3.5030923,10.432707,-0.96990055,-0.017409647,-0.30298892,-30.956251,-5.3812504,-35.90625,0.16017471,0.12417921,0.5562816,1001.28156, , , , 
2026-03-20 18:12:06.985,0.7848458,3.07717,10.49492,-0.46166107,-0.17867795,-0.34941465,-29.437502,-5.175,-37.050003,0.15418519,0.11894147,0.5545996,1001.26025, , , , 
2026-03-20 18:12:07.005,0.6556334,3.7184465,10.566705,0.51816607,0.40408704,-0.4459313,-28.706251,-5.0437503,-37.706253,0.15337409,0.119808644,0.5513043,1001.26025, , , , 
2026-03-20 18:12:07.025,-3.101098,5.3790655,8.580662,1.2854122,1.3814707,0.1075122,-28.500002,-4.8187504,-37.987503,0.15626995,0.13297546,0.5488838,1001.26025, , , , 
2026-03-20 18:12:07.045,-1.0719845,4.7042894,7.3698936,0.28115052,1.9043709,0.5412262,-28.48125,-4.7625003,-38.006252,0.15385255,0.15228578,0.5538078,1001.26025, , , , 
2026-03-20 18:12:07.065,-0.38285163,3.1680973,10.135997,-0.18921536,0.12186752,0.2614501,-28.462502,-5.08125,-38.268753,0.1483833,0.1606013,0.55871886,1001.22437, , , , 
2026-03-20 18:12:07.085,0.38763726,3.991228,8.035098,-0.32116216,-0.49632764,-0.08918626,-28.050001,-5.4,-38.9625,0.14858766,0.15586741,0.55949444,1001.22437, , , , 
2026-03-20 18:12:07.105,-1.8089739,4.3645086,7.8867435,-0.3272708,0.43340856,-0.073303774,-27.54375,-5.8500004,-39.6375,0.1467252,0.15273885,0.5587311,1001.22437, , , , 
2026-03-20 18:12:07.125,-2.268396,3.6801612,8.896515,-0.19654575,0.9489784,0.056199558,-27.281252,-6.15,-40.143753,0.14031233,0.157447,0.5603263,1001.22437, , , , 
2026-03-20 18:12:07.145,-1.2155539,3.7806597,8.834301,-0.2686278,-0.047952887,-0.10140356,-27.018751,-6.1875005,-40.48125,0.13498549,0.16141099,0.56150025,1001.2097, , , , 
2026-03-20 18:12:07.165,-1.3160524,3.5844483,8.126026,-0.53007793,-1.0314451,-0.06597339,-26.85,-6.1312504,-40.575,0.13577636,0.1537711,0.5600872,1001.2097, , , , 
2026-03-20 18:12:07.185,-1.3878372,3.7471602,9.533006,-0.58994263,-0.045509428,0.11362085,-26.6625,-5.68125,-40.6875,0.13416952,0.1451884,0.56051517,1001.2097, , , , 
2026-03-20 18:12:07.205,-1.5936198,3.345166,11.600404,-0.15867212,0.5201514,0.3188714,-26.437502,-5.08125,-40.66875,0.1294554,0.14500341,0.56310844,1001.2097, , , , 
2026-03-20 18:12:07.225,0.52163535,2.306681,12.327823,0.4253146,-0.12247839,0.13439025,-26.306252,-4.5750003,-40.518753,0.12913111,0.14716952,0.56535804,1001.19885, , , , 
2026-03-20 18:12:07.245,0.05742774,3.2350962,9.513863,0.70509064,-0.44623673,-0.40194902,-26.400002,-3.9,-40.29375,0.13606273,0.14746702,0.5631427,1001.19885,37.88749378,127.73739965,181.037841796875,0.0
2026-03-20 18:12:07.265,-1.9477576,4.240082,7.944171,0.42287114,-0.61361367,-0.36407542,-26.325,-3.5062501,-40.0125,0.1432417,0.14743547,0.55794054,1001.19885, , , , 
2026-03-20 18:12:07.285,-2.1008983,5.1589255,8.446664,0.23472479,-0.23365578,-0.16371176,-26.400002,-3.54375,-39.9,0.14788066,0.14588454,0.5546496,1001.19885, , , , 
2026-03-20 18:12:07.305,-2.1248264,5.0775695,8.566305,0.26160285,-0.0980438,0.16982041,-26.5125,-3.73125,-39.862503,0.15059993,0.146539,0.5540242,1001.19714, , , , 
2026-03-20 18:12:07.325,0.31106696,3.8380876,8.403593,0.13454297,-0.29962918,0.15149446,-26.5125,-4.21875,-39.75,0.15393747,0.14556967,0.55508655,1001.19714, , , , 
2026-03-20 18:12:07.345,-1.7659031,4.2592244,10.183853,0.26526803,0.07666353,-0.07819069,-26.812502,-4.6312504,-39.525,0.15610042,0.14519282,0.55500174,1001.19714, , , , 
2026-03-20 18:12:07.365,-3.2446675,4.6564326,9.150154,0.46807513,-0.21899502,0.39584038,-26.906252,-4.8,-39.2625,0.15938388,0.14692731,0.5551183,1001.19714, , , , 
2026-03-20 18:12:07.385,0.89491564,3.6753755,7.652247,0.28848088,-0.53053606,0.5864302,-26.831251,-4.9125004,-39.018753,0.1655103,0.14527674,0.55825865,1001.2023, , , , 
2026-03-20 18:12:07.405,0.81834537,3.6466618,7.810173,0.0074830935,-0.5818487,0.039095346,-26.737501,-5.0437503,-38.625,0.17044745,0.14078331,0.5596539,1001.2023, , , , 
2026-03-20 18:12:07.425,-1.7706888,4.6037908,8.202596,-0.054825112,-0.42913252,0.2150244,-26.625002,-5.26875,-38.34375,0.17324589,0.13634089,0.55931544,1001.2023, , , , 
2026-03-20 18:12:07.445,-0.53599226,4.354937,7.2789664,-0.19776747,-0.548862,0.5070178,-26.625002,-5.34375,-38.1375,0.17564619,0.13157222,0.5615388,1001.2023, , , , 
2026-03-20 18:12:07.465,1.6031911,3.2590244,7.9776707,-0.3932442,-0.47677997,0.39950556,-26.75625,-5.26875,-37.8375,0.17699641,0.12443382,0.56497705,1001.2205, , , , 
2026-03-20 18:12:07.485,2.07697,3.2350962,8.025527,-0.34193155,-0.22632541,0.19303326,-26.868752,-4.9500003,-37.66875,0.17671964,0.119962476,0.5667104,1001.2205, , , , 
2026-03-20 18:12:07.505,1.7946169,3.4983068,8.475378,-0.007177661,1.1322379,-0.13072506,-26.94375,-4.4812503,-37.5,0.1722131,0.12191,0.56805134,1001.2205, , , , 
2026-03-20 18:12:07.525,-1.2729816,3.4839497,10.442278,-0.20143266,0.07299834,-0.45692685,-26.925001,-4.0687504,-37.4625,0.16749902,0.1260687,0.56693834,1001.2205, , , , 
2026-03-20 18:12:07.545,-0.8327023,4.0677986,10.0163555,-0.17088942,-0.76022124,-0.20769402,-26.812502,-3.5625002,-37.518753,0.16775665,0.122274935,0.563809,1001.23114, , , , 
2026-03-20 18:12:07.565,0.4546363,3.9481573,9.379865,-0.13912445,-0.5549707,-0.16249003,-26.8875,-3.2812502,-37.36875,0.17048395,0.11551792,0.5612598,1001.23114, , , , 
2026-03-20 18:12:07.585,0.13878371,4.0295134,10.150353,0.12721258,-0.027183482,-0.074525505,-26.94375,-3.1312501,-37.256252,0.17177604,0.1129192,0.55976874,1001.23114, , , , 
2026-03-20 18:12:07.605,0.4019942,4.106084,9.116654,0.34101525,0.098654665,-0.02687805,-26.75625,-2.9250002,-37.03125,0.17329077,0.115040064,0.5592794,1001.23114, , , , 
2026-03-20 18:12:07.625,-0.32063824,4.302295,8.360522,0.2554942,0.041233372,-0.06352994,-26.7,-2.7,-36.80625,0.17547415,0.117282666,0.55859566,1001.24457, , , , 
2026-03-20 18:12:07.645,-0.51206404,4.1347976,9.676575,0.3092503,0.14019346,0.09407318,-26.550001,-2.5500002,-36.80625,0.17684436,0.11968091,0.55859345,1001.24457, , , , 
2026-03-20 18:12:07.665,0.019142581,4.2592244,8.465807,0.30558512,-0.012522728,0.11484258,-26.306252,-2.5687501,-36.825,0.1791959,0.12194466,0.55919325,1001.24457, , , , 
2026-03-20 18:12:07.685,0.28713873,4.359723,7.5996046,0.14065161,-0.13225223,0.05253437,-26.325,-2.79375,-36.862503,0.18167654,0.12240964,0.55944604,1001.24457, , , , 
2026-03-20 18:12:07.705,0.3397808,4.426722,7.9298143,-0.027947064,0.038789913,0.045203995,-26.250002,-3.2812502,-36.956253,0.18253796,0.12221327,0.55964375,1001.2509, , , , 
2026-03-20 18:12:07.725,-0.17228323,4.2161536,8.628518,-0.06704241,0.051007207,0.02932151,-26.081251,-3.6750002,-36.956253,0.18196723,0.12226824,0.5600421,1001.2509, , , , 
2026-03-20 18:12:07.745,-0.2440679,4.388437,9.585648,-0.012064579,0.07055488,0.23823726,-26.00625,-3.9,-37.0125,0.1812404,0.12236943,0.5610125,1001.2509, , , , 
2026-03-20 18:12:07.765,-2.0051854,4.1491547,9.159725,0.08933897,-0.10415245,0.21624613,-25.725,-3.9,-37.237503,0.18202774,0.12193973,0.5627529,1001.2509, , , , 
2026-03-20 18:12:07.785,0.7896315,4.005585,8.590233,0.21884231,0.06811142,0.23090689,-25.500002,-3.7500002,-37.425003,0.1836481,0.12209824,0.5647205,1001.2539, , , , 
2026-03-20 18:12:07.805,-0.22013968,3.991228,8.647661,0.2554942,0.33444846,0.1197295,-25.44375,-3.525,-37.6875,0.18455431,0.12467181,0.5661843,1001.2539, , , , 
2026-03-20 18:12:07.825,-0.3062813,4.115655,8.566305,0.16875139,-0.021074835,0.15393792,-25.368752,-3.4687502,-37.93125,0.18530107,0.1274185,0.5673619,1001.2539, , , , 
2026-03-20 18:12:07.845,0.43070808,4.302295,8.106883,1.527162E-4,-0.22876886,0.092851445,-25.35,-3.525,-38.006252,0.1871404,0.12625957,0.5680074,1001.2539, , , , 
2026-03-20 18:12:07.865,0.29671,4.26401,8.499306,0.01725693,0.16462806,0.08796453,-25.48125,-3.4687502,-38.025,0.18769097,0.12537014,0.56847006,1001.26306, , , , 
2026-03-20 18:12:07.885,-0.08135597,4.1204405,9.111869,0.23228133,0.51404274,0.12705988,-25.63125,-3.525,-37.987503,0.18666562,0.12841892,0.56977814,1001.26306, , , , 
2026-03-20 18:12:07.905,-0.49292147,4.3740797,7.5086775,0.17363831,0.4517345,0.17348559,-25.687502,-3.5812502,-37.912502,0.18581203,0.13369507,0.5715978,1001.26306, , , , 
2026-03-20 18:12:07.925,-1.713261,3.5988052,6.6281185,-0.3260491,0.37598726,0.24678937,-25.575,-3.4875002,-37.912502,0.18395735,0.13621965,0.5740003,1001.26306, , , , 
2026-03-20 18:12:07.945,0.89491564,3.5653057,10.79163,-0.2942841,0.10598504,0.25900668,-25.312502,-3.43125,-37.893753,0.17934829,0.13570312,0.57740223,1001.26965, , , , 
2026-03-20 18:12:07.965,0.94277215,3.8620157,11.136196,0.25060728,0.16829325,0.073303774,-24.88125,-3.24375,-37.96875,0.17818916,0.13587287,0.5791798,1001.26965, , , , 
2026-03-20 18:12:07.985,0.526421,4.197011,8.216953,0.41920596,-0.038179047,-0.02932151,-24.54375,-3.0187502,-38.11875,0.18067886,0.13857275,0.5789923,1001.26965, , , , 
2026-03-20 18:12:08.005,0.43070808,4.3118663,6.800402,0.18707734,0.23548837,-0.056199558,-24.337502,-2.9625,-38.325,0.18310745,0.1406512,0.57817924,1001.26965, , , , 
2026-03-20 18:12:08.025,-0.22971097,4.4410787,10.432707,0.18585561,0.70585424,-0.010995566,-24.16875,-2.9625,-38.5875,0.18117566,0.14537647,0.578667,1001.2737, , , , 
2026-03-20 18:12:08.045,-0.65084773,3.9050865,11.322837,0.5535962,0.1621846,0.014660755,-24.150002,-3.1125002,-38.737503,0.18061854,0.15120731,0.5791425,1001.2737, , , , 
2026-03-20 18:12:08.065,-0.46899325,4.666004,7.7814593,0.5523745,-0.3924806,0.03176497,-23.90625,-3.3000002,-38.943752,0.18616672,0.15365697,0.57808775,1001.2737, , , , 
2026-03-20 18:12:08.085,0.08135597,5.015356,6.948757,0.18707734,-0.5867356,0.04886918,-23.60625,-3.54375,-39.05625,0.19220625,0.15187009,0.5769018,1001.2737, , , , 
2026-03-20 18:12:08.105,-0.4019942,4.900501,8.063812,0.013591741,-0.37171122,0.12705988,-23.493752,-3.9375002,-39.05625,0.19593717,0.14801781,0.57632273,1001.27515, , , , 
2026-03-20 18:12:08.125,0.2632105,4.627719,8.772088,0.18096869,0.08032872,0.25534147,-23.456251,-4.21875,-39.206253,0.19782227,0.1466552,0.5773226,1001.27515, , , , 
2026-03-20 18:12:08.145,1.0767702,4.1587257,8.71466,0.36911505,0.38698283,0.20769402,-23.94375,-4.425,-39.1875,0.19893387,0.14957814,0.5793542,1001.27515, , , , 
2026-03-20 18:12:08.165,0.22971097,4.45065,8.9348,0.3678933,0.26725334,0.14172062,-24.487501,-4.6125,-38.98125,0.19999795,0.15424441,0.5807951,1001.27515, , , , 
2026-03-20 18:12:08.185,0.15792629,4.465007,8.52802,0.35323256,-0.08949169,0.14172062,-24.69375,-4.78125,-38.850002,0.20249188,0.15650982,0.5814788,1001.27386, , , , 
2026-03-20 18:12:08.205,0.6269195,4.6229334,7.7240314,0.29581127,-0.052839804,0.14172062,-24.768751,-5.0062504,-38.662502,0.20589529,0.157365,0.5818906,1001.27386, , , , 
2026-03-20 18:12:08.225,0.10049855,4.895715,8.025527,0.19318599,0.065667965,0.12950334,-24.6,-5.25,-38.475002,0.20800748,0.15855074,0.5825408,1001.27386, , , , 
2026-03-20 18:12:08.245,-0.52163535,4.9722853,8.523234,0.2554942,0.20983206,0.16982041,-24.468752,-5.53125,-38.5125,0.20906872,0.16043732,0.58362013,1001.27386,37.88749378,127.73739965,181.037841796875,0.0
2026-03-20 18:12:08.265,-0.526421,5.302495,7.8197446,0.36911505,0.24770567,-0.05986475,-24.562502,-5.8125,-38.68125,0.20999895,0.16461213,0.58420885,1001.272, , , , 
2026-03-20 18:12:08.285,-0.74177504,5.4556355,7.460821,0.18463388,-0.043065965,0.06108648,-24.468752,-6.24375,-38.8125,0.21143699,0.16738874,0.5837987,1001.272, , , , 
2026-03-20 18:12:08.305,0.17228323,5.0536413,7.6809607,0.10033454,-0.082161315,0.1404989,-24.375002,-6.6562505,-38.90625,0.21318851,0.16730946,0.5842661,1001.272, , , , 
2026-03-20 18:12:08.325,0.55513483,4.766503,7.283752,0.057574004,0.031459536,0.0097738365,-24.31875,-6.8625,-38.943752,0.21430683,0.16729014,0.5847684,1001.272, , , , 
2026-03-20 18:12:08.345,-0.4833502,5.3216376,6.8578296,-0.058490302,0.12553272,-0.05864302,-24.300001,-6.9,-38.90625,0.21402939,0.168059,0.5846339,1001.2728, , , , 
2026-03-20 18:12:08.365,-0.40677986,5.2929235,7.8436728,-0.18799363,0.23915356,0.07208204,-24.2625,-6.7312503,-38.68125,0.21210548,0.16867927,0.5851388,1001.2728, , , , 
2026-03-20 18:12:08.385,0.45942193,4.752146,8.848659,-0.07925971,0.45906487,0.06352994,-24.187502,-6.3562503,-38.49375,0.20908016,0.17022212,0.586799,1001.2728, , , , 
2026-03-20 18:12:08.405,0.89491564,4.220939,9.60479,-0.1244637,-0.23121232,-0.32864526,-24.093752,-6.15,-38.41875,0.2066308,0.17213021,0.586973,1001.2728, , , , 
2026-03-20 18:12:08.425,0.1052842,5.197211,8.475378,-0.06704241,-0.6649263,-0.41416633,-23.831251,-6.1125,-38.49375,0.20761025,0.16917726,0.5834401,1001.272, , , , 
2026-03-20 18:12:08.445,-0.72741807,5.1732826,8.666803,-0.15012002,-0.5867356,-0.35307986,-23.8125,-6.1875005,-38.756252,0.20985879,0.16434202,0.57911223,1001.272, , , , 
2026-03-20 18:12:08.465,-0.18185452,5.130212,9.102298,-0.08414663,-0.57574004,-0.2761109,-23.94375,-6.43125,-38.9625,0.21162699,0.15994485,0.5757862,1001.272, , , , 
2026-03-20 18:12:08.485,-0.3684947,5.4173503,8.571091,-0.015729768,-0.61239195,-0.22113305,-24.225,-6.675,-39.05625,0.21424446,0.15561984,0.57259476,1001.272, , , , 
2026-03-20 18:12:08.505,-0.5072784,5.5465627,8.039884,0.020922119,-0.5525272,-0.15515965,-24.7875,-6.7875004,-38.850002,0.21741462,0.15138088,0.5697361,1001.272, , , , 
2026-03-20 18:12:08.525,-0.014356935,5.221139,8.140383,0.10522146,-0.37659815,-0.098960094,-25.237501,-6.675,-38.456253,0.22028306,0.14840966,0.56770504,1001.272, , , , 
2026-03-20 18:12:08.545,0.076570325,5.3647084,7.2550383,0.14065161,-0.17134757,-0.080634154,-25.44375,-6.5437503,-38.006252,0.22289039,0.14706483,0.5661237,1001.272, , , , 
2026-03-20 18:12:08.565,-0.4211368,5.4987063,6.7812595,-0.004734202,0.23060146,0.019547673,-25.706251,-6.5062504,-37.55625,0.22352006,0.14790112,0.56568575,1001.272, , , , 
2026-03-20 18:12:08.585,-0.124426775,5.0009995,8.446664,-0.053603385,0.3979784,0.10262528,-25.893751,-6.5062504,-37.29375,0.22143692,0.15012601,0.5669629,1001.2726, , , , 
2026-03-20 18:12:08.605,0.09092726,4.790431,8.79123,0.061239194,0.31245732,0.067195125,-25.987501,-6.5625005,-37.256252,0.21938305,0.1528113,0.5685241,1001.2726, , , , 
2026-03-20 18:12:08.625,-0.07178468,4.895715,8.015956,0.052687086,0.01924224,-0.0097738365,-25.931252,-6.7312503,-37.40625,0.21891089,0.15463243,0.56907356,1001.2726, , , , 
2026-03-20 18:12:08.645,-0.63170516,5.2833524,7.8867435,-0.14278965,-0.22021675,0.0537561,-25.650002,-6.80625,-37.65,0.2193581,0.15352958,0.56884867,1001.2726, , , , 
2026-03-20 18:12:08.665,0.086141616,4.9292145,9.006584,-0.13301581,-0.12370012,0.11117739,-25.275002,-6.7875004,-37.706253,0.2193316,0.15095411,0.56933576,1001.2758, , , , 
2026-03-20 18:12:08.685,0.30149564,4.8861437,9.332008,0.057574004,0.123089254,0.086742796,-25.1625,-6.8437505,-37.65,0.2191024,0.15024842,0.5701797,1001.2758, , , , 
2026-03-20 18:12:08.705,0.3589234,4.9531426,8.5423765,0.19440772,0.2611447,0.041538805,-25.368752,-6.7312503,-37.612503,0.21907589,0.15243866,0.5709495,1001.2758, , , , 
2026-03-20 18:12:08.725,-0.09092726,5.1206403,7.9106717,0.1357647,0.23304491,0.017104214,-25.48125,-6.5437503,-37.55625,0.2190973,0.15538783,0.5714148,1001.2758, , , , 
2026-03-20 18:12:08.745,0.17706887,4.981857,8.41795,0.09422589,0.06811142,0.05131264,-25.500002,-6.6562505,-37.518753,0.21898854,0.15732032,0.5719205,1001.2777, , , , 
2026-03-20 18:12:08.765,0.3589234,5.1014977,8.23131,0.07223476,0.009468404,0.012217295,-25.406252,-6.80625,-37.59375,0.21959928,0.15792874,0.5721179,1001.2777, , , , 
2026-03-20 18:12:08.785,0.40677986,5.1732826,8.618947,0.07467822,-0.068722285,0.008552107,-25.0125,-6.8625,-37.8375,0.22025827,0.15810002,0.5720462,1001.2777, , , , 
2026-03-20 18:12:08.805,0.6125626,5.15414,8.489735,0.13454297,-0.024740024,-0.015882485,-24.975,-6.95625,-38.11875,0.22141515,0.15808767,0.57175857,1001.2777, , , , 
2026-03-20 18:12:08.825,0.57427746,5.2546387,8.193025,0.18463388,0.15974113,-0.021991132,-25.06875,-7.0125003,-38.4,0.22235774,0.15940008,0.57147205,1001.28046, , , , 
2026-03-20 18:12:08.845,0.38285163,5.3407803,7.800602,0.16142102,0.28069237,-0.014660755,-24.956251,-7.0312505,-38.625,0.22251509,0.16217972,0.57152075,1001.28046, , , , 
2026-03-20 18:12:08.865,0.41156548,4.8909297,8.944371,0.108886644,0.33078328,0.013439025,-25.06875,-7.1625004,-38.60625,0.22208098,0.16493422,0.5718782,1001.28046, , , , 
2026-03-20 18:12:08.885,0.32063824,5.015356,7.082755,0.13209951,0.098654665,-0.09040799,-25.10625,-7.2562504,-38.4,0.22215654,0.16759792,0.57183546,1001.28046, , , , 
2026-03-20 18:12:08.905,-0.23449662,5.2307105,7.752745,0.035582874,0.18784092,-0.056199558,-25.087502,-7.275,-38.25,0.22176781,0.16925864,0.5713971,1001.28174, , , , 
2026-03-20 18:12:08.925,-0.14356937,5.235496,7.9393854,0.027030766,0.05222894,-0.03176497,-25.181252,-7.5000005,-38.025,0.22111432,0.17063902,0.5713413,1001.28174, , , , 
2026-03-20 18:12:08.945,0.29192436,5.2929235,7.3172517,-0.025503604,-0.1273653,-0.05864302,-25.25625,-7.7625003,-37.818752,0.22131945,0.1705411,0.57098705,1001.28174, , , , 
2026-03-20 18:12:08.965,0.4977071,5.278567,7.537391,-0.04016436,-0.113926284,-0.12828161,-25.031252,-7.8750005,-37.893753,0.22166273,0.16947466,0.570116,1001.28174, , , , 
2026-03-20 18:12:08.985,-0.038285162,5.5800624,7.393822,-0.0059559317,0.029016078,-0.12339468,-24.675001,-7.9875,-37.85625,0.22167094,0.16923659,0.568964,1001.2836, , , , 
2026-03-20 18:12:09.005,-0.36370903,5.838487,7.173682,-0.07925971,0.07055488,-0.041538805,-24.468752,-7.9125004,-37.96875,0.22107351,0.16970679,0.56845987,1001.2836, , , , 
2026-03-20 18:12:09.025,-0.26799613,5.7284174,7.0731835,-0.26251915,0.09376775,0.05986475,-24.375002,-7.7625003,-38.081253,0.21956064,0.16942565,0.5689302,1001.2836, , , , 
2026-03-20 18:12:09.045,-0.38763726,5.3072805,8.499306,-0.29672757,0.10231985,0.11728604,-24.468752,-7.7812505,-37.987503,0.2168256,0.16853175,0.5703208,1001.2836, , , , 
2026-03-20 18:12:09.065,0.09571291,5.1062837,8.609376,-0.2112065,-0.07116575,0.12217296,-24.45,-7.6687503,-38.23125,0.21480672,0.1670146,0.5718064,1001.28687, , , , 
2026-03-20 18:12:09.085,0.4977071,5.278567,7.6953177,-0.13301581,-0.15302163,0.0537561,-24.206251,-7.4062505,-38.475002,0.21487854,0.16436496,0.5726663,1001.28687, , , , 
2026-03-20 18:12:09.105,-0.033499517,5.656633,6.680761,-0.1782198,0.014355322,0.034208428,-24.093752,-7.275,-38.5875,0.21450451,0.16281368,0.5729484,1001.28687, , , , 
2026-03-20 18:12:09.125,-0.019142581,5.7858453,6.7429743,-0.3187187,0.13530655,0.10873393,-24.075,-7.33125,-38.8125,0.21248825,0.16202237,0.57400846,1001.28687, , , , 
2026-03-20 18:12:09.145,-0.17706887,4.9866424,7.757531,-0.43111783,0.092546016,0.14416409,-24.300001,-7.4625,-38.850002,0.2089876,0.160745,0.57582283,1001.2879, , , , 
2026-03-20 18:12:09.165,0.09092726,5.0440702,8.60459,-0.28328854,0.024129158,0.13683371,-24.656252,-7.65,-38.850002,0.20603149,0.15862769,0.57762367,1001.2879, , , , 
2026-03-20 18:12:09.185,-0.019142581,5.211568,7.7814593,-0.10491603,0.07055488,0.1075122,-24.581251,-7.5937505,-39.0,0.2046414,0.15760385,0.5789618,1001.2879, , , , 
2026-03-20 18:12:09.205,-0.6556334,5.5800624,7.173682,-0.16966769,0.14508039,0.13927718,-24.375002,-7.1062503,-39.09375,0.20334111,0.15762775,0.580252,1001.2879, , , , 
2026-03-20 18:12:09.225,-0.72263247,5.8480587,7.393822,-0.3932442,-0.00641408,0.23212862,-24.187502,-6.4500003,-39.131252,0.20107287,0.15665357,0.5822411,1001.28876, , , , 
2026-03-20 18:12:09.245,0.7513463,5.704489,8.312666,-0.54473865,-0.21166465,0.22235478,-23.94375,-5.90625,-39.206253,0.19853652,0.15251434,0.5846177,1001.28876,37.88749378,127.73739965,181.037841796875,0.0
2026-03-20 18:12:09.265,0.9906286,5.9294147,8.508878,-0.47021317,-0.21166465,0.0,-24.018751,-5.625,-39.2625,0.19626376,0.1474011,0.5859577,1001.28876, , , , 
2026-03-20 18:12:09.285,-0.31106696,6.518049,8.724232,-0.35292712,-0.0051923506,-0.03176497,-24.243752,-5.4187503,-39.2625,0.19381033,0.14402972,0.5860705,1001.28876, , , , 
2026-03-20 18:12:09.305,-0.28235307,6.4175506,8.666803,-0.2283107,0.07422007,0.045203995,-24.35625,-5.1375003,-39.16875,0.19133352,0.14285293,0.5866523,1001.28894, , , , 
2026-03-20 18:12:09.325,0.02871387,6.2883377,8.551949,-0.13545926,-0.045509428,0.067195125,-24.54375,-4.8375,-39.09375,0.18995386,0.14195214,0.58745056,1001.28894, , , , 
2026-03-20 18:12:09.345,0.23449662,6.029913,8.154739,-0.018173227,-0.14202607,0.028099779,-24.581251,-4.3125,-39.09375,0.19010256,0.14069887,0.58780295,1001.28894, , , , 
2026-03-20 18:12:09.365,0.37328035,5.85763,7.52782,0.07223476,-0.09193515,-0.036651887,-24.50625,-3.8437502,-39.05625,0.19119391,0.13991827,0.5875633,1001.28894, , , , 
2026-03-20 18:12:09.385,-0.51206404,6.0394845,7.1545396,0.077121675,0.042455103,-0.013439025,-24.562502,-3.6562502,-39.112503,0.19208416,0.14030908,0.5870786,1001.28894, , , , 
2026-03-20 18:12:09.405,-0.22971097,5.905486,6.9296145,0.011148282,0.14874557,0.074525505,-24.73125,-3.7125,-39.075,0.19208449,0.14151539,0.58746696,1001.28894, , , , 
2026-03-20 18:12:09.425,0.37806597,5.704489,7.8484583,-0.053603385,0.066889696,0.02932151,-24.91875,-3.9,-38.737503,0.1913185,0.14235432,0.5882899,1001.28894, , , , 
2026-03-20 18:12:09.445,0.57427746,5.666204,8.1738825,0.0368046,-0.11270455,-0.09529491,-25.050001,-4.0875,-38.456253,0.19127667,0.14221144,0.58816475,1001.28894, , , , 
2026-03-20 18:12:09.465,-0.6269195,5.5704913,7.216753,0.12476913,-0.14446951,-0.16737695,-25.143751,-4.2375,-38.2125,0.19272347,0.14192247,0.58666706,1001.2896, , , , 
2026-03-20 18:12:09.485,-0.44027936,6.6329045,6.867401,0.058795735,0.014355322,-0.15638138,-24.937502,-4.1625004,-38.04375,0.19414964,0.14217544,0.5851121,1001.2896, , , , 
2026-03-20 18:12:09.505,-0.09571291,6.518049,7.690532,-0.032833982,0.092546016,-0.15638138,-24.675001,-4.0875,-38.04375,0.19386673,0.14317156,0.58413607,1001.2896, , , , 
2026-03-20 18:12:09.525,-0.34456646,6.398408,8.925228,0.028252495,0.09010255,-0.2516763,-24.54375,-4.0687504,-38.15625,0.1930215,0.144276,0.58284116,1001.2896, , , , 
2026-03-20 18:12:09.545,-1.0001999,6.6424756,9.60479,0.22006404,0.041233372,-0.27000225,-24.4125,-4.0125003,-38.30625,0.1929516,0.14564553,0.5813179,1001.29047, , , , 
2026-03-20 18:12:09.565,-1.402194,7.3603225,8.394022,0.4094321,-0.023518294,-0.18814635,-24.393751,-4.05,-38.456253,0.19564538,0.1487938,0.5783843,1001.29047, , , , 
2026-03-20 18:12:09.585,-1.282553,7.8197446,7.23111,0.2689332,0.059559315,-0.03176497,-24.431252,-4.21875,-38.5875,0.19846801,0.15152302,0.5769273,1001.29047, , , , 
2026-03-20 18:12:09.605,-1.0911272,7.795816,7.623533,-0.03161225,0.18173227,0.106290475,-24.225,-4.59375,-38.5875,0.19917828,0.15349795,0.5771448,1001.29047, , , , 
2026-03-20 18:12:09.625,-0.7082755,7.331609,8.843872,-0.28695372,0.02046397,0.17104214,-24.0375,-5.0437503,-38.550003,0.19760047,0.15360335,0.5787912,1001.29425, , , , 
2026-03-20 18:12:09.645,-0.5886344,6.9678993,10.217353,-0.4054615,-0.30573782,0.16493349,-23.98125,-5.25,-38.550003,0.19583994,0.15044418,0.58043283,1001.29425, , , , 
2026-03-20 18:12:09.665,0.0047856453,6.4606214,11.050055,-0.28084508,-0.47677997,0.12828161,-23.98125,-5.175,-38.5125,0.195533,0.14495632,0.5813863,1001.29425, , , , 
2026-03-20 18:12:09.685,0.5694918,5.962914,10.504492,-0.014508039,-0.2629773,0.07208204,-24.056252,-5.025,-38.456253,0.19681132,0.14056624,0.5816543,1001.29425, , , , 
2026-03-20 18:12:09.705,0.8853444,5.4460645,9.686146,0.24449863,0.097432934,-0.021991132,-24.281252,-4.70625,-38.325,0.19828394,0.14042637,0.5815737,1001.2968, , , , 
2026-03-20 18:12:09.725,0.71306115,5.0249276,8.279166,0.35689774,0.15485422,-0.12095123,-24.487501,-4.4437504,-38.15625,0.19983225,0.14351928,0.58086956,1001.2968, , , , 
2026-03-20 18:12:09.745,0.41156548,4.536792,7.1210403,0.24816382,0.06444623,-0.18325943,-24.618752,-4.4625,-37.96875,0.20145775,0.14665502,0.57945806,1001.2968, , , , 
2026-03-20 18:12:09.765,0.18185452,4.220939,6.867401,0.123547405,-0.15057817,-0.2357938,-24.806252,-4.51875,-37.8375,0.20281938,0.14801902,0.57751036,1001.2968, , , , 
2026-03-20 18:12:09.785,-0.15314065,4.254439,7.3172517,0.13209951,-0.36193737,-0.20769402,-24.843752,-4.70625,-37.818752,0.20480318,0.14713441,0.57500553,1001.30023, , , , 
2026-03-20 18:12:09.805,0.82313097,4.790431,7.594819,0.37766716,-0.36560258,-0.07574723,-24.88125,-5.3250003,-37.818752,0.20859648,0.14582029,0.57274574,1001.30023, , , , 
2026-03-20 18:12:09.825,1.3591232,5.0105705,6.719046,0.5535962,-0.05650499,-0.106290475,-25.2,-5.6062503,-37.85625,0.21352172,0.1470838,0.57090986,1001.30023, , , , 
2026-03-20 18:12:09.845,1.5218352,5.666204,5.45085,0.46196648,0.10598504,-0.15271619,-25.44375,-5.86875,-37.818752,0.21759568,0.15063009,0.5692182,1001.30023, , , , 
2026-03-20 18:12:09.865,0.7704889,5.986842,5.1062837,0.01725693,0.10598504,-0.20280711,-25.556252,-6.3187504,-37.575,0.21908319,0.15354773,0.56764907,1001.3045, , , , 
2026-03-20 18:12:09.885,-0.6843473,5.4556355,7.733603,-0.39446592,0.07422007,-0.07208204,-25.556252,-6.4875,-37.29375,0.21683846,0.15367644,0.56690407,1001.3045, , , , 
2026-03-20 18:12:09.905,-0.33499518,4.800002,9.241081,-0.46043932,-0.018631376,0.09773836,-25.331251,-6.6375003,-36.99375,0.21318658,0.15158689,0.567686,1001.3045, , , , 
2026-03-20 18:12:09.925,0.57427746,4.2161536,9.82493,-0.3480402,-0.1273653,0.1075122,-25.2,-6.8625,-37.068752,0.21037571,0.14836454,0.5690726,1001.3045, , , , 
2026-03-20 18:12:09.945,0.7465607,4.0007997,9.523434,-0.045051277,-0.113926284,-0.008552107,-25.181252,-6.8812504,-37.350002,0.20936693,0.14568496,0.56959957,1001.3051, , , , 
2026-03-20 18:12:09.965,0.57427746,4.273581,8.183454,0.21884231,-0.017409647,-0.080634154,-25.181252,-6.7312503,-37.537502,0.21023512,0.1454393,0.56902033,1001.3051, , , , 
2026-03-20 18:12:09.985,0.7704889,4.4410787,6.8578296,0.342237,0.053450666,-0.15271619,-25.29375,-6.7500005,-37.65,0.21217765,0.14734162,0.56780946,1001.3051, , , , 
2026-03-20 18:12:10.005,0.65084773,4.493721,5.9150577,0.37766716,0.15729769,-0.22235478,-25.48125,-6.80625,-37.4625,0.21429275,0.15047795,0.5660262,1001.3051, , , , 
2026-03-20 18:12:10.025,-0.74177504,4.996214,5.9342003,0.36911505,0.4309651,-0.10995566,-25.556252,-6.9,-37.18125,0.21544483,0.15520851,0.56454206,1001.30615, , , , 
2026-03-20 18:12:10.045,-0.26799613,5.197211,6.5084777,0.29947644,0.54092073,0.092851445,-25.518751,-7.1250005,-37.125,0.21525364,0.16151957,0.5650855,1001.30615, , , , 
2026-03-20 18:12:10.065,0.76570326,5.139783,6.862615,0.022143848,0.08277218,0.03176497,-25.237501,-7.4062505,-37.29375,0.21488932,0.16541058,0.56627053,1001.30615, , , , 
2026-03-20 18:12:10.085,0.38763726,5.211568,8.169097,-0.14278965,-0.20433427,-0.112399116,-24.768751,-7.65,-37.612503,0.2147619,0.16437279,0.5659221,1001.30615, , , , 
2026-03-20 18:12:10.105,-0.6652047,5.4173503,9.312865,0.033139415,0.0033597562,-0.050090913,-24.431252,-7.8562503,-37.85625,0.21475987,0.16306072,0.56496656,1001.30597, , , , 
2026-03-20 18:12:10.125,-0.33499518,5.503492,9.485149,0.27870706,0.34300056,0.13683371,-24.093752,-7.89375,-37.95,0.21500385,0.16532907,0.56541973,1001.30597, , , , 
2026-03-20 18:12:10.145,0.019142581,5.7954164,9.30808,0.27992877,0.17318016,0.14416409,-23.8875,-7.9500003,-38.04375,0.2157804,0.16905946,0.56674165,1001.30597, , , , 
2026-03-20 18:12:10.165,-0.22971097,6.068198,9.839287,0.19562945,-0.06750056,0.20647229,-23.625,-8.025001,-38.1375,0.21769509,0.17030431,0.5676848,1001.30597, , , , 
2026-03-20 18:12:10.185,0.51206404,6.1878395,9.810573,0.18585561,-0.1188132,0.284663,-23.362501,-8.0625,-38.193752,0.22027986,0.17010926,0.56907797,1001.3068, , , , 
2026-03-20 18:12:10.205,0.5072784,6.2883377,9.887143,0.108886644,0.04978548,0.30543238,-23.175001,-8.00625,-38.175003,0.2223964,0.16979203,0.5709482,1001.3068, , , , 
2026-03-20 18:12:10.225,-0.2440679,6.1878395,9.700503,-0.09392046,0.1707367,0.35674503,-23.04375,-7.7812505,-38.04375,0.22260177,0.17017177,0.5736455,1001.3068, , , , 
2026-03-20 18:12:10.245,-0.38285163,5.3216376,10.71506,-0.36514443,0.041233372,0.41416633,-23.23125,-7.5750003,-37.800003,0.22073099,0.16904911,0.5773046,1001.3068,37.88749378,127.73739965,181.037841796875,0.0
2026-03-20 18:12:10.265,0.32063824,4.273581,12.533605,-0.344375,-0.160352,0.3188714,-23.306252,-7.4625,-37.65,0.21858282,0.16528198,0.5807597,1001.3094, , , , 
2026-03-20 18:12:10.285,0.023928227,3.885944,12.500106,0.19318599,-0.03940078,0.13072506,-23.306252,-7.425,-37.55625,0.21854788,0.16273914,0.5823962,1001.3094, , , , 
2026-03-20 18:12:10.305,-0.56470615,4.1204405,9.930214,0.6036871,0.18417573,0.043982264,-23.34375,-7.4062505,-37.443752,0.22112842,0.16519502,0.58253944,1001.3094, , , , 
2026-03-20 18:12:10.325,-0.47377887,4.469793,7.312466,0.5694787,0.14385866,0.0097738365,-23.23125,-7.18125,-37.443752,0.22473997,0.17022042,0.5821363,1001.3094, , , , 
2026-03-20 18:12:10.345,-0.7848458,4.8287163,6.168697,0.2554942,-0.08949169,-0.0061086477,-23.34375,-7.1250005,-37.3875,0.22775449,0.17303628,0.58142334,1001.3106, , , , 
2026-03-20 18:12:10.365,-0.42592242,4.900501,5.9246287,-0.09392046,-0.22143848,0.08307761,-23.475,-7.36875,-37.443752,0.22947471,0.17225252,0.5811501,1001.3106, , , , 
2026-03-20 18:12:10.385,0.16271193,4.517649,6.7669024,-0.22098033,-0.09071342,0.068416856,-23.456251,-7.7625003,-37.443752,0.22942188,0.16975111,0.58167547,1001.3106, , , , 
2026-03-20 18:12:10.405,-0.08135597,4.316652,7.3842506,-0.13423753,0.10476331,0.02565632,-23.550001,-8.19375,-37.275,0.2280217,0.16854373,0.58236295,1001.3106, , , , 
2026-03-20 18:12:10.425,-0.023928227,4.2017965,6.987042,-0.00962112,0.11453715,-0.008552107,-23.587502,-8.25,-37.18125,0.2267039,0.16912991,0.58288056,1001.31085, , , , 
2026-03-20 18:12:10.445,-0.21535404,4.388437,6.2261243,-0.063377224,-0.06017018,-0.02932151,-23.587502,-8.118751,-37.162502,0.2261985,0.16946527,0.5828943,1001.31085, , , , 
2026-03-20 18:12:10.465,-0.10049855,4.718646,5.828916,-0.18432845,-0.23732096,-0.043982264,-23.56875,-7.9125004,-37.18125,0.2261645,0.16777636,0.58248115,1001.31085, , , , 
2026-03-20 18:12:10.485,-0.062213387,4.800002,5.8911295,-0.2784016,-0.19822562,-0.068416856,-23.306252,-7.5375004,-37.2,0.22576173,0.16479671,0.581907,1001.31085, , , , 
2026-03-20 18:12:10.505,-0.4211368,4.685147,7.111469,-0.15500695,0.07422007,-0.08429934,-23.0625,-7.3125005,-37.125,0.22430472,0.16285892,0.5814823,1001.31024, , , , 
2026-03-20 18:12:10.525,-0.2440679,4.733003,7.5182486,0.07345649,0.19639303,-0.06963859,-23.0625,-7.0312505,-36.975002,0.22285712,0.16387708,0.5813449,1001.31024, , , , 
2026-03-20 18:12:10.545,-0.15314065,5.0536413,6.8578296,0.17363831,0.07666353,-0.13805544,-23.268751,-6.9187503,-36.975002,0.22281115,0.16609296,0.5807264,1001.31024, , , , 
2026-03-20 18:12:10.565,-0.66041905,5.6183476,6.465407,0.12232567,-0.06750056,-0.16859868,-23.53125,-7.0875,-36.975002,0.22375299,0.16743028,0.5792374,1001.31024, , , , 
2026-03-20 18:12:10.585,-0.5886344,5.8911295,6.991828,0.09666935,-0.07116575,-0.1197295,-23.8125,-7.3500004,-37.2,0.22477983,0.16791566,0.5778008,1001.3096, , , , 
2026-03-20 18:12:10.605,-0.2105684,6.0825553,7.7671022,0.22006404,-0.021074835,-0.12950334,-23.85,-7.65,-37.5,0.22599171,0.16872832,0.5765557,1001.3096, , , , 
2026-03-20 18:12:10.625,-0.08135597,6.465407,7.5661054,0.27748534,-0.022296565,-0.18448116,-23.737501,-7.8562503,-37.55625,0.2278701,0.17051242,0.5749389,1001.3096, , , , 
2026-03-20 18:12:10.645,-0.94277215,6.9296145,7.733603,0.20173809,-0.06994402,-0.17470732,-23.587502,-7.9125004,-37.518753,0.2297974,0.17215039,0.5729024,1001.3096, , , , 
2026-03-20 18:12:10.665,-0.76570326,6.814759,8.293523,0.10644319,-0.041844238,-0.06108648,-23.306252,-7.9687505,-37.36875,0.23125477,0.17294851,0.57153213,1001.3081, , , , 
2026-03-20 18:12:10.685,-0.55513483,6.6041903,9.518648,0.10522146,0.1084285,-0.0073303776,-23.0625,-8.231251,-37.125,0.23183301,0.17378297,0.57111686,1001.3081, , , , 
2026-03-20 18:12:10.705,0.11006984,6.800402,9.19801,0.16386448,0.19639303,-0.046425723,-22.931252,-8.4375,-37.0875,0.23202333,0.1758749,0.5711295,1001.3081, , , , 
2026-03-20 18:12:10.725,-0.44985065,7.3268228,8.834301,-0.076816246,0.22082762,-0.1075122,-22.7625,-8.64375,-37.21875,0.23125783,0.17819357,0.5708601,1001.3081, , , , 
2026-03-20 18:12:10.745,-0.6269195,7.288538,10.0881405,-0.37125307,0.036346454,-0.05742129,-22.743752,-8.8125,-37.29375,0.22854662,0.17820293,0.5709066,1001.30853, , , , 
2026-03-20 18:12:10.765,0.38763726,6.0921264,11.059627,-0.41523534,-0.06994402,-0.03054324,-22.85625,-8.90625,-37.350002,0.2254944,0.17554995,0.5713334,1001.30853, , , , 
2026-03-20 18:12:10.785,0.41635114,4.938786,11.284552,-0.2612974,-0.0027488915,-0.11606431,-22.9125,-8.868751,-37.331253,0.22281191,0.17319563,0.57133883,1001.30853, , , , 
2026-03-20 18:12:10.805,0.2440679,4.436293,10.887343,0.04535671,0.0070249448,-0.12339468,-22.875,-8.512501,-37.3125,0.22141857,0.17265514,0.57059306,1001.30853, , , , 
2026-03-20 18:12:10.825,1.1581261,4.4554358,8.04467,0.18219042,0.11331542,-0.12705988,-22.837502,-8.25,-37.3125,0.22207162,0.17391555,0.5695221,1001.3104, , , , 
2026-03-20 18:12:10.845,1.3447664,4.5559344,7.125826,0.006261364,0.2159407,-0.21380267,-22.800001,-8.0625,-37.29375,0.22186886,0.1760897,0.5684718,1001.3104, , , , 
2026-03-20 18:12:10.865,-0.6652047,5.0440702,8.140383,-0.17944153,0.19761476,-0.23212862,-22.7625,-8.00625,-37.237503,0.21953657,0.1776985,0.5672221,1001.3104, , , , 
2026-03-20 18:12:10.885,-1.0289137,5.1876397,8.279166,-0.25885394,0.124310985,-0.042760536,-22.66875,-8.3625,-37.237503,0.21663791,0.17814167,0.56686085,1001.3104, , , , 
2026-03-20 18:12:10.905,-0.51206404,4.7712884,8.422736,-0.35048366,-0.05650499,0.046425723,-22.59375,-8.512501,-37.275,0.21397525,0.17671992,0.56757736,1001.3113, , , , 
2026-03-20 18:12:10.925,-0.3493521,4.369294,8.537591,-0.25885394,-0.12492185,0.06963859,-22.368752,-8.475,-37.36875,0.21202338,0.1739511,0.5683763,1001.3113, , , , 
2026-03-20 18:12:10.945,0.16271193,4.1347976,7.8723865,-0.04138609,-0.074830934,0.073303774,-22.03125,-8.25,-37.48125,0.21144092,0.17198223,0.5690082,1001.3113, , , , 
2026-03-20 18:12:10.965,0.57906306,4.1204405,6.7334027,0.0820086,-0.0858265,0.020769402,-21.956251,-8.025001,-37.4625,0.2121829,0.17147878,0.5692106,1001.3113, , , , 
2026-03-20 18:12:10.985,0.6364908,4.2831526,6.2883377,0.07345649,-0.14569125,-0.04886918,-21.84375,-7.8375,-37.443752,0.21354927,0.17094928,0.568719,1001.3117, , , , 
2026-03-20 18:12:11.005,0.25842485,4.302295,6.8339014,0.12599087,-0.014966187,-0.07574723,-21.88125,-7.6312504,-37.48125,0.21474034,0.17073679,0.5678568,1001.3117, , , , 
2026-03-20 18:12:11.025,0.17228323,4.5559344,6.8339014,0.24205516,0.13652828,-0.062308207,-22.2,-7.65,-37.40625,0.21570174,0.17240916,0.56714046,1001.3117, , , , 
2026-03-20 18:12:11.045,0.2727818,4.847859,6.384051,0.21884231,0.06933315,-0.06597339,-22.40625,-7.70625,-37.518753,0.21681319,0.17492227,0.5665248,1001.3117, , , , 
2026-03-20 18:12:11.065,0.32542387,5.015356,6.5946193,0.09300416,-0.11514801,-0.07819069,-22.368752,-7.7812505,-37.631252,0.21814057,0.17573732,0.5656424,1001.31146, , , , 
2026-03-20 18:12:11.085,0.5886344,5.2689953,7.757531,0.20418155,-0.022296565,-0.073303774,-22.237501,-8.0625,-37.65,0.21943268,0.17581521,0.5646809,1001.31146, , , , 
2026-03-20 18:12:11.105,-0.124426775,5.436493,6.896115,0.2677115,0.1499673,-0.047647454,-21.956251,-8.212501,-37.8375,0.22100219,0.1778634,0.56376374,1001.31146, , , , 
2026-03-20 18:12:11.125,-0.2536392,5.690132,6.6329045,0.13209951,0.14508039,0.013439025,-21.825,-8.306251,-37.987503,0.22179295,0.18048126,0.5636231,1001.31146, , , , 
2026-03-20 18:12:11.145,-0.64606214,5.7284174,7.9011,-0.04382955,0.14019346,0.1075122,-21.993752,-8.400001,-38.025,0.22149295,0.18161331,0.5642695,1001.3106, , , , 
2026-03-20 18:12:11.165,-0.59342,5.5465627,9.19801,-0.0108428495,0.11575887,0.17592905,-22.06875,-8.34375,-38.04375,0.22061822,0.18224837,0.56575894,1001.3106, , , , 
2026-03-20 18:12:11.185,-0.05742774,5.7762737,9.298509,0.035582874,-0.08093958,0.18325943,-22.050001,-8.25,-37.93125,0.2208404,0.18214859,0.56725115,1001.3106, , , , 
2026-03-20 18:12:11.205,0.076570325,6.245267,8.843872,0.0050396346,-0.16279547,0.14172062,-22.03125,-8.212501,-37.818752,0.22217044,0.18076849,0.56812704,1001.3106, , , , 
2026-03-20 18:12:11.225,-0.124426775,6.556334,9.757931,0.031917684,0.0632245,0.16982041,-22.0125,-8.118751,-37.893753,0.22285713,0.17993733,0.56913865,1001.3094, , , , 
2026-03-20 18:12:11.245,0.062213387,6.355337,9.906285,0.09789108,0.2819141,0.16615522,-22.0125,-8.0625,-38.081253,0.22279224,0.18121701,0.5707413,1001.3094,37.8875062,127.73741288,177.97216796875,1.68
2026-03-20 18:12:11.265,-0.4833502,6.202196,9.834501,0.013591741,0.28924447,0.10262528,-22.06875,-8.175,-38.175003,0.2218559,0.183664,0.5723239,1001.3094, , , , 
2026-03-20 18:12:11.285,-1.3016955,5.757131,10.691132,-0.21609342,0.118202336,0.124616414,-21.975,-8.26875,-38.11875,0.22001009,0.1846251,0.57377404,1001.3094, , , , 
2026-03-20 18:12:11.305,-1.416551,5.1062837,12.102897,-0.16722423,-0.014966187,0.194255,-21.6375,-8.26875,-37.987503,0.21808913,0.18338957,0.57543355,1001.30853, , , , 
2026-03-20 18:12:11.324,-0.42592242,4.4889355,11.5621195,0.13209951,0.065667965,0.20402883,-21.300001,-8.212501,-37.875,0.21789695,0.18262857,0.57711786,1001.30853, , , , 
2026-03-20 18:12:11.345,-0.10049855,4.3405805,10.097712,0.32268932,0.15851942,0.07574723,-21.075,-7.9500003,-37.96875,0.21914266,0.18442063,0.5780618,1001.30853, , , , 
2026-03-20 18:12:11.365,-0.3684947,4.4841495,8.202596,0.32879797,0.09010255,-0.008552107,-20.962502,-7.5937505,-38.2125,0.2209129,0.18730724,0.5779248,1001.30853, , , , 
2026-03-20 18:12:11.385,-0.29671,4.436293,6.8099732,0.16142102,0.07422007,-0.02565632,-21.056252,-7.4062505,-38.4,0.2224635,0.18940207,0.57745516,1001.3087, , , , 
2026-03-20 18:12:11.405,-0.89013004,4.3836513,6.6089764,0.014813471,0.16584979,-0.012217295,-21.056252,-7.4625,-38.49375,0.22242506,0.19085275,0.5773393,1001.3087, , , , 
2026-03-20 18:12:11.425,-1.2634103,4.2975097,6.4797635,-0.03161225,0.18906265,0.05131264,-20.8875,-7.74375,-38.68125,0.22123991,0.19220185,0.5778761,1001.3087, , , , 
2026-03-20 18:12:11.445,-1.3495519,4.536792,5.4843497,-0.058490302,0.20616686,0.17959425,-20.7,-8.175,-38.775,0.21998629,0.19337629,0.5791437,1001.3087, , , , 
2026-03-20 18:12:11.465,-0.6364908,4.4985065,4.914858,-0.30894485,0.035124727,0.22968516,-20.587502,-8.64375,-38.850002,0.21836264,0.19344467,0.5813737,1001.3094, , , , 
2026-03-20 18:12:11.485,-0.06699903,4.3501515,6.8578296,-0.4970912,-0.26419902,0.19058982,-20.60625,-8.775001,-39.0,0.21624316,0.18971975,0.583603,1001.3094, , , , 
2026-03-20 18:12:11.505,0.2105684,4.316652,8.092526,-0.23564109,-0.25442517,0.08552107,-20.60625,-8.700001,-38.8875,0.21515004,0.18471566,0.58481675,1001.3094, , , , 
2026-03-20 18:12:11.525,-0.12921242,4.833502,7.068398,0.17852524,0.07055488,0.012217295,-20.681252,-8.4375,-38.756252,0.21555859,0.18362617,0.5850007,1001.3094, , , , 
2026-03-20 18:12:11.545,-0.29192436,5.4125648,5.4795637,0.21517712,0.060781047,0.014660755,-20.737501,-7.9687505,-38.8125,0.21680388,0.18564592,0.58485156,1001.3094, , , , 
2026-03-20 18:12:11.565,-0.20578274,5.74756,5.144569,-0.012064579,-0.03940078,0.039095346,-20.75625,-7.6875005,-38.79375,0.21786048,0.18651149,0.5848453,1001.3094, , , , 
2026-03-20 18:12:11.585,-0.44985065,5.7188463,6.7238317,-0.15867212,-0.07971785,0.05131264,-20.925001,-7.4062505,-38.8875,0.21766461,0.18550527,0.58523893,1001.3094, , , , 
2026-03-20 18:12:11.605,-0.22971097,5.541777,8.212168,-0.08048143,-0.13591741,0.067195125,-20.925001,-7.2937503,-39.15,0.21737696,0.18377326,0.5857518,1001.3094, , , , 
2026-03-20 18:12:11.625,0.23928227,5.5944195,8.221739,0.15897755,-0.09682207,0.0048869182,-21.0,-7.4812503,-39.206253,0.21838197,0.1827579,0.58578306,1001.30853, , , , 
2026-03-20 18:12:11.645,0.009571291,6.1064835,7.503892,0.2689332,0.08277218,-0.07208204,-21.13125,-7.5750003,-39.225002,0.22022213,0.18401766,0.5850881,1001.30853, , , , 
2026-03-20 18:12:11.665,-0.35413775,6.4701924,7.719246,0.19318599,0.13897173,-0.11117739,-21.09375,-7.5937505,-39.24375,0.2212621,0.18668604,0.58422774,1001.30853, , , , 
2026-03-20 18:12:11.685,-0.94277215,6.6041903,8.384451,0.066126116,0.07299834,-0.118507765,-21.075,-7.5375004,-39.206253,0.22153877,0.18855803,0.58327174,1001.30853, , , , 
2026-03-20 18:12:11.705,-1.8089739,6.7812595,9.260223,-0.056046844,0.08155045,-0.06352994,-20.98125,-7.55625,-39.24375,0.22093219,0.18962643,0.5826316,1001.3083, , , , 
2026-03-20 18:12:11.725,-0.8997013,7.001399,9.949356,-0.13790272,-0.09682207,0.010995566,-20.962502,-7.70625,-39.300003,0.2200327,0.18930598,0.58268785,1001.3083, , , , 
2026-03-20 18:12:11.745,-0.06699903,7.283752,10.255638,-0.1660025,-0.054061532,-0.074525505,-21.09375,-7.9687505,-39.28125,0.21947467,0.1876108,0.5825641,1001.3083, , , , 
2026-03-20 18:12:11.765,-0.7465607,7.4656067,11.499906,-0.107359484,0.09010255,-0.091629714,-21.150002,-8.34375,-39.24375,0.2179169,0.18731284,0.582162,1001.3083, , , , 
2026-03-20 18:12:11.785,-0.3493521,6.6185474,11.251052,-0.08536835,-0.043065965,-0.07941242,-21.0375,-8.4375,-39.3375,0.21683335,0.18727921,0.58182603,1001.30853, , , , 
2026-03-20 18:12:11.805,-0.5168497,5.556134,11.533405,-0.03649917,-0.21899502,-0.09529491,-20.79375,-8.212501,-39.35625,0.21670033,0.18595223,0.58098835,1001.30853, , , , 
2026-03-20 18:12:11.825,0.29671,4.895715,10.585847,0.2310596,-0.22021675,-0.06475167,-20.550001,-7.9875,-39.487503,0.21846874,0.1846761,0.5797131,1001.30853, , , , 
2026-03-20 18:12:11.845,1.1006985,4.8095737,8.193025,0.4167625,0.004581486,-0.12828161,-20.6625,-8.00625,-39.46875,0.22163746,0.1857031,0.57816285,1001.30853, , , , 
2026-03-20 18:12:11.865,0.4019942,5.139783,6.853044,0.2848157,0.20127994,-0.16737695,-20.962502,-8.1,-39.28125,0.22373943,0.18888934,0.57652086,1001.31024, , , , 
2026-03-20 18:12:11.885,-0.2727818,5.1206403,6.800402,-0.021838415,0.15241076,-0.10506874,-21.150002,-8.3625,-39.28125,0.22352771,0.19161025,0.5755997,1001.31024, , , , 
2026-03-20 18:12:11.905,-0.4019942,4.7138605,7.719246,-0.26374087,-0.019853106,-0.040317077,-21.150002,-8.6625,-39.16875,0.22180332,0.19139633,0.5755109,1001.31024, , , , 
2026-03-20 18:12:11.925,-0.5024927,4.249653,8.384451,-0.24297146,-0.109039366,0.0073303776,-20.868752,-8.700001,-39.112503,0.21997792,0.1891932,0.5757317,1001.31024, , , , 
2026-03-20 18:12:11.945,-0.30149564,4.0438704,7.8197446,-0.063377224,-0.040622506,0.050090913,-20.587502,-8.681251,-39.24375,0.2191546,0.18745089,0.5760703,1001.3106, , , , 
2026-03-20 18:12:11.965,0.086141616,4.2257247,6.513263,0.038026333,0.015577052,0.050090913,-20.493752,-8.56875,-39.2625,0.2192702,0.18719052,0.57646084,1001.3106, , , , 
2026-03-20 18:12:11.985,-0.15792629,4.536792,5.74756,-0.08536835,-0.028405212,0.06963859,-20.60625,-8.53125,-39.300003,0.21940637,0.18707046,0.57687384,1001.3106, , , , 
2026-03-20 18:12:12.005,-0.26799613,4.3836513,6.771688,-0.16844596,-0.008857539,0.11362085,-20.79375,-8.55,-39.35625,0.21873078,0.18590488,0.5777534,1001.3106, , , , 
2026-03-20 18:12:12.025,0.124426775,4.15394,7.5756764,-0.048716467,0.032681264,0.09773836,-20.831251,-8.53125,-39.375,0.2178707,0.18496644,0.5789196,1001.3117, , , , 
2026-03-20 18:12:12.045,0.31106696,4.465007,7.274181,0.084452055,-0.021074835,-0.035430156,-20.831251,-8.475,-39.393753,0.21829022,0.18469618,0.57917714,1001.3117, , , , 
2026-03-20 18:12:12.065,-0.33020952,4.9531426,6.6568327,0.20418155,-0.06994402,-0.1075122,-20.7,-8.3625,-39.43125,0.21954516,0.18543199,0.5782631,1001.3117, , , , 
2026-03-20 18:12:12.085,-0.7082755,5.3216376,6.518049,0.23228133,-0.021074835,-0.062308207,-20.587502,-8.231251,-39.393753,0.22140172,0.18650383,0.57697874,1001.3117, , , , 
2026-03-20 18:12:12.105,-0.44506502,5.3790655,6.7669024,0.29825473,0.124310985,0.028099779,-20.60625,-8.231251,-39.16875,0.22314319,0.18839087,0.57640314,1001.31274, , , , 
2026-03-20 18:12:12.125,0.047856454,5.2546387,7.015756,0.3581195,0.20494513,0.05864302,-20.681252,-8.53125,-38.98125,0.22479776,0.19157837,0.57655156,1001.31274, , , , 
2026-03-20 18:12:12.145,-0.019142581,5.4843497,7.580462,0.37033677,0.17684536,0.036651887,-20.643751,-8.775001,-38.9625,0.22663474,0.1950184,0.57663363,1001.31274, , , , 
2026-03-20 18:12:12.165,-0.09092726,5.56092,7.958528,0.36544985,0.13775001,0.040317077,-20.643751,-9.0,-38.98125,0.22858207,0.19834612,0.5765556,1001.31274, , , , 
2026-03-20 18:12:12.185,-0.44506502,5.910272,8.049456,0.29458955,-0.0015271619,0.05864302,-20.400002,-9.1875,-39.018753,0.23076569,0.20082666,0.5763876,1001.31384, , , , 
2026-03-20 18:12:12.205,-0.19621146,6.1878395,8.178668,0.18341215,-0.09193515,0.17104214,-20.118752,-9.356251,-38.9625,0.23318242,0.20152469,0.5765944,1001.31384, , , , 
2026-03-20 18:12:12.225,1.0863415,6.202196,9.461221,0.09544762,9.162972E-4,0.16615522,-20.1,-9.637501,-38.8875,0.23482205,0.20146303,0.5776757,1001.31384, , , , 
2026-03-20 18:12:12.245,1.0049855,6.393622,9.375079,0.041691523,0.0632245,0.04886918,-20.081251,-9.76875,-38.850002,0.2356211,0.20169483,0.57847095,1001.31384,37.88751316,127.73742045,177.4547119140625,1.48
2026-03-20 18:12:12.265,-0.32542387,6.5754766,9.585648,-0.19165882,0.092546016,-0.034208428,-20.25,-9.7875,-39.018753,0.23480257,0.20191635,0.5788165,1001.3164, , , , 
2026-03-20 18:12:12.285,-1.7754744,6.058627,11.519048,-0.44577858,0.04734202,0.042760536,-20.362501,-9.712501,-39.300003,0.23182671,0.20070201,0.579553,1001.3164, , , , 
2026-03-20 18:12:12.305,-1.6893328,5.2498527,13.7730875,-0.31627524,-0.12125666,0.08552107,-20.38125,-9.637501,-39.412502,0.22853759,0.19788906,0.5808804,1001.3164, , , , 
2026-03-20 18:12:12.325,-1.3447664,4.9292145,13.021741,0.16508621,-0.15546508,0.03176497,-20.456251,-9.65625,-39.45,0.22831433,0.19564201,0.5812337,1001.3164, , , , 
2026-03-20 18:12:12.345,-1.2634103,5.0823555,10.021141,0.5120574,0.029016078,-0.018325943,-20.475,-9.69375,-39.393753,0.23115757,0.19693409,0.58040136,1001.3179, , , , 
2026-03-20 18:12:12.365,-1.4596218,5.3312087,7.2215385,0.52671814,0.1744019,0.0097738365,-20.587502,-9.65625,-39.35625,0.234485,0.20096536,0.5794569,1001.3179, , , , 
2026-03-20 18:12:12.385,-1.0289137,5.3886366,4.8382874,0.19196425,0.124310985,0.11117739,-20.625,-9.6,-39.225002,0.23664516,0.2046221,0.5794404,1001.3179, , , , 
2026-03-20 18:12:12.405,-0.6795616,5.197211,4.220939,-0.32116216,-0.045509428,0.18448116,-20.60625,-9.69375,-39.05625,0.23661228,0.20471683,0.58064634,1001.3179, , , , 
2026-03-20 18:12:12.425,-0.91405827,4.718646,6.1591253,-0.6546943,-0.06750056,0.2858847,-20.643751,-9.8625,-39.018753,0.23371774,0.20084088,0.58320165,1001.3185, , , , 
2026-03-20 18:12:12.445,-0.35413775,4.1204405,7.6666036,-0.5752819,0.04856375,0.34941465,-20.475,-10.05,-38.8875,0.22958022,0.19618885,0.58686835,1001.3185, , , , 
2026-03-20 18:12:12.465,0.076570325,3.9481573,7.446464,-0.3272708,0.18784092,0.27977607,-20.2875,-10.087501,-38.943752,0.22602573,0.19360217,0.5904775,1001.3185, , , , 
2026-03-20 18:12:12.485,0.062213387,4.106084,7.207182,-0.21853687,0.21716243,0.17104214,-20.25,-9.84375,-39.09375,0.22315562,0.19296925,0.59324276,1001.3185, , , , 
2026-03-20 18:12:12.505,-0.39720857,4.3740797,7.5900335,-0.11346813,0.08032872,0.112399116,-20.081251,-9.450001,-39.075,0.2210486,0.19281493,0.5949952,1001.3183, , , , 
2026-03-20 18:12:12.525,-0.28235307,4.7569313,6.6281185,0.031917684,-0.049174614,0.07696896,-20.118752,-9.0375,-39.09375,0.22083914,0.19238453,0.5958217,1001.3183, , , , 
2026-03-20 18:12:12.545,-0.043070808,5.1062837,5.7954164,0.06734784,-0.023518294,0.05864302,-20.400002,-8.7375,-39.1875,0.22168908,0.19221982,0.59613305,1001.3183, , , , 
2026-03-20 18:12:12.565,-0.14356937,5.5226345,5.977271,0.052687086,0.02046397,0.043982264,-20.53125,-8.512501,-39.206253,0.22233425,0.1925733,0.596394,1001.3183, , , , 
2026-03-20 18:12:12.585,0.047856454,5.8480587,6.3314085,0.016035201,-0.09315688,0.05253437,-20.643751,-8.212501,-39.35625,0.22299722,0.19258656,0.59663475,1001.31805, , , , 
2026-03-20 18:12:12.605,0.4833502,6.020342,6.9152575,0.014813471,-0.1847866,-0.0036651888,-20.625,-7.8562503,-39.43125,0.22410044,0.19147114,0.5965619,1001.31805, , , , 
2026-03-20 18:12:12.625,0.33020952,6.135197,7.623533,0.13454297,-0.07238748,-0.07819069,-20.41875,-7.55625,-39.45,0.22542909,0.19075976,0.5958588,1001.31805, , , , 
2026-03-20 18:12:12.645,0.08135597,6.350551,7.652247,0.29092434,0.038789913,-0.1404989,-20.362501,-7.4812503,-39.5625,0.2269534,0.19218278,0.59465057,1001.31805, , , , 
2026-03-20 18:12:12.665,-0.52163535,6.623333,7.3986077,0.28603745,0.02046397,-0.17715079,-20.493752,-7.6875005,-39.525,0.22876234,0.19466923,0.5929362,1001.3172, , , , 
2026-03-20 18:12:12.685,-1.2586247,6.7908306,7.542177,0.17119485,-0.09682207,-0.067195125,-20.6625,-7.9500003,-39.393753,0.23044747,0.19639929,0.59135365,1001.3172, , , , 
2026-03-20 18:12:12.705,-0.91405827,6.680761,7.8197446,-0.012064579,-0.09071342,0.023212861,-20.868752,-8.25,-39.2625,0.23177275,0.1964027,0.59072834,1001.3172, , , , 
2026-03-20 18:12:12.725,-0.3684947,6.719046,9.542577,-0.13423753,-0.19944735,0.02443459,-20.90625,-8.475,-39.0,0.23186463,0.19510594,0.5908622,1001.3172, , , , 
2026-03-20 18:12:12.745,0.6269195,7.2550383,9.518648,-0.063377224,-0.40347618,-0.07208204,-20.71875,-8.71875,-38.831253,0.23292114,0.19210683,0.5902285,1001.3176, , , , 
2026-03-20 18:12:12.765,0.55034924,7.6713896,9.135797,-0.059712034,-0.16279547,-0.16982041,-20.681252,-9.0,-38.8125,0.23434411,0.18970458,0.588657,1001.3176, , , , 
2026-03-20 18:12:12.785,0.41635114,7.460821,10.150353,-0.095142186,-0.1517999,-0.17592905,-20.7,-9.13125,-38.737503,0.23426639,0.18868867,0.58722717,1001.3176, , , , 
2026-03-20 18:12:12.805,0.30149564,6.4366927,10.279566,-0.08048143,-0.19944735,-0.17715079,-20.8125,-9.075001,-38.643753,0.23437493,0.18704896,0.58562154,1001.3176, , , , 
2026-03-20 18:12:12.825,0.3589234,5.5513487,10.63849,0.023365578,0.0070249448,-0.15638138,-20.98125,-8.85,-38.60625,0.23436409,0.18628514,0.584181,1001.3202, , , , 
2026-03-20 18:12:12.845,0.6652047,4.800002,10.255638,0.11255184,0.083993904,-0.17715079,-21.075,-8.71875,-38.456253,0.23414318,0.18744871,0.5830272,1001.3202, , , , 
2026-03-20 18:12:12.865,0.81834537,4.7377887,9.193225,0.062460925,0.021685699,-0.24556763,-21.243752,-8.75625,-38.34375,0.23414424,0.18873654,0.581435,1001.3202, , , , 
2026-03-20 18:12:12.885,0.2632105,4.9866424,8.628518,-0.04016436,0.041233372,-0.26389357,-21.206251,-8.681251,-38.325,0.23359714,0.18950704,0.57949305,1001.3202, , , , 
2026-03-20 18:12:12.905,-0.2632105,5.020142,8.374879,-0.14156792,0.054672398,-0.2150244,-21.0375,-8.6625,-38.23125,0.2320944,0.18992999,0.5779614,1001.3217, , , , 
2026-03-20 18:12:12.925,-0.38763726,4.666004,8.19781,-0.20387612,-0.0980438,-0.19303326,-20.98125,-8.71875,-38.2125,0.2302884,0.18926951,0.5767674,1001.3217, , , , 
2026-03-20 18:12:12.945,-0.22492532,4.4410787,7.331609,-0.11713332,-0.19944735,-0.19303326,-20.98125,-8.64375,-38.325,0.22940798,0.1874917,0.57528317,1001.3217, , , , 
2026-03-20 18:12:12.965,-0.31585258,4.4602213,5.8337016,-0.0035124724,-0.11514801,-0.18325943,-20.962502,-8.6625,-38.30625,0.22958358,0.18622099,0.5735245,1001.3217, , , , 
2026-03-20 18:12:12.985,-0.49292147,4.6085763,4.938786,0.024587307,0.13286309,-0.13439025,-21.056252,-8.700001,-38.362503,0.22947718,0.18669342,0.5722229,1001.32336, , , , 
2026-03-20 18:12:13.005,-0.72741807,4.948357,4.666004,-0.058490302,0.23793183,-0.042760536,-21.206251,-8.606251,-38.475002,0.22828157,0.18853661,0.5718859,1001.32336, , , , 
2026-03-20 18:12:13.025,-0.41635114,4.8191447,5.4221363,-0.26374087,0.021685699,0.013439025,-21.0375,-8.493751,-38.4,0.22627102,0.18912365,0.5724418,1001.32336, , , , 
2026-03-20 18:12:13.045,-0.22971097,4.6468616,7.0875406,-0.28328854,-0.14446951,-0.0048869182,-20.775002,-8.4375,-38.4,0.22440754,0.18688166,0.5728954,1001.32336, , , , 
2026-03-20 18:12:13.065,-0.06699903,4.5798626,7.685746,-0.0059559317,0.013133593,-0.045203995,-20.60625,-8.38125,-38.41875,0.22363777,0.18523072,0.5728232,1001.3249, , , , 
2026-03-20 18:12:13.085,-0.6412765,5.048856,7.01097,0.2933678,0.25625777,-0.02932151,-20.34375,-8.400001,-38.287502,0.22386485,0.18732591,0.57248664,1001.3249, , , , 
2026-03-20 18:12:13.105,-0.9619147,5.3647084,6.5228343,0.24083345,0.15607595,0.068416856,-20.400002,-8.493751,-38.23125,0.22476391,0.19084527,0.5725125,1001.3249, , , , 
2026-03-20 18:12:13.125,-0.5694918,5.2929235,7.159325,0.10399973,-0.049174614,0.14660755,-20.53125,-8.6625,-38.25,0.22597207,0.19211431,0.57312506,1001.3249, , , , 
2026-03-20 18:12:13.145,0.32063824,5.0919266,8.628518,0.21884231,-0.08949169,0.16126831,-20.60625,-8.8125,-38.15625,0.22774301,0.19187875,0.5739278,1001.3253, , , , 
2026-03-20 18:12:13.165,0.91884387,5.316852,7.948957,0.5035053,0.04612029,0.04886918,-20.60625,-8.83125,-38.1375,0.23095891,0.1932081,0.57403284,1001.3253, , , , 
2026-03-20 18:12:13.185,0.5407779,5.9724855,6.623333,0.5083922,0.22327107,-0.014660755,-20.400002,-8.90625,-38.193752,0.23432419,0.197171,0.5734686,1001.3253, , , , 
2026-03-20 18:12:13.205,0.043070808,6.546763,6.1591253,0.2432769,0.28313583,0.045203995,-20.400002,-9.13125,-38.175003,0.23604113,0.20144643,0.57329935,1001.3253, , , , 
2026-03-20 18:12:13.225,-0.57427746,6.498906,7.810173,-0.08536835,0.2525926,0.14782928,-20.4375,-9.356251,-38.2125,0.2352349,0.20409244,0.574497,1001.32574, , , , 
2026-03-20 18:12:13.245,-0.13399807,6.3457656,9.509077,-0.1904371,0.05589413,0.20036365,-20.15625,-9.6,-38.268753,0.23357865,0.20415202,0.5765398,1001.32574,37.88751902,127.73743167,177.1658935546875,1.39
2026-03-20 18:12:13.265,-0.44027936,6.4271216,10.212567,-0.21242823,0.060781047,0.10384701,-19.85625,-9.65625,-38.30625,0.2321731,0.20281667,0.5782627,1001.32574, , , , 
2026-03-20 18:12:13.285,-1.9094725,6.63769,10.523634,-0.2197586,0.10598504,0.13805544,-19.650002,-9.50625,-38.30625,0.2301425,0.20203055,0.57964736,1001.32574, , , , 
2026-03-20 18:12:13.305,-1.727618,5.9964137,10.724631,-0.3724748,0.05589413,0.26267186,-19.5,-9.39375,-38.25,0.22767785,0.20064573,0.58196306,1001.32635, , , , 
2026-03-20 18:12:13.325,-1.1964114,5.058427,11.916257,-0.30527967,-0.06383537,0.27366742,-19.5,-9.13125,-38.193752,0.22525632,0.1976244,0.5847332,1001.32635, , , , 
2026-03-20 18:12:13.345,-0.7369894,4.642076,11.590833,0.04046979,0.065667965,0.2272417,-19.63125,-8.775001,-38.25,0.22437312,0.19579645,0.5869289,1001.32635, , , , 
2026-03-20 18:12:13.365,-0.79920274,4.981857,9.489935,0.18463388,0.21349724,0.16615522,-19.66875,-8.45625,-38.362503,0.2247954,0.19718038,0.5884286,1001.32635, , , , 
2026-03-20 18:12:13.385,-0.79441714,5.0919266,8.4705925,-0.1036943,0.04367683,0.11606431,-19.44375,-8.19375,-38.4,0.22464956,0.1985396,0.5896918,1001.3279, , , , 
2026-03-20 18:12:13.405,-0.7513463,4.85743,8.85823,-0.3260491,-0.113926284,0.098960094,-19.331251,-8.118751,-38.30625,0.22340322,0.19676483,0.59081346,1001.3279, , , , 
2026-03-20 18:12:13.425,0.0047856453,4.278367,9.107083,-0.28206682,-0.12614357,0.042760536,-19.237501,-8.0625,-38.100002,0.2217749,0.19359401,0.5917939,1001.3279, , , , 
2026-03-20 18:12:13.445,0.2440679,4.082155,8.547162,-0.042607818,-0.06750056,-0.092851445,-19.1625,-7.9500003,-37.893753,0.22089092,0.19167039,0.5917766,1001.3279, , , , 
2026-03-20 18:12:13.465,-0.014356935,4.4745784,6.556334,0.17486005,-0.06383537,-0.17226386,-19.29375,-7.74375,-37.800003,0.22143242,0.19192024,0.5904927,1001.3289, , , , 
2026-03-20 18:12:13.485,-0.7465607,5.2019963,4.4602213,0.12476913,-0.06750056,-0.09407318,-19.612501,-7.55625,-37.893753,0.22298136,0.1927488,0.5888022,1001.3289, , , , 
2026-03-20 18:12:13.505,-0.75613195,5.302495,4.6372905,-0.09880738,-3.054324E-4,0.06352994,-19.875,-7.51875,-38.0625,0.22342172,0.1929264,0.5884896,1001.3289, , , , 
2026-03-20 18:12:13.525,0.09092726,4.895715,6.1304116,-0.1244637,-0.05894845,0.118507765,-19.987501,-7.5937505,-38.268753,0.22282992,0.19186796,0.58948225,1001.3289, , , , 
2026-03-20 18:12:13.545,0.5024927,4.895715,6.4127645,0.04046979,-0.20311254,0.02565632,-20.1,-7.7250004,-38.381252,0.22333576,0.19039053,0.5899543,1001.3295, , , , 
2026-03-20 18:12:13.565,0.3397808,5.3359947,5.5704913,0.19074252,-0.15546508,-0.05986475,-20.081251,-7.9125004,-38.15625,0.22545555,0.18951353,0.5891924,1001.3295, , , , 
2026-03-20 18:12:13.585,-0.72263247,6.04427,5.1828537,0.17852524,0.10598504,-0.0024434591,-20.1375,-7.8375,-37.800003,0.22726521,0.19058698,0.58831054,1001.3295, , , , 
2026-03-20 18:12:13.605,-0.47377887,5.9964137,5.771488,0.031917684,0.14385866,0.08552107,-20.23125,-7.7250004,-37.425003,0.2274757,0.19248919,0.5888281,1001.3295, , , , 
2026-03-20 18:12:13.625,-0.8805587,6.0394845,7.2693954,-0.12812889,-0.11759147,0.086742796,-20.212502,-7.7625003,-37.237503,0.22706956,0.19238132,0.58966583,1001.3291, , , , 
2026-03-20 18:12:13.645,-0.27756742,6.020342,8.394022,0.003817905,-0.2751946,0.06352994,-20.118752,-7.5937505,-37.275,0.22775932,0.19018905,0.5900153,1001.3291, , , , 
2026-03-20 18:12:13.665,-0.047856454,6.326623,8.432307,0.20540328,-0.12492185,-0.020769402,-19.96875,-7.6312504,-37.350002,0.22990194,0.18903843,0.58952105,1001.3291, , , , 
2026-03-20 18:12:13.685,-0.57906306,6.5659056,8.346166,0.27992877,-3.054324E-4,-0.08185588,-19.875,-7.74375,-37.350002,0.23206206,0.19030306,0.5884891,1001.3291, , , , 
2026-03-20 18:12:13.705,-0.8853444,6.771688,7.757531,0.13087778,0.0632245,-0.07574723,-19.81875,-7.70625,-37.3125,0.23356886,0.19220437,0.5874982,1001.32806, , , , 
2026-03-20 18:12:13.725,-1.1964114,7.0779696,8.748159,-0.14889829,0.08888082,-0.039095346,-19.96875,-7.93125,-37.331253,0.23312517,0.19307727,0.587157,1001.32806, , , , 
2026-03-20 18:12:13.745,-1.2155539,7.140183,10.485349,-0.3016145,0.20861033,0.0061086477,-20.1375,-8.26875,-37.256252,0.23051034,0.19293168,0.58779734,1001.32806, , , , 
2026-03-20 18:12:13.765,-1.2394822,7.30768,11.6339035,-0.32116216,0.11942407,0.015882485,-20.15625,-8.418751,-37.29375,0.22693574,0.19251056,0.5889039,1001.32806, , , , 
2026-03-20 18:12:13.785,-1.0815558,7.025327,11.877972,-0.26496258,0.0021380268,0.080634154,-20.25,-8.56875,-37.237503,0.22431923,0.19101457,0.58990127,1001.327, , , , 
2026-03-20 18:12:13.805,-0.08135597,6.465407,11.52862,-0.107359484,-0.06139191,0.15271619,-20.19375,-8.418751,-37.0125,0.22305967,0.18935764,0.5910885,1001.327, , , , 
2026-03-20 18:12:13.825,1.2634103,5.7667027,9.710074,-0.00962112,-0.044287696,0.112399116,-19.96875,-8.0625,-36.9375,0.22335532,0.18811963,0.5921219,1001.327, , , , 
2026-03-20 18:12:13.845,1.564906,5.1589255,8.992228,-0.07437278,0.01802051,0.0024434591,-19.7625,-7.7625003,-36.91875,0.22330037,0.18756977,0.5926669,1001.327, , , , 
2026-03-20 18:12:13.865,1.4452649,4.8382874,9.23151,-0.09758565,-0.032070402,-0.1075122,-19.66875,-7.4062505,-36.881252,0.22251475,0.1868571,0.5925322,1001.3251, , , , 
2026-03-20 18:12:13.885,1.0767702,4.8382874,8.776874,0.03924806,0.051007207,-0.23090689,-19.800001,-7.18125,-36.956253,0.22196452,0.18668993,0.59140044,1001.3251, , , , 
2026-03-20 18:12:13.905,0.038285162,4.914858,7.838887,0.13209951,0.16340633,-0.2858847,-19.85625,-7.0687504,-37.0125,0.22152081,0.18855834,0.58949476,1001.3251, , , , 
2026-03-20 18:12:13.925,-0.47377887,4.7569313,7.125826,0.11377356,0.109650224,-0.21991132,-19.837502,-7.0312505,-36.73125,0.22109461,0.19100834,0.58763725,1001.3251, , , , 
2026-03-20 18:12:13.945,-0.22013968,4.3836513,6.5084777,0.09789108,0.059559315,-0.17348559,-19.556252,-6.9750004,-36.43125,0.22103575,0.1925498,0.586137,1001.3253, , , , 
2026-03-20 18:12:13.965,-0.23449662,4.139583,6.3122663,0.16630794,0.15363249,-0.13805544,-19.0125,-6.9375005,-36.300003,0.22111188,0.19427527,0.58489245,1001.3253, , , , 
2026-03-20 18:12:13.985,-0.24885355,4.1443686,5.9676995,0.28115052,0.30634868,-0.086742796,-18.768751,-7.0875,-36.300003,0.22124353,0.19754155,0.5840815,1001.3253, , , , 
2026-03-20 18:12:14.005,0.28235307,4.503292,5.2546387,0.15531237,0.2196059,-0.07086031,-18.65625,-7.275,-36.393753,0.22127943,0.20155396,0.58372337,1001.3253, , , , 
2026-03-20 18:12:14.025,0.009571291,4.8239303,6.384051,-0.056046844,0.026572619,-0.08307761,-18.75,-7.5937505,-36.506252,0.22091228,0.20296556,0.58328503,1001.32635, , , , 
2026-03-20 18:12:14.045,0.16749759,4.7712884,7.972885,0.033139415,0.022907428,-0.05131264,-18.900002,-7.93125,-36.46875,0.22040744,0.20294404,0.58289826,1001.32635, , , , 
2026-03-20 18:12:14.065,0.6125626,4.6468616,8.159525,0.31658068,0.09376775,-0.100181825,-18.7875,-8.175,-36.28125,0.2211455,0.20430706,0.5822007,1001.32635, , , , 
2026-03-20 18:12:14.085,-0.05742774,5.020142,6.599405,0.47296205,0.10476331,-0.16004658,-18.50625,-8.26875,-36.206253,0.22342588,0.2076935,0.5805687,1001.32635, , , , 
2026-03-20 18:12:14.105,-0.8853444,5.436493,5.948557,0.31902415,0.11575887,-0.043982264,-18.28125,-8.26875,-36.206253,0.22577019,0.21130516,0.57901275,1001.3272, , , , 
2026-03-20 18:12:14.125,-0.5694918,5.3982077,7.082755,0.15897755,0.053450666,0.06475167,-18.13125,-8.3625,-36.1875,0.22703582,0.21343006,0.57883054,1001.3272, , , , 
2026-03-20 18:12:14.145,-0.14356937,5.3503513,7.881958,0.19318599,-0.038179047,0.05864302,-17.962502,-8.512501,-36.16875,0.22837928,0.2141959,0.5790274,1001.3272, , , , 
2026-03-20 18:12:14.165,-0.66999036,5.6949177,7.259824,0.34101525,0.04978548,0.045203995,-17.868752,-8.793751,-36.16875,0.23055972,0.21553512,0.57872796,1001.3272, , , , 
2026-03-20 18:12:14.185,-0.8422736,6.2309103,6.45105,0.22128576,0.022907428,0.13439025,-17.868752,-9.150001,-36.225002,0.23279904,0.21766011,0.57877195,1001.3272, , , , 
2026-03-20 18:12:14.205,-0.7322037,6.762117,6.876972,-0.11713332,-0.088269964,0.24312419,-17.85,-9.337501,-36.28125,0.23400445,0.21757945,0.57988846,1001.3272, , , , 
2026-03-20 18:12:14.225,-0.36370903,6.920043,8.9108715,-0.37003133,-0.14813471,0.3090976,-17.775002,-9.543751,-36.09375,0.23346698,0.21463946,0.58226514,1001.3272, , , , 
2026-03-20 18:12:14.245,-0.124426775,6.4701924,11.155339,-0.3773617,-0.16890411,0.27366742,-17.7,-9.58125,-35.79375,0.23206566,0.21027957,0.5850134,1001.3272,37.88752659,127.73744338,176.7760009765625,1.43
2026-03-20 18:12:14.265,-0.72741807,6.302695,10.853844,-0.28084508,-0.06017018,0.24556763,-17.60625,-9.39375,-35.53125,0.2308809,0.20664437,0.5872871,1001.3268, , , , 
2026-03-20 18:12:14.285,-1.861616,6.0011992,11.442478,-0.3394881,0.13164136,0.37140578,-17.550001,-9.168751,-35.30625,0.22878872,0.20442857,0.5901321,1001.3268, , , , 
2026-03-20 18:12:14.305,-1.1916257,5.144569,12.327823,-0.29550585,0.057115857,0.4752528,-17.643751,-8.6625,-35.41875,0.22630465,0.20226783,0.5942686,1001.3268, , , , 
2026-03-20 18:12:14.325,0.023928227,4.388437,12.179467,0.016035201,0.038789913,0.37995788,-17.643751,-7.9687505,-35.568752,0.22561786,0.20004377,0.5979885,1001.3268, , , , 
2026-03-20 18:12:14.345,0.32063824,4.3357944,10.289138,0.36178467,0.2122755,0.16615522,-17.550001,-7.3875003,-35.568752,0.22662838,0.2010037,0.6000832,1001.327, , , , 
2026-03-20 18:12:14.365,-0.43070808,4.627719,7.834101,0.446084,0.30024004,0.0073303776,-17.475,-6.95625,-35.643753,0.22819471,0.20518146,0.600464,1001.327, , , , 
2026-03-20 18:12:14.385,-1.1150553,4.9196434,5.6709895,0.23472479,0.2611447,0.018325943,-17.19375,-6.80625,-35.550003,0.22915293,0.2095051,0.60035616,1001.327, , , , 
2026-03-20 18:12:14.405,-0.95712906,4.9292145,4.867001,-0.18066326,0.22082762,0.068416856,-16.9125,-6.95625,-35.4375,0.2282644,0.2116886,0.6011125,1001.327, , , , 
2026-03-20 18:12:14.425,-1.2394822,4.723432,6.5515485,-0.5044216,0.07299834,0.042760536,-16.6875,-7.3125005,-35.5125,0.22487682,0.2108853,0.6026389,1001.3272, , , , 
2026-03-20 18:12:14.445,-1.4261223,4.6372905,8.398808,-0.50197816,-0.054061532,0.045203995,-16.48125,-7.3500004,-35.60625,0.22087191,0.20769797,0.60404015,1001.3272, , , , 
2026-03-20 18:12:14.465,-0.56470615,4.5224347,8.322237,-0.20387612,-0.12125666,0.0097738365,-16.40625,-7.2000003,-35.8125,0.21857218,0.20458226,0.6049104,1001.3272, , , , 
2026-03-20 18:12:14.485,-0.46899325,4.8382874,6.5611196,-0.058490302,-0.082161315,-0.050090913,-16.48125,-6.8437505,-36.075,0.21822141,0.20299894,0.60478675,1001.3272, , , , 
2026-03-20 18:12:14.505,-0.7322037,4.8765726,6.317052,-0.054825112,-0.06139191,-0.07086031,-16.59375,-6.1875005,-36.3375,0.21812005,0.202357,0.6042954,1001.327, , , , 
2026-03-20 18:12:14.525,-0.5982057,4.9579287,6.3074803,0.01725693,-0.11514801,-0.040317077,-16.48125,-5.8875003,-36.393753,0.21832478,0.20172015,0.6037446,1001.327, , , , 
2026-03-20 18:12:14.545,-0.44506502,5.0344987,6.0107703,0.1357647,-0.120034926,-0.036651887,-16.35,-5.8500004,-36.24375,0.21953373,0.20138186,0.6030455,1001.327, , , , 
2026-03-20 18:12:14.565,-0.05742774,5.4699926,4.618148,0.18096869,-0.06017018,-0.043982264,-16.35,-5.8125,-36.05625,0.22154233,0.20184994,0.60216194,1001.327, , , , 
2026-03-20 18:12:14.585,-0.06699903,5.828916,4.7138605,0.04535671,-0.0027488915,-0.035430156,-16.3125,-5.90625,-35.8125,0.222743,0.20261526,0.60153604,1001.3268, , , , 
2026-03-20 18:12:14.605,-0.51206404,6.0107703,6.398408,-0.059712034,0.0962112,-0.03176497,-16.35,-5.86875,-35.643753,0.2224403,0.20295772,0.60139245,1001.3268, , , , 
2026-03-20 18:12:14.625,-0.5694918,6.111269,8.41795,0.050243627,0.04856375,-0.02565632,-16.44375,-5.775,-35.737503,0.2216159,0.20370476,0.60148287,1001.3268, , , , 
2026-03-20 18:12:14.645,0.062213387,6.513263,8.035098,0.25060728,-0.22754712,-0.1075122,-16.331251,-5.68125,-35.90625,0.22311696,0.2042425,0.60059994,1001.3268, , , , 
2026-03-20 18:12:14.665,-0.35413775,7.173682,7.111469,0.18219042,-0.34361145,-0.18936808,-16.181252,-5.5875,-35.98125,0.2264265,0.20387508,0.5983647,1001.3253, , , , 
2026-03-20 18:12:14.685,-1.282553,7.5900335,7.944171,0.108886644,-0.11270455,-0.086742796,-16.125,-5.55,-36.131252,0.22879836,0.20309483,0.59629804,1001.3253, , , , 
2026-03-20 18:12:14.705,-1.105484,7.312466,8.465807,0.16142102,0.20005822,0.036651887,-16.0125,-5.4,-36.206253,0.22943771,0.20464425,0.5960216,1001.3253, , , , 
2026-03-20 18:12:14.725,-0.89491564,7.5900335,7.877172,0.07589995,0.10109812,0.02687805,-15.95625,-5.30625,-36.16875,0.22959417,0.2067991,0.5963968,1001.3253, , , , 
2026-03-20 18:12:14.745,-1.3495519,7.905886,8.465807,-0.21853687,0.23548837,0.05131264,-15.918751,-5.34375,-36.15,0.22856866,0.2076597,0.5970099,1001.3249, , , , 
2026-03-20 18:12:14.765,-1.4739788,7.365108,11.672189,-0.35292712,0.118202336,0.12705988,-15.825001,-5.34375,-36.018753,0.22503377,0.20746458,0.59879047,1001.3249, , , , 
2026-03-20 18:12:14.785,-0.07178468,6.546763,12.246467,-0.115911596,-0.3252855,0.1197295,-15.7875,-5.26875,-35.925003,0.22397925,0.20463231,0.60005194,1001.3249, , , , 
2026-03-20 18:12:14.805,1.052842,6.0011992,9.676575,0.22006404,-0.1432478,0.045203995,-15.750001,-5.0625,-35.943752,0.22635508,0.20245087,0.5998801,1001.3249, , , , 
2026-03-20 18:12:14.825,1.4261223,5.6949177,7.618747,0.19318599,0.1084285,-0.017104214,-15.69375,-4.8187504,-35.98125,0.2283744,0.20356643,0.59952897,1001.3262, , , , 
2026-03-20 18:12:14.845,0.7896315,5.359923,8.01117,-0.101250835,0.11209369,-0.0061086477,-15.750001,-4.5375004,-36.1875,0.2280871,0.20484027,0.59958804,1001.3262, , , , 
2026-03-20 18:12:14.865,1.2251252,4.914858,8.920443,-0.30405796,-0.06017018,-0.015882485,-15.88125,-4.4812503,-36.28125,0.22638263,0.20358907,0.60011196,1001.3262, , , , 
2026-03-20 18:12:14.885,0.7322037,4.8909297,9.52822,-0.33704466,-0.044287696,-0.12095123,-16.143751,-4.36875,-36.5625,0.22422685,0.20086308,0.6001377,1001.3262, , , , 
2026-03-20 18:12:14.905,-0.12921242,4.9722853,9.556933,-0.21242823,0.13408482,-0.12217296,-16.48125,-4.1062503,-36.9375,0.22155088,0.19960767,0.5998452,1001.3268, , , , 
2026-03-20 18:12:14.925,-0.19621146,4.790431,9.01137,-0.13790272,0.038789913,-0.10873393,-16.650002,-3.8812501,-37.10625,0.21930638,0.19954912,0.5996057,1001.3268, , , , 
2026-03-20 18:12:14.945,-0.2536392,4.613362,8.054241,-0.023060145,-0.11514801,-0.112399116,-16.78125,-3.6750002,-37.36875,0.21859388,0.19879894,0.59885675,1001.3268, , , , 
2026-03-20 18:12:14.965,-0.60777694,4.6372905,7.068398,0.13698642,0.032681264,-0.06597339,-16.81875,-3.5062501,-37.518753,0.21912168,0.19866408,0.5978692,1001.3268, , , , 
2026-03-20 18:12:14.985,-0.71306115,4.517649,6.6041903,0.30680683,0.31245732,0.050090913,-16.85625,-3.4875002,-37.36875,0.21965188,0.20122829,0.59769374,1001.32825, , , , 
2026-03-20 18:12:15.005,-0.14356937,4.465007,5.7954164,0.41920596,0.35033095,0.07696896,-16.96875,-3.525,-37.518753,0.22043899,0.20590353,0.59824246,1001.32825, , , , 
2026-03-20 18:12:15.025,0.08135597,4.6564326,4.9435716,0.35323256,0.20616686,-0.0024434591,-16.95,-3.5625002,-37.78125,0.22184584,0.21042797,0.59838873,1001.32825, , , , 
2026-03-20 18:12:15.045,0.0047856453,4.7712884,5.020142,0.24938555,0.038789913,-0.02687805,-16.875,-3.6562502,-37.93125,0.22333682,0.21332252,0.5979326,1001.32825, , , , 
2026-03-20 18:12:15.065,-0.023928227,5.1206403,5.1828537,0.1443168,-0.0027488915,-0.012217295,-16.66875,-3.91875,-38.268753,0.22482856,0.21467674,0.597341,1001.3304, , , , 
2026-03-20 18:12:15.085,0.014356935,5.2833524,6.1304116,0.091782436,0.12186752,0.0,-16.48125,-4.18125,-38.41875,0.22545734,0.21576662,0.5971882,1001.3304, , , , 
2026-03-20 18:12:15.105,-0.57906306,5.383851,7.3698936,0.13332124,0.25014913,0.036651887,-16.3875,-4.275,-38.34375,0.225147,0.21776414,0.59747845,1001.3304, , , , 
2026-03-20 18:12:15.125,-0.3924229,5.4125648,7.9680996,0.19440772,0.18784092,0.08429934,-16.425001,-4.3875003,-38.287502,0.2249958,0.22038355,0.5981233,1001.3304, , , , 
2026-03-20 18:12:15.145,0.062213387,5.6853466,7.5326056,0.20173809,0.0021380268,0.037873615,-16.518751,-4.51875,-38.325,0.22608869,0.22209416,0.5984139,1001.3304, , , , 
2026-03-20 18:12:15.165,-0.33499518,6.1304116,7.6139617,0.1443168,-0.012522728,0.014660755,-16.5,-4.5750003,-38.53125,0.2275285,0.22295381,0.5981438,1001.3304, , , , 
2026-03-20 18:12:15.185,-0.33020952,6.599405,7.771888,0.07223476,0.15363249,0.080634154,-16.5375,-4.875,-38.625,0.22824208,0.22393043,0.59830713,1001.3304, , , , 
2026-03-20 18:12:15.205,-0.02871387,6.8195443,8.690732,-0.030390523,0.22082762,0.10995566,-16.518751,-5.15625,-38.643753,0.22755742,0.2253128,0.5994346,1001.3304, , , , 
2026-03-20 18:12:15.225,-0.17228323,7.164111,9.466006,-0.08781181,0.13530655,0.043982264,-16.518751,-5.30625,-38.643753,0.22624025,0.22609296,0.60061866,1001.33124, , , , 
2026-03-20 18:12:15.245,-1.4548361,7.331609,9.915857,-0.21242823,0.05589413,0.032986697,-16.5375,-5.4,-38.625,0.2247254,0.22583596,0.6013362,1001.33124,37.88753476,127.73745582,176.7801513671875,1.38
2026-03-20 18:12:15.265,-2.306681,7.0779696,11.08834,-0.22953244,0.07910699,0.19303326,-16.518751,-5.26875,-38.71875,0.2227278,0.22469586,0.60269386,1001.33124, , , , 
2026-03-20 18:12:15.285,-1.7467605,6.2931237,11.839686,-0.16111559,0.029016078,0.28344125,-16.518751,-5.0437503,-38.850002,0.22117876,0.22336516,0.6050704,1001.33124, , , , 
2026-03-20 18:12:15.305,-1.4739788,5.8241305,11.322837,-0.004734202,-0.09560034,0.26633704,-16.3125,-4.74375,-39.0,0.22108153,0.22191116,0.60722816,1001.3319, , , , 
2026-03-20 18:12:15.325,-0.9284152,5.4699926,9.456435,0.10399973,-0.03573559,0.23212862,-16.1625,-4.59375,-39.131252,0.22251062,0.2208918,0.60871303,1001.3319, , , , 
2026-03-20 18:12:15.345,-1.2011969,5.1876397,7.8580294,0.084452055,0.25992295,0.24068072,-16.2,-4.5750003,-39.300003,0.22312477,0.22187866,0.6103547,1001.3319, , , , 
2026-03-20 18:12:15.365,-1.0193424,4.5942197,7.776674,-0.069485866,0.17928882,0.2150244,-16.368752,-4.65,-39.412502,0.22209047,0.22334673,0.61258465,1001.3319, , , , 
2026-03-20 18:12:15.385,-0.6029913,4.1443686,6.8099732,-0.2197586,-0.03573559,0.15271619,-16.66875,-4.89375,-39.393753,0.22105062,0.22255008,0.6144005,1001.3332, , , , 
2026-03-20 18:12:15.405,-1.105484,3.9577286,6.8865438,-0.37125307,-0.11026109,0.10262528,-16.837502,-4.8187504,-39.46875,0.21952319,0.2198807,0.61575633,1001.3332, , , , 
2026-03-20 18:12:15.425,-0.8135597,3.900301,7.274181,-0.4091267,-0.20799945,0.14660755,-16.800001,-4.70625,-39.46875,0.21769479,0.2159956,0.6171669,1001.3332, , , , 
2026-03-20 18:12:15.445,0.32542387,3.8093736,6.719046,-0.30772313,-0.24587308,0.091629714,-16.650002,-4.4812503,-39.43125,0.21668749,0.21162568,0.61841905,1001.3332, , , , 
2026-03-20 18:12:15.465,0.55034924,4.048656,6.068198,-0.1574504,-0.1065959,-0.015882485,-16.575,-4.0125003,-39.525,0.21622485,0.20860125,0.618835,1001.33527, , , , 
2026-03-20 18:12:15.485,0.009571291,4.4458647,5.608776,-0.024281874,-0.025961753,-0.086742796,-16.706251,-3.61875,-39.506252,0.21584655,0.20772128,0.6185021,1001.33527, , , , 
2026-03-20 18:12:15.505,-0.09571291,4.761717,4.9340005,-0.048716467,-0.028405212,-0.08429934,-16.9125,-3.2625,-39.45,0.2157221,0.20759875,0.61786795,1001.33527, , , , 
2026-03-20 18:12:15.525,-0.23928227,5.0392847,5.2642097,-0.15989386,-0.043065965,-0.08307761,-17.19375,-3.0,-39.43125,0.21507262,0.20707063,0.6174,1001.33527, , , , 
2026-03-20 18:12:15.545,-0.21535404,5.2402816,6.3792653,-0.18066326,-0.05650499,-0.092851445,-17.493752,-2.9250002,-39.318752,0.21399017,0.20579217,0.6170179,1001.3355, , , , 
2026-03-20 18:12:15.565,-0.18185452,5.6470613,6.948757,-0.0108428495,0.057115857,-0.12828161,-17.7,-3.05625,-39.09375,0.21315412,0.20522359,0.61641854,1001.3355, , , , 
2026-03-20 18:12:15.585,-0.5312066,6.0921264,6.838687,0.07589995,0.1621846,-0.15271619,-17.775002,-3.2250001,-39.018753,0.21252906,0.20662346,0.6155648,1001.3355, , , , 
2026-03-20 18:12:15.605,-0.91884387,6.570691,7.173682,-0.008399391,0.07910699,-0.15149446,-17.8125,-3.2062502,-39.09375,0.21178219,0.20836622,0.6146414,1001.3355, , , , 
2026-03-20 18:12:15.625,-1.1294123,6.943971,9.044869,-0.042607818,-0.029626941,-0.16249003,-17.737501,-3.15,-39.28125,0.21102461,0.20869173,0.6136332,1001.3351, , , , 
2026-03-20 18:12:15.645,-0.9762716,7.1976104,9.906285,0.22861615,-0.11636974,-0.17104214,-17.625,-3.0375001,-39.600002,0.21157038,0.20895767,0.61215186,1001.3351, , , , 
2026-03-20 18:12:15.665,-1.1581261,7.52782,8.4705925,0.38866273,-0.10415245,-0.17959425,-17.60625,-2.9250002,-39.80625,0.2142609,0.21047443,0.6099166,1001.3351, , , , 
2026-03-20 18:12:15.685,-2.1248264,7.810173,7.23111,0.27259842,0.065667965,-0.074525505,-17.5125,-3.15,-39.787502,0.21694298,0.2127763,0.6079395,1001.3351, , , , 
2026-03-20 18:12:15.705,-2.388037,7.3603225,9.049655,0.028252495,0.28924447,0.10384701,-17.41875,-3.5812502,-39.61875,0.21684855,0.21545976,0.6081427,1001.3351, , , , 
2026-03-20 18:12:15.725,-1.2203395,7.350751,10.619347,-0.052381653,-0.29718572,0.12583815,-17.5125,-4.03125,-39.54375,0.21633732,0.21570942,0.60932755,1001.3351, , , , 
2026-03-20 18:12:15.745,0.19621146,7.6666036,9.662218,0.003817905,-0.4205804,0.035430156,-17.60625,-4.4812503,-39.581253,0.21883398,0.21225338,0.6091576,1001.3351, , , , 
2026-03-20 18:12:15.765,0.7896315,7.652247,9.461221,0.13820815,-0.13469568,-0.068416856,-17.681252,-4.78125,-39.80625,0.22118899,0.21043423,0.60831124,1001.3351, , , , 
2026-03-20 18:12:15.785,-0.25842485,6.800402,9.513863,0.16752967,0.1621846,-0.10873393,-17.868752,-4.89375,-40.050003,0.22218722,0.21171452,0.6072782,1001.3357, , , , 
2026-03-20 18:12:15.805,-0.32063824,5.8911295,9.954143,0.12232567,0.10598504,-0.04886918,-18.0375,-4.8375,-39.975002,0.22210653,0.21401553,0.60667753,1001.3357, , , , 
2026-03-20 18:12:15.825,0.5024927,5.087141,9.662218,0.03924806,-0.0858265,-0.09040799,-18.16875,-4.8,-39.80625,0.22247343,0.21466957,0.6061166,1001.3357, , , , 
2026-03-20 18:12:15.845,0.5982057,4.800002,9.561719,0.01970039,-0.08704823,-0.16493349,-18.35625,-4.8,-39.61875,0.22285202,0.21427998,0.6052759,1001.3357, , , , 
2026-03-20 18:12:15.865,0.4211368,4.8047876,8.733803,0.058795735,0.031459536,-0.22235478,-18.50625,-4.9125004,-39.54375,0.22292903,0.2145597,0.60334814,1001.33765, , , , 
2026-03-20 18:12:15.885,0.0526421,4.962714,7.5182486,-0.008399391,0.044898562,-0.23701553,-18.675001,-5.15625,-39.600002,0.22239539,0.21557875,0.6016757,1001.33765, , , , 
2026-03-20 18:12:15.905,-0.34456646,4.900501,6.8865438,-0.1452331,-0.050396346,-0.20647229,-18.7875,-5.3625,-39.65625,0.22134158,0.21571983,0.6001837,1001.33765, , , , 
2026-03-20 18:12:15.925,-0.23449662,4.6229334,6.45105,-0.2112065,-0.17989968,-0.16004658,-18.712502,-5.6062503,-39.768753,0.22025974,0.2141643,0.59896755,1001.33765, , , , 
2026-03-20 18:12:15.945,0.15314065,4.359723,6.020342,-0.19410229,-0.13713914,-0.14294235,-18.712502,-5.775,-39.768753,0.21952777,0.21182884,0.5979111,1001.3381, , , , 
2026-03-20 18:12:15.965,0.062213387,4.0965123,6.384051,-0.06582068,0.053450666,-0.16004658,-18.5625,-5.86875,-39.65625,0.21851543,0.21076201,0.5970015,1001.3381, , , , 
2026-03-20 18:12:15.985,-0.4354937,4.2448673,6.250053,0.053908817,0.13041963,-0.14172062,-18.50625,-5.86875,-39.693752,0.21755129,0.21173857,0.5960681,1001.3381, , , , 
2026-03-20 18:12:16.005,-0.47856453,4.4458647,6.087341,0.031917684,0.11331542,-0.11606431,-18.581251,-5.775,-39.768753,0.21688798,0.21328224,0.5953011,1001.3381, , , , 
2026-03-20 18:12:16.025,-0.41635114,4.6372905,6.326623,0.0050396346,0.010690134,-0.10506874,-18.45,-5.71875,-39.80625,0.21640415,0.21407023,0.5946126,1001.33765, , , , 
2026-03-20 18:12:16.045,-0.6652047,4.991428,6.393622,0.09911281,0.0033597562,-0.080634154,-18.31875,-5.7937503,-39.956253,0.21652642,0.21447767,0.59377265,1001.33765, , , , 
2026-03-20 18:12:16.065,-0.81834537,5.4221363,6.4271216,0.21273366,0.14263692,-0.032986697,-18.28125,-6.0750003,-39.975002,0.21716882,0.2159131,0.5931124,1001.33765, , , , 
2026-03-20 18:12:16.085,-1.038485,5.8911295,6.250053,0.27748534,0.3735438,0.068416856,-18.393751,-6.3187504,-39.862503,0.21772692,0.2192555,0.59310037,1001.33765, , , , 
2026-03-20 18:12:16.105,-1.3734802,5.938986,6.920043,0.16264275,0.24281874,0.17837252,-18.487501,-6.4875,-39.768753,0.21765412,0.22330312,0.59414357,1001.3372, , , , 
2026-03-20 18:12:16.125,-0.9954142,5.733203,7.9106717,0.011148282,-0.18845178,0.27000225,-18.65625,-6.675,-39.7125,0.21842821,0.22396292,0.5956791,1001.3372, , , , 
2026-03-20 18:12:16.145,0.0047856453,5.460421,8.82473,0.0368046,-0.28619015,0.2932151,-18.525002,-6.675,-39.7125,0.22074643,0.22125426,0.59711945,1001.3372, , , , 
2026-03-20 18:12:16.165,0.27756742,5.383851,8.566305,0.23961172,-0.12247839,0.22235478,-18.35625,-6.675,-39.956253,0.22363769,0.21982096,0.59831125,1001.3372, , , , 
2026-03-20 18:12:16.185,0.15314065,5.800202,8.015956,0.35201082,0.0021380268,0.20525056,-18.300001,-6.7125,-40.3125,0.22668451,0.22074471,0.59908867,1001.3372, , , , 
2026-03-20 18:12:16.205,0.5312066,6.71426,7.542177,0.20418155,0.13408482,0.17715079,-18.243752,-6.8437505,-40.48125,0.22922666,0.2223768,0.5999748,1001.3372, , , , 
2026-03-20 18:12:16.225,0.21535404,7.1306114,8.370093,-0.019394957,0.25992295,0.09529491,-18.375,-7.14375,-40.4625,0.22928628,0.22409438,0.60125434,1001.3372, , , , 
2026-03-20 18:12:16.245,-1.1916257,7.1210403,9.475577,-0.3272708,0.15363249,0.036651887,-18.45,-7.36875,-40.275,0.22685593,0.22481985,0.6026273,1001.3372,37.88754224,127.73746901,176.62872314453125,1.41
2026-03-20 18:12:16.265,-2.07697,6.74776,11.112268,-0.6168207,-0.21532984,0.05986475,-18.4125,-7.3875003,-39.975002,0.22352934,0.22173335,0.6038998,1001.3378, , , , 
2026-03-20 18:12:16.285,-1.7611175,5.9724855,13.060026,-0.49342602,-0.36071566,0.12583815,-18.431252,-7.1250005,-39.80625,0.22080036,0.21570301,0.6051963,1001.3378, , , , 
2026-03-20 18:12:16.305,-0.3924229,5.4125648,11.925828,-0.027947064,-0.22999059,0.09407318,-18.375,-6.7875004,-39.84375,0.22067358,0.21109399,0.6060063,1001.3378, , , , 
2026-03-20 18:12:16.325,-0.15792629,5.15414,9.30808,0.20295982,-0.03695732,-0.047647454,-18.337502,-6.5625005,-39.99375,0.22218816,0.21067184,0.6057409,1001.3378, , , , 
2026-03-20 18:12:16.345,-0.8279166,5.197211,7.259824,0.028252495,-0.1310305,-0.14172062,-18.54375,-6.4125004,-40.050003,0.22339617,0.21140516,0.6045388,1001.3385, , , , 
2026-03-20 18:12:16.365,-0.7896315,4.833502,7.1018977,-0.2612974,-0.31917685,-0.13561198,-18.84375,-6.3,-40.125,0.22361855,0.20963746,0.603235,1001.3385, , , , 
2026-03-20 18:12:16.385,-1.0001999,4.508078,7.3028946,-0.42134398,-0.32162032,-0.08796453,-19.143751,-6.15,-40.256252,0.22288445,0.20527306,0.6022659,1001.3385, , , , 
2026-03-20 18:12:16.405,-0.6221339,4.1635113,7.9633136,-0.3846921,-0.1188132,-0.02687805,-19.48125,-6.24375,-40.21875,0.2209665,0.20113382,0.602183,1001.3385, , , , 
2026-03-20 18:12:16.425,-0.16271193,3.9720855,7.7001033,-0.17211115,0.051007207,-0.067195125,-19.612501,-6.2625003,-40.162502,0.21879847,0.1991545,0.6024391,1001.33765, , , , 
2026-03-20 18:12:16.445,-0.55034924,4.182654,7.015756,-0.056046844,0.15118903,-0.09529491,-19.63125,-6.20625,-40.18125,0.21710001,0.19932157,0.60226846,1001.33765, , , , 
2026-03-20 18:12:16.465,-0.7178468,4.388437,6.570691,-0.03527744,0.04612029,-0.068416856,-19.66875,-6.1312504,-40.143753,0.21581407,0.20023173,0.6019968,1001.33765, , , , 
2026-03-20 18:12:16.485,-0.2009971,4.651647,5.7140603,-0.07437278,-0.16279547,-0.056199558,-19.5375,-5.86875,-40.162502,0.21570185,0.19962765,0.6015565,1001.33765, , , , 
2026-03-20 18:12:16.505,0.15792629,4.8526444,6.135197,-0.046273008,-0.12125666,-0.08796453,-19.5,-5.625,-40.256252,0.21593899,0.19822782,0.60093796,1001.337, , , , 
2026-03-20 18:12:16.525,-0.3397808,5.426922,5.6470613,0.003817905,-0.16157374,-0.09773836,-19.612501,-5.53125,-40.2,0.21649586,0.19737282,0.59996414,1001.337, , , , 
2026-03-20 18:12:16.545,-0.65084773,5.9820566,4.4889355,-0.2234238,-0.5061015,-0.07086031,-19.6875,-5.4187503,-40.050003,0.21771103,0.1951341,0.5988198,1001.337, , , , 
2026-03-20 18:12:16.565,-0.7322037,6.029913,5.7284174,-0.55206907,-0.70890856,0.014660755,-19.9125,-5.2875004,-39.862503,0.21873525,0.18811755,0.5978949,1001.337, , , , 
2026-03-20 18:12:16.585,-0.6412765,5.5944195,9.226724,-0.28451028,-0.1725693,0.13805544,-20.175001,-5.2312503,-39.693752,0.21829697,0.18117462,0.5981525,1001.3368, , , , 
2026-03-20 18:12:16.605,0.023928227,5.2929235,9.877572,0.29458955,0.19883649,0.13683371,-20.38125,-5.25,-39.600002,0.21809494,0.18084764,0.5994134,1001.3368, , , , 
2026-03-20 18:12:16.625,0.08135597,6.0011992,8.145168,0.5254964,0.054672398,-0.0073303776,-20.6625,-5.25,-39.61875,0.22052962,0.18450066,0.5995441,1001.3368, , , , 
2026-03-20 18:12:16.645,-0.4354937,6.623333,7.1210403,0.3837758,-0.1640172,-0.08918626,-20.831251,-5.3625,-39.581253,0.22443397,0.18701893,0.5980969,1001.3368, , , , 
2026-03-20 18:12:16.665,-0.98584294,6.9056864,7.685746,0.23472479,-0.054061532,-0.02932151,-20.79375,-5.5687504,-39.54375,0.22751337,0.18803522,0.5966098,1001.3372, , , , 
2026-03-20 18:12:16.685,-0.94755775,6.8243303,8.365308,0.12721258,0.07666353,0.07086031,-20.737501,-5.8500004,-39.54375,0.22891751,0.18941823,0.596371,1001.3372, , , , 
2026-03-20 18:12:16.705,-0.11485548,6.876972,9.269794,-0.00962112,-3.054324E-4,0.07941242,-20.681252,-6.1312504,-39.506252,0.2291639,0.19018787,0.59702945,1001.3372, , , , 
2026-03-20 18:12:16.725,0.7704889,7.2263246,9.317652,-0.107359484,-0.24831653,-0.062308207,-20.625,-6.2625003,-39.65625,0.2295935,0.18881616,0.5969939,1001.3372, , , , 
2026-03-20 18:12:16.745,0.9619147,7.350751,10.030712,-0.17088942,-0.160352,-0.19058982,-20.60625,-6.2812505,-39.75,0.22974315,0.18642275,0.59579635,1001.33826, , , , 
2026-03-20 18:12:16.765,0.7465607,6.7908306,10.997413,-0.015729768,0.10720677,-0.2614501,-20.625,-6.15,-39.5625,0.2288417,0.1857214,0.59426457,1001.33826, , , , 
2026-03-20 18:12:16.785,0.038285162,5.8097734,11.160125,0.16508621,0.34544402,-0.2614501,-20.681252,-5.9625,-39.393753,0.22744587,0.18839563,0.5926698,1001.33826, , , , 
2026-03-20 18:12:16.805,-0.014356935,5.383851,10.116854,0.22250749,0.19883649,-0.24068072,-20.8875,-5.9437504,-39.300003,0.22670855,0.19234508,0.5910802,1001.33826, , , , 
2026-03-20 18:12:16.825,0.148355,5.1062837,9.102298,0.023365578,0.0058032153,-0.20402883,-21.13125,-6.05625,-39.412502,0.22676308,0.19427395,0.5893201,1001.3417, , , , 
2026-03-20 18:12:16.845,0.28235307,4.914858,9.456435,-0.04138609,-0.0015271619,-0.20769402,-21.225,-6.15,-39.75,0.22620054,0.19442317,0.58780783,1001.3417, , , , 
2026-03-20 18:12:16.865,0.16749759,4.9196434,8.695518,0.014813471,0.085215636,-0.21868959,-21.2625,-6.3,-39.975002,0.22540492,0.19498976,0.58632064,1001.3417, , , , 
2026-03-20 18:12:16.885,-0.19142582,4.881358,7.8484583,-0.016951498,0.07788526,-0.19669846,-21.150002,-6.39375,-40.125,0.2244354,0.1962059,0.5849396,1001.3417, , , , 
2026-03-20 18:12:16.905,-0.2727818,4.4554358,7.125826,-0.06704241,-0.052839804,-0.14660755,-20.8125,-6.4875,-40.125,0.22359368,0.19654806,0.5837426,1001.344, , , , 
2026-03-20 18:12:16.925,0.11485548,4.101298,6.5515485,-0.029168794,-0.1273653,-0.1404989,-20.41875,-6.7500005,-39.956253,0.22343355,0.19572534,0.58259016,1001.344, , , , 
2026-03-20 18:12:16.945,0.36370903,3.8811584,5.8241305,0.07223476,-0.052839804,-0.15882485,-20.081251,-7.05,-39.956253,0.2238386,0.19537403,0.58124316,1001.344, , , , 
2026-03-20 18:12:16.965,0.047856454,4.331009,5.599205,0.11499529,0.118202336,-0.20769402,-19.875,-7.2562504,-39.80625,0.22407168,0.19645722,0.57969993,1001.344, , , , 
2026-03-20 18:12:16.985,-0.52163535,4.7282176,5.369494,0.011148282,0.083993904,-0.16371176,-20.081251,-7.36875,-39.693752,0.22371326,0.19829871,0.57832515,1001.34467, , , , 
2026-03-20 18:12:17.005,-0.526421,4.7377887,6.192625,-0.11957678,-0.00641408,-0.092851445,-20.475,-7.425,-39.768753,0.22282034,0.19865127,0.5775143,1001.34467, , , , 
2026-03-20 18:12:17.025,0.2536392,4.6612186,7.0731835,-0.051159926,-0.07116575,-0.08796453,-20.643751,-7.4062505,-39.768753,0.22214556,0.19789103,0.57701594,1001.34467, , , , 
2026-03-20 18:12:17.045,-0.08135597,5.460421,6.666404,0.1565341,0.07055488,-0.10873393,-20.587502,-7.4062505,-39.862503,0.22253871,0.19804734,0.5760199,1001.34467, , , , 
2026-03-20 18:12:17.065,-0.5599205,5.986842,6.5371914,0.16019928,0.20616686,-0.018325943,-20.456251,-7.5937505,-40.050003,0.2229833,0.20039646,0.57543254,1001.3457, , , , 
2026-03-20 18:12:17.085,-0.22492532,6.0634127,7.2933235,0.0368046,0.109650224,0.0537561,-20.34375,-7.8750005,-40.143753,0.22293429,0.20231025,0.5757647,1001.3457, , , , 
2026-03-20 18:12:17.105,-0.45942193,5.8624153,9.030513,0.03924806,0.04978548,0.047647454,-20.38125,-8.231251,-40.237503,0.22277741,0.202831,0.5762847,1001.3457, , , , 
2026-03-20 18:12:17.125,-0.98584294,5.814559,9.614362,0.32757625,0.09498947,0.08918626,-20.643751,-8.7375,-40.3125,0.2237501,0.20398709,0.5765578,1001.3457, , , , 
2026-03-20 18:12:17.145,-0.91884387,5.8432727,8.819944,0.47784898,0.0962112,0.13805544,-20.775002,-8.94375,-40.36875,0.22634485,0.20693138,0.5768339,1001.34485, , , , 
2026-03-20 18:12:17.165,-0.55513483,6.0251274,7.7001033,0.42897978,-0.045509428,0.16859868,-20.643751,-8.83125,-40.331253,0.22995675,0.20959418,0.57710904,1001.34485, , , , 
2026-03-20 18:12:17.185,-0.124426775,6.5946193,6.652047,0.19929464,-0.043065965,0.18081598,-20.400002,-8.75625,-40.275,0.23332143,0.2106418,0.5775468,1001.34485, , , , 
2026-03-20 18:12:17.205,0.10049855,6.704689,8.370093,-0.06704241,0.11209369,0.17226386,-20.081251,-8.625,-40.21875,0.2340898,0.21082754,0.5788451,1001.34485, , , , 
2026-03-20 18:12:17.225,-0.25842485,6.489335,9.52822,-0.13179408,0.14385866,0.14660755,-20.0625,-8.6625,-40.0125,0.23297048,0.21085599,0.58059853,1001.34357, , , , 
2026-03-20 18:12:17.245,-0.6029913,6.1878395,9.580862,-0.2698495,0.0021380268,0.10140356,-20.1375,-8.90625,-39.84375,0.23135562,0.21006733,0.5821402,1001.34357,37.88754947,127.73748193,176.495849609375,1.42
2026-03-20 18:12:17.265,-1.1294123,5.3072805,11.002198,-0.4298961,-0.088269964,0.041538805,-20.268751,-9.056251,-39.9,0.22892967,0.20737493,0.5833393,1001.34357, , , , 
2026-03-20 18:12:17.285,-1.1437693,4.240082,12.528819,-0.14278965,-0.003970621,0.010995566,-20.268751,-9.075001,-39.9375,0.22654317,0.20460981,0.58410597,1001.34357, , , , 
2026-03-20 18:12:17.305,-1.2203395,4.091727,10.461421,0.23961172,0.044898562,-0.04886918,-19.96875,-8.85,-40.143753,0.22630976,0.20494822,0.58396536,1001.3434, , , , 
2026-03-20 18:12:17.325,-1.2394822,4.546363,7.5086775,0.18585561,-0.1310305,-0.08429934,-19.66875,-8.512501,-40.3875,0.22798762,0.2063219,0.58288383,1001.3434, , , , 
2026-03-20 18:12:17.345,-1.3926228,5.2929235,5.2833524,-0.19776747,-0.36071566,0.023212861,-19.462502,-8.19375,-40.425003,0.22951137,0.2049545,0.5818152,1001.3434, , , , 
2026-03-20 18:12:17.365,-0.971486,5.345566,5.2737813,-0.6241511,-0.16523892,0.19181155,-19.5,-7.9687505,-40.48125,0.2288188,0.2003369,0.58249193,1001.3434, , , , 
2026-03-20 18:12:17.385,-0.3589234,4.5128636,8.236095,-0.79274976,0.04612029,0.29077163,-19.725,-7.9125004,-40.443752,0.22409469,0.19520704,0.5856762,1001.34357, , , , 
2026-03-20 18:12:17.405,0.15314065,3.9290147,10.533205,-0.5227475,-0.017409647,0.21258095,-19.96875,-7.89375,-40.4625,0.21895525,0.19064008,0.58915126,1001.34357, , , , 
2026-03-20 18:12:17.425,0.047856454,4.278367,9.169296,-0.051159926,-0.10415245,0.09040799,-20.175001,-7.7625003,-40.275,0.21737054,0.18780755,0.5906576,1001.34357, , , , 
2026-03-20 18:12:17.445,-0.28235307,4.9340005,6.087341,0.12599087,0.027794348,0.05742129,-20.362501,-7.4625,-40.0125,0.21831651,0.1877832,0.5909133,1001.34357, , , , 
2026-03-20 18:12:17.465,-0.8566305,5.278567,5.3886366,-0.019394957,0.0876591,0.12583815,-20.400002,-7.1250005,-39.975002,0.21873681,0.18856062,0.5914803,1001.34467, , , , 
2026-03-20 18:12:17.485,-0.5072784,5.0105705,6.2979093,-0.15867212,0.07177661,0.20280711,-20.325,-6.76875,-39.9,0.21785142,0.18849638,0.59314793,1001.34467, , , , 
2026-03-20 18:12:17.505,-0.6269195,4.9196434,7.489535,-0.12812889,-0.06017018,0.16004658,-20.15625,-6.43125,-39.99375,0.21689184,0.18724263,0.59487104,1001.34467, , , , 
2026-03-20 18:12:17.525,-0.63170516,5.1828537,7.0731835,0.041691523,-0.09560034,0.15760311,-20.025002,-6.2250004,-40.2,0.21729235,0.18590808,0.595928,1001.34467, , , , 
2026-03-20 18:12:17.545,-0.23449662,5.2402816,6.4271216,0.10399973,0.035124727,0.16493349,-20.1375,-6.01875,-40.2,0.21849704,0.1857706,0.59690475,1001.34467, , , , 
2026-03-20 18:12:17.565,0.1052842,5.245067,6.867401,0.13332124,0.1291979,0.100181825,-20.362501,-5.68125,-40.068752,0.21915735,0.18679889,0.5979495,1001.34467, , , , 
2026-03-20 18:12:17.585,0.0526421,5.723632,7.1210403,0.21151192,0.10598504,-0.02565632,-20.53125,-5.6062503,-39.9,0.21974875,0.18881395,0.5983018,1001.34467, , , , 
2026-03-20 18:12:17.605,-0.038285162,6.2787666,6.7908306,0.21151192,-0.052839804,-0.13927718,-20.643751,-5.6062503,-39.787502,0.22113143,0.19055025,0.5973914,1001.34467, , , , 
2026-03-20 18:12:17.625,-0.32063824,6.6424756,7.2119675,0.19929464,0.021685699,-0.21380267,-20.53125,-5.7375,-39.80625,0.22261739,0.19196783,0.59562427,1001.344, , , , 
2026-03-20 18:12:17.645,-0.91884387,6.7764735,7.8149586,0.25060728,0.19639303,-0.20402883,-20.306252,-6.2250004,-39.862503,0.22332393,0.19465426,0.5938079,1001.344, , , , 
2026-03-20 18:12:17.665,-1.2586247,6.853044,7.63789,0.19196425,0.20983206,-0.13805544,-20.19375,-6.61875,-40.0125,0.22351839,0.19838198,0.5925127,1001.344, , , , 
2026-03-20 18:12:17.685,-1.6175481,6.9056864,8.729017,-0.027947064,0.110871956,-0.0537561,-20.025002,-6.99375,-40.143753,0.2231051,0.20063661,0.5918226,1001.344, , , , 
2026-03-20 18:12:17.705,-0.9810573,7.092326,9.164511,-0.1244637,-0.17134757,0.010995566,-19.743752,-7.2562504,-40.18125,0.22269724,0.20019312,0.59172463,1001.34357, , , , 
2026-03-20 18:12:17.725,0.13878371,7.240681,9.41815,-0.08170316,-0.049174614,0.03054324,-19.462502,-7.2000003,-40.275,0.22276722,0.19847701,0.5918382,1001.34357, , , , 
2026-03-20 18:12:17.744,1.0336994,7.140183,9.647861,-0.008399391,0.057115857,-0.034208428,-19.275002,-7.0312505,-40.350002,0.2223955,0.1982976,0.59206516,1001.34357, , , , 
2026-03-20 18:12:17.765,0.5982057,6.6281185,9.738789,1.527162E-4,0.054672398,-0.09529491,-19.275002,-6.9375005,-40.331253,0.22206727,0.19866356,0.5916927,1001.34357, , , , 
2026-03-20 18:12:17.785,0.22971097,5.7188463,10.222138,0.030695954,0.15485422,-0.07696896,-19.425001,-6.8250003,-40.237503,0.2214104,0.19957629,0.5912292,1001.3434, , , , 
2026-03-20 18:12:17.805,0.44506502,5.1493545,10.432707,0.027030766,0.13286309,-0.092851445,-19.59375,-6.80625,-40.237503,0.22052814,0.20097254,0.5909609,1001.3434, , , , 
2026-03-20 18:12:17.825,0.35413775,4.800002,9.992428,-0.0010690134,0.0632245,-0.15393792,-19.6875,-6.9375005,-40.21875,0.21981251,0.2018105,0.59024984,1001.3434, , , , 
2026-03-20 18:12:17.845,-0.16749759,4.74736,9.729217,-0.024281874,0.16951497,-0.21258095,-19.66875,-7.05,-40.256252,0.21867155,0.20271201,0.5891411,1001.3434, , , , 
2026-03-20 18:12:17.865,-0.7513463,4.7856455,9.317652,-0.0108428495,0.21349724,-0.18814635,-19.66875,-7.05,-40.3875,0.21683884,0.20442818,0.58805734,1001.34424, , , , 
2026-03-20 18:12:17.885,-1.2251252,4.843073,8.413164,-0.03527744,0.17928882,-0.10995566,-19.6875,-7.1625004,-40.518753,0.21508747,0.20613793,0.5873419,1001.34424, , , , 
2026-03-20 18:12:17.905,-0.91884387,4.718646,7.609176,-0.12202024,-0.032070402,-0.035430156,-19.650002,-7.2937503,-40.631252,0.21372749,0.20667069,0.5871774,1001.34424, , , , 
2026-03-20 18:12:17.925,-0.124426775,4.4889355,7.3603225,-0.114689864,-0.19944735,-0.043982264,-19.518751,-7.18125,-40.6875,0.21333745,0.20500703,0.5869385,1001.34424, , , , 
2026-03-20 18:12:17.945,0.24885355,4.359723,6.546763,0.08567379,-0.07116575,-0.11117739,-19.35,-7.0875,-40.6875,0.21395989,0.20369641,0.58609873,1001.34485, , , , 
2026-03-20 18:12:17.965,-0.086141616,4.5224347,5.733203,0.19929464,0.10720677,-0.15027274,-19.10625,-7.2000003,-40.612503,0.21469653,0.20502892,0.5848551,1001.34485, , , , 
2026-03-20 18:12:17.985,-0.5599205,4.847859,5.278567,0.14676027,0.07788526,-0.11362085,-19.03125,-7.2562504,-40.5,0.21518344,0.20746735,0.58369666,1001.34485, , , , 
2026-03-20 18:12:18.005,-0.29192436,4.9722853,5.680561,-0.015729768,-0.19578215,-0.07086031,-19.050001,-7.4812503,-40.40625,0.21582659,0.20791861,0.5827694,1001.34485, , , , 
2026-03-20 18:12:18.025,0.148355,4.996214,6.0107703,-0.056046844,-0.3179551,-0.07086031,-18.993752,-7.7625003,-40.443752,0.21701443,0.2057804,0.5817732,1001.34546, , , , 
2026-03-20 18:12:18.045,0.15314065,5.0440702,6.4941206,-0.04382955,-0.23487751,-0.07574723,-19.29375,-7.8187504,-40.5,0.21824707,0.20333879,0.58067614,1001.34546, , , , 
2026-03-20 18:12:18.065,-0.27756742,5.096712,7.9011,0.22006404,0.20861033,-0.035430156,-19.5,-7.8,-40.48125,0.21874428,0.20351964,0.58003396,1001.34546, , , , 
2026-03-20 18:12:18.085,-0.33020952,5.312066,7.7479596,0.46196648,0.35033095,0.02443459,-19.575,-7.8562503,-40.5,0.21958965,0.2076051,0.5799491,1001.34546, , , , 
2026-03-20 18:12:18.105,-0.43070808,5.7284174,6.6568327,0.42409286,0.19394957,0.035430156,-19.650002,-8.0625,-40.48125,0.22157763,0.21251543,0.57983947,1001.3457, , , , 
2026-03-20 18:12:18.125,-0.9379865,5.953343,7.164111,0.16630794,-0.054061532,0.06963859,-19.40625,-8.34375,-40.55625,0.22364174,0.214854,0.57967323,1001.3457, , , , 
2026-03-20 18:12:18.145,-1.0432707,5.8337016,8.676374,0.09666935,-0.11636974,0.15515965,-19.125,-8.775001,-40.575,0.22530158,0.21465951,0.57997966,1001.3457, , , , 
2026-03-20 18:12:18.165,-0.4019942,5.8193445,9.590433,0.21639885,-0.062613636,0.20891576,-18.91875,-9.243751,-40.518753,0.22724342,0.21426973,0.58082193,1001.3457, , , , 
2026-03-20 18:12:18.185,0.6221339,6.0777693,9.040084,0.3263545,0.0033597562,0.13072506,-18.6375,-9.431251,-40.4625,0.22989139,0.2151269,0.5815588,1001.34546, , , , 
2026-03-20 18:12:18.205,0.6939186,6.771688,7.690532,0.17974696,0.097432934,-0.018325943,-18.675001,-9.50625,-40.3875,0.2320303,0.2170155,0.5815381,1001.34546, , , , 
2026-03-20 18:12:18.225,-0.8135597,7.082755,7.5469627,-0.23564109,0.09010255,-0.05253437,-18.825,-9.525001,-40.443752,0.23165585,0.217979,0.58138686,1001.34546, , , , 
2026-03-20 18:12:18.245,-1.6941184,6.570691,9.489935,-0.5740602,0.11453715,0.09773836,-18.975,-9.50625,-40.5,0.22809611,0.21647874,0.5825205,1001.34546,37.887557,127.7374945,176.3970947265625,1.41
2026-03-20 18:12:18.265,-1.5840486,5.56092,11.08834,-0.83795375,-0.26664248,0.16493349,-19.087502,-9.5625,-40.518753,0.22343534,0.21163158,0.5848796,1001.3457, , , , 
2026-03-20 18:12:18.285,-0.5072784,4.599005,12.94517,-0.58139056,-0.52564913,0.14172062,-19.0125,-9.46875,-40.55625,0.22017577,0.20341492,0.5868328,1001.3457, , , , 
2026-03-20 18:12:18.305,0.37328035,4.584648,11.480763,-0.059712034,-0.19822562,0.014660755,-18.975,-9.13125,-40.443752,0.21992792,0.19754612,0.5873303,1001.3457, , , , 
2026-03-20 18:12:18.325,0.0,5.144569,9.346365,0.20784675,0.22327107,-0.11728604,-19.125,-8.6625,-40.36875,0.22033216,0.19809042,0.5868249,1001.3457, , , , 
2026-03-20 18:12:18.345,-0.61734825,5.474778,7.752745,0.0697913,0.12553272,-0.13805544,-19.59375,-8.3625,-40.256252,0.2200707,0.20091382,0.58592755,1001.34674, , , , 
2026-03-20 18:12:18.365,-0.72263247,5.245067,7.470392,-0.22220206,-3.054324E-4,-0.1075122,-20.00625,-8.25,-40.03125,0.21907447,0.2011843,0.58522135,1001.34674, , , , 
2026-03-20 18:12:18.385,-1.1485549,4.8047876,8.9348,-0.28939718,0.013133593,-0.034208428,-20.04375,-8.212501,-39.91875,0.21673144,0.19983934,0.5851709,1001.34674, , , , 
2026-03-20 18:12:18.405,-0.7322037,4.3262234,9.3511505,-0.08536835,-0.05650499,0.03054324,-19.9125,-8.175,-39.84375,0.21505056,0.19845626,0.5855559,1001.34674, , , , 
2026-03-20 18:12:18.425,0.3684947,4.206582,7.8484583,0.16264275,-0.107817635,-0.0036651888,-19.59375,-8.00625,-39.80625,0.21582286,0.19783811,0.58546543,1001.3476, , , , 
2026-03-20 18:12:18.445,0.53599226,4.402794,5.905486,0.22250749,-0.09926552,-0.12583815,-19.3875,-7.7812505,-39.862503,0.21796992,0.1983137,0.58437103,1001.3476, , , , 
2026-03-20 18:12:18.465,0.20578274,4.7042894,4.9579287,0.13209951,-0.14935644,-0.194255,-19.35,-7.70625,-39.91875,0.21990736,0.1988495,0.58252466,1001.3476, , , , 
2026-03-20 18:12:18.485,0.22492532,4.8191447,4.694718,0.009926553,-0.13591741,-0.22601996,-19.35,-7.6687503,-39.956253,0.2210923,0.19864209,0.5804629,1001.3476, , , , 
2026-03-20 18:12:18.505,0.11964113,4.948357,5.407779,-0.075594515,-0.06750056,-0.25778493,-19.48125,-7.5937505,-39.91875,0.22102872,0.19825086,0.57851017,1001.34827, , , , 
2026-03-20 18:12:18.525,-0.34456646,5.2977095,6.058627,-0.07315106,-0.08093958,-0.27366742,-19.63125,-7.6312504,-39.9375,0.22042537,0.19787568,0.5764532,1001.34827, , , , 
2026-03-20 18:12:18.545,-0.10049855,5.5465627,6.4175506,-0.03161225,-0.11514801,-0.26267186,-19.7625,-7.6687503,-39.956253,0.22009203,0.19743903,0.57433003,1001.34827, , , , 
2026-03-20 18:12:18.565,-0.2009971,5.852844,6.4797635,-0.04138609,-0.12247839,-0.27122396,-19.6875,-7.74375,-39.9,0.22010356,0.1970205,0.5720882,1001.34827, , , , 
2026-03-20 18:12:18.585,-0.062213387,5.962914,7.4129643,-0.0707076,-0.13591741,-0.2858847,-19.5375,-7.93125,-39.91875,0.2199839,0.1963429,0.5698234,1001.34827, , , , 
2026-03-20 18:12:18.605,0.43070808,6.005985,8.532805,0.013591741,-0.205556,-0.3762927,-19.48125,-8.00625,-39.787502,0.21998061,0.1955793,0.5671819,1001.34827, , , , 
2026-03-20 18:12:18.625,0.27756742,6.245267,9.08794,0.14309508,-0.2800815,-0.5045743,-19.425001,-8.08125,-39.600002,0.22108644,0.19490075,0.56318194,1001.34827, , , , 
2026-03-20 18:12:18.645,0.37328035,6.317052,9.303294,0.37888888,-0.1432478,-0.56321734,-19.612501,-8.25,-39.54375,0.2232724,0.19560632,0.558098,1001.34827, , , , 
2026-03-20 18:12:18.665,0.11964113,6.3792653,8.52802,0.5352703,0.029016078,-0.6157517,-19.81875,-8.4375,-39.43125,0.22611316,0.19906142,0.5524841,1001.3476, , , , 
2026-03-20 18:12:18.685,-0.66041905,6.661618,8.111669,0.38744098,-3.054324E-4,-0.5986475,-19.931252,-8.90625,-39.225002,0.22855818,0.20353882,0.5467884,1001.3476, , , , 
2026-03-20 18:12:18.705,-0.6221339,6.9009004,8.580662,0.11133011,-0.31428993,-0.5326741,-20.04375,-9.450001,-39.09375,0.23025233,0.20540838,0.5414828,1001.3476, , , , 
2026-03-20 18:12:18.725,0.6364908,6.9152575,9.456435,-0.10980295,-0.38515025,-0.5290089,-20.0625,-9.95625,-38.925003,0.23130699,0.20361598,0.5365683,1001.3476, , , , 
2026-03-20 18:12:18.745,1.0289137,6.7669024,10.944771,-0.07315106,-0.22021675,-0.64262974,-20.04375,-10.368751,-38.8875,0.23096849,0.20165586,0.5315808,1001.3474, , , , 
2026-03-20 18:12:18.765,0.5694918,6.125626,11.217552,0.024587307,-0.18112141,-0.7525854,-20.025002,-10.556251,-38.98125,0.23033223,0.20137915,0.52578706,1001.3474, , , , 
2026-03-20 18:12:18.785,0.26799613,5.814559,10.49492,0.09789108,-0.35338527,-0.74647677,-20.04375,-10.70625,-39.018753,0.23054062,0.20127364,0.51906615,1001.3474, , , , 
2026-03-20 18:12:18.805,1.3495519,5.5369916,8.9826565,0.064904384,-0.38026333,-0.7342595,-20.118752,-10.9875,-38.98125,0.23185822,0.20010611,0.51214254,1001.3474, , , , 
2026-03-20 18:12:18.825,1.1389836,5.3072805,9.044869,0.04046979,-0.11514801,-0.7367029,-20.23125,-11.3625,-38.90625,0.23214844,0.19974142,0.50552094,1001.34845, , , , 
2026-03-20 18:12:18.845,1.0336994,5.163711,9.016156,0.023365578,-0.0650571,-0.7489202,-20.2875,-11.83125,-38.79375,0.23132652,0.20097348,0.49939257,1001.34845, , , , 
2026-03-20 18:12:18.865,0.55034924,5.015356,8.724232,-0.11102467,-0.21777329,-0.7733548,-20.325,-12.262501,-38.68125,0.23018812,0.20140427,0.49302807,1001.34845, , , , 
2026-03-20 18:12:18.885,0.10049855,4.642076,9.174082,-0.2319759,-0.46089748,-0.7855721,-20.362501,-12.731251,-38.550003,0.2287687,0.19943163,0.4862896,1001.34845, , , , 
2026-03-20 18:12:18.905,-0.13399807,4.316652,9.461221,-0.08170316,-0.56718796,-0.74158984,-20.4375,-13.14375,-38.381252,0.22819921,0.19579856,0.47915864,1001.3491, , , , 
2026-03-20 18:12:18.925,0.79441714,4.0534415,7.877172,0.2554942,-0.4535671,-0.75502884,-20.493752,-13.368751,-38.34375,0.2298935,0.19323526,0.47173807,1001.3491, , , , 
2026-03-20 18:12:18.945,0.90448695,4.0773697,6.2691956,0.41187558,-0.3167334,-0.8503238,-20.550001,-13.668751,-38.34375,0.23302035,0.19324583,0.46361095,1001.3491, , , , 
2026-03-20 18:12:18.965,0.22492532,4.388437,5.0919266,0.3349066,-0.3423897,-0.8955278,-20.681252,-13.9875,-38.2125,0.23613107,0.19442473,0.45481384,1001.3491, , , , 
2026-03-20 18:12:18.985,-0.2440679,4.584648,5.5369916,0.1443168,-0.40103272,-0.8124502,-20.737501,-14.475,-38.006252,0.23828062,0.194321,0.44616625,1001.34955, , , , 
2026-03-20 18:12:19.005,-0.27756742,4.613362,6.5659056,0.14798199,-0.35705048,-0.74647677,-20.962502,-15.243751,-37.425003,0.23960623,0.19354002,0.43842515,1001.34955, , , , 
2026-03-20 18:12:19.025,-0.26799613,4.6372905,7.173682,0.29581127,-0.3252855,-0.7024945,-21.2625,-15.993751,-36.84375,0.24145392,0.19319816,0.43107885,1001.34955, , , , 
2026-03-20 18:12:19.045,0.0047856453,4.7952166,6.7525454,0.491288,-0.30573782,-0.68905544,-21.31875,-16.556252,-36.45,0.24479714,0.19375977,0.4236953,1001.34955, , , , 
2026-03-20 18:12:19.065,-0.148355,5.2163534,5.800202,0.48640108,-0.20799945,-0.65851223,-21.225,-17.1,-36.075,0.24895549,0.1953037,0.41633227,1001.3487, , , , 
2026-03-20 18:12:19.085,-0.49292147,5.4317074,6.6711893,0.34468046,-0.1847866,-0.5571087,-21.018751,-17.6625,-35.8875,0.25214756,0.19697863,0.4098193,1001.3487, , , , 
2026-03-20 18:12:19.105,-0.25842485,5.508278,7.757531,0.3434587,-0.24709481,-0.5070178,-20.75625,-18.150002,-35.71875,0.2548724,0.19773823,0.40407503,1001.3487, , , , 
2026-03-20 18:12:19.125,0.05742774,5.6997037,8.149954,0.4949532,-0.22510368,-0.505796,-20.75625,-18.862501,-35.5875,0.25834942,0.19849113,0.39837953,1001.3487, , , , 
2026-03-20 18:12:19.145,-0.37806597,6.096912,7.408179,0.51450086,-0.15668681,-0.5167916,-20.75625,-19.612501,-35.5125,0.26261386,0.20013237,0.3924457,1001.34717, , , , 
2026-03-20 18:12:19.165,-0.8757731,6.5946193,7.3363943,0.3678933,-0.094378605,-0.40683594,-20.7,-20.175001,-35.5125,0.2661667,0.20203258,0.38706377,1001.34717, , , , 
2026-03-20 18:12:19.185,-0.43070808,6.704689,7.8149586,0.17974696,-0.1273653,-0.2809978,-20.71875,-20.7,-35.49375,0.2683914,0.20317814,0.38327754,1001.34717, , , , 
2026-03-20 18:12:19.205,0.2009971,6.7525454,8.5423765,-0.0010690134,-0.27030766,-0.28221953,-20.5125,-21.09375,-35.34375,0.2694481,0.20248817,0.38027725,1001.34717, , , , 
2026-03-20 18:12:19.225,-0.0526421,6.6568327,9.341579,-0.091477,-0.29718572,-0.37995788,-20.493752,-21.337502,-35.15625,0.2695557,0.20028584,0.37680116,1001.3444, , , , 
2026-03-20 18:12:19.245,-1.3351951,6.5371914,10.466207,-0.029168794,-0.18234314,-0.36896232,-20.587502,-21.65625,-34.893753,0.26897472,0.19885276,0.37298796,1001.3444,37.887564,127.7375064,176.1429443359375,1.36
2026-03-20 18:12:19.265,-0.9810573,6.273981,9.303294,0.031917684,-0.32039857,-0.30787584,-20.5125,-21.9375,-34.66875,0.26922676,0.19762522,0.3693913,1001.3444, , , , 
2026-03-20 18:12:19.285,-0.61734825,5.910272,8.26481,-0.16233732,-0.399811,-0.3677406,-20.60625,-22.143751,-34.518753,0.2695946,0.19524819,0.3657016,1001.3444, , , , 
2026-03-20 18:12:19.305,-0.76570326,5.4412785,8.867801,-0.3113883,-0.57574004,-0.4007273,-20.85,-22.40625,-34.275,0.26850682,0.19124395,0.36155316,1001.3434, , , , 
2026-03-20 18:12:19.325,-0.038285162,4.910072,9.020942,-0.29061893,-0.5708531,-0.44715303,-20.94375,-22.612501,-34.125,0.26703545,0.18589345,0.35694078,1001.3434, , , , 
2026-03-20 18:12:19.345,0.37806597,4.666004,8.556734,-0.24297146,-0.5158753,-0.5888736,-21.112501,-22.81875,-33.881252,0.26566726,0.18132876,0.35155377,1001.3434, , , , 
2026-03-20 18:12:19.365,0.14356937,4.6564326,8.355737,-0.26740605,-0.46944958,-0.7037162,-21.375,-23.0625,-33.675003,0.2639713,0.17760697,0.34498253,1001.3434, , , , 
2026-03-20 18:12:19.385,0.009571291,4.493721,8.700303,-0.28206682,-0.41325003,-0.77946347,-21.50625,-23.2875,-33.693752,0.26163116,0.17454265,0.3377845,1001.34296, , , , 
2026-03-20 18:12:19.405,-0.2440679,4.402794,8.705089,-0.25885394,-0.458454,-0.835663,-21.675001,-23.41875,-33.73125,0.25914678,0.17168632,0.3299787,1001.34296, , , , 
2026-03-20 18:12:19.425,-0.61734825,4.4602213,8.987442,-0.13790272,-0.45234537,-0.85521066,-21.900002,-23.550001,-33.80625,0.25713897,0.16892715,0.32158843,1001.34296, , , , 
2026-03-20 18:12:19.445,-0.49292147,4.599005,8.365308,0.062460925,-0.40103272,-0.84054995,-21.862501,-23.493752,-33.825,0.2566264,0.16704123,0.3129835,1001.34296, , , , 
2026-03-20 18:12:19.465,-0.37806597,4.871787,6.9296145,0.16142102,-0.399811,-0.8588759,-21.675001,-23.362501,-33.787502,0.25755402,0.16592304,0.30411962,1001.34314, , , , 
2026-03-20 18:12:19.485,-0.6221339,5.005785,6.1399827,0.11255184,-0.42913252,-0.84421515,-21.54375,-23.34375,-33.65625,0.25875637,0.16481128,0.2951109,1001.34314, , , , 
2026-03-20 18:12:19.505,-0.61734825,4.9531426,6.2261243,0.034361143,-0.4951059,-0.8136719,-21.5625,-23.7,-33.45,0.25943816,0.16302887,0.2863273,1001.34314, , , , 
2026-03-20 18:12:19.525,-0.49292147,4.8861437,6.5371914,0.05146536,-0.53297955,-0.82100224,-21.6375,-24.206251,-33.24375,0.2599392,0.16049962,0.27754453,1001.34314, , , , 
2026-03-20 18:12:19.545,-0.7609176,5.063213,6.5276203,0.13209951,-0.521984,-0.8271109,-21.5625,-24.768751,-33.0,0.26091602,0.15799981,0.26847965,1001.3427, , , , 
2026-03-20 18:12:19.565,-0.90448695,5.3982077,6.2548385,0.16997312,-0.48411033,-0.79168075,-21.46875,-25.425001,-32.60625,0.2624796,0.15587482,0.25945136,1001.3427, , , , 
2026-03-20 18:12:19.585,-0.83748794,5.5704913,6.513263,0.18585561,-0.43890634,-0.77213305,-21.28125,-25.875002,-32.23125,0.2641609,0.15409212,0.2507954,1001.3427, , , , 
2026-03-20 18:12:19.605,-0.8566305,5.7954164,6.719046,0.22128576,-0.41202828,-0.77946347,-21.056252,-26.550001,-31.9125,0.26596692,0.15276869,0.24228407,1001.3427, , , , 
2026-03-20 18:12:19.625,-1.253839,6.4127645,7.015756,0.14309508,-0.51343185,-0.7843504,-21.0375,-27.243752,-31.593752,0.26771706,0.15125696,0.23355275,1001.34125, , , , 
2026-03-20 18:12:19.645,-1.0049855,6.7573314,7.944171,0.08811724,-0.52564913,-0.72692907,-21.09375,-27.69375,-31.35,0.26896143,0.14854561,0.22491588,1001.34125, , , , 
2026-03-20 18:12:19.665,-0.5694918,6.6089764,9.159725,0.20540328,-0.40103272,-0.6902772,-21.075,-28.125002,-31.181252,0.27024555,0.14636816,0.2169557,1001.34125, , , , 
2026-03-20 18:12:19.685,-0.4881358,6.690332,8.513663,0.23961172,-0.40347618,-0.7330377,-20.962502,-28.331251,-31.050001,0.27242368,0.14511433,0.20904145,1001.34125, , , , 
2026-03-20 18:12:19.705,-1.1102697,7.1210403,8.30788,0.013591741,-0.57574004,-0.7171553,-20.85,-28.500002,-30.768751,0.27391812,0.14306797,0.20070113,1001.3406, , , , 
2026-03-20 18:12:19.725,-0.4354937,7.283752,8.953942,-0.18432845,-0.5574141,-0.6695078,-20.625,-28.81875,-30.54375,0.2734736,0.13914135,0.19277354,1001.3406, , , , 
2026-03-20 18:12:19.745,-0.29192436,7.1688967,10.365707,-0.25030184,-0.47800168,-0.72204214,-20.475,-29.156252,-30.35625,0.27143428,0.13578518,0.18530783,1001.3406, , , , 
2026-03-20 18:12:19.765,-0.4354937,6.518049,11.251052,-0.1452331,-0.57818353,-0.74281156,-20.34375,-29.56875,-30.056252,0.26942277,0.1322604,0.17730573,1001.3406, , , , 
2026-03-20 18:12:19.785,-0.45942193,5.8767724,11.356337,0.03924806,-0.5745183,-0.7305943,-20.00625,-29.85,-29.962502,0.26879862,0.12855573,0.16884127,1001.3397, , , , 
2026-03-20 18:12:19.805,0.7322037,5.4317074,10.112068,0.17974696,-0.5842922,-0.7012728,-19.81875,-30.150002,-29.906252,0.26983818,0.12496038,0.16046171,1001.3397, , , , 
2026-03-20 18:12:19.825,1.3208381,5.139783,8.843872,0.14553854,-0.5403099,-0.77457654,-19.875,-30.6,-29.79375,0.27147362,0.121524714,0.15182352,1001.3397, , , , 
2026-03-20 18:12:19.845,0.79920274,5.0344987,9.4229355,0.062460925,-0.44745845,-0.84421515,-19.96875,-31.0125,-29.718752,0.27210483,0.11895686,0.14272776,1001.3397, , , , 
2026-03-20 18:12:19.865,0.49292147,4.991428,9.446864,0.08933897,-0.43524116,-0.86987144,-20.23125,-31.556252,-29.531252,0.27233836,0.11701177,0.13336723,1001.3397, , , , 
2026-03-20 18:12:19.885,-0.009571291,4.881358,9.19801,0.07467822,-0.490219,-0.9016364,-20.362501,-32.1375,-29.325,0.27263603,0.1150037,0.12365728,1001.3397, , , , 
2026-03-20 18:12:19.905,-0.7513463,4.8239303,9.116654,0.08567379,-0.535423,-0.84421515,-20.15625,-32.41875,-29.156252,0.2728686,0.1124161,0.11377609,1001.3397, , , , 
2026-03-20 18:12:19.925,-0.64606214,4.479364,8.719446,0.24205516,-0.5513055,-0.7696896,-19.725,-32.662502,-28.95,0.27382737,0.1095682,0.10451662,1001.3397, , , , 
2026-03-20 18:12:19.945,-0.64606214,4.5942197,7.456035,0.3923279,-0.5317578,-0.7391464,-19.21875,-32.8875,-28.7625,0.2764348,0.106711045,0.095494315,1001.3408, , , , 
2026-03-20 18:12:19.965,-0.5886344,4.790431,6.3218374,0.43020153,-0.5525272,-0.69638586,-18.91875,-33.2625,-28.48125,0.28014904,0.10390373,0.08670283,1001.3408, , , , 
2026-03-20 18:12:19.985,-0.5982057,4.9435716,5.6997037,0.3434587,-0.51343185,-0.62552553,-18.806252,-33.862503,-28.218752,0.2838071,0.10087284,0.07842564,1001.3408, , , , 
2026-03-20 18:12:20.005,-0.74177504,4.900501,6.1495543,0.2677115,-0.4083631,-0.537561,-18.806252,-34.425003,-27.825,0.28659344,0.09827912,0.07116626,1001.3408, , , , 
2026-03-20 18:12:20.025,-0.74177504,4.895715,6.853044,0.24205516,-0.36926776,-0.478918,-18.712502,-35.04375,-27.31875,0.28880337,0.09619208,0.06495826,1001.3425, , , , 
2026-03-20 18:12:20.045,-0.4977071,4.7042894,7.948957,0.3715585,-0.39003715,-0.45570514,-18.300001,-35.325,-26.868752,0.29129112,0.09407122,0.0592019,1001.3425, , , , 
2026-03-20 18:12:20.065,-0.3397808,4.776074,7.2550383,0.5694787,-0.3338376,-0.4752528,-17.85,-35.475002,-26.493752,0.29547969,0.0919445,0.053255476,1001.3425, , , , 
2026-03-20 18:12:20.086,-0.8662018,5.0105705,6.74776,0.6049088,-0.26175556,-0.4581486,-17.625,-35.831253,-26.175001,0.30080307,0.090784304,0.047355294,1001.3425, , , , 
2026-03-20 18:12:20.105,-0.75613195,5.144569,6.9535427,0.5914698,-0.3167334,-0.41416633,-17.550001,-36.16875,-25.875002,0.30620816,0.089682534,0.041837856,1001.3434, , , , 
2026-03-20 18:12:20.125,-0.16749759,5.2977095,7.173682,0.6525563,-0.309403,-0.41294459,-17.625,-36.65625,-25.518751,0.31175292,0.08801314,0.036443766,1001.3434, , , , 
2026-03-20 18:12:20.145,-0.27756742,5.584848,6.652047,0.6904299,-0.14202607,-0.45692685,-17.625,-37.143753,-25.06875,0.31792632,0.087282985,0.03100455,1001.3434, , , , 
2026-03-20 18:12:20.165,-0.9092726,6.202196,6.3888364,0.5389354,-0.010079269,-0.37873617,-17.5125,-37.5,-24.562502,0.32365212,0.08806784,0.026093798,1001.3434, , , , 
2026-03-20 18:12:20.185,-0.5982057,6.4271216,7.0731835,0.2933678,0.0070249448,-0.28710645,-17.362501,-37.818752,-24.056252,0.3275749,0.089297354,0.022594493,1001.3434, , , , 
2026-03-20 18:12:20.205,0.05742774,6.7908306,7.379465,0.028252495,-0.13347395,-0.24556763,-16.987501,-38.268753,-23.587502,0.32909954,0.08950385,0.019787459,1001.3434, , , , 
2026-03-20 18:12:20.225,-0.21535404,6.474978,8.499306,-0.29672757,-0.18112141,-0.29199335,-16.5375,-38.71875,-23.175001,0.32767695,0.088758156,0.01693342,1001.3434, , , , 
2026-03-20 18:12:20.245,-1.2059826,6.111269,10.021141,-0.50197816,-0.21899502,-0.284663,-16.237501,-39.15,-22.875,0.32355294,0.08756109,0.013816297,1001.3434,37.88756554,127.73752006,175.9610595703125,1.37
2026-03-20 18:12:20.265,-1.9334008,5.608776,11.542976,-0.52763444,-0.19456044,-0.23823726,-16.06875,-39.506252,-22.725,0.31821737,0.086434975,0.011112174,1001.34296, , , , 
2026-03-20 18:12:20.285,-1.9525433,5.1924253,12.126825,-0.34070984,-0.490219,-0.16493349,-16.050001,-39.487503,-22.800001,0.3133766,0.08434146,0.008622437,1001.34296, , , , 
2026-03-20 18:12:20.305,-0.8135597,5.139783,10.3848505,-0.16844596,-0.6380483,-0.18325943,-16.050001,-39.300003,-23.04375,0.3105251,0.07934044,0.005456348,1001.34296, , , , 
2026-03-20 18:12:20.325,-0.60777694,5.0392847,9.164511,-0.102472566,-0.48411033,-0.284663,-15.900001,-39.018753,-23.38125,0.3089896,0.07443424,0.0015695404,1001.34296, , , , 
2026-03-20 18:12:20.345,-0.9906286,4.9866424,8.499306,-0.09880738,-0.41935867,-0.30298892,-15.806251,-38.831253,-23.775002,0.30778685,0.07108898,-0.002580931,1001.34424, , , , 
2026-03-20 18:12:20.365,-0.66041905,4.871787,7.8867435,-0.1904371,-0.4914407,-0.3090976,-15.806251,-38.8875,-23.737501,0.30616206,0.067688204,-0.006743479,1001.34424, , , , 
2026-03-20 18:12:20.385,-0.75613195,4.6372905,7.752745,-0.25763223,-0.458454,-0.36285368,-15.88125,-38.90625,-23.550001,0.30366498,0.06397189,-0.011269212,1001.34424, , , , 
