Time,Accel_X,Accel_Y,Accel_Z,Gyro_X,Gyro_Y,Gyro_Z,Mag_X,Mag_Y,Mag_Z,Orient_X,Orient_Y,Orient_Z,Pressure,Lat,Lng,Alt,Speed
2026-03-20 17:59:45.952,0.9523434,6.216553,6.9966135,-0.015577052,0.39431322,0.101708986,-33.80625,-10.856251,-29.081251,0.29731664,-0.08676718,-0.17063816,1001.19507,37.88749591,127.73738146,177.284423828125,0.0
2026-03-20 17:59:45.972,0.5168497,5.7762737,7.7383885,-0.44196066,0.30024004,0.12614357,-34.162502,-10.5375,-29.437502,0.29461965,-0.07990991,-0.16660431,1001.19507, , , , 
2026-03-20 17:59:45.992,0.4354937,5.85763,8.590233,-0.5189296,0.116980605,0.06627883,-34.162502,-10.425,-29.868752,0.29015884,-0.07757148,-0.16564067,1001.19507, , , , 
2026-03-20 17:59:46.012,0.6221339,5.7523456,8.499306,-0.4016436,0.10476331,0.12614357,-33.9375,-10.2375,-30.337502,0.28583375,-0.07618894,-0.16484639,1001.19824, , , , 
2026-03-20 17:59:46.032,1.1724831,5.8337016,7.623533,-0.4138609,0.22082762,0.12247839,-33.9,-10.181251,-30.431252,0.2823295,-0.07452752,-0.16346662,1001.19824, , , , 
2026-03-20 17:59:46.052,1.3734802,5.986842,8.360522,-0.5067123,0.4150826,0.068722285,-33.881252,-9.88125,-30.618752,0.2784254,-0.071113735,-0.16194743,1001.19824, , , , 
2026-03-20 17:59:46.072,1.8233309,5.407779,8.906086,-0.47861254,0.6191115,-0.05222894,-33.91875,-9.618751,-30.656252,0.27448127,-0.065611616,-0.16070259,1001.19824, , , , 
2026-03-20 17:59:46.092,1.3926228,5.1876397,8.848659,-0.3735438,0.88789195,-0.2819141,-33.787502,-8.962501,-31.143751,0.27172554,-0.05731935,-0.16042216,1001.20355, , , , 
2026-03-20 17:59:46.112,0.72263247,6.4941206,9.174082,-0.32467464,0.9966259,-0.39920014,-33.581253,-8.71875,-31.25625,0.2701544,-0.047013327,-0.16144764,1001.20355, , , , 
2026-03-20 17:59:46.132,-0.52163535,7.6666036,9.858429,-0.35399613,0.9269873,-0.092546016,-33.09375,-8.4375,-31.612501,0.26880497,-0.03638288,-0.16157784,1001.20355, , , , 
2026-03-20 17:59:46.152,-1.6462619,6.7908306,8.752945,-0.53114694,0.6655372,0.503658,-32.456253,-8.212501,-32.287502,0.26603648,-0.02890634,-0.15750514,1001.20355, , , , 
2026-03-20 17:59:46.172,-1.9716859,4.354937,7.733603,-0.9782999,0.7290671,0.7968731,-31.743752,-8.15625,-32.925003,0.2598334,-0.022668168,-0.14910147,1001.2086, , , , 
2026-03-20 17:59:46.192,-1.2107682,4.6755753,8.786445,-1.3106104,0.27091852,0.54519683,-31.63125,-8.0625,-33.1875,0.24961281,-0.01718324,-0.1410138,1001.2086, , , , 
2026-03-20 17:59:46.212,0.3684947,4.9770713,8.939586,-1.4792091,-0.5158753,0.2849684,-31.406252,-7.5375004,-33.75,0.23615874,-0.016899353,-0.13728394,1001.2086, , , , 
2026-03-20 17:59:46.232,0.41156548,4.5894337,9.19801,-1.7088943,-1.0668753,-0.1291979,-31.687502,-6.3,-34.350002,0.2195946,-0.023473455,-0.13885096,1001.2086, , , , 
2026-03-20 17:59:46.252,-0.8709874,4.723432,9.312865,-1.8713843,-1.0693188,-0.3527744,-32.175003,-5.1937504,-34.706253,0.20095812,-0.030800821,-0.14402212,1001.2205, , , , 
2026-03-20 17:59:46.272,-3.0197423,3.818945,10.183853,-1.8774929,-0.26664248,-0.16096286,-32.5125,-4.5750003,-34.74375,0.18167007,-0.03509017,-0.14916345,1001.2205, , , , 
2026-03-20 17:59:46.292,-0.57906306,2.5220351,10.059426,-1.7712024,0.60689414,0.23732096,-33.65625,-2.60625,-34.2,0.16431336,-0.028911341,-0.14868763,1001.2205, , , , 
2026-03-20 17:59:46.312,0.15314065,1.1389836,10.351351,-1.4926481,-0.043065965,0.24953826,-34.068752,-1.10625,-33.787502,0.14815938,-0.024036884,-0.14616856,1001.2205, , , , 
2026-03-20 17:59:46.332,0.0526421,1.134198,10.671989,-0.9294308,-0.101708986,-0.092546016,-33.975002,0.58125,-33.318752,0.13555914,-0.023440504,-0.14547755,1001.2463, , , , 
2026-03-20 17:59:46.352,0.60777694,1.5601203,11.629118,-0.11453715,-0.120034926,-0.54458594,-33.7125,1.4625001,-33.112503,0.12993988,-0.023041934,-0.14874265,1001.2463, , , , 
2026-03-20 17:59:46.372,-0.36370903,1.1389836,12.251252,1.0045671,-0.64293516,-0.6423243,-33.09375,2.9625,-32.831253,0.13368627,-0.026435496,-0.15575044,1001.2463, , , , 
2026-03-20 17:59:46.392,0.16271193,1.9860427,11.222338,2.5573854,-0.67103493,0.05650499,-32.362503,4.4437504,-32.268753,0.14981318,-0.035098754,-0.1588697,1001.2463, , , , 
2026-03-20 17:59:46.412,-2.2875385,0.6412765,10.959127,3.6667159,-0.8970549,0.40469792,-32.2125,4.6687503,-31.987501,0.17841011,-0.048000924,-0.1568569,1001.2516, , , , 
2026-03-20 17:59:46.432,0.47856453,1.2777673,5.6039906,4.487718,-0.35582873,0.9459241,-32.325,4.3500004,-31.500002,0.21649007,-0.064020604,-0.14939164,1001.2516, , , , 
2026-03-20 17:59:46.452,7.795816,6.489335,-4.436293,1.5751148,3.9690938,0.67592186,-32.71875,3.16875,-31.0125,0.24998252,-0.05001515,-0.13349007,1001.2516, , , , 
2026-03-20 17:59:46.472,-0.79920274,3.5892339,4.613362,-0.18784092,1.6832379,0.16279547,-33.131252,1.3687501,-30.656252,0.25878108,-0.024568943,-0.123434596,1001.2516, , , , 
2026-03-20 17:59:46.492,0.09571291,4.6612186,8.41795,-0.57390743,0.28802276,0.46700612,-33.2625,-0.73125005,-30.73125,0.2557285,-0.014743395,-0.11754156,1001.218, , , , 
2026-03-20 17:59:46.512,0.29671,4.74736,9.45165,-0.5922334,-0.36315912,0.5574141,-32.850002,-2.41875,-31.10625,0.24967088,-0.017376136,-0.113364674,1001.218, , , , 
2026-03-20 17:59:46.532,-0.5599205,3.8476589,7.0348988,-0.25870124,0.15118903,0.7186824,-32.025,-3.2812502,-31.800001,0.24534479,-0.02128774,-0.10800569,1001.218, , , , 
2026-03-20 17:59:46.552,0.5024927,4.642076,6.283552,0.03695732,1.4718786,0.548862,-30.562502,-2.79375,-32.831253,0.24529603,-0.0145637095,-0.09952782,1001.218, , , , 
2026-03-20 17:59:46.572,-0.2727818,3.723232,4.56072,-0.065667965,2.338085,0.37048948,-30.187502,-2.49375,-33.018753,0.24760245,0.0022983046,-0.09059008,1001.1957, , , , 
2026-03-20 17:59:46.592,2.2492533,4.0103707,13.179667,-0.90743965,-0.4987711,-0.009468404,-29.681252,-1.8375001,-33.35625,0.242688,0.013273507,-0.08477289,1001.1957, , , , 
2026-03-20 17:59:46.612,-2.2731814,3.2446675,10.298709,-0.43829548,-2.0564764,-0.4969385,-29.212502,-1.29375,-33.80625,0.23484497,-9.147919E-4,-0.09243784,1001.1957, , , , 
2026-03-20 17:59:46.632,1.1820544,5.5274205,9.269794,-0.4468476,-1.0693188,-0.32223117,-28.706251,-0.73125005,-34.143753,0.2289906,-0.01540137,-0.09961058,1001.1957, , , , 
2026-03-20 17:59:46.652,-0.7896315,4.15394,11.700903,-0.5067123,-0.77488196,-0.37965247,-28.800001,-0.6,-34.18125,0.22366945,-0.022184031,-0.10502301,1001.16956, , , , 
2026-03-20 17:59:46.672,0.4977071,3.5557344,11.514262,-0.318566,-1.357647,-0.6325505,-29.062502,-0.1875,-33.956253,0.21812093,-0.030875016,-0.11216598,1001.16956, , , , 
2026-03-20 17:59:46.692,1.550549,3.5270207,9.107083,-0.041233372,-1.4321724,-1.0027345,-29.643751,0.15,-33.225002,0.21510378,-0.043423228,-0.12346261,1001.16956, , , , 
2026-03-20 17:59:46.712,1.5409778,3.1058838,7.432107,-0.27458373,-1.1206315,-1.537852,-30.618752,0.24375,-32.456253,0.21313375,-0.05260704,-0.1376083,1001.16956, , , , 
2026-03-20 17:59:46.732,-0.22492532,6.0011992,8.819944,-0.09987639,-0.2556469,-1.6148211,-31.35,0.28125,-31.706251,0.21135803,-0.053289868,-0.15617275,1001.1402, , , , 
2026-03-20 17:59:46.752,-2.9910283,6.7669024,8.446664,0.22266021,0.51282096,-0.13408482,-32.025,0.13125001,-30.993752,0.21249942,-0.051969763,-0.16434136,1001.1402, , , , 
2026-03-20 17:59:46.772,-0.7178468,4.5320063,6.704689,0.44257152,1.3362668,0.40591964,-32.662502,-0.45000002,-30.468752,0.21800658,-0.043088324,-0.15999031,1001.1402, , , , 
2026-03-20 17:59:46.792,1.1772687,4.005585,7.4273214,0.22266021,1.3533709,0.44257152,-32.943752,-1.0500001,-30.206251,0.22327198,-0.030912695,-0.15204442,1001.1402, , , , 
2026-03-20 17:59:46.812,0.8135597,2.225325,8.183454,0.22876886,1.1749984,0.13713914,-32.79375,-1.5,-30.35625,0.22694741,-0.020033618,-0.1460574,1001.1332, , , , 
2026-03-20 17:59:46.832,-1.8233309,4.0773697,9.939785,0.60872674,-0.008857539,-0.3735438,-32.268753,-1.9875001,-30.843752,0.23185663,-0.01272224,-0.14595869,1001.1332, , , , 
2026-03-20 17:59:46.852,-0.76570326,4.910072,6.8913293,0.3839285,-0.5818487,0.0015271619,-31.518751,-2.25,-31.25625,0.23653674,-0.017320296,-0.14878877,1001.1332, , , , 
2026-03-20 17:59:46.872,0.3062813,4.197011,7.9298143,0.03451386,-0.3167334,-0.016798781,-30.825,-2.325,-31.556252,0.23735735,-0.021745648,-0.14940032,1001.1332, , , , 
2026-03-20 17:59:46.892,-1.2011969,4.7808595,8.82473,0.09926552,-0.08093958,-0.015577052,-30.487501,-2.5500002,-31.743752,0.23758434,-0.023785122,-0.15042117,1001.1098, , , , 
2026-03-20 17:59:46.912,-0.014356935,4.1587257,9.442079,0.18356487,0.10231985,0.2593121,-30.4125,-2.86875,-31.81875,0.238948,-0.024052765,-0.14908804,1001.1098, , , , 
2026-03-20 17:59:46.932,1.7324036,3.9433718,10.269995,0.56718796,0.5384773,-0.26725334,-30.487501,-3.0937502,-31.9125,0.24270065,-0.021353789,-0.14781629,1001.1098, , , , 
2026-03-20 17:59:46.952,-0.9906286,5.2689953,8.437093,0.6502656,0.7315106,-0.28313583,-30.54375,-3.3750002,-31.725,0.25020972,-0.015316982,-0.14982742,1001.1098,37.88749591,127.73738146,177.284423828125,0.0
2026-03-20 17:59:46.972,-1.0193424,5.020142,7.240681,0.5696314,0.6130028,-0.06811142,-30.468752,-3.6375,-31.48125,0.2573043,-0.008817778,-0.14940582,1001.0958, , , , 
2026-03-20 17:59:46.992,-0.72741807,5.178068,7.355537,0.19578215,0.38453937,-0.07910699,-30.2625,-3.7125,-31.331251,0.26189923,-0.0042837085,-0.14864826,1001.0958, , , , 
2026-03-20 17:59:47.012,-0.7752745,4.723432,9.403793,-0.13530655,-0.44257152,-0.13530655,-29.41875,-4.2937503,-31.63125,0.26243174,-0.003262464,-0.14918189,1001.0958, , , , 
2026-03-20 17:59:47.032,0.08135597,4.871787,8.843872,-0.18173227,-1.2024873,-0.33811367,-28.837502,-4.78125,-32.2125,0.25920475,-0.010795091,-0.1538957,1001.0958, , , , 
2026-03-20 17:59:47.052,-1.4117653,5.5704913,7.8580294,-0.16340633,-0.7150172,-0.377209,-28.66875,-4.96875,-32.381252,0.2559634,-0.019515228,-0.16033728,1001.0852, , , , 
2026-03-20 17:59:47.072,-1.7802601,5.7858453,8.12124,0.046731155,-0.4327977,-0.06933315,-28.66875,-5.30625,-32.5125,0.2547223,-0.023492264,-0.16374071,1001.0852, , , , 
2026-03-20 17:59:47.092,0.93320084,4.867001,7.513463,0.07238748,-0.19089524,-0.058337588,-29.175001,-5.26875,-32.193752,0.25497055,-0.026539356,-0.16450551,1001.0852, , , , 
2026-03-20 17:59:47.112,-0.20578274,5.45085,7.594819,0.1188132,0.18051054,-0.16584979,-29.56875,-5.30625,-31.687502,0.25581306,-0.026937416,-0.1658696,1001.0852, , , , 
2026-03-20 17:59:47.132,-2.1008983,5.7140603,8.331808,0.15546508,0.32589635,0.057726722,-29.7,-5.34375,-31.518751,0.25784945,-0.023890043,-0.16578442,1001.07776, , , , 
2026-03-20 17:59:47.152,-1.1772687,5.2019963,8.3174515,-0.02535089,-0.19944735,0.28130323,-29.75625,-5.4750004,-31.312502,0.25876433,-0.023533601,-0.16375983,1001.07776, , , , 
2026-03-20 17:59:47.172,0.89491564,4.9292145,8.015956,-0.25014913,-0.8799507,0.15424335,-29.681252,-5.625,-31.25625,0.25635722,-0.029475212,-0.16293927,1001.07776, , , , 
2026-03-20 17:59:47.192,-1.875973,3.8093736,8.863015,-0.29168794,-0.70402163,0.09682207,-29.643751,-5.26875,-31.425001,0.25218835,-0.037349563,-0.16442089,1001.07776, , , , 
2026-03-20 17:59:47.212,-0.6029913,5.4795637,9.38465,-0.07299834,-0.2678642,0.24220788,-29.60625,-5.1937504,-31.3875,0.24948536,-0.04295106,-0.16412707,1001.07983, , , , 
2026-03-20 17:59:47.232,0.5599205,4.651647,9.092726,0.047952887,-0.076052666,0.28252497,-29.550001,-4.93125,-31.331251,0.24916734,-0.044951074,-0.16165207,1001.07983, , , , 
2026-03-20 17:59:47.252,0.4642076,4.7042894,8.6141615,0.07849612,0.04734202,0.160352,-29.643751,-4.6687503,-31.2,0.24962471,-0.045879886,-0.1595506,1001.07983, , , , 
2026-03-20 17:59:47.272,-0.5072784,4.8287163,9.245867,0.15424335,0.22204934,0.23976442,-30.075,-4.5750003,-30.91875,0.25077987,-0.04510912,-0.15739152,1001.07983, , , , 
2026-03-20 17:59:47.292,0.83748794,4.359723,9.174082,0.25320345,0.07055488,0.21777329,-30.35625,-4.425,-30.91875,0.25282672,-0.044562895,-0.15449885,1001.0956, , , , 
2026-03-20 17:59:47.312,1.2059826,4.421936,8.154739,0.24220788,0.008246674,0.017409647,-30.50625,-4.1062503,-30.956251,0.2551958,-0.045137256,-0.15317193,1001.0956, , , , 
2026-03-20 17:59:47.332,-0.31585258,4.948357,8.379665,0.20189081,0.07299834,-0.060781047,-30.487501,-3.6562502,-30.937502,0.25730184,-0.044982553,-0.1534704,1001.0956, , , , 
2026-03-20 17:59:47.352,-0.7896315,5.3359947,8.394022,0.21410811,0.17562363,0.11148282,-30.206251,-3.24375,-31.087502,0.25949502,-0.044149064,-0.15298383,1001.0956, , , , 
2026-03-20 17:59:47.372,-0.22013968,5.2737813,8.106883,0.25198174,0.29290965,0.22999059,-29.925001,-3.16875,-31.275002,0.2619726,-0.042765033,-0.1505917,1001.10706, , , , 
2026-03-20 17:59:47.392,-0.16749759,5.2929235,7.3746796,0.2556469,0.481056,0.28252497,-29.718752,-3.35625,-31.425001,0.26501167,-0.040065285,-0.14695996,1001.10706, , , , 
2026-03-20 17:59:47.412,-0.10049855,5.2546387,7.216753,0.1517999,0.46273008,0.3081813,-29.587502,-3.6375,-31.593752,0.2676409,-0.03649473,-0.14274509,1001.10706, , , , 
2026-03-20 17:59:47.432,1.3782659,4.5415773,7.2215385,-9.162972E-4,0.2770272,0.21044292,-29.41875,-4.0125003,-31.612501,0.2689969,-0.03358333,-0.13887344,1001.10706, , , , 
2026-03-20 17:59:47.452,1.3686945,4.3740797,7.580462,-0.2538143,-0.3045161,-0.19761476,-29.212502,-4.18125,-31.518751,0.26775843,-0.033625614,-0.13881247,1001.11597, , , , 
2026-03-20 17:59:47.472,-1.430908,4.843073,7.743174,-0.5506946,-0.61605716,-0.31367907,-28.968752,-4.2937503,-31.575,0.26324207,-0.037249256,-0.14347827,1001.11597, , , , 
2026-03-20 17:59:47.492,-0.91405827,5.163711,9.360723,-0.36987862,-0.33017242,0.07971785,-28.85625,-4.59375,-31.800001,0.25770655,-0.041096278,-0.14616536,1001.11597, , , , 
2026-03-20 17:59:47.512,0.70348984,4.694718,9.221938,-0.08643737,0.030237807,0.15790854,-28.968752,-4.6125,-31.81875,0.25527373,-0.042402342,-0.14520112,1001.11597, , , , 
2026-03-20 17:59:47.532,0.43070808,4.6612186,9.336794,0.06750056,0.011911863,0.05650499,-29.212502,-4.36875,-31.85625,0.25521767,-0.04219645,-0.14405236,1001.13025, , , , 
2026-03-20 17:59:47.552,0.29192436,4.867001,8.580662,0.14691298,-0.15424335,0.023518294,-29.550001,-4.0687504,-31.7625,0.25620344,-0.043259908,-0.1438978,1001.13025, , , , 
2026-03-20 17:59:47.572,-0.06699903,5.0249276,7.9776707,0.1188132,-0.047952887,0.051618073,-29.906252,-3.6562502,-31.500002,0.2572884,-0.044763047,-0.14389406,1001.13025, , , , 
2026-03-20 17:59:47.592,-0.6891329,5.2689953,8.23131,0.109039366,0.182954,0.23976442,-29.906252,-3.6000001,-31.500002,0.25840816,-0.044602405,-0.14246015,1001.13025, , , , 
2026-03-20 17:59:47.612,0.1052842,4.9531426,8.489735,0.14569125,0.2073886,0.36438084,-29.868752,-3.6000001,-31.500002,0.2597904,-0.043489467,-0.13879955,1001.13446, , , , 
2026-03-20 17:59:47.632,1.3686945,4.5415773,8.3174515,0.17867795,0.085215636,0.21044292,-29.75625,-3.5812502,-31.518751,0.2613702,-0.043247387,-0.13532358,1001.13446, , , , 
2026-03-20 17:59:47.652,0.0,4.981857,7.834101,0.18600832,0.05589413,0.03940078,-29.6625,-3.54375,-31.650002,0.26320395,-0.043188207,-0.13398942,1001.13446, , , , 
2026-03-20 17:59:47.672,-1.3447664,5.709275,7.2263246,0.052839804,0.044898562,0.25809038,-29.531252,-3.54375,-31.556252,0.2645344,-0.043200452,-0.13270317,1001.13446, , , , 
2026-03-20 17:59:47.692,0.39720857,5.1254263,7.685746,-0.11209369,0.11942407,0.41813695,-29.475,-3.6562502,-31.500002,0.26420352,-0.043339707,-0.12900524,1001.1389, , , , 
2026-03-20 17:59:47.712,1.6749759,4.6755753,9.274581,0.083383046,0.2623664,0.1933387,-29.643751,-3.80625,-31.575,0.26365894,-0.04235428,-0.12526695,1001.1389, , , , 
2026-03-20 17:59:47.732,0.7465607,5.0009995,8.394022,0.40469792,0.26603162,0.019853106,-29.7,-3.7500002,-31.5375,0.26629212,-0.040430203,-0.123531446,1001.1389, , , , 
2026-03-20 17:59:47.752,0.2009971,5.3407803,6.63769,0.3045161,0.07910699,-0.01802051,-29.7,-3.61875,-31.706251,0.2703605,-0.03912677,-0.12288423,1001.1389, , , , 
2026-03-20 17:59:47.772,0.10049855,5.3359947,7.479964,-0.021685699,-0.23121232,-0.024129158,-29.643751,-3.4687502,-31.81875,0.27158907,-0.039865952,-0.12321791,1001.1419, , , , 
2026-03-20 17:59:47.792,1.0097711,5.278567,8.030313,-0.1744019,-0.5537489,-0.124310985,-29.38125,-3.3937502,-31.837502,0.2700456,-0.043671783,-0.12508872,1001.1419, , , , 
2026-03-20 17:59:47.812,1.3591232,5.2498527,8.729017,-0.15974113,-0.36926776,-0.286801,-29.475,-3.6937501,-32.006252,0.26759154,-0.04779948,-0.12849347,1001.1419, , , , 
2026-03-20 17:59:47.832,1.0863415,5.436493,8.135597,0.046731155,0.10231985,-0.34055713,-29.56875,-3.825,-32.0625,0.26702932,-0.048291646,-0.13191693,1001.1419, , , , 
2026-03-20 17:59:47.852,0.12921242,5.8911295,6.719046,-0.015577052,0.36132652,-0.31612253,-29.79375,-3.91875,-32.1375,0.2680688,-0.045019485,-0.13440363,1001.1449, , , , 
2026-03-20 17:59:47.872,-1.5984055,5.9820566,8.882157,-0.26358816,0.228158,-0.04612029,-30.056252,-3.9,-32.100002,0.2672025,-0.040739927,-0.13548222,1001.1449, , , , 
2026-03-20 17:59:47.892,-0.7178468,5.45085,8.925228,-0.19639303,-0.29107708,0.14446951,-29.94375,-3.91875,-31.9125,0.26488742,-0.04090867,-0.13518181,1001.1449, , , , 
2026-03-20 17:59:47.912,0.45942193,5.139783,8.346166,-0.04978548,-0.42302385,0.15057817,-29.85,-3.9562502,-31.85625,0.26305634,-0.044775005,-0.13472646,1001.1449, , , , 
2026-03-20 17:59:47.932,0.8566305,5.2259245,6.7669024,0.09071342,-0.15057817,0.044287696,-29.643751,-4.14375,-31.725,0.26300707,-0.04805132,-0.13455258,1001.1489, , , , 
2026-03-20 17:59:47.952,0.46899325,5.4173503,5.541777,-0.06933315,0.054672398,-0.004581486,-29.493752,-4.2375,-31.556252,0.2634761,-0.048336446,-0.13439849,1001.1489,37.88749591,127.73738146,177.284423828125,0.0
2026-03-20 17:59:47.972,-0.29671,4.3932223,8.020741,-0.2782489,0.18906265,0.050396346,-29.587502,-3.9375002,-31.575,0.26187333,-0.047150433,-0.13425204,1001.1489, , , , 
2026-03-20 17:59:47.992,-0.5982057,5.2402816,7.4033933,-0.16584979,-0.0015271619,0.028405212,-29.681252,-3.7687502,-31.556252,0.26026973,-0.046199366,-0.13391328,1001.1489, , , , 
2026-03-20 17:59:48.012,-0.9523434,5.288138,8.068598,-0.14263692,-0.041844238,0.19944735,-29.906252,-3.24375,-31.593752,0.25870878,-0.046266127,-0.13295282,1001.1515, , , , 
2026-03-20 17:59:48.032,0.19621146,5.2019963,8.303095,-0.110871956,-0.09682207,0.35705048,-30.000002,-3.1125002,-31.706251,0.25727087,-0.047596812,-0.13043122,1001.1515, , , , 
2026-03-20 17:59:48.052,1.1485549,5.2642097,8.398808,-0.041233372,-0.13225223,0.28741187,-30.075,-3.16875,-31.612501,0.25624403,-0.049464703,-0.12750164,1001.1515, , , , 
2026-03-20 17:59:48.072,1.5888343,5.6949177,7.9633136,0.010079269,-0.15790854,0.09560034,-30.075,-3.16875,-31.44375,0.2558645,-0.05172886,-0.12599632,1001.1515, , , , 
2026-03-20 17:59:48.092,0.41156548,5.9437714,7.2693954,-0.02046397,-0.06750056,-0.009468404,-30.150002,-3.3000002,-31.462502,0.25586176,-0.05291171,-0.12603989,1001.1587, , , , 
2026-03-20 17:59:48.112,-0.82313097,6.168697,7.4656067,-0.17806709,0.08155045,0.12614357,-30.562502,-3.1125002,-31.48125,0.25509304,-0.05273362,-0.12574787,1001.1587, , , , 
2026-03-20 17:59:48.132,0.0047856453,5.804988,8.432307,-0.27458373,0.07299834,0.22021675,-30.618752,-3.0375001,-31.48125,0.25299862,-0.05200322,-0.12386096,1001.1587, , , , 
2026-03-20 17:59:48.152,0.86141616,5.6997037,8.987442,-0.19394957,0.024129158,0.10293072,-30.618752,-2.90625,-31.518751,0.25064087,-0.051749926,-0.1222069,1001.1587, , , , 
2026-03-20 17:59:48.172,0.3397808,6.1447687,8.451449,-0.035124727,0.09010255,-0.054672398,-30.525002,-2.6437502,-31.425001,0.24977851,-0.051177904,-0.122015245,1001.1638, , , , 
2026-03-20 17:59:48.192,-0.8853444,6.695118,7.609176,0.016187917,0.1084285,-0.011911863,-30.31875,-2.4750001,-31.312502,0.25014496,-0.050054807,-0.122324035,1001.1638, , , , 
2026-03-20 17:59:48.212,-0.3397808,6.6281185,7.7383885,0.010079269,0.14874557,0.14080434,-30.300001,-2.4562502,-31.35,0.2505586,-0.04892883,-0.121372744,1001.1638, , , , 
2026-03-20 17:59:48.232,0.4642076,6.2691956,7.7671022,0.1188132,0.11453715,0.11148282,-30.4125,-2.4750001,-31.3875,0.25138763,-0.048038013,-0.11965305,1001.1638, , , , 
2026-03-20 17:59:48.252,0.15314065,6.4414787,6.9009004,0.21777329,0.04856375,0.06750056,-30.6375,-2.53125,-31.556252,0.25329974,-0.047706526,-0.11858609,1001.1689, , , , 
2026-03-20 17:59:48.272,-0.2727818,6.8195443,5.8911295,0.15913028,0.0876591,0.14813471,-30.6375,-2.5875,-31.781252,0.25553107,-0.047674563,-0.11747246,1001.1689, , , , 
2026-03-20 17:59:48.292,0.07178468,6.666404,6.2404814,0.0027488915,0.24281874,0.25198174,-30.562502,-2.5687501,-31.837502,0.25672117,-0.0467144,-0.11506,1001.1689, , , , 
2026-03-20 17:59:48.312,0.35413775,6.3744793,7.4033933,-0.05589413,0.28924447,0.22754712,-30.4125,-2.625,-31.968752,0.2567175,-0.044730805,-0.111954994,1001.1689, , , , 
2026-03-20 17:59:48.332,0.32063824,6.317052,7.925029,-0.0021380268,0.28313583,0.17745622,-30.393751,-2.7562501,-32.025,0.25678107,-0.042445116,-0.10925995,1001.1766, , , , 
2026-03-20 17:59:48.352,0.6412765,6.2404814,7.944171,0.074830934,0.07422007,0.08460477,-30.187502,-2.8312502,-32.081253,0.25753084,-0.040969267,-0.10744926,1001.1766, , , , 
2026-03-20 17:59:48.372,1.0336994,6.3122663,7.60439,0.094378605,-0.23609924,-0.11942407,-29.6625,-2.4375,-32.25,0.25841868,-0.04182975,-0.10757264,1001.1766, , , , 
2026-03-20 17:59:48.392,0.6364908,6.7573314,8.327023,0.15790854,-0.1395826,-0.1915061,-29.550001,-2.34375,-32.25,0.25937915,-0.043855123,-0.10968605,1001.1766, , , , 
2026-03-20 17:59:48.412,-0.4546363,7.298109,7.0348988,0.16279547,-0.0736092,-0.20616686,-29.362501,-1.9125,-32.15625,0.26160562,-0.04496288,-0.112180784,1001.1791, , , , 
2026-03-20 17:59:48.432,-0.66041905,7.125826,8.49452,0.18112141,-0.028405212,-0.13408482,-29.41875,-1.81875,-32.081253,0.26338732,-0.04484064,-0.11382133,1001.1791, , , , 
2026-03-20 17:59:48.452,-0.56470615,7.2215385,8.987442,0.36071566,-0.160352,-0.10231985,-29.906252,-2.11875,-31.95,0.26589936,-0.045580123,-0.11509451,1001.1791, , , , 
2026-03-20 17:59:48.472,-0.6269195,7.685746,7.4847493,0.37293294,-0.27030766,-0.058337588,-29.962502,-2.25,-32.0625,0.26956913,-0.04782151,-0.116346315,1001.1791, , , , 
2026-03-20 17:59:48.492,-0.3493521,7.9154572,6.556334,0.013744458,-0.39736754,0.041844238,-29.906252,-2.5687501,-32.2125,0.2716727,-0.051242653,-0.11723277,1001.18207, , , , 
2026-03-20 17:59:48.512,0.009571291,7.580462,8.729017,-0.23426664,-0.3582722,0.10537417,-29.925001,-3.2812502,-32.11875,0.27018768,-0.054864757,-0.11764247,1001.18207, , , , 
2026-03-20 17:59:48.532,0.5982057,7.2358956,9.45165,-0.19883649,-0.29596397,0.074830934,-29.85,-3.45,-31.987501,0.26774526,-0.05802744,-0.11772674,1001.18207, , , , 
2026-03-20 17:59:48.552,0.98584294,6.8243303,9.2793665,-0.20127994,-0.26908594,-0.014355322,-30.000002,-3.61875,-31.575,0.26563182,-0.06057675,-0.11827028,1001.18207, , , , 
2026-03-20 17:59:48.572,1.0097711,6.283552,9.734002,-0.13164136,-0.12858704,-0.0632245,-30.2625,-3.6000001,-31.087502,0.26363578,-0.06244164,-0.119446814,1001.18335, , , , 
2026-03-20 17:59:48.592,1.2921243,5.532206,9.561719,0.100487255,0.21838416,-0.15118903,-30.281252,-3.3187501,-30.656252,0.26345435,-0.061959203,-0.12026978,1001.18335, , , , 
2026-03-20 17:59:48.612,-0.047856454,5.2642097,9.035298,0.24953826,0.44073895,-0.18906265,-30.525002,-3.075,-30.6,0.2657758,-0.058275737,-0.120968886,1001.18335, , , , 
2026-03-20 17:59:48.632,-0.18664017,4.814359,8.523234,0.23609924,0.23548837,-0.14508039,-30.825,-3.0375001,-30.656252,0.26867646,-0.054682933,-0.12148502,1001.18335, , , , 
2026-03-20 17:59:48.652,0.66041905,4.4602213,7.690532,0.23732096,-0.19578215,-0.17195843,-30.825,-3.43125,-30.69375,0.2709591,-0.054347843,-0.122745074,1001.18463, , , , 
2026-03-20 17:59:48.672,0.9284152,4.6325045,5.8337016,0.1395826,-0.41935867,-0.20983206,-30.750002,-3.61875,-30.73125,0.27266678,-0.05722019,-0.12535658,1001.18463, , , , 
2026-03-20 17:59:48.692,0.9236295,4.8382874,6.1064835,-0.042455103,-0.19822562,-0.12797616,-30.618752,-4.0125003,-30.69375,0.27282906,-0.060047828,-0.12793468,1001.18463, , , , 
2026-03-20 17:59:48.712,1.0863415,4.761717,7.068398,-0.07299834,0.038789913,-0.041233372,-30.54375,-4.2937503,-30.581251,0.2721592,-0.060475446,-0.12891887,1001.18463, , , , 
2026-03-20 17:59:48.732,1.3830515,4.6899323,7.6713896,-0.011911863,0.2953531,-0.02046397,-30.562502,-4.36875,-30.487501,0.27195436,-0.05878762,-0.12862833,1001.1855, , , , 
2026-03-20 17:59:48.752,1.0863415,4.7808595,7.877172,0.040622506,0.32100943,-0.06933315,-30.6,-4.3500004,-30.468752,0.27251324,-0.055677284,-0.12809663,1001.1855, , , , 
2026-03-20 17:59:48.772,-0.12921242,5.206782,7.513463,0.027183482,0.2623664,-0.08643737,-30.581251,-4.18125,-30.35625,0.2733349,-0.052740015,-0.1281547,1001.1855, , , , 
2026-03-20 17:59:48.792,-0.49292147,5.369494,7.135397,-0.083993904,0.11209369,0.06750056,-30.2625,-3.9750001,-30.243752,0.27342612,-0.05083707,-0.12777543,1001.1855, , , , 
2026-03-20 17:59:48.812,0.2632105,4.981857,7.331609,-0.2367101,-0.003970621,0.18356487,-29.925001,-3.8812501,-30.187502,0.27185208,-0.050546966,-0.12644318,1001.18524, , , , 
2026-03-20 17:59:48.832,1.0480564,4.618148,7.8723865,-0.1744019,0.057115857,0.14691298,-29.718752,-4.125,-30.206251,0.26962176,-0.05066574,-0.12484716,1001.18524, , , , 
2026-03-20 17:59:48.852,1.119841,4.5559344,7.8580294,0.03695732,0.16462806,0.014966187,-29.5125,-4.36875,-30.206251,0.2689896,-0.049762744,-0.1237367,1001.18524, , , , 
2026-03-20 17:59:48.872,1.038485,5.0344987,6.8721867,0.14691298,0.12675445,-0.060781047,-29.56875,-4.4437504,-30.375002,0.2702715,-0.048459977,-0.12353484,1001.18524, , , , 
2026-03-20 17:59:48.892,0.44985065,4.9340005,6.580262,0.0772744,0.13164136,-0.0962112,-29.531252,-4.21875,-30.6,0.27166092,-0.04732489,-0.12397351,1001.1872, , , , 
2026-03-20 17:59:48.912,0.72263247,5.4843497,7.140183,0.1640172,0.18539746,-0.11209369,-29.531252,-4.1062503,-30.712502,0.273064,-0.045881916,-0.12414757,1001.1872, , , , 
2026-03-20 17:59:48.932,0.94755775,5.3359947,7.8963146,0.309403,0.1951713,-0.13041963,-29.5125,-4.0125003,-31.050001,0.27537417,-0.043945927,-0.12447084,1001.1872, , , , 
2026-03-20 17:59:48.952,0.6364908,5.584848,7.0636125,0.36315912,0.11575887,-0.15607595,-29.343752,-4.14375,-31.2,0.27897567,-0.042518042,-0.1252688,1001.1872,37.88749591,127.73738146,177.284423828125,0.0
2026-03-20 17:59:48.972,0.26799613,6.058627,7.068398,0.26419902,-0.023518294,-0.124310985,-29.250002,-4.3125,-31.25625,0.2822278,-0.042150896,-0.12644412,1001.18933, , , , 
2026-03-20 17:59:48.993,1.038485,6.2117677,7.7240314,0.22876886,-0.12614357,-0.041233372,-29.250002,-4.55625,-30.975,0.28449345,-0.043037686,-0.12729777,1001.18933, , , , 
2026-03-20 17:59:49.012,1.2059826,6.45105,7.3028946,0.25442517,-0.101708986,-0.044898562,-29.212502,-4.59375,-30.900002,0.28673866,-0.044525325,-0.12792717,1001.18933, , , , 
2026-03-20 17:59:49.032,0.8422736,6.867401,6.728617,0.14202607,0.07910699,-0.008246674,-29.156252,-4.6687503,-30.862501,0.2888692,-0.044965815,-0.12811872,1001.18933, , , , 
2026-03-20 17:59:49.052,0.21535404,7.111469,8.523234,-0.032681264,0.25625777,0.1273653,-28.968752,-4.8562503,-30.750002,0.28961882,-0.04338536,-0.12699601,1001.1925, , , , 
2026-03-20 17:59:49.072,0.5694918,7.0731835,9.805787,-0.066889696,0.17318016,0.21899502,-28.781252,-5.1000004,-30.862501,0.2893526,-0.041698396,-0.12463392,1001.1925, , , , 
2026-03-20 17:59:49.092,0.7465607,6.9535427,9.19801,-0.18906265,-0.055283263,0.1725693,-28.650002,-5.3250003,-30.750002,0.2883125,-0.041753847,-0.12262763,1001.1925, , , , 
2026-03-20 17:59:49.112,0.07178468,6.795616,10.01157,-0.31245732,-0.0051923506,0.15057817,-28.331251,-5.5687504,-30.487501,0.28566283,-0.04255156,-0.1215126,1001.1925, , , , 
2026-03-20 17:59:49.132,-0.37328035,6.3218374,11.4903345,-0.14019346,0.16096286,0.20066908,-28.050001,-5.4750004,-30.45,0.28323498,-0.041900046,-0.11972823,1001.1978, , , , 
2026-03-20 17:59:49.152,0.019142581,5.9820566,10.490134,0.055283263,0.10476331,0.20066908,-27.91875,-5.49375,-30.393751,0.28298777,-0.040944006,-0.117295675,1001.1978, , , , 
2026-03-20 17:59:49.172,-0.35413775,5.7188463,9.652647,-0.08155045,-0.088269964,0.107817635,-27.562502,-5.2875004,-30.31875,0.2829145,-0.041211475,-0.115834944,1001.1978, , , , 
2026-03-20 17:59:49.192,-0.51206404,5.278567,10.523634,-0.059559315,-0.20677772,0.12125666,-27.431252,-4.8,-30.2625,0.28162178,-0.042977445,-0.11537874,1001.1978, , , , 
2026-03-20 17:59:49.212,0.3924229,4.4410787,9.628718,0.2593121,0.04856375,0.0980438,-27.618752,-4.36875,-30.018751,0.28221226,-0.044343334,-0.11447172,1001.19885, , , , 
2026-03-20 17:59:49.232,0.30149564,4.3405805,7.786245,0.3594939,0.18784092,-0.0058032153,-27.69375,-4.2375,-30.018751,0.2854346,-0.043434802,-0.113450125,1001.19885, , , , 
2026-03-20 17:59:49.252,-0.11485548,4.4745784,6.8243303,0.1517999,-0.010079269,-0.038789913,-27.88125,-4.14375,-30.112501,0.2880479,-0.042720225,-0.11337648,1001.19885, , , , 
2026-03-20 17:59:49.272,0.033499517,4.7138605,6.235696,-0.015577052,-0.03451386,-0.01802051,-28.06875,-4.6125,-30.618752,0.28857437,-0.04367316,-0.11366884,1001.19885, , , , 
2026-03-20 17:59:49.292,0.2009971,4.2017965,6.45105,-0.13286309,0.0876591,0.027183482,-28.0125,-4.78125,-30.7875,0.28785554,-0.043198626,-0.11345236,1001.1984, , , , 
2026-03-20 17:59:49.312,0.02871387,3.9242291,6.829116,-0.17318016,0.08032872,0.0015271619,-27.975,-4.89375,-30.900002,0.28636295,-0.042110246,-0.113132715,1001.1984, , , , 
2026-03-20 17:59:49.332,-0.014356935,4.15394,6.4462643,-0.098654665,-0.018631376,-0.0021380268,-28.087502,-4.9875,-30.993752,0.28505126,-0.041744035,-0.1131883,1001.1984, , , , 
2026-03-20 17:59:49.352,0.6029913,4.6085763,5.2019963,-0.04856375,-0.044287696,0.027183482,-28.143751,-4.93125,-30.862501,0.2844969,-0.04202107,-0.113113426,1001.1984, , , , 
2026-03-20 17:59:49.372,0.44027936,5.0249276,4.5559344,-0.2403753,-0.044287696,0.024740024,-28.237501,-4.8375,-30.768751,0.2833882,-0.042447627,-0.11309155,1001.1978, , , , 
2026-03-20 17:59:49.392,-0.1052842,5.029713,5.6327047,-0.42119128,-0.043065965,0.09315688,-28.35,-4.6312504,-30.675001,0.2802008,-0.04269527,-0.112857625,1001.1978, , , , 
2026-03-20 17:59:49.412,-0.31585258,4.914858,7.5086775,-0.36254823,0.057115857,0.20066908,-28.1625,-4.55625,-30.54375,0.27626544,-0.042647474,-0.11160856,1001.1978, , , , 
2026-03-20 17:59:49.432,-0.023928227,4.85743,8.3174515,-0.07055488,0.14508039,0.23365578,-27.937502,-4.4812503,-30.431252,0.27417794,-0.041792296,-0.1091615,1001.1978, , , , 
2026-03-20 17:59:49.452,0.038285162,5.168497,7.2263246,0.011300999,-0.068722285,0.14935644,-27.768751,-3.91875,-30.525002,0.2740623,-0.04164904,-0.1071062,1001.19653, , , , 
2026-03-20 17:59:49.472,-0.05742774,5.4221363,6.948757,-0.05222894,-0.23854269,0.06017018,-27.6375,-3.7687502,-30.6,0.27369723,-0.043464698,-0.10660637,1001.19653, , , , 
2026-03-20 17:59:49.492,-0.19621146,5.575277,7.925029,0.07849612,-0.11759147,0.019853106,-27.468752,-3.45,-30.6,0.27349526,-0.045433607,-0.106827766,1001.19653, , , , 
2026-03-20 17:59:49.512,0.009571291,6.135197,7.6953177,0.36438084,0.16340633,-0.008246674,-27.375002,-3.2625,-30.4125,0.27581057,-0.04544456,-0.106601,1001.19653, , , , 
2026-03-20 17:59:49.532,-0.15314065,6.9678993,6.9678993,0.32039857,0.1707367,-0.041233372,-27.35625,-3.3375,-30.375002,0.2797317,-0.04379878,-0.10610516,1001.1944, , , , 
2026-03-20 17:59:49.552,-0.37806597,7.628319,7.0492554,0.038179047,-0.08093958,0.0051923506,-27.431252,-3.4687502,-30.31875,0.2818129,-0.04346299,-0.10613518,1001.1944, , , , 
2026-03-20 17:59:49.572,0.23928227,7.4847493,8.370093,-0.18051054,-0.16768238,0.05650499,-27.712502,-3.4687502,-30.31875,0.2809537,-0.044858526,-0.10624682,1001.1944, , , , 
2026-03-20 17:59:49.592,0.3397808,6.9966135,9.844072,-0.18539746,-0.06627883,0.025961753,-27.806252,-3.3187501,-30.45,0.2790595,-0.04590641,-0.10625773,1001.1944, , , , 
2026-03-20 17:59:49.612,0.33020952,7.2933235,10.461421,-0.116980605,-0.11759147,-0.013133593,-27.712502,-3.35625,-30.525002,0.27752572,-0.04651486,-0.10651646,1001.194, , , , 
2026-03-20 17:59:49.632,0.30149564,7.5182486,9.810573,-0.123089254,-0.23487751,-0.016798781,-27.6375,-3.3937502,-30.431252,0.27642757,-0.047988985,-0.10723751,1001.194, , , , 
2026-03-20 17:59:49.652,0.9954142,7.015756,10.317851,-0.24281874,-0.26419902,-0.004581486,-27.375002,-3.2812502,-30.393751,0.27440587,-0.05019625,-0.10807575,1001.194, , , , 
2026-03-20 17:59:49.672,2.1870399,6.0155563,9.949356,-0.32100943,-0.33505934,-0.083993904,-27.393751,-2.9625,-30.243752,0.27149123,-0.052728422,-0.10932543,1001.194, , , , 
2026-03-20 17:59:49.692,1.1724831,4.6372905,11.184053,-0.32956156,0.022907428,-0.17928882,-27.525002,-2.8312502,-30.206251,0.26795176,-0.053212438,-0.111292645,1001.1938, , , , 
2026-03-20 17:59:49.712,1.18684,4.0534415,11.60519,-0.16462806,0.09010255,-0.18051054,-27.6375,-2.49375,-30.281252,0.26545802,-0.05177601,-0.11294668,1001.1938, , , , 
2026-03-20 17:59:49.732,1.3399807,3.952943,10.753345,0.03329213,0.110871956,-0.2452622,-28.0125,-2.325,-30.337502,0.26489988,-0.05031147,-0.11469418,1001.1938, , , , 
2026-03-20 17:59:49.752,0.45942193,4.436293,9.332008,0.14813471,0.17562363,-0.2782489,-28.35,-2.34375,-30.300001,0.266038,-0.048363853,-0.116882496,1001.1938, , , , 
2026-03-20 17:59:49.772,-0.25842485,4.8047876,7.8628154,0.07116575,0.17928882,-0.19761476,-28.406252,-2.4,-30.150002,0.2675484,-0.046066787,-0.118679225,1001.1944, , , , 
2026-03-20 17:59:49.792,-0.44506502,4.6468616,7.379465,-0.182954,-0.003970621,-0.0876591,-28.3875,-2.5875,-30.056252,0.26724494,-0.04461729,-0.119789444,1001.1944, , , , 
2026-03-20 17:59:49.812,0.062213387,3.991228,8.379665,-0.26847506,-0.17501275,-0.026572619,-28.237501,-2.7375002,-30.112501,0.26464367,-0.045131132,-0.12064343,1001.1944, , , , 
2026-03-20 17:59:49.832,0.6556334,3.5413775,8.456235,0.074830934,-0.18234314,-0.09010255,-28.1625,-2.6625001,-30.337502,0.2631381,-0.046752073,-0.12169376,1001.1944, , , , 
2026-03-20 17:59:49.852,0.65084773,3.8620157,6.8721867,0.39858928,0.0033597562,-0.16096286,-28.125002,-2.5500002,-30.618752,0.26533285,-0.047696702,-0.123059355,1001.1942, , , , 
2026-03-20 17:59:49.872,0.5168497,4.1922255,5.2402816,0.44379327,0.19028437,-0.17806709,-28.125002,-2.5125,-30.73125,0.26985687,-0.04687301,-0.1242103,1001.1942, , , , 
2026-03-20 17:59:49.892,-0.11485548,4.369294,5.7379885,0.32895067,0.30146176,-0.12186752,-28.181252,-2.60625,-30.618752,0.2739459,-0.04446052,-0.124814264,1001.1942, , , , 
2026-03-20 17:59:49.912,0.2009971,4.2831526,6.7381887,0.37781987,0.25014913,-0.07055488,-27.825,-3.1875002,-30.562502,0.27759564,-0.04187566,-0.12467494,1001.1942, , , , 
2026-03-20 17:59:49.932,0.25842485,4.4841495,6.5515485,0.4621192,0.14508039,-0.09498947,-27.675001,-3.3937502,-30.525002,0.28188726,-0.040323883,-0.12472123,1001.1938, , , , 
2026-03-20 17:59:49.952,-0.23449662,5.015356,5.919843,0.44745845,0.1291979,-0.059559315,-27.337502,-3.7125,-30.525002,0.2865461,-0.039459392,-0.12498749,1001.1938,37.88750614,127.73738669,177.37353515625,0.79
2026-03-20 17:59:49.972,-0.49292147,5.278567,5.584848,0.25686863,0.1291979,0.094378605,-27.000002,-3.8812501,-30.562502,0.2903692,-0.038620654,-0.12433219,1001.1938, , , , 
2026-03-20 17:59:49.992,-0.019142581,5.1254263,6.7334027,0.120034926,-0.0051923506,0.20922118,-26.79375,-3.91875,-30.69375,0.29221448,-0.038542636,-0.12260071,1001.1938, , , , 
2026-03-20 17:59:50.012,0.79920274,4.9674997,7.2646093,0.1933387,-0.100487255,0.19944735,-26.775002,-4.0687504,-30.768751,0.29337844,-0.040003493,-0.1207029,1001.19354, , , , 
2026-03-20 17:59:50.032,0.63170516,5.2929235,7.1545396,0.3179551,0.01924224,0.18356487,-26.831251,-4.5,-30.768751,0.2957193,-0.041435108,-0.11898343,1001.19354, , , , 
2026-03-20 17:59:50.052,0.39720857,5.7284174,7.5613194,0.22021675,0.1414152,0.23365578,-27.000002,-5.3250003,-30.7875,0.29862696,-0.041558,-0.11663186,1001.19354, , , , 
2026-03-20 17:59:50.072,1.038485,5.8672013,9.193225,0.054061532,-0.08093958,0.22632541,-27.018751,-5.7937503,-30.768751,0.299911,-0.04179834,-0.114077434,1001.19354, , , , 
2026-03-20 17:59:50.092,1.1294123,6.326623,9.370294,-0.058337588,-0.36560258,0.15424335,-27.000002,-5.925,-30.862501,0.29947877,-0.044852063,-0.11305577,1001.1944, , , , 
2026-03-20 17:59:50.112,1.1581261,6.6185474,10.30828,-0.11331542,-0.19944735,0.1640172,-27.000002,-6.0,-30.975,0.29806286,-0.04814794,-0.1125174,1001.1944, , , , 
2026-03-20 17:59:50.132,1.282553,6.489335,10.79163,-0.038789913,0.14630212,0.15790854,-27.000002,-5.925,-31.050001,0.2971348,-0.04889434,-0.11099416,1001.1944, , , , 
2026-03-20 17:59:50.152,0.57906306,6.4031935,10.671989,-0.065667965,0.16829325,0.06994402,-27.281252,-5.49375,-30.768751,0.29678813,-0.04742572,-0.10933457,1001.1944, , , , 
2026-03-20 17:59:50.172,0.062213387,6.1399827,10.370493,-0.1707367,-0.076052666,0.049174614,-27.35625,-5.4187503,-30.6375,0.29563132,-0.046922427,-0.10868657,1001.1957, , , , 
2026-03-20 17:59:50.192,0.37806597,5.838487,10.01157,-0.228158,-0.20066908,0.038179047,-27.525002,-5.15625,-30.562502,0.29335243,-0.048448835,-0.108875655,1001.1957, , , , 
2026-03-20 17:59:50.212,0.44506502,5.2498527,9.848858,-0.07788526,0.09498947,-0.014355322,-27.6375,-4.9125004,-30.54375,0.29152352,-0.04904518,-0.1090444,1001.1957, , , , 
2026-03-20 17:59:50.232,0.07178468,4.9435716,9.446864,0.082161315,0.3271181,-0.08155045,-27.50625,-4.8562503,-30.73125,0.29172048,-0.0467487,-0.10880676,1001.1957, , , , 
2026-03-20 17:59:50.252,-0.22492532,4.9674997,8.705089,0.15546508,0.286801,-0.13530655,-27.35625,-4.78125,-31.0125,0.29321146,-0.043432623,-0.10885754,1001.19714, , , , 
2026-03-20 17:59:50.272,-0.53599226,5.1732826,7.3698936,0.0027488915,0.16951497,-0.14263692,-27.150002,-4.65,-31.237501,0.29438934,-0.040980894,-0.109563746,1001.19714, , , , 
2026-03-20 17:59:50.292,-1.1676974,5.0823555,7.6809607,-0.22327107,0.041233372,-0.065667965,-26.962502,-4.59375,-31.5375,0.29338723,-0.03935569,-0.11040267,1001.19714, , , , 
2026-03-20 17:59:50.312,-0.9379865,4.7425747,7.7671022,-0.23915356,-0.07116575,0.018631376,-26.962502,-4.65,-31.556252,0.2910418,-0.03910501,-0.110809214,1001.19714, , , , 
2026-03-20 17:59:50.332,-0.28713873,4.5272202,7.068398,-0.11453715,-0.11759147,0.040622506,-26.85,-4.59375,-31.500002,0.28914154,-0.039830845,-0.11082168,1001.1993, , , , 
2026-03-20 17:59:50.352,-0.19621146,4.627719,5.211568,-0.06811142,-0.050396346,0.054061532,-26.737501,-4.51875,-31.406252,0.28834143,-0.04074686,-0.11070274,1001.1993, , , , 
2026-03-20 17:59:50.372,-0.44506502,4.74736,5.197211,-0.18661919,0.08155045,0.11759147,-26.737501,-4.59375,-31.143751,0.2872573,-0.040595762,-0.10990678,1001.1993, , , , 
2026-03-20 17:59:50.392,-0.44506502,4.733003,6.4845495,-0.18173227,0.027794348,0.18234314,-26.85,-4.65,-31.125002,0.28545085,-0.040057335,-0.108371414,1001.1993, , , , 
2026-03-20 17:59:50.412,0.44985065,4.6468616,6.652047,-0.04978548,-0.11270455,0.13836087,-27.018751,-4.8,-31.1625,0.2842181,-0.040851016,-0.10690012,1001.19995, , , , 
2026-03-20 17:59:50.432,0.43070808,5.1493545,5.953343,0.05894845,-0.0858265,0.055283263,-27.187502,-5.1375003,-31.237501,0.2842516,-0.042288296,-0.1063892,1001.19995, , , , 
2026-03-20 17:59:50.452,0.019142581,5.666204,5.541777,0.0980438,0.08032872,0.062613636,-27.225,-5.08125,-31.44375,0.28519714,-0.04260282,-0.10586012,1001.19995, , , , 
2026-03-20 17:59:50.472,-0.3397808,5.9724855,5.8911295,0.012522728,0.0962112,0.11759147,-27.093752,-4.93125,-31.462502,0.28607428,-0.041914605,-0.104729235,1001.19995, , , , 
2026-03-20 17:59:50.492,0.0526421,6.1304116,7.125826,-0.053450666,-0.1188132,0.17134757,-26.906252,-4.5750003,-31.3875,0.2858963,-0.042156942,-0.10332146,1001.2008, , , , 
2026-03-20 17:59:50.512,0.8422736,6.1830535,7.618747,-0.032681264,-0.20066908,0.12858704,-26.85,-4.425,-31.368752,0.2853217,-0.044260714,-0.102339886,1001.2008, , , , 
2026-03-20 17:59:50.532,0.9379865,6.570691,8.829515,0.109039366,0.021685699,0.019853106,-26.775002,-4.21875,-31.312502,0.28551796,-0.045580078,-0.10194032,1001.2008, , , , 
2026-03-20 17:59:50.552,0.7082755,6.896115,9.432507,0.21044292,0.20861033,-0.058337588,-26.868752,-4.2937503,-31.312502,0.2872833,-0.044509202,-0.101625085,1001.2008, , , , 
2026-03-20 17:59:50.572,-0.33499518,7.1976104,9.2793665,0.12492185,0.20616686,-0.08277218,-27.075,-4.2937503,-31.3875,0.28934467,-0.042486656,-0.10170686,1001.2012, , , , 
2026-03-20 17:59:50.592,-0.8327023,7.058827,11.059627,-0.009468404,0.12675445,0.019853106,-27.13125,-4.3125,-31.5375,0.2899377,-0.040645193,-0.10149251,1001.2012, , , , 
2026-03-20 17:59:50.612,0.28713873,7.149754,11.442478,0.094378605,-0.21899502,0.022296565,-26.98125,-4.5375004,-31.687502,0.29013732,-0.04111977,-0.10120539,1001.2012, , , , 
2026-03-20 17:59:50.632,0.6029913,7.5182486,10.336994,0.13836087,-0.2800815,-0.09498947,-26.79375,-4.59375,-31.706251,0.29099867,-0.04381062,-0.10233608,1001.2012, , , , 
2026-03-20 17:59:50.652,0.94277215,7.3363943,10.059426,0.23976442,-0.09071342,-0.13652828,-26.7,-4.51875,-31.725,0.29262376,-0.04559756,-0.10394623,1001.2016, , , , 
2026-03-20 17:59:50.672,0.5982057,6.3122663,9.341579,0.33261588,0.19272783,-0.16951497,-26.906252,-4.6125,-31.725,0.29564065,-0.04492564,-0.10512016,1001.2016, , , , 
2026-03-20 17:59:50.692,0.4546363,5.5226345,8.518449,0.20433427,0.08032872,-0.14263692,-26.98125,-4.70625,-31.743752,0.29861856,-0.043206874,-0.1059853,1001.2016, , , , 
2026-03-20 17:59:50.712,0.81834537,4.7952166,7.948957,-0.08888082,-0.08949169,-0.09498947,-27.000002,-4.93125,-31.931252,0.29931036,-0.043119557,-0.10714237,1001.2016, , , , 
2026-03-20 17:59:50.732,1.1246266,4.345366,8.260024,-0.23915356,-0.03084867,-0.08888082,-27.000002,-5.175,-31.987501,0.29759753,-0.043437593,-0.10826395,1001.202, , , , 
2026-03-20 17:59:50.752,1.2442678,4.2257247,8.776874,-0.23060146,0.057115857,-0.12797616,-26.85,-5.5687504,-31.85625,0.29515177,-0.042766392,-0.109267406,1001.202, , , , 
2026-03-20 17:59:50.772,0.8279166,4.316652,8.346166,-0.1744019,0.1084285,-0.19761476,-26.906252,-5.7562504,-31.800001,0.29325837,-0.041372705,-0.11064192,1001.202, , , , 
2026-03-20 17:59:50.792,0.41156548,4.412365,7.7479596,-0.1621846,0.11453715,-0.19639303,-26.94375,-5.8125,-31.725,0.29182371,-0.03951642,-0.11226584,1001.202, , , , 
2026-03-20 17:59:50.812,0.11964113,4.4745784,7.135397,-0.19761476,0.021685699,-0.15485422,-26.831251,-5.7937503,-31.706251,0.2902489,-0.03813387,-0.11383262,1001.2027, , , , 
2026-03-20 17:59:50.832,0.18185452,4.3740797,6.843473,-0.28435755,-0.019853106,-0.09376775,-26.906252,-5.6625004,-31.837502,0.28799236,-0.037588973,-0.11508956,1001.2027, , , , 
2026-03-20 17:59:50.852,0.22492532,4.139583,8.216953,-0.20127994,0.010690134,-0.08643737,-26.925001,-5.53125,-32.04375,0.28539234,-0.037035607,-0.11599754,1001.2027, , , , 
2026-03-20 17:59:50.872,0.23928227,4.2017965,7.795816,0.10415245,-0.03451386,-0.16096286,-26.8875,-5.4375,-32.23125,0.28483996,-0.03673364,-0.11717506,1001.2027, , , , 
2026-03-20 17:59:50.892,-0.15314065,4.761717,6.1830535,0.22999059,-0.088269964,-0.18539746,-26.868752,-5.2875004,-32.268753,0.28664267,-0.036975697,-0.11900384,1001.2031, , , , 
2026-03-20 17:59:50.912,-0.124426775,5.0536413,5.278567,0.14935644,-0.10415245,-0.12675445,-26.737501,-5.3625,-32.175003,0.28856665,-0.037876673,-0.12076062,1001.2031, , , , 
2026-03-20 17:59:50.932,0.009571291,5.087141,5.7954164,0.16279547,-0.03573559,-0.05222894,-26.475,-5.625,-31.875002,0.28994668,-0.03843857,-0.12175696,1001.2031, , , , 
2026-03-20 17:59:50.952,0.18185452,5.072784,6.125626,0.22876886,0.059559315,-0.026572619,-26.437502,-5.6625004,-31.7625,0.29191557,-0.03848241,-0.121979825,1001.2031,37.88751397,127.73740181,177.32476806640625,1.72
2026-03-20 17:59:50.972,0.29671,5.1158547,6.474978,0.3265072,0.12186752,-0.038789913,-26.5125,-5.83125,-31.66875,0.29475933,-0.03787043,-0.12189711,1001.2029, , , , 
2026-03-20 17:59:50.992,-0.17228323,5.465207,6.259624,0.33261588,0.14263692,-0.038789913,-26.625002,-6.2250004,-31.556252,0.29829684,-0.03688676,-0.12182061,1001.2029, , , , 
2026-03-20 17:59:51.012,-0.44027936,5.6949177,7.173682,0.1847866,0.16340633,0.083383046,-26.681252,-6.2812505,-31.66875,0.3010506,-0.0357542,-0.12114704,1001.2029, , , , 
2026-03-20 17:59:51.032,-0.05742774,5.5369916,8.499306,0.15790854,0.15485422,0.19822562,-26.60625,-6.6000004,-31.875002,0.30272722,-0.034814537,-0.11922749,1001.2029, , , , 
2026-03-20 17:59:51.052,0.47377887,5.584848,8.427522,0.12614357,0.05589413,0.19822562,-26.2875,-6.9,-31.968752,0.30416006,-0.034614164,-0.11684276,1001.2023, , , , 
2026-03-20 17:59:51.072,-0.12921242,6.5276203,8.82473,-0.0754418,-0.047952887,0.23732096,-25.837502,-6.8250003,-32.0625,0.3043659,-0.035279363,-0.11491291,1001.2023, , , , 
2026-03-20 17:59:51.092,0.59342,6.991828,9.743574,-0.21349724,-0.10415245,0.31062475,-25.706251,-6.7312503,-32.006252,0.3027701,-0.036707938,-0.11256464,1001.2023, , , , 
2026-03-20 17:59:51.112,1.0001999,6.829116,10.370493,-0.30024004,-0.09193515,0.25076,-25.575,-6.58125,-31.893751,0.30006918,-0.03832389,-0.110192366,1001.2023, , , , 
2026-03-20 17:59:51.132,-0.10049855,6.652047,11.284552,-0.33689192,-0.09193515,0.13836087,-25.556252,-6.525,-31.931252,0.29673067,-0.039404985,-0.10885968,1001.201, , , , 
2026-03-20 17:59:51.152,-0.9810573,5.948557,11.82533,-0.2611447,-0.07116575,0.19822562,-25.7625,-6.4687505,-32.006252,0.29356605,-0.04021658,-0.1077532,1001.201, , , , 
2026-03-20 17:59:51.172,-0.74177504,4.996214,11.983255,-0.10720677,-0.068722285,0.19456044,-25.800001,-6.3562503,-31.968752,0.29137495,-0.041145466,-0.10611846,1001.201, , , , 
2026-03-20 17:59:51.192,-0.44506502,4.398008,11.035698,0.1065959,-0.03573559,0.11148282,-25.875002,-5.86875,-31.931252,0.29102612,-0.042021826,-0.10481715,1001.201, , , , 
2026-03-20 17:59:51.212,-0.40677986,4.599005,9.470792,0.17623448,0.01924224,0.00641408,-25.931252,-5.2312503,-31.9125,0.29233164,-0.042258106,-0.10427038,1001.2008, , , , 
2026-03-20 17:59:51.232,-0.22492532,4.74736,7.987242,0.11636974,0.036346454,-0.06933315,-26.025002,-4.6687503,-31.95,0.2937151,-0.042089894,-0.1045123,1001.2008, , , , 
2026-03-20 17:59:51.252,-0.43070808,4.642076,6.9583282,0.022296565,0.15729769,-0.10109812,-26.062502,-4.70625,-31.968752,0.294486,-0.041006733,-0.10507161,1001.2008, , , , 
2026-03-20 17:59:51.272,-1.0671989,4.6899323,6.384051,-0.091324285,0.26725334,-0.029016078,-26.175001,-4.8375,-31.968752,0.29443604,-0.038532913,-0.10516107,1001.2008, , , , 
2026-03-20 17:59:51.292,-0.60777694,4.570291,6.2644095,-0.15485422,0.1744019,0.06994402,-26.306252,-5.25,-31.85625,0.29342192,-0.036146015,-0.104314074,1001.2014, , , , 
2026-03-20 17:59:51.312,-0.12921242,4.6468616,5.5657053,-0.14019346,0.098654665,0.12492185,-26.23125,-5.3625,-31.781252,0.29220444,-0.03497675,-0.10305869,1001.2014, , , , 
2026-03-20 17:59:51.332,-0.26799613,4.7856455,5.211568,-0.21105379,0.04856375,0.1640172,-26.081251,-5.26875,-31.556252,0.290737,-0.034493517,-0.10156193,1001.2014, , , , 
2026-03-20 17:59:51.352,0.014356935,4.6564326,5.905486,-0.27091852,0.02046397,0.25442517,-26.025002,-5.1375003,-31.406252,0.28839892,-0.034580503,-0.0995565,1001.2014, , , , 
2026-03-20 17:59:51.372,0.91405827,4.197011,6.6329045,-0.15974113,0.051007207,0.24465135,-26.175001,-4.6312504,-31.518751,0.2861517,-0.034751385,-0.09696431,1001.2016, , , , 
2026-03-20 17:59:51.392,0.6987042,4.5655055,6.393622,-0.053450666,0.065667965,0.13347395,-26.23125,-4.36875,-31.612501,0.28512976,-0.034742024,-0.095002346,1001.2016, , , , 
2026-03-20 17:59:51.412,0.30149564,4.9770713,6.498906,-0.008246674,-0.00641408,0.10415245,-26.362501,-3.91875,-31.85625,0.28493506,-0.034669425,-0.093756795,1001.2016, , , , 
2026-03-20 17:59:51.432,0.17706887,5.3407803,6.4175506,-0.0033597562,-0.1432478,0.094378605,-26.343752,-3.7125,-32.006252,0.28488648,-0.035741758,-0.09306101,1001.2016, , , , 
2026-03-20 17:59:51.452,0.16271193,5.599205,6.580262,-0.033902995,-0.18112141,0.12125666,-26.19375,-3.5625002,-31.9125,0.2845948,-0.037728988,-0.09258345,1001.202, , , , 
2026-03-20 17:59:51.472,0.82313097,5.7523456,7.733603,0.045509428,-0.0858265,0.101708986,-26.1,-3.5812502,-31.781252,0.28440148,-0.039409563,-0.09181319,1001.202, , , , 
2026-03-20 17:59:51.492,1.1150553,6.3314085,7.6713896,0.18967351,-0.00763581,-0.031459536,-26.118752,-3.6562502,-31.7625,0.28561538,-0.040153302,-0.091495305,1001.202, , , , 
2026-03-20 17:59:51.512,0.5072784,7.0301127,7.5182486,0.15546508,0.038789913,-0.109650224,-26.081251,-3.7125,-31.7625,0.2875754,-0.039989457,-0.09213286,1001.202, , , , 
2026-03-20 17:59:51.532,-0.18185452,7.159325,8.882157,0.025961753,0.09010255,-0.08032872,-25.81875,-3.6562502,-31.987501,0.28861135,-0.039132114,-0.092872486,1001.2016, , , , 
2026-03-20 17:59:51.552,-0.02871387,6.5228343,10.34178,0.09193515,0.10354158,-0.07177661,-25.85625,-3.80625,-32.1375,0.28914765,-0.038041443,-0.09324123,1001.2016, , , , 
2026-03-20 17:59:51.572,0.019142581,6.556334,10.131211,0.14691298,0.0033597562,-0.17318016,-25.85625,-3.9,-32.2125,0.29056206,-0.037009247,-0.09402254,1001.2016, , , , 
2026-03-20 17:59:51.592,0.11964113,7.5230346,9.518648,0.0015271619,-0.19578215,-0.2623664,-25.800001,-3.9750001,-32.193752,0.2913828,-0.037364874,-0.09633854,1001.2016, , , , 
2026-03-20 17:59:51.612,0.148355,7.8580294,10.303494,-0.07910699,-0.100487255,-0.26847506,-25.85625,-4.275,-31.931252,0.2907853,-0.03813471,-0.09948825,1001.2016, , , , 
2026-03-20 17:59:51.632,0.93320084,7.1449685,10.738988,0.07116575,-0.074830934,-0.2819141,-25.800001,-4.36875,-31.837502,0.29065612,-0.038011592,-0.10221565,1001.2016, , , , 
2026-03-20 17:59:51.652,0.6029913,6.3696938,9.5665045,0.24587308,-0.1432478,-0.3601048,-25.63125,-4.4437504,-31.743752,0.29218346,-0.038453497,-0.105613306,1001.2016, , , , 
2026-03-20 17:59:51.672,0.2009971,5.6757755,7.9011,0.26542073,-0.05894845,-0.25014913,-25.556252,-4.5,-31.575,0.2948337,-0.038814027,-0.108764336,1001.2016, , , , 
2026-03-20 17:59:51.692,0.6891329,4.6612186,8.059027,0.012522728,-0.016187917,-0.13286309,-25.650002,-4.8562503,-31.425001,0.2962177,-0.03864642,-0.11045872,1001.2027, , , , 
2026-03-20 17:59:51.712,1.2299109,4.048656,9.092726,-0.04856375,-0.057726722,-0.1621846,-25.725,-4.9875,-31.44375,0.29573497,-0.0386561,-0.1118456,1001.2027, , , , 
2026-03-20 17:59:51.732,1.105484,4.4841495,8.365308,0.025961753,0.027794348,-0.2782489,-25.95,-5.4187503,-31.368752,0.2955092,-0.03845509,-0.11398929,1001.2027, , , , 
2026-03-20 17:59:51.752,-0.42592242,5.2307105,7.2358956,-0.057115857,0.16462806,-0.25137085,-25.968752,-5.5687504,-31.425001,0.2956738,-0.03673362,-0.11634017,1001.2027, , , , 
2026-03-20 17:59:51.772,-0.9954142,5.1828537,7.216753,-0.32833982,0.08032872,-0.040011644,-25.85625,-5.5125003,-31.66875,0.29420745,-0.0344521,-0.11736891,1001.2033, , , , 
2026-03-20 17:59:51.792,-0.38763726,4.5655055,7.5661054,-0.5018254,-0.21288638,0.0736092,-25.85625,-5.4375,-31.743752,0.29005775,-0.034634553,-0.117530875,1001.2033, , , , 
2026-03-20 17:59:51.812,0.21535404,4.1587257,7.9298143,-0.37598726,-0.18723005,0.0858265,-25.837502,-5.15625,-32.025,0.2852829,-0.03652493,-0.117532864,1001.2033, , , , 
2026-03-20 17:59:51.832,0.043070808,4.359723,7.092326,-0.085215636,0.04734202,0.051618073,-25.893751,-4.96875,-32.2125,0.28304365,-0.03704478,-0.11714954,1001.2033, , , , 
2026-03-20 17:59:51.852,-0.3493521,4.871787,5.508278,-0.04978548,0.1414152,0.0772744,-25.9125,-4.74375,-32.11875,0.28289026,-0.036008902,-0.11625882,1001.2033, , , , 
2026-03-20 17:59:51.872,-0.526421,4.895715,5.608776,-0.21349724,0.06933315,0.14202607,-25.9125,-4.5,-31.875002,0.28188178,-0.03505992,-0.11499395,1001.2033, , , , 
2026-03-20 17:59:51.892,0.043070808,4.465007,7.0540414,-0.2403753,-0.041844238,0.17989968,-25.687502,-4.18125,-31.556252,0.27956358,-0.035080202,-0.11341542,1001.2033, , , , 
2026-03-20 17:59:51.912,0.8135597,4.3645086,7.948957,-0.013133593,-0.14446951,0.100487255,-25.406252,-3.7687502,-31.29375,0.27804697,-0.03637915,-0.11236199,1001.2033, , , , 
2026-03-20 17:59:51.932,0.6125626,4.814359,6.987042,0.30695954,-0.0051923506,0.025961753,-25.331251,-3.45,-31.087502,0.27939987,-0.037706435,-0.11208016,1001.20245, , , , 
2026-03-20 17:59:51.952,0.41635114,5.111069,6.2309103,0.41202828,0.1707367,0.041844238,-25.29375,-3.2625,-31.10625,0.28309995,-0.03746387,-0.11141057,1001.20245,37.8875219,127.737415,177.373046875,1.54
2026-03-20 17:59:51.972,0.31585258,5.312066,6.3792653,0.3594939,0.16707152,0.057726722,-25.44375,-3.3000002,-31.237501,0.2871047,-0.0363887,-0.11027319,1001.20245, , , , 
2026-03-20 17:59:51.992,0.038285162,5.460421,7.245467,0.31184646,-0.011300999,0.0858265,-25.66875,-3.6375,-31.406252,0.29033306,-0.036158767,-0.10922962,1001.20245, , , , 
2026-03-20 17:59:52.012,0.21535404,5.800202,7.6809607,0.3167334,-0.18600832,0.15057817,-25.706251,-4.1062503,-31.725,0.29313383,-0.03805524,-0.108365506,1001.2014, , , , 
2026-03-20 17:59:52.032,0.66041905,6.2979093,7.9346,0.3839285,-0.05894845,0.18234314,-25.7625,-4.275,-31.725,0.29625076,-0.0404165,-0.10708431,1001.2014, , , , 
2026-03-20 17:59:52.052,0.7465607,6.7764735,7.9154572,0.3924806,0.33078328,0.25686863,-25.687502,-4.65,-31.575,0.30023324,-0.04034471,-0.10443803,1001.2014, , , , 
2026-03-20 17:59:52.072,0.6029913,7.1210403,10.059426,0.17867795,0.5006037,0.32162032,-25.462502,-4.89375,-31.29375,0.3034456,-0.03702236,-0.100051485,1001.2014, , , , 
2026-03-20 17:59:52.092,0.43070808,6.7429743,11.566905,-0.059559315,0.10598504,0.30573782,-25.087502,-5.1375003,-30.768751,0.30433777,-0.034850672,-0.09590752,1001.2012, , , , 
2026-03-20 17:59:52.112,0.5312066,6.005985,12.844672,-0.3100139,-0.34727663,0.16523892,-24.91875,-5.175,-30.675001,0.30210784,-0.036643364,-0.094008036,1001.2012, , , , 
2026-03-20 17:59:52.132,-0.18664017,5.139783,13.974084,-0.36987862,-0.5158753,0.022296565,-24.768751,-5.15625,-30.54375,0.29785442,-0.040872544,-0.09475817,1001.2012, , , , 
2026-03-20 17:59:52.152,0.043070808,4.551149,14.227723,0.08460477,-0.341168,-0.0632245,-24.956251,-4.8375,-30.6,0.29518843,-0.044883292,-0.096407205,1001.2012, , , , 
2026-03-20 17:59:52.172,0.5455636,4.508078,11.174481,0.5561924,0.022907428,-0.16829325,-25.181252,-4.55625,-30.581251,0.29777756,-0.046581976,-0.097827084,1001.2014, , , , 
2026-03-20 17:59:52.192,-0.51206404,5.0344987,7.240681,0.5158753,0.20616686,-0.25747952,-25.3875,-4.40625,-30.45,0.30361462,-0.044982933,-0.09920426,1001.2014, , , , 
2026-03-20 17:59:52.212,-1.038485,5.2019963,6.4271216,0.0980438,0.0070249448,-0.16096286,-25.556252,-4.3875003,-30.431252,0.30699703,-0.043338686,-0.10079317,1001.2014, , , , 
2026-03-20 17:59:52.232,-0.56470615,4.833502,6.6329045,-0.29168794,-0.18600832,-0.054672398,-25.66875,-4.70625,-30.35625,0.30577454,-0.043971516,-0.10219196,1001.2014, , , , 
2026-03-20 17:59:52.252,-0.5886344,4.5128636,6.728617,-0.37843072,-0.03573559,-0.0070249448,-25.612501,-5.3812504,-30.206251,0.30231956,-0.04468396,-0.1030616,1001.2031, , , , 
2026-03-20 17:59:52.272,-0.57427746,4.2687955,6.3792653,-0.26725334,0.14508039,0.03451386,-25.66875,-5.55,-30.243752,0.29921624,-0.04374369,-0.102909185,1001.2031, , , , 
2026-03-20 17:59:52.292,-0.71306115,4.3118663,4.814359,-0.2159407,0.25014913,0.062613636,-25.650002,-5.68125,-30.150002,0.2973356,-0.04164328,-0.10198031,1001.2031, , , , 
2026-03-20 17:59:52.312,-0.89491564,4.2927237,5.245067,-0.3649917,0.20494513,0.17745622,-25.687502,-5.1375003,-30.056252,0.2949195,-0.039035693,-0.10024418,1001.2031, , , , 
2026-03-20 17:59:52.332,-0.19621146,4.072584,5.9294147,-0.4639518,-0.082161315,0.20311254,-25.63125,-4.93125,-30.093752,0.290984,-0.038510125,-0.09833273,1001.2059, , , , 
2026-03-20 17:59:52.352,0.32542387,4.182654,6.7238317,-0.36132652,-0.24098615,0.11636974,-25.331251,-4.4437504,-30.112501,0.2865983,-0.04025031,-0.09741679,1001.2059, , , , 
2026-03-20 17:59:52.372,0.19142582,4.7425747,6.6424756,-0.09376775,-0.14202607,0.03451386,-25.312502,-3.9375002,-30.150002,0.284194,-0.042163722,-0.097441286,1001.2059, , , , 
2026-03-20 17:59:52.392,0.11006984,5.4987063,5.2642097,0.05650499,0.06933315,0.03329213,-25.462502,-3.4687502,-30.150002,0.28435057,-0.042568732,-0.09726644,1001.2059, , , , 
2026-03-20 17:59:52.412,-0.009571291,5.962914,5.072784,-0.09010255,0.13652828,0.06139191,-25.706251,-3.075,-29.94375,0.28466254,-0.04164565,-0.09649412,1001.2069, , , , 
2026-03-20 17:59:52.432,-0.38285163,6.096912,6.407979,-0.27091852,0.054672398,0.07849612,-26.04375,-2.9437501,-29.812502,0.28316057,-0.040643774,-0.09561096,1001.2069, , , , 
2026-03-20 17:59:52.452,-0.53599226,5.9342003,9.040084,-0.22327107,-0.09926552,0.11636974,-26.1,-2.86875,-29.85,0.2805181,-0.040763717,-0.0948612,1001.2069, , , , 
2026-03-20 17:59:52.472,0.5407779,6.0490556,9.221938,0.15913028,-0.14691298,0.083383046,-25.81875,-3.05625,-30.018751,0.27992415,-0.042582687,-0.09427784,1001.2069, , , , 
2026-03-20 17:59:52.492,0.89491564,6.4845495,8.178668,0.3924806,0.1291979,-0.011911863,-25.743752,-3.15,-30.093752,0.28272447,-0.04320731,-0.09382796,1001.20734, , , , 
2026-03-20 17:59:52.512,0.09092726,6.728617,8.126026,0.341168,0.23915356,-0.07177661,-25.706251,-3.2062502,-30.13125,0.286742,-0.041484285,-0.09353145,1001.20734, , , , 
2026-03-20 17:59:52.532,-0.5455636,6.795616,8.85823,0.19822562,0.08032872,-0.013133593,-25.706251,-3.2625,-30.018751,0.28954917,-0.040001854,-0.09341315,1001.20734, , , , 
2026-03-20 17:59:52.552,0.4642076,6.6281185,9.973285,0.120034926,-0.17745622,0.010079269,-25.368752,-3.2625,-29.906252,0.2908562,-0.040588208,-0.09336711,1001.20734, , , , 
2026-03-20 17:59:52.572,1.6462619,7.274181,9.102298,0.12614357,-0.3582722,-0.11453715,-25.237501,-3.2812502,-29.79375,0.29188034,-0.043259677,-0.09446392,1001.2076, , , , 
2026-03-20 17:59:52.592,1.5601203,7.9298143,7.853244,-0.11453715,-0.39370236,-0.23304491,-24.91875,-3.35625,-29.60625,0.2919542,-0.046589106,-0.09730124,1001.2076, , , , 
2026-03-20 17:59:52.612,1.430908,7.5756764,8.303095,-0.3808742,-0.22754712,-0.22204934,-24.618752,-3.45,-29.325,0.28938267,-0.048902914,-0.10053835,1001.2076, , , , 
2026-03-20 17:59:52.632,0.46899325,5.895915,10.911271,-0.48227775,0.085215636,-0.118202336,-24.768751,-3.61875,-28.931252,0.28509352,-0.048238438,-0.10249807,1001.2076, , , , 
2026-03-20 17:59:52.652,0.7704889,4.790431,11.60519,-0.43707374,-0.05894845,-0.05589413,-24.937502,-3.6562502,-28.9125,0.28059545,-0.047196433,-0.103369184,1001.2076, , , , 
2026-03-20 17:59:52.672,0.9236295,4.3788652,10.911271,-0.3356702,-0.10537417,-0.10354158,-25.10625,-3.6000001,-28.893751,0.27654073,-0.047702502,-0.10463157,1001.2076, , , , 
2026-03-20 17:59:52.692,0.6795616,4.3357944,9.848858,-0.2122755,0.13530655,-0.10231985,-25.181252,-3.4687502,-28.81875,0.2739258,-0.04692449,-0.10568985,1001.2076, , , , 
2026-03-20 17:59:52.712,0.66999036,4.359723,8.695518,-0.30757043,0.092546016,-0.118202336,-25.368752,-3.0375001,-28.781252,0.2717007,-0.045035813,-0.10640636,1001.2076, , , , 
2026-03-20 17:59:52.732,0.4833502,4.4458647,8.260024,-0.44562587,-0.049174614,-0.123089254,-25.29375,-2.86875,-28.706251,0.26807457,-0.04418115,-0.107701324,1001.2082, , , , 
2026-03-20 17:59:52.752,0.40677986,4.1204405,8.82473,-0.4101957,-0.008857539,-0.12064579,-25.10625,-2.5500002,-28.63125,0.26372284,-0.043828845,-0.109165356,1001.2082, , , , 
2026-03-20 17:59:52.772,0.29671,3.9433718,8.800801,-0.1291979,0.027794348,-0.11209369,-24.91875,-2.2125,-28.612501,0.26110703,-0.043035585,-0.110346355,1001.2082, , , , 
2026-03-20 17:59:52.792,0.3493521,4.2161536,7.159325,0.08949169,0.09987639,-0.1744019,-24.50625,-1.8937501,-28.48125,0.26120508,-0.042143743,-0.1115378,1001.2082, , , , 
2026-03-20 17:59:52.812,-0.13399807,4.5655055,6.9248285,0.15913028,0.17684536,-0.13897173,-24.562502,-1.8750001,-28.500002,0.26266927,-0.040447243,-0.11271315,1001.20776, , , , 
2026-03-20 17:59:52.832,0.10049855,4.436293,7.183254,0.2593121,0.07788526,-0.0876591,-24.862501,-1.9875001,-28.44375,0.26489693,-0.0390544,-0.113306,1001.20776, , , , 
2026-03-20 17:59:52.852,0.15792629,4.1922255,7.0348988,0.35705048,-0.11026109,-0.08888082,-25.218752,-2.30625,-28.275002,0.267874,-0.039276194,-0.11406028,1001.20776, , , , 
2026-03-20 17:59:52.872,-0.16271193,4.508078,5.9007006,0.3252855,-0.21899502,-0.021685699,-25.48125,-2.7,-28.125002,0.27117157,-0.041039597,-0.11494874,1001.20776, , , , 
2026-03-20 17:59:52.892,0.41635114,4.546363,5.6997037,0.13347395,-0.38026333,0.082161315,-25.368752,-2.79375,-27.937502,0.2730772,-0.04435956,-0.1153634,1001.20544, , , , 
2026-03-20 17:59:52.912,1.3304094,4.3501515,6.202196,0.09193515,-0.25076,0.051618073,-25.06875,-2.7375002,-27.73125,0.27362964,-0.047964036,-0.11548086,1001.20544, , , , 
2026-03-20 17:59:52.932,1.4835501,4.5128636,6.9391856,0.18234314,-0.03451386,-0.10231985,-24.88125,-2.625,-27.712502,0.27475923,-0.04944127,-0.11592936,1001.20544, , , , 
2026-03-20 17:59:52.952,0.11006984,4.354937,7.585248,0.36560258,-0.016187917,-0.14874557,-24.825,-2.5125,-27.900002,0.27738315,-0.04882471,-0.11698984,1001.20544,37.88752877,127.73742846,177.35980224609375,1.49
2026-03-20 17:59:52.972,0.009571291,4.7856455,8.360522,0.5696314,0.11453715,-0.06811142,-24.862501,-2.5875,-27.956251,0.2816862,-0.04888244,-0.117922164,1001.20416, , , , 
2026-03-20 17:59:52.992,0.30149564,5.3886366,6.7669024,0.7137955,0.2538143,-0.009468404,-24.975,-2.90625,-27.900002,0.28836846,-0.04782864,-0.117373474,1001.20416, , , , 
2026-03-20 17:59:53.012,-0.8470592,6.9009004,6.422336,0.26664248,0.28313583,0.14569125,-24.975,-3.2250001,-27.7875,0.2939987,-0.045837533,-0.11585285,1001.20416, , , , 
2026-03-20 17:59:53.032,-0.22971097,6.762117,9.083155,-0.2159407,-0.0736092,0.34483317,-24.843752,-3.6000001,-27.6,0.2944119,-0.045139663,-0.11306003,1001.20416, , , , 
2026-03-20 17:59:53.052,1.1437693,6.5228343,10.724631,-0.38331765,-0.38759372,0.37048948,-24.73125,-3.8625002,-27.45,0.29086056,-0.048364703,-0.11046745,1001.2031, , , , 
2026-03-20 17:59:53.072,2.0386848,6.728617,10.767702,-0.36132652,-0.22632541,0.2556469,-24.73125,-3.8437502,-27.375002,0.28673092,-0.052265428,-0.10852218,1001.2031, , , , 
2026-03-20 17:59:53.092,0.43070808,6.800402,11.576476,-0.37232208,-0.008857539,0.1640172,-24.712502,-3.73125,-27.16875,0.28297913,-0.053189963,-0.107094795,1001.2031, , , , 
2026-03-20 17:59:53.112,-0.014356935,6.2404814,11.796616,-0.36376998,-0.068722285,0.2556469,-24.675001,-3.6562502,-27.075,0.27925628,-0.053617682,-0.10546869,1001.2031, , , , 
2026-03-20 17:59:53.132,0.7609176,5.355137,12.222538,-0.2037234,-0.13469568,0.23976442,-24.618752,-3.35625,-27.075,0.2759589,-0.054909043,-0.103415556,1001.2029, , , , 
2026-03-20 17:59:53.152,1.0863415,4.331009,10.9352,0.12125666,-0.047952887,0.113926284,-24.16875,-2.8312502,-27.243752,0.27500296,-0.056520894,-0.10204169,1001.2029, , , , 
2026-03-20 17:59:53.172,1.1485549,4.072584,8.963513,0.31551164,0.109650224,-0.031459536,-23.94375,-2.2687502,-27.4125,0.27697,-0.05660794,-0.101318225,1001.2029, , , , 
2026-03-20 17:59:53.192,0.8853444,4.058227,6.9056864,0.28252497,0.123089254,-0.1414152,-23.85,-2.0062501,-27.50625,0.280046,-0.055553745,-0.10163777,1001.2029, , , , 
2026-03-20 17:59:53.212,0.61734825,4.2017965,5.4173503,0.03451386,0.17195843,-0.2037234,-23.79375,-1.575,-27.487501,0.2819432,-0.053917885,-0.10279904,1001.204, , , , 
2026-03-20 17:59:53.232,-0.37328035,4.398008,5.5657053,-0.25870124,0.21716243,-0.16584979,-23.85,-1.3687501,-27.300001,0.28112045,-0.05130326,-0.10417987,1001.204, , , , 
2026-03-20 17:59:53.252,-0.52163535,4.211368,6.4175506,-0.48716468,0.1291979,-0.029016078,-23.868752,-1.2750001,-27.2625,0.277712,-0.04884827,-0.1047907,1001.204, , , , 
2026-03-20 17:59:53.272,-0.17228323,3.8524444,7.475178,-0.52748173,0.14385866,0.041844238,-23.831251,-1.2375001,-27.2625,0.27282855,-0.04708055,-0.10461183,1001.204, , , , 
2026-03-20 17:59:53.292,-0.3062813,3.7854455,8.556734,-0.2855793,0.29901832,0.03329213,-23.71875,-1.25625,-27.375002,0.26888794,-0.044622324,-0.103862084,1001.2033, , , , 
2026-03-20 17:59:53.312,-0.18664017,3.9290147,8.212168,-0.0058032153,0.286801,0.019853106,-23.625,-1.125,-27.6,0.267852,-0.041500032,-0.102808654,1001.2033, , , , 
2026-03-20 17:59:53.332,0.20578274,4.359723,6.3744793,0.076052666,0.026572619,-0.059559315,-23.5125,-0.84375006,-27.900002,0.26862484,-0.039866958,-0.102486916,1001.2033, , , , 
2026-03-20 17:59:53.352,0.11006984,4.924429,5.8480587,-0.027794348,-0.10415245,-0.11942407,-23.4375,-0.41250002,-28.25625,0.26895574,-0.04016606,-0.10351269,1001.2033, , , , 
2026-03-20 17:59:53.372,-0.34456646,5.4843497,6.599405,0.010079269,-0.021074835,-0.066889696,-23.38125,0.075,-28.518751,0.26877895,-0.040607437,-0.1047238,1001.2029, , , , 
2026-03-20 17:59:53.392,0.009571291,5.6279187,6.4941206,0.1640172,0.20250167,3.054324E-4,-23.175001,0.375,-28.706251,0.26997092,-0.039647598,-0.10463728,1001.2029, , , , 
2026-03-20 17:59:53.412,-0.3589234,5.7667027,6.6711893,0.12492185,0.1621846,0.010079269,-22.875,0.3,-28.725,0.2719157,-0.037609115,-0.103903405,1001.2029, , , , 
2026-03-20 17:59:53.432,-0.29671,5.7188463,7.944171,0.05894845,-0.205556,0.057726722,-22.800001,0.24375,-28.687502,0.27278057,-0.037768055,-0.103575,1001.2029, , , , 
2026-03-20 17:59:53.452,1.0815558,5.656633,8.446664,0.21532984,-0.35338527,-0.016798781,-22.612501,0.3375,-28.462502,0.2736307,-0.041069433,-0.10409271,1001.2027, , , , 
2026-03-20 17:59:53.472,1.0049855,6.1495543,7.2933235,0.42180213,-0.014966187,-0.1744019,-22.518751,0.76875,-28.3875,0.27678066,-0.043342065,-0.105486974,1001.2027, , , , 
2026-03-20 17:59:53.492,-0.6221339,6.4366927,7.1784678,0.2629773,0.20005822,-0.14019346,-22.706251,0.82500005,-28.575,0.28068802,-0.042274818,-0.10668643,1001.2027, , , , 
2026-03-20 17:59:53.512,-0.9379865,5.9964137,9.442079,-0.065667965,0.08155045,-0.010690134,-22.9125,0.7875,-28.706251,0.2819354,-0.04044928,-0.106868364,1001.2027, , , , 
2026-03-20 17:59:53.532,0.033499517,5.6183476,12.356536,-0.051007207,-0.23121232,-0.066889696,-23.306252,0.50625,-29.175001,0.28077778,-0.040900342,-0.10736387,1001.2029, , , , 
2026-03-20 17:59:53.552,0.7178468,6.876972,10.719846,0.26053384,-0.34361145,-0.26480988,-23.550001,0.31875002,-29.493752,0.28157133,-0.04371054,-0.10991108,1001.2029, , , , 
2026-03-20 17:59:53.572,0.4546363,8.34138,8.130812,0.26542073,-0.043065965,-0.32100943,-23.925001,0.4875,-29.475,0.28448215,-0.045094665,-0.113311306,1001.2029, , , , 
2026-03-20 17:59:53.592,-0.18185452,8.059027,8.073383,-0.013133593,0.25014913,-0.22082762,-23.8875,0.58125,-29.5125,0.28630838,-0.043482244,-0.11561247,1001.2029, , , , 
2026-03-20 17:59:53.612,-0.7178468,6.570691,10.145568,-0.20983206,0.24770567,-0.07177661,-23.79375,0.71250004,-29.475,0.2855197,-0.04012451,-0.11627646,1001.20483, , , , 
2026-03-20 17:59:53.632,0.5694918,5.2977095,10.671989,-0.17562363,-0.0051923506,0.032070402,-23.8875,0.52500004,-29.56875,0.2835884,-0.03877559,-0.11606198,1001.20483, , , , 
2026-03-20 17:59:53.652,0.9619147,4.766503,9.652647,-0.16707152,0.04734202,0.028405212,-23.868752,0.3,-29.737501,0.281892,-0.038739346,-0.11583518,1001.20483, , , , 
2026-03-20 17:59:53.672,0.9523434,4.402794,9.221938,-0.26603162,0.15241076,0.088269964,-23.925001,0.22500001,-29.75625,0.2798899,-0.037617233,-0.115054734,1001.20483, , , , 
2026-03-20 17:59:53.692,1.6319051,3.9864426,9.212367,-0.40408704,0.01924224,0.044287696,-24.150002,0.28125,-29.868752,0.27656,-0.03663611,-0.11412149,1001.2082, , , , 
2026-03-20 17:59:53.712,1.2059826,3.8093736,9.609575,-0.38820457,-0.07116575,-0.10231985,-24.4125,0.65625,-30.243752,0.2722869,-0.03655511,-0.11461199,1001.2082, , , , 
2026-03-20 17:59:53.732,0.36370903,3.8620157,9.174082,-0.14752385,-0.032070402,-0.15607595,-24.487501,0.82500005,-30.31875,0.26933596,-0.036475036,-0.11615031,1001.2082, , , , 
2026-03-20 17:59:53.752,0.13399807,4.0438704,7.2550383,0.09682207,0.011911863,-0.13897173,-24.487501,0.82500005,-30.393751,0.2691204,-0.03617155,-0.11762397,1001.2082, , , , 
2026-03-20 17:59:53.772,0.22971097,4.26401,5.642276,0.0980438,0.07177661,-0.12186752,-24.35625,0.7875,-30.6375,0.27033532,-0.03552544,-0.118676975,1001.2095, , , , 
2026-03-20 17:59:53.792,-0.07178468,4.4554358,5.7667027,-0.01802051,0.08888082,-0.10476331,-24.431252,0.65625,-30.69375,0.27093795,-0.0344423,-0.11955217,1001.2095, , , , 
2026-03-20 17:59:53.812,-0.21535404,4.369294,6.8243303,0.0051923506,0.07055488,-0.04856375,-24.6,0.71250004,-30.900002,0.27090213,-0.033436626,-0.12010698,1001.2095, , , , 
2026-03-20 17:59:53.832,-0.13878371,4.254439,7.23111,0.13469568,0.11942407,-0.013133593,-24.6,0.82500005,-30.91875,0.271669,-0.032502994,-0.12008025,1001.2095, , , , 
2026-03-20 17:59:53.852,-0.21535404,4.4410787,7.1545396,0.22510368,0.092546016,0.010079269,-24.806252,0.88125,-30.7875,0.2735894,-0.031643488,-0.1197324,1001.2095, , , , 
2026-03-20 17:59:53.872,0.09571291,4.6229334,6.814759,0.27275112,-0.05650499,0.05894845,-24.6375,1.0875001,-30.581251,0.27601868,-0.031797826,-0.11924761,1001.2095, , , , 
2026-03-20 17:59:53.892,0.6364908,4.6468616,6.4701924,0.28130323,-0.06627883,0.05650499,-24.525002,1.1437501,-30.487501,0.2785536,-0.03308451,-0.11876461,1001.2095, , , , 
2026-03-20 17:59:53.912,0.32063824,4.74736,6.910472,0.309403,0.08888082,0.06627883,-24.656252,1.03125,-30.487501,0.28134868,-0.033549666,-0.11810191,1001.2095, , , , 
2026-03-20 17:59:53.932,0.29671,4.9531426,7.1066833,0.3839285,0.16462806,0.11148282,-24.712502,1.0125,-30.618752,0.28486252,-0.032952245,-0.11674411,1001.20776, , , , 
2026-03-20 17:59:53.952,0.60777694,5.111069,7.1688967,0.36804602,0.14263692,0.13591741,-24.843752,0.63750005,-30.91875,0.2886526,-0.032381795,-0.11496124,1001.20776,37.88753678,127.73744215,177.30426025390625,1.53
2026-03-20 17:59:53.972,0.038285162,5.326423,7.676175,0.23243405,0.13408482,0.17134757,-24.975,0.3,-31.050001,0.29183346,-0.03175512,-0.11303296,1001.20776, , , , 
2026-03-20 17:59:53.992,-0.2105684,5.5226345,8.537591,0.083383046,-0.013744458,0.2800815,-24.975,0.1875,-31.050001,0.29343587,-0.03189397,-0.11070011,1001.20776, , , , 
2026-03-20 17:59:54.012,0.80877405,5.5800624,9.68136,-0.060781047,-0.20677772,0.30573782,-24.975,-0.075,-30.91875,0.29315016,-0.03400294,-0.1081135,1001.20734, , , , 
2026-03-20 17:59:54.032,1.2346965,5.9246287,11.394622,-0.008246674,-0.17379104,0.21410811,-24.975,-0.4875,-30.91875,0.2920728,-0.03679131,-0.1062129,1001.20734, , , , 
2026-03-20 17:59:54.052,1.1437693,5.9724855,10.782059,0.12980877,-0.029626941,0.13836087,-24.91875,-0.5625,-30.975,0.292428,-0.03845078,-0.10476692,1001.20734, , , , 
2026-03-20 17:59:54.072,0.5982057,6.0490556,9.676575,-0.008246674,-0.003970621,0.07971785,-24.843752,-0.73125005,-30.993752,0.2930525,-0.039057747,-0.10378091,1001.20734, , , , 
2026-03-20 17:59:54.092,0.22013968,5.6039906,10.4566345,-0.23304491,-0.00763581,0.03084867,-25.050001,-0.975,-31.125002,0.2916178,-0.039089996,-0.103291295,1001.20905, , , , 
2026-03-20 17:59:54.112,0.033499517,4.733003,11.389835,-0.19761476,-0.023518294,-0.053450666,-25.425001,-1.2375001,-31.29375,0.28909558,-0.039033942,-0.10356251,1001.20905, , , , 
2026-03-20 17:59:54.132,-0.086141616,4.5272202,10.652846,0.00763581,0.091324285,-0.17928882,-25.837502,-1.2750001,-31.29375,0.2879932,-0.038266975,-0.10459586,1001.20905, , , , 
2026-03-20 17:59:54.152,-0.7752745,4.8861437,9.020942,0.03329213,0.14019346,-0.22937973,-25.987501,-1.0500001,-31.181252,0.28845698,-0.03642779,-0.10628913,1001.20905, , , , 
2026-03-20 17:59:54.172,-1.1389836,5.1014977,7.776674,-0.14752385,0.06444623,-0.13775001,-25.931252,-0.71250004,-31.0125,0.28810257,-0.034731593,-0.1078289,1001.211, , , , 
2026-03-20 17:59:54.192,-0.65084773,4.8382874,7.192825,-0.4016436,0.032681264,-0.013133593,-25.743752,-0.31875002,-30.862501,0.2855222,-0.03379972,-0.10847901,1001.211, , , , 
2026-03-20 17:59:54.212,-0.46899325,4.412365,7.7671022,-0.4883864,0.058337588,0.03329213,-25.556252,-0.31875002,-30.825,0.28115687,-0.032833274,-0.10839046,1001.211, , , , 
2026-03-20 17:59:54.232,-0.32063824,4.101298,7.503892,-0.45295623,-0.003970621,0.041844238,-25.5375,-0.54375005,-31.031252,0.27665588,-0.032038566,-0.10807185,1001.211, , , , 
2026-03-20 17:59:54.252,0.02871387,3.9960139,6.762117,-0.44073895,-0.1517999,0.041844238,-25.518751,-0.675,-31.331251,0.27225035,-0.032441,-0.10803551,1001.21246, , , , 
2026-03-20 17:59:54.272,0.16749759,4.1443686,6.1878395,-0.41263917,-0.13836087,0.022296565,-25.35,-0.71250004,-31.3875,0.26794383,-0.03372839,-0.10833935,1001.21246, , , , 
2026-03-20 17:59:54.292,0.02871387,4.4458647,6.3457656,-0.26358816,-0.0015271619,0.03695732,-25.425001,-0.43125,-31.425001,0.2645515,-0.034104746,-0.1083712,1001.21246, , , , 
2026-03-20 17:59:54.312,-0.047856454,4.752146,5.3647084,-0.14385866,0.033902995,0.021074835,-25.575,-0.01875,-31.556252,0.26286316,-0.033730637,-0.10806512,1001.21246, , , , 
2026-03-20 17:59:54.332,-0.6125626,5.0440702,5.460421,-0.21838416,0.0033597562,0.049174614,-25.650002,0.3375,-31.612501,0.26130188,-0.033372648,-0.10779802,1001.21375, , , , 
2026-03-20 17:59:54.352,-0.17228323,4.900501,6.407979,-0.2855793,-0.11759147,0.1188132,-25.875002,0.61875004,-31.66875,0.25887918,-0.033822794,-0.107109696,1001.21375, , , , 
2026-03-20 17:59:54.372,0.13399807,4.9435716,7.542177,-0.2489274,-0.19700389,0.054061532,-26.04375,0.82500005,-31.63125,0.25604707,-0.035370745,-0.1067468,1001.21375, , , , 
2026-03-20 17:59:54.392,0.15314065,5.197211,8.441878,0.029626941,-0.09682207,-0.016798781,-26.1375,0.975,-31.25625,0.25470978,-0.036838733,-0.10706119,1001.21375, , , , 
2026-03-20 17:59:54.412,0.09092726,5.613562,7.3986077,0.34849834,0.11331542,-0.09987639,-26.437502,1.21875,-30.843752,0.25685123,-0.03677896,-0.1074972,1001.2131, , , , 
2026-03-20 17:59:54.432,-0.63170516,6.2883377,6.9009004,0.29962918,0.1414152,-0.097432934,-26.437502,1.25625,-30.825,0.26051456,-0.035478204,-0.10806244,1001.2131, , , , 
2026-03-20 17:59:54.452,-0.6029913,6.5611196,7.618747,0.12370012,0.022907428,-0.0033597562,-26.325,1.3125,-30.825,0.26288918,-0.034646932,-0.10826024,1001.2131, , , , 
2026-03-20 17:59:54.472,0.0047856453,6.192625,9.652647,0.03084867,-0.044287696,0.025961753,-26.1,1.21875,-31.143751,0.263472,-0.034877785,-0.1080996,1001.2131, , , , 
2026-03-20 17:59:54.492,0.35413775,5.6853466,10.097712,0.20311254,-0.022296565,-0.04978548,-25.85625,0.95625,-31.556252,0.26444957,-0.03546353,-0.10821857,1001.211, , , , 
2026-03-20 17:59:54.512,0.2632105,5.9581285,9.044869,0.16523892,-0.003970621,-0.123089254,-25.800001,0.8625,-31.612501,0.26647177,-0.035542402,-0.10899253,1001.211, , , , 
2026-03-20 17:59:54.532,0.0047856453,6.829116,8.949157,-0.05589413,0.040011644,-0.1744019,-25.875002,0.69375,-31.706251,0.26723105,-0.03513784,-0.110405155,1001.211, , , , 
2026-03-20 17:59:54.552,-0.28235307,7.0205417,10.710274,-0.29290965,0.06811142,-0.14263692,-25.968752,0.52500004,-31.725,0.26565707,-0.033770762,-0.11181753,1001.211, , , , 
2026-03-20 17:59:54.572,0.9523434,6.647261,11.997613,-0.2782489,-0.18600832,-0.19028437,-25.9125,0.41250002,-31.706251,0.26263872,-0.03370599,-0.113525994,1001.2103, , , , 
2026-03-20 17:59:54.592,0.45942193,5.9437714,11.538191,-0.116980605,0.014355322,-0.26725334,-25.968752,0.45000002,-31.743752,0.26053068,-0.034193285,-0.116211124,1001.2103, , , , 
2026-03-20 17:59:54.612,-0.21535404,5.1876397,11.662618,0.022296565,0.17928882,-0.16584979,-26.1375,0.375,-31.706251,0.26025873,-0.03215205,-0.11800332,1001.2103, , , , 
2026-03-20 17:59:54.632,0.5024927,4.465007,10.619347,0.07116575,-0.0015271619,-0.11575887,-26.268751,0.41250002,-31.706251,0.26077345,-0.031080982,-0.11902537,1001.2103, , , , 
2026-03-20 17:59:54.652,1.2442678,4.2352962,9.45165,0.08704823,-0.011300999,-0.15729769,-26.456251,0.35625002,-31.7625,0.26139387,-0.031177096,-0.1202652,1001.21075, , , , 
2026-03-20 17:59:54.672,1.0336994,4.493721,8.681161,0.08704823,0.08643737,-0.25503606,-26.456251,0.3,-31.875002,0.2622309,-0.030489419,-0.12207404,1001.21075, , , , 
2026-03-20 17:59:54.692,-0.124426775,4.7952166,8.16431,0.07971785,0.14385866,-0.28313583,-26.2875,0.24375,-32.04375,0.26323336,-0.028748486,-0.124364845,1001.21075, , , , 
2026-03-20 17:59:54.712,-0.9954142,4.7569313,7.585248,0.068722285,0.07910699,-0.2037234,-26.19375,-0.0,-32.0625,0.26420096,-0.026988188,-0.126395,1001.21075, , , , 
2026-03-20 17:59:54.732,-0.94755775,4.4889355,6.8913293,0.052839804,-0.09193515,-0.08888082,-26.212502,-0.5625,-32.081253,0.26481837,-0.02663537,-0.12777154,1001.2123, , , , 
2026-03-20 17:59:54.752,-0.6125626,4.479364,6.0825553,0.06994402,-0.113926284,-0.011911863,-26.250002,-0.975,-32.006252,0.26528886,-0.027627315,-0.12858938,1001.2123, , , , 
2026-03-20 17:59:54.772,-0.3589234,4.4410787,5.599205,0.043065965,-0.017409647,0.051618073,-26.268751,-1.2375001,-31.9125,0.26590756,-0.028387424,-0.12856574,1001.2123, , , , 
2026-03-20 17:59:54.792,-0.18185452,4.206582,6.4175506,0.011300999,0.035124727,0.1065959,-26.156252,-1.3125,-31.95,0.266183,-0.028413398,-0.12772092,1001.2123, , , , 
2026-03-20 17:59:54.812,0.18664017,4.048656,6.910472,0.08093958,-0.082161315,0.08949169,-26.1,-1.25625,-32.025,0.2665263,-0.02892181,-0.12674893,1001.2131, , , , 
2026-03-20 17:59:54.832,0.18185452,4.249653,6.8339014,0.13225223,-0.19700389,0.062613636,-26.156252,-1.2750001,-32.04375,0.2673095,-0.03064137,-0.12637281,1001.2131, , , , 
2026-03-20 17:59:54.852,0.31585258,4.412365,6.829116,0.205556,-0.18234314,0.06750056,-26.156252,-1.3125,-32.2125,0.26865274,-0.03293306,-0.12622844,1001.2131, , , , 
2026-03-20 17:59:54.872,0.5455636,4.493721,6.8051877,0.2849684,-0.12614357,0.09560034,-26.306252,-1.44375,-32.2125,0.27079237,-0.034955833,-0.1257589,1001.2131, , , , 
2026-03-20 17:59:54.892,0.9284152,4.56072,6.2404814,0.36926776,-0.025961753,0.055283263,-26.2875,-1.48125,-32.175003,0.2738894,-0.036420096,-0.12504368,1001.2123, , , , 
2026-03-20 17:59:54.912,0.8662018,4.5798626,6.532406,0.35582873,0.044898562,0.012522728,-26.212502,-1.44375,-32.100002,0.27738243,-0.0369052,-0.12451985,1001.2123, , , , 
2026-03-20 17:59:54.932,1.0001999,4.752146,6.393622,0.3423897,0.060781047,-0.042455103,-26.118752,-1.5187501,-31.9125,0.28087464,-0.03691182,-0.124348454,1001.2123, , , , 
2026-03-20 17:59:54.952,0.09571291,5.1828537,6.111269,0.18600832,0.11209369,-0.07422007,-26.175001,-2.0625,-31.781252,0.28377965,-0.036465496,-0.1246916,1001.2123,37.8875452,127.73745605,177.3443603515625,1.51
2026-03-20 17:59:54.972,-0.44506502,5.4843497,7.7814593,-0.0632245,0.16584979,0.028405212,-26.23125,-2.2687502,-31.837502,0.28469294,-0.03497767,-0.12448271,1001.2116, , , , 
2026-03-20 17:59:54.992,-0.33020952,5.6757755,9.4229355,-0.24159703,0.05222894,0.0650571,-26.343752,-2.625,-31.968752,0.28333038,-0.03384782,-0.12374108,1001.2116, , , , 
2026-03-20 17:59:55.012,-0.19142582,6.3218374,10.695917,-0.2904662,-0.024740024,0.11148282,-26.38125,-2.9625,-32.193752,0.28061473,-0.033664256,-0.12302207,1001.2116, , , , 
2026-03-20 17:59:55.032,-0.014356935,6.45105,10.480563,-0.3894263,0.04612029,0.12370012,-26.362501,-2.98125,-32.4,0.27757448,-0.033628564,-0.12193337,1001.2116, , , , 
2026-03-20 17:59:55.052,-0.8662018,6.087341,12.380465,-0.5519163,-0.028405212,0.14202607,-26.306252,-2.7375002,-32.41875,0.27292073,-0.03301806,-0.12077014,1001.211, , , , 
2026-03-20 17:59:55.072,-0.67477596,5.206782,13.730017,-0.4346303,-0.17134757,0.17867795,-26.306252,-2.6437502,-32.362503,0.26759845,-0.033819582,-0.119690284,1001.211, , , , 
2026-03-20 17:59:55.092,-0.28713873,4.881358,13.753944,0.06627883,-0.1188132,0.09682207,-26.362501,-2.5125,-32.268753,0.26515895,-0.035444375,-0.11886403,1001.211, , , , 
2026-03-20 17:59:55.112,-0.35413775,5.096712,10.193424,0.46334094,0.16951497,0.054061532,-26.306252,-2.3812501,-32.23125,0.26795626,-0.035878774,-0.11807978,1001.211, , , , 
2026-03-20 17:59:55.132,-1.0480564,5.278567,8.63809,0.27030766,0.29657486,0.11148282,-26.23125,-2.2125,-32.25,0.2720969,-0.033983085,-0.11656175,1001.211, , , , 
2026-03-20 17:59:55.152,-0.75613195,4.7808595,8.819944,-0.12797616,-0.040622506,0.19822562,-26.212502,-2.11875,-32.287502,0.27292535,-0.032930203,-0.11462761,1001.211, , , , 
2026-03-20 17:59:55.172,0.28713873,4.0773697,9.595219,-0.2953531,-0.26908594,0.18356487,-26.19375,-1.8937501,-32.456253,0.27015728,-0.034986697,-0.113326274,1001.211, , , , 
2026-03-20 17:59:55.192,0.5599205,3.67059,9.595219,-0.0962112,-0.109039366,0.088269964,-26.250002,-1.725,-32.568752,0.2675712,-0.037126333,-0.112671606,1001.211, , , , 
2026-03-20 17:59:55.212,0.6221339,3.7136607,8.054241,0.14202607,-0.018631376,0.032070402,-26.38125,-1.8750001,-32.60625,0.26759857,-0.037861984,-0.112203516,1001.2106, , , , 
2026-03-20 17:59:55.232,0.7082755,3.8476589,6.0777693,0.1933387,-3.054324E-4,-0.014355322,-26.41875,-2.025,-32.60625,0.2692717,-0.038238965,-0.11206819,1001.2106, , , , 
2026-03-20 17:59:55.252,0.64606214,4.005585,4.613362,0.1065959,0.035124727,-0.033902995,-26.493752,-2.1000001,-32.49375,0.27083534,-0.038300328,-0.112194166,1001.2106, , , , 
2026-03-20 17:59:55.272,0.24885355,4.23051,4.4554358,-0.10598504,0.06444623,-0.04612029,-26.587502,-2.2125,-32.475002,0.2710563,-0.037675466,-0.11239899,1001.2106, , , , 
2026-03-20 17:59:55.292,-0.09092726,4.4171505,5.2689953,-0.23060146,0.04978548,-0.01802051,-26.41875,-1.85625,-32.5125,0.26956102,-0.036891133,-0.11266444,1001.2099, , , , 
2026-03-20 17:59:55.312,0.22971097,4.5415773,5.938986,-0.13041963,0.12064579,-0.04978548,-26.38125,-1.7437501,-32.49375,0.26785594,-0.035892215,-0.1127801,1001.2099, , , , 
2026-03-20 17:59:55.332,-0.18185452,4.847859,5.948557,0.06383537,0.26358816,-0.092546016,-26.325,-1.5187501,-32.456253,0.2679214,-0.033694897,-0.112995505,1001.2099, , , , 
2026-03-20 17:59:55.352,-1.3830515,5.3503513,5.1732826,0.088269964,0.228158,-0.033902995,-26.268751,-1.1625,-32.5875,0.269468,-0.030959094,-0.11304345,1001.2099, , , , 
2026-03-20 17:59:55.372,-1.2011969,5.4317074,6.1064835,-0.1084285,0.016798781,0.12980877,-26.400002,-1.1625,-32.86875,0.2697303,-0.029779337,-0.11227066,1001.20886, , , , 
2026-03-20 17:59:55.392,-0.34456646,5.139783,8.475378,-0.08643737,-0.008857539,0.16890411,-26.456251,-1.44375,-33.112503,0.26852092,-0.03014237,-0.11080846,1001.20886, , , , 
2026-03-20 17:59:55.412,0.33499518,5.0775695,9.461221,0.22754712,-0.0015271619,0.03695732,-26.268751,-1.63125,-33.206253,0.2691244,-0.030476743,-0.10969328,1001.20886, , , , 
2026-03-20 17:59:55.432,0.18664017,5.9581285,7.52782,0.36071566,-0.052839804,-0.097432934,-25.725,-1.7625,-33.018753,0.27231157,-0.031146495,-0.11005776,1001.20886, , , , 
2026-03-20 17:59:55.452,-0.7704889,6.652047,7.5756764,0.13225223,0.040011644,-0.04856375,-25.5375,-1.7625,-32.925003,0.27497995,-0.0313464,-0.1108971,1001.20734, , , , 
2026-03-20 17:59:55.472,-0.44985065,6.206982,9.446864,0.017409647,0.06811142,0.050396346,-25.425001,-1.5562501,-32.943752,0.2756942,-0.030778365,-0.11060788,1001.20734, , , , 
2026-03-20 17:59:55.492,-0.27756742,5.9437714,10.19821,0.008857539,-0.019853106,0.014966187,-25.593752,-1.7437501,-32.98125,0.27580836,-0.030633705,-0.11018863,1001.20734, , , , 
2026-03-20 17:59:55.512,-0.18185452,6.704689,9.858429,-0.014355322,-0.14080434,-0.02046397,-26.04375,-2.1937501,-33.037502,0.27573907,-0.031589564,-0.11057217,1001.20734, , , , 
2026-03-20 17:59:55.532,0.019142581,7.1545396,10.059426,-0.15851942,0.04367683,-0.011911863,-26.212502,-2.34375,-33.018753,0.2750069,-0.03201919,-0.11094892,1001.20544, , , , 
2026-03-20 17:59:55.552,0.20578274,6.977471,11.399407,-0.20494513,0.0754418,-0.015577052,-26.19375,-2.6437502,-32.850002,0.27323267,-0.031074723,-0.11090971,1001.20544, , , , 
2026-03-20 17:59:55.572,-0.16749759,5.977271,12.318251,-0.118202336,-0.017409647,-0.04734202,-26.04375,-2.6625001,-32.643753,0.27149823,-0.030350408,-0.11118239,1001.20544, , , , 
2026-03-20 17:59:55.592,0.25842485,5.4125648,11.136196,0.08949169,-0.16768238,0.011300999,-26.081251,-2.68125,-32.60625,0.27106214,-0.03108789,-0.11167203,1001.20544, , , , 
2026-03-20 17:59:55.612,1.4835501,4.991428,9.044869,0.101708986,-0.08093958,0.00763581,-26.00625,-2.625,-32.60625,0.27185825,-0.032711007,-0.11181813,1001.20526, , , , 
2026-03-20 17:59:55.632,1.4883357,4.948357,8.508878,-0.083993904,0.06933315,-0.10476331,-25.875002,-2.2875001,-32.71875,0.27206394,-0.032766487,-0.112187,1001.20526, , , , 
2026-03-20 17:59:55.652,0.7896315,4.948357,8.805588,-0.17684536,0.058337588,-0.1499673,-25.81875,-2.2687502,-32.8125,0.27085805,-0.031706966,-0.11327099,1001.20526, , , , 
2026-03-20 17:59:55.672,0.11964113,4.7569313,9.001799,-0.2244928,0.0070249448,-0.124310985,-25.893751,-2.325,-32.90625,0.2689024,-0.030751828,-0.1145957,1001.20526, , , , 
2026-03-20 17:59:55.692,0.07178468,4.503292,8.930014,-0.19394957,-0.1273653,-0.09376775,-25.9125,-2.4375,-32.925003,0.26673365,-0.030790925,-0.1158324,1001.2057, , , , 
2026-03-20 17:59:55.712,0.148355,4.273581,8.398808,-0.029016078,-0.1188132,-0.0876591,-25.781252,-2.7562501,-32.925003,0.26537675,-0.031741813,-0.117106564,1001.2057, , , , 
2026-03-20 17:59:55.732,0.09092726,4.3262234,7.0301127,0.20189081,0.07910699,-0.08277218,-25.800001,-2.7,-33.15,0.2661963,-0.03187196,-0.1179905,1001.2057, , , , 
2026-03-20 17:59:55.752,-0.41156548,4.599005,5.8624153,0.25076,0.19639303,-0.04612029,-25.66875,-2.5500002,-33.318752,0.2687172,-0.03060077,-0.118238226,1001.2057, , , , 
2026-03-20 17:59:55.772,-0.55034924,4.6707897,5.656633,0.15302163,0.14752385,0.052839804,-25.593752,-2.4562502,-33.3375,0.2710424,-0.029079236,-0.11767925,1001.2061, , , , 
2026-03-20 17:59:55.792,-0.3924229,4.388437,6.0251274,0.044287696,0.0058032153,0.14446951,-25.556252,-2.2125,-33.3375,0.2720522,-0.028727941,-0.116488434,1001.2061, , , , 
2026-03-20 17:59:55.812,-0.11006984,3.9050865,7.4416785,0.10293072,0.014355322,0.19211698,-25.518751,-2.1750002,-33.16875,0.2724969,-0.0292496,-0.1148294,1001.2061, , , , 
2026-03-20 17:59:55.832,0.6939186,3.871587,7.0061846,0.39003715,0.053450666,0.15668681,-25.5375,-2.4,-32.850002,0.27486205,-0.029753374,-0.11281916,1001.2061, , , , 
2026-03-20 17:59:55.852,0.8566305,4.3836513,6.2787666,0.458454,0.065667965,0.0736092,-25.593752,-2.41875,-32.79375,0.27905962,-0.029970367,-0.11134356,1001.2063, , , , 
2026-03-20 17:59:55.872,0.3062813,4.981857,6.206982,0.38515025,-0.0015271619,0.049174614,-25.781252,-2.68125,-32.775,0.2831818,-0.03039162,-0.11062662,1001.2063, , , , 
2026-03-20 17:59:55.892,0.32063824,5.015356,7.2789664,0.41813695,0.04612029,0.11026109,-26.025002,-3.1875002,-32.86875,0.28682867,-0.030972673,-0.10972942,1001.2063, , , , 
2026-03-20 17:59:55.912,0.6939186,5.0919266,6.9344,0.5195405,0.10598504,0.1188132,-26.081251,-3.2812502,-32.850002,0.29139015,-0.031162335,-0.10822523,1001.2063, , , , 
2026-03-20 17:59:55.932,0.4642076,5.3790655,6.3744793,0.44623673,0.18784092,0.083383046,-26.025002,-3.35625,-32.86875,0.29633358,-0.03071667,-0.10666883,1001.2061, , , , 
2026-03-20 17:59:55.952,-0.16749759,5.757131,7.628319,0.21655156,0.19394957,0.11270455,-25.687502,-3.4125001,-32.7,0.2997675,-0.02934591,-0.10506347,1001.2061,37.88755251,127.73746948,177.3275146484375,1.44
2026-03-20 17:59:55.972,0.3397808,5.895915,8.585447,0.05650499,0.09010255,0.12247839,-25.650002,-3.6375,-32.625,0.30126038,-0.028506199,-0.10340064,1001.2061, , , , 
2026-03-20 17:59:55.992,0.7609176,6.422336,9.762716,0.0015271619,0.058337588,0.06627883,-25.593752,-4.1062503,-32.8125,0.3014606,-0.028276412,-0.10226862,1001.2061, , , , 
2026-03-20 17:59:56.012,0.5072784,6.7381887,10.595419,0.040622506,0.22571453,0.03329213,-25.5375,-4.3125,-32.90625,0.30169144,-0.027283406,-0.10142937,1001.2059, , , , 
2026-03-20 17:59:56.032,-0.22492532,6.570691,10.911271,0.028405212,0.33078328,0.03940078,-25.575,-4.6687503,-33.075,0.30235147,-0.024564244,-0.10016458,1001.2059, , , , 
2026-03-20 17:59:56.052,-1.4404793,5.804988,11.504691,-0.2037234,0.09376775,0.11026109,-25.575,-4.8562503,-33.393753,0.30175158,-0.022264196,-0.09883043,1001.2059, , , , 
2026-03-20 17:59:56.072,-1.1916257,4.881358,12.638889,-0.22693627,-0.2764163,0.18112141,-25.500002,-4.8,-33.43125,0.29904598,-0.023253072,-0.09780087,1001.2059, , , , 
2026-03-20 17:59:56.092,-0.5886344,4.503292,11.404193,0.049174614,-0.22388195,0.16279547,-25.29375,-4.6312504,-33.318752,0.2974917,-0.026366565,-0.09704605,1001.2069, , , , 
2026-03-20 17:59:56.112,-0.7082755,4.5894337,9.365508,0.22754712,0.014355322,0.11759147,-25.143751,-4.425,-33.300003,0.2986948,-0.027704248,-0.09597249,1001.2069, , , , 
2026-03-20 17:59:56.132,-0.7704889,4.9052863,7.1449685,0.107817635,0.09376775,0.12858704,-24.975,-4.3125,-33.1875,0.30055434,-0.02741842,-0.094593704,1001.2069, , , , 
2026-03-20 17:59:56.152,-0.59342,4.790431,6.2979093,-0.25747952,-0.0015271619,0.13469568,-24.768751,-4.125,-33.075,0.3002384,-0.027148865,-0.09317901,1001.2069, , , , 
2026-03-20 17:59:56.172,-0.57906306,4.465007,7.0301127,-0.48349947,-0.045509428,0.13713914,-24.7875,-4.0875,-33.05625,0.29667217,-0.027421668,-0.09209573,1001.2082, , , , 
2026-03-20 17:59:56.192,-0.53599226,4.115655,8.274381,-0.481056,0.033902995,0.13225223,-24.806252,-4.14375,-33.075,0.29176462,-0.027393073,-0.09100486,1001.2082, , , , 
2026-03-20 17:59:56.212,-0.11485548,3.9481573,8.389236,-0.22082762,0.07299834,0.0980438,-24.825,-3.6000001,-33.28125,0.2882177,-0.026760232,-0.089773305,1001.2082, , , , 
2026-03-20 17:59:56.233,0.076570325,4.1347976,6.8817577,-0.0962112,0.0070249448,0.03451386,-24.862501,-3.2625,-33.43125,0.28678083,-0.02630773,-0.08900658,1001.2082, , , , 
2026-03-20 17:59:56.252,0.009571291,4.421936,5.9246287,-0.11575887,-0.0736092,0.00763581,-24.843752,-3.1125002,-33.525,0.28576458,-0.026589608,-0.08892368,1001.2097, , , , 
2026-03-20 17:59:56.272,0.043070808,4.6707897,5.5130634,-0.13041963,-0.107817635,0.012522728,-24.91875,-2.90625,-33.487503,0.28454408,-0.027418856,-0.08913152,1001.2097, , , , 
2026-03-20 17:59:56.292,0.047856454,4.8287163,5.5369916,-0.10598504,-0.0980438,-0.0033597562,-25.031252,-2.9625,-33.24375,0.28336138,-0.028354283,-0.08941427,1001.2097, , , , 
2026-03-20 17:59:56.312,0.09092726,5.005785,5.493921,-0.04367683,-0.06750056,-0.013133593,-25.1625,-3.075,-33.09375,0.28265923,-0.029059738,-0.089748114,1001.2097, , , , 
2026-03-20 17:59:56.332,0.22013968,5.2929235,5.1349974,-0.059559315,-0.07849612,-0.026572619,-25.25625,-3.0375001,-33.075,0.28234515,-0.02967514,-0.09015649,1001.2112, , , , 
2026-03-20 17:59:56.352,0.11006984,5.6183476,5.962914,-0.09987639,0.004581486,-0.036346454,-25.425001,-2.8500001,-33.075,0.2816137,-0.029931005,-0.09060676,1001.2112, , , , 
2026-03-20 17:59:56.372,-0.062213387,5.838487,6.7525454,-0.054672398,0.08155045,-0.040011644,-25.781252,-2.625,-33.375,0.2810571,-0.029284699,-0.09081845,1001.2112, , , , 
2026-03-20 17:59:56.392,-0.52163535,5.9724855,7.446464,-0.042455103,0.031459536,-0.040011644,-25.85625,-2.5687501,-33.375,0.28079396,-0.028423864,-0.09106926,1001.2112, , , , 
2026-03-20 17:59:56.412,0.0047856453,6.192625,8.039884,-0.010690134,-0.055283263,-0.037568185,-25.893751,-2.41875,-33.43125,0.2805998,-0.028473787,-0.091454566,1001.2112, , , , 
2026-03-20 17:59:56.432,0.27756742,6.661618,8.7577305,0.052839804,0.009468404,-0.098654665,-25.575,-2.1937501,-33.5625,0.2808675,-0.0286338,-0.09217179,1001.2112, , , , 
2026-03-20 17:59:56.452,0.05742774,6.977471,9.695718,0.10415245,0.051007207,-0.14874557,-25.125002,-2.15625,-33.487503,0.28170997,-0.02804223,-0.09321102,1001.2112, , , , 
2026-03-20 17:59:56.472,-0.41156548,7.0540414,10.049855,0.16768238,0.044898562,-0.15241076,-24.937502,-2.1937501,-33.393753,0.28314632,-0.027244616,-0.09451367,1001.2112, , , , 
2026-03-20 17:59:56.492,-0.31585258,7.192825,9.887143,0.20433427,0.031459536,-0.13286309,-24.7875,-2.325,-33.1875,0.28509095,-0.026610514,-0.09572865,1001.2112, , , , 
2026-03-20 17:59:56.512,0.09571291,7.4847493,9.188439,0.09926552,-0.028405212,-0.14508039,-24.6375,-2.34375,-33.318752,0.28684688,-0.026378457,-0.096964136,1001.2112, , , , 
2026-03-20 17:59:56.532,-0.18664017,7.432107,10.030712,-0.0632245,-0.0015271619,-0.13775001,-24.581251,-2.30625,-33.506252,0.28714964,-0.02614027,-0.09842278,1001.2112, , , , 
2026-03-20 17:59:56.552,0.18664017,6.8195443,10.619347,-0.09498947,-0.03329213,-0.09010255,-24.581251,-2.3625002,-33.600002,0.2863807,-0.025931329,-0.099550486,1001.2112, , , , 
2026-03-20 17:59:56.572,0.15314065,5.804988,11.169696,-0.08277218,-0.013744458,-0.08888082,-24.675001,-2.68125,-33.693752,0.28538942,-0.025807116,-0.10049049,1001.2114, , , , 
2026-03-20 17:59:56.592,0.6029913,5.0536413,10.643275,0.011300999,-0.160352,-0.06811142,-24.768751,-2.90625,-33.65625,0.28483552,-0.02628537,-0.10143693,1001.2114, , , , 
2026-03-20 17:59:56.612,1.5457634,4.709075,9.08794,0.027183482,-0.12370012,-0.12797616,-24.900002,-3.15,-33.412502,0.28480655,-0.0278113,-0.10273025,1001.2114, , , , 
2026-03-20 17:59:56.632,1.1964114,4.7808595,8.709874,-0.008246674,0.118202336,-0.228158,-24.993752,-3.15,-33.375,0.2848768,-0.02743131,-0.104406394,1001.2114, , , , 
2026-03-20 17:59:56.652,0.7082755,4.895715,8.422736,-0.08277218,0.14385866,-0.26358816,-25.050001,-3.0,-33.300003,0.28464177,-0.025365993,-0.106341414,1001.2123, , , , 
2026-03-20 17:59:56.672,0.14356937,4.723432,8.283952,-0.2367101,-0.03451386,-0.2611447,-25.181252,-3.2250001,-33.28125,0.28319746,-0.023878757,-0.10872846,1001.2123, , , , 
2026-03-20 17:59:56.692,0.038285162,4.3118663,8.79123,-0.26847506,-0.1273653,-0.228158,-25.237501,-3.3187501,-33.28125,0.28048983,-0.02377947,-0.11137859,1001.2123, , , , 
2026-03-20 17:59:56.712,0.47856453,4.0773697,9.083155,-0.01924224,-0.082161315,-0.25137085,-25.35,-3.3937502,-33.2625,0.27871907,-0.024038449,-0.11393033,1001.2123, , , , 
2026-03-20 17:59:56.732,0.40677986,4.4075794,7.8484583,0.2837467,0.042455103,-0.33444846,-25.48125,-3.4875002,-33.318752,0.28006348,-0.023609415,-0.116735086,1001.21375, , , , 
2026-03-20 17:59:56.752,-0.19142582,4.7425747,6.202196,0.38637197,0.12675445,-0.33689192,-25.612501,-3.5062501,-33.1875,0.28370222,-0.022148846,-0.11963729,1001.21375, , , , 
2026-03-20 17:59:56.772,-0.66041905,4.8861437,5.4987063,0.28619015,0.07666353,-0.24770567,-25.612501,-3.3937502,-33.16875,0.28729028,-0.020698853,-0.12213898,1001.21375, , , , 
2026-03-20 17:59:56.792,-0.37806597,4.7425747,5.5465627,0.1432478,-0.0650571,-0.13775001,-25.5375,-3.43125,-33.225002,0.28947824,-0.020259077,-0.12387043,1001.21375, , , , 
2026-03-20 17:59:56.812,0.31585258,4.694718,5.8624153,-0.0058032153,-0.22632541,-0.10354158,-25.2,-3.61875,-33.206253,0.28998193,-0.021525472,-0.1253734,1001.2139, , , , 
2026-03-20 17:59:56.832,0.55034924,4.6707897,7.097112,-0.004581486,-0.2715294,-0.1291979,-24.768751,-3.7687502,-33.2625,0.28940192,-0.023769045,-0.12724118,1001.2139, , , , 
2026-03-20 17:59:56.852,0.52163535,4.6564326,7.1976104,0.20922118,-0.10537417,-0.12797616,-24.487501,-4.125,-33.3375,0.29003385,-0.025551576,-0.12904204,1001.2139, , , , 
2026-03-20 17:59:56.872,0.6029913,4.8047876,6.474978,0.34483317,0.033902995,-0.11942407,-24.375002,-4.3125,-33.2625,0.29283193,-0.025827238,-0.13013886,1001.2139, , , , 
2026-03-20 17:59:56.892,0.38763726,5.163711,6.273981,0.2764163,0.0058032153,-0.1291979,-24.468752,-4.36875,-33.1875,0.29595813,-0.025688471,-0.13115157,1001.2142, , , , 
2026-03-20 17:59:56.912,0.5455636,5.3407803,6.896115,0.20311254,-0.1065959,-0.12675445,-24.69375,-4.6875,-33.018753,0.29812726,-0.026267525,-0.13243939,1001.2142, , , , 
2026-03-20 17:59:56.932,0.5455636,5.2929235,7.743174,0.25076,-0.07971785,-0.16340633,-24.750002,-4.89375,-32.90625,0.30007288,-0.02715653,-0.13399844,1001.2142, , , , 
2026-03-20 17:59:56.952,0.37806597,5.651847,7.4656067,0.3497201,-0.013744458,-0.16707152,-24.937502,-5.4750004,-32.850002,0.30296397,-0.027560104,-0.13563001,1001.2142,37.88755937,127.73748197,177.34210205078125,1.43
2026-03-20 17:59:56.972,0.41635114,6.250053,6.690332,0.22876886,0.027794348,-0.16340633,-25.0125,-6.05625,-32.86875,0.30598626,-0.027532576,-0.13707297,1001.2142, , , , 
2026-03-20 17:59:56.992,0.60777694,6.5276203,8.30788,-0.0058032153,0.085215636,-0.12186752,-25.10625,-6.5062504,-32.831253,0.3071288,-0.026707154,-0.13813445,1001.2142, , , , 
2026-03-20 17:59:57.012,1.2394822,6.6281185,9.202796,-0.110871956,0.04734202,-0.16707152,-25.181252,-6.8437505,-32.79375,0.3067086,-0.0257075,-0.1391639,1001.2142, , , , 
2026-03-20 17:59:57.032,0.35413775,6.63769,9.221938,-0.32223117,0.12186752,-0.23793183,-25.087502,-6.9187503,-32.79375,0.30495986,-0.0242706,-0.14093208,1001.2142, , , , 
2026-03-20 17:59:57.052,-0.9762716,6.1208405,11.375479,-0.66065025,0.11942407,-0.17318016,-25.10625,-7.05,-32.662502,0.30047277,-0.021416692,-0.1425826,1001.2146, , , , 
2026-03-20 17:59:57.072,-1.1820544,4.5655055,14.825929,-0.6716458,-0.1933387,-0.098654665,-25.06875,-7.1062503,-32.60625,0.29351333,-0.019882228,-0.14399841,1001.2146, , , , 
2026-03-20 17:59:57.092,0.30149564,3.7040894,14.136796,-0.15241076,-0.5207622,-0.2037234,-24.900002,-7.0125003,-32.60625,0.28830191,-0.022432698,-0.1464786,1001.2146, , , , 
2026-03-20 17:59:57.112,0.8279166,4.23051,10.169497,0.2886336,-0.35216355,-0.40042186,-24.956251,-6.80625,-32.662502,0.2882828,-0.026210783,-0.15071616,1001.2146, , , , 
2026-03-20 17:59:57.132,-0.06699903,5.0775695,7.4033933,0.29718572,-0.083383046,-0.48716468,-24.993752,-6.5062504,-32.68125,0.29117495,-0.027230972,-0.15550725,1001.21545, , , , 
2026-03-20 17:59:57.152,-0.75613195,5.326423,6.943971,-0.035124727,-0.23976442,-0.4016436,-25.087502,-6.0,-32.756252,0.29241735,-0.027349513,-0.16013926,1001.21545, , , , 
2026-03-20 17:59:57.172,-0.2727818,5.015356,7.4847493,-0.26847506,-0.41325003,-0.31612253,-25.2,-5.8875003,-32.662502,0.29042,-0.029268958,-0.16453142,1001.21545, , , , 
2026-03-20 17:59:57.193,0.07178468,4.5272202,8.34138,-0.22327107,-0.30695954,-0.3026835,-25.275002,-6.0375004,-32.15625,0.28726977,-0.031496488,-0.16854802,1001.21545, , , , 
2026-03-20 17:59:57.212,0.09571291,4.412365,8.111669,-0.116980605,-0.20311254,-0.31612253,-25.312502,-6.20625,-32.0625,0.28526488,-0.032722156,-0.17221895,1001.2152, , , , 
2026-03-20 17:59:57.232,0.33499518,4.302295,7.3459654,-0.062002774,-0.30329436,-0.33078328,-25.368752,-6.6937504,-32.100002,0.28413397,-0.033912916,-0.17594509,1001.2152, , , , 
2026-03-20 17:59:57.252,0.5982057,4.254439,6.4462643,-0.0876591,-0.40591964,-0.35766134,-25.3875,-6.80625,-32.15625,0.28291538,-0.03630625,-0.18022639,1001.2152, , , , 
2026-03-20 17:59:57.272,0.8039884,4.2975097,6.1878395,-0.08888082,-0.35705048,-0.3649917,-25.5375,-7.0875,-32.23125,0.281491,-0.038913567,-0.1847342,1001.2152, , , , 
2026-03-20 17:59:57.292,1.0863415,4.287938,6.192625,-0.033902995,-0.29840744,-0.45417798,-25.781252,-7.3875003,-32.15625,0.28040934,-0.04084103,-0.18937624,1001.2148, , , , 
2026-03-20 17:59:57.312,0.67477596,4.469793,6.0011992,-0.022907428,-0.2800815,-0.5250383,-26.156252,-7.55625,-31.81875,0.279877,-0.04215836,-0.19475465,1001.2148, , , , 
2026-03-20 17:59:57.332,0.6125626,4.5415773,5.9724855,-0.05589413,-0.33261588,-0.56535536,-26.56875,-7.70625,-31.48125,0.2792029,-0.043537796,-0.20072833,1001.2148, , , , 
2026-03-20 17:59:57.352,0.9236295,4.718646,6.4462643,-0.032681264,-0.3497201,-0.63132876,-26.643751,-7.6125,-31.29375,0.27829653,-0.045112446,-0.20726727,1001.2148, , , , 
2026-03-20 17:59:57.372,0.5599205,5.393422,6.350551,0.054061532,-0.23365578,-0.70707595,-26.60625,-7.5000005,-31.050001,0.2781733,-0.046238355,-0.21441098,1001.2146, , , , 
2026-03-20 17:59:57.392,0.2105684,5.8337016,6.862615,0.044287696,-0.22754712,-0.6863066,-26.60625,-7.6312504,-31.031252,0.27864116,-0.04647991,-0.22151528,1001.2146, , , , 
2026-03-20 17:59:57.412,0.7752745,5.9437714,7.489535,0.028405212,-0.35338527,-0.6875283,-26.737501,-7.93125,-31.087502,0.27870333,-0.04747223,-0.22860828,1001.2146, , , , 
2026-03-20 17:59:57.432,1.416551,6.0346985,8.350951,0.0650571,-0.37659815,-0.77182764,-27.056252,-8.4375,-30.937502,0.27859637,-0.049163055,-0.23633079,1001.2146, , , , 
2026-03-20 17:59:57.452,0.98584294,6.2548385,8.953942,0.19578215,-0.3582722,-0.8768964,-27.468752,-9.13125,-30.675001,0.27926466,-0.05076175,-0.24503264,1001.2139, , , , 
2026-03-20 17:59:57.472,0.9667004,6.1495543,8.666803,0.27885976,-0.27275112,-0.8597922,-27.618752,-9.618751,-30.4125,0.28119022,-0.052067783,-0.25383282,1001.2139, , , , 
2026-03-20 17:59:57.492,1.2490535,6.053841,8.9013,0.24831653,-0.16523892,-0.87078774,-27.6375,-9.88125,-30.2625,0.28358933,-0.05243791,-0.26217124,1001.2139, , , , 
2026-03-20 17:59:57.512,1.0815558,6.5084777,8.312666,-0.013133593,-0.39858928,-0.9440915,-27.656252,-10.5,-29.98125,0.28465647,-0.052777536,-0.27112317,1001.2139, , , , 
2026-03-20 17:59:57.532,0.7465607,6.8482585,10.19821,-0.46639526,-0.684474,-0.95020014,-27.562502,-11.25,-29.737501,0.281153,-0.054617446,-0.28161174,1001.2142, , , , 
2026-03-20 17:59:57.552,1.0049855,6.364908,11.959328,-0.34666577,-0.521984,-0.9440915,-27.4125,-11.94375,-29.587502,0.27570415,-0.056843285,-0.29227751,1001.2142, , , , 
2026-03-20 17:59:57.572,0.8422736,6.0251274,12.504891,3.054324E-4,-0.27763805,-0.9636392,-27.206251,-12.450001,-29.475,0.2733697,-0.05718137,-0.30204728,1001.2142, , , , 
2026-03-20 17:59:57.592,0.9236295,6.111269,10.0881405,0.03451386,-0.45112363,-0.95020014,-27.112501,-12.656251,-29.306252,0.2732212,-0.05812266,-0.3117166,1001.2142, , , , 
2026-03-20 17:59:57.612,0.9954142,5.599205,9.896714,-0.25870124,-0.4621192,-0.8927789,-27.225,-12.825001,-29.1375,0.27117154,-0.059724998,-0.32140338,1001.2148, , , , 
2026-03-20 17:59:57.632,1.0241281,4.800002,11.117054,-0.35888305,-0.43157595,-0.8145882,-27.225,-12.937501,-29.04375,0.26715744,-0.06053329,-0.33048132,1001.2148, , , , 
2026-03-20 17:59:57.652,1.3639089,4.321438,11.557333,-0.21471897,-0.44623673,-0.87200946,-27.31875,-13.35,-28.9125,0.26311797,-0.06139885,-0.3392723,1001.2148, , , , 
2026-03-20 17:59:57.672,0.6652047,4.2257247,10.849058,-0.014355322,-0.45601055,-0.9257656,-27.35625,-13.650001,-28.875002,0.2607665,-0.06267385,-0.34856027,1001.2148, , , , 
2026-03-20 17:59:57.692,-0.15314065,4.2017965,9.370294,0.1188132,-0.6881392,-0.88667023,-27.4125,-14.1,-28.781252,0.25969276,-0.06538895,-0.35814443,1001.21674, , , , 
2026-03-20 17:59:57.712,0.31585258,4.182654,7.2550383,0.21044292,-0.8665117,-0.8280272,-27.581251,-14.45625,-28.3875,0.25878754,-0.07087876,-0.3677103,1001.21674, , , , 
2026-03-20 17:59:57.732,0.55034924,4.302295,5.3742795,0.29596397,-0.7553343,-0.80603606,-27.750002,-14.775001,-28.031252,0.25858337,-0.07722286,-0.3769325,1001.21674, , , , 
2026-03-20 17:59:57.752,0.038285162,4.618148,3.9146578,0.27885976,-0.45967576,-0.74617136,-27.937502,-15.056251,-27.768751,0.25964057,-0.08183248,-0.3852035,1001.21674, , , , 
2026-03-20 17:59:57.772,-0.038285162,4.575077,3.8811584,0.12370012,-0.20189081,-0.5861248,-28.275002,-15.900001,-27.4125,0.26097828,-0.083724536,-0.3916394,1001.21735, , , , 
2026-03-20 17:59:57.792,0.47856453,4.173083,5.5513487,0.018631376,-0.15913028,-0.52870345,-28.406252,-16.368752,-27.337502,0.26139256,-0.084086165,-0.39675897,1001.21735, , , , 
2026-03-20 17:59:57.812,0.53599226,4.1874394,6.8339014,0.094378605,-0.22510368,-0.6044507,-28.500002,-17.081251,-27.150002,0.2615078,-0.08460578,-0.40211046,1001.21735, , , , 
2026-03-20 17:59:57.832,0.24885355,4.5224347,7.623533,0.20677772,-0.21532984,-0.6582068,-28.556252,-17.643751,-26.94375,0.26236647,-0.08560179,-0.40810695,1001.21735, , , , 
2026-03-20 17:59:57.852,-0.6029913,4.8047876,7.8628154,0.3130682,-0.14080434,-0.56902057,-28.575,-18.018751,-26.587502,0.26451346,-0.08656259,-0.41380975,1001.2163, , , , 
2026-03-20 17:59:57.872,-0.13878371,4.613362,8.451449,0.3594939,-0.1273653,-0.4725039,-28.48125,-18.206251,-26.175001,0.26723513,-0.087736316,-0.4183257,1001.2163, , , , 
2026-03-20 17:59:57.892,0.14356937,4.7042894,8.7577305,0.46944958,-0.17134757,-0.45784315,-28.44375,-18.525002,-25.9125,0.27049485,-0.08954801,-0.42234418,1001.2163, , , , 
2026-03-20 17:59:57.912,0.2105684,5.015356,8.63809,0.5745183,-0.17012584,-0.4468476,-28.35,-18.9375,-25.781252,0.27458733,-0.09212485,-0.42624184,1001.2163, , , , 
2026-03-20 17:59:57.932,0.2632105,5.3503513,8.532805,0.65759593,-0.07971785,-0.40775225,-28.031252,-19.35,-25.7625,0.27970225,-0.094688326,-0.4296635,1001.2133, , , , 
2026-03-20 17:59:57.952,0.41156548,5.895915,7.4847493,0.61239195,-0.03695732,-0.34300056,-27.900002,-19.85625,-25.85625,0.28529808,-0.097108245,-0.43242767,1001.2133,37.88756566,127.73749412,177.3912353515625,1.4
2026-03-20 17:59:57.972,0.55034924,6.384051,7.3603225,0.32162032,-0.0015271619,-0.22937973,-27.91875,-20.5125,-25.7625,0.2896458,-0.098518424,-0.4343407,1001.2133, , , , 
2026-03-20 17:59:57.992,1.2490535,6.2979093,8.681161,-0.041233372,-0.15790854,-0.17928882,-27.900002,-21.206251,-25.518751,0.29052645,-0.099386774,-0.43600547,1001.2133, , , , 
2026-03-20 17:59:58.012,1.0671989,5.761917,10.102497,-0.20861033,-0.16279547,-0.24159703,-28.0125,-22.10625,-25.0125,0.2888166,-0.09985961,-0.43829182,1001.2116, , , , 
2026-03-20 17:59:58.032,0.3397808,5.4987063,10.925629,-0.25992295,-0.14080434,-0.25503606,-27.993752,-22.331251,-24.7875,0.2862053,-0.099472724,-0.44107124,1001.2116, , , , 
2026-03-20 17:59:58.052,0.2105684,4.9674997,11.184053,-0.2611447,-0.19456044,-0.23793183,-27.768751,-22.706251,-24.431252,0.2832955,-0.099008635,-0.44386244,1001.2116, , , , 
2026-03-20 17:59:58.072,1.1437693,4.4458647,11.207981,-0.118202336,-0.28619015,-0.34544402,-27.431252,-22.931252,-24.4125,0.28040287,-0.099398635,-0.44709566,1001.2116, , , , 
2026-03-20 17:59:58.092,1.3543376,4.4410787,9.60479,0.03940078,-0.18112141,-0.5421425,-27.50625,-23.00625,-24.45,0.27911916,-0.10025172,-0.45148987,1001.21204, , , , 
2026-03-20 17:59:58.112,0.23449662,4.685147,8.398808,-0.01924224,-0.17867795,-0.6740893,-27.54375,-23.025002,-24.525002,0.27914232,-0.09998057,-0.45705572,1001.21204, , , , 
2026-03-20 17:59:58.132,-0.14356937,4.7282176,7.8628154,-0.27214026,-0.45601055,-0.6557633,-27.6,-23.1375,-24.712502,0.27702427,-0.1001826,-0.46371648,1001.21204, , , , 
2026-03-20 17:59:58.152,0.56470615,4.115655,8.642876,-0.36132652,-0.48411033,-0.68997175,-27.656252,-23.587502,-24.525002,0.27226803,-0.10101654,-0.47096878,1001.21204, , , , 
2026-03-20 17:59:58.172,0.23449662,3.871587,8.877372,-0.21349724,-0.35582873,-0.77671456,-27.562502,-23.925001,-24.50625,0.26833048,-0.10112557,-0.47847417,1001.2131, , , , 
2026-03-20 17:59:58.192,-0.43070808,4.115655,7.9106717,-0.04856375,-0.31551164,-0.80603606,-27.525002,-24.075,-24.618752,0.26636603,-0.10117265,-0.486108,1001.2131, , , , 
2026-03-20 17:59:58.212,-0.7178468,4.4075794,6.843473,0.0051923506,-0.3008509,-0.7486148,-27.45,-24.150002,-24.6375,0.2655065,-0.10159828,-0.49338427,1001.2131, , , , 
2026-03-20 17:59:58.232,-0.7800602,4.6899323,5.7954164,-0.10109812,-0.35216355,-0.6520982,-27.337502,-24.13125,-24.806252,0.26455244,-0.102151275,-0.49995413,1001.2131, , , , 
2026-03-20 17:59:58.252,-0.71306115,4.7856455,6.1495543,-0.37110037,-0.55008376,-0.5592467,-27.16875,-24.13125,-24.900002,0.2611389,-0.10308245,-0.50630563,1001.2142, , , , 
2026-03-20 17:59:58.272,-0.4211368,4.651647,7.7623167,-0.42363474,-0.66003937,-0.52626,-26.98125,-24.281252,-24.73125,0.25508824,-0.10462394,-0.51270896,1001.2142, , , , 
2026-03-20 17:59:58.292,-0.34456646,4.723432,8.322237,-0.14385866,-0.49754936,-0.5103775,-26.85,-24.525002,-24.4125,0.2501467,-0.10668478,-0.51873106,1001.2142, , , , 
2026-03-20 17:59:58.312,-0.043070808,4.9292145,7.393822,0.14446951,-0.3741547,-0.52870345,-26.75625,-24.73125,-24.13125,0.24869677,-0.108900435,-0.5238357,1001.2142, , , , 
2026-03-20 17:59:58.332,-0.45942193,5.4173503,6.518049,0.16523892,-0.39736754,-0.5897899,-26.625002,-24.73125,-23.868752,0.24873748,-0.111518815,-0.52906674,1001.2148, , , , 
2026-03-20 17:59:58.352,-0.9092726,5.651847,6.8099732,0.083383046,-0.43524116,-0.56902057,-26.437502,-24.73125,-23.75625,0.24823286,-0.114161186,-0.53465587,1001.2148, , , , 
2026-03-20 17:59:58.372,-0.72741807,5.503492,8.188239,0.18234314,-0.28619015,-0.5189296,-26.175001,-25.031252,-23.71875,0.24781202,-0.116428606,-0.53974515,1001.2148, , , , 
2026-03-20 17:59:58.392,-0.49292147,5.532206,8.810373,0.50121456,-0.11514801,-0.49938196,-26.00625,-25.875002,-23.737501,0.25018692,-0.118409686,-0.5437643,1001.2148, , , , 
2026-03-20 17:59:58.412,-0.2536392,6.259624,7.6809607,0.53420126,-0.25809038,-0.56046844,-26.00625,-26.175001,-23.775002,0.25431693,-0.12145419,-0.54765135,1001.21375, , , , 
2026-03-20 17:59:58.432,-0.43070808,6.853044,7.618747,0.341168,-0.5244274,-0.5335904,-26.062502,-26.75625,-23.625,0.25632808,-0.12577325,-0.5524763,1001.21375, , , , 
2026-03-20 17:59:58.452,-0.0526421,6.613762,8.719446,0.29352054,-0.51221013,-0.46028662,-26.1375,-27.243752,-23.362501,0.2563226,-0.13047686,-0.5572894,1001.21375, , , , 
2026-03-20 17:59:58.472,0.6412765,6.498906,9.025727,0.38881543,-0.39370236,-0.45906487,-26.081251,-27.487501,-22.837502,0.25712487,-0.1348082,-0.56141746,1001.21375, , , , 
2026-03-20 17:59:58.492,1.1772687,7.111469,8.6141615,0.28252497,-0.41813695,-0.54580766,-25.7625,-28.0125,-22.087502,0.25830767,-0.1389168,-0.56571615,1001.21265, , , , 
2026-03-20 17:59:58.512,0.38285163,7.5086775,9.131011,0.00641408,-0.37293294,-0.58123785,-25.706251,-28.237501,-21.91875,0.25814363,-0.14163418,-0.5708092,1001.21265, , , , 
2026-03-20 17:59:58.532,-0.038285162,6.8195443,11.576476,-0.24159703,-0.5158753,-0.49571678,-25.650002,-28.5375,-21.581251,0.25531718,-0.14274451,-0.57619303,1001.21265, , , , 
2026-03-20 17:59:58.552,0.7752745,5.020142,13.098311,-0.118202336,-0.7027999,-0.4883864,-25.650002,-28.95,-21.337502,0.25040016,-0.14504026,-0.58177745,1001.21265, , , , 
2026-03-20 17:59:58.572,1.8329022,4.479364,11.01177,0.19700389,-0.63316137,-0.571464,-25.650002,-29.362501,-20.98125,0.24714117,-0.14920942,-0.587397,1001.2131, , , , 
2026-03-20 17:59:58.592,1.8999012,4.4889355,8.508878,0.23487751,-0.41202828,-0.6826414,-25.556252,-29.56875,-20.643751,0.24655096,-0.15311778,-0.5930446,1001.2131, , , , 
2026-03-20 17:59:58.612,1.3639089,4.6085763,7.6713896,0.016187917,-0.26908594,-0.7241802,-25.425001,-29.85,-20.5125,0.24649853,-0.15468536,-0.59891206,1001.2131, , , , 
2026-03-20 17:59:58.632,0.9092726,4.5128636,8.56152,-0.24404047,-0.2886336,-0.733954,-25.406252,-30.206251,-20.38125,0.24494325,-0.1541522,-0.60513717,1001.2131, , , , 
2026-03-20 17:59:58.652,0.5694918,4.517649,9.188439,-0.32223117,-0.34727663,-0.75228,-25.3875,-30.562502,-20.268751,0.24174449,-0.15301782,-0.61188835,1001.2142, , , , 
2026-03-20 17:59:58.672,0.22492532,4.354937,9.489935,-0.2538143,-0.33017242,-0.7644973,-25.218752,-30.825,-20.212502,0.23846884,-0.15184869,-0.61873305,1001.2142, , , , 
2026-03-20 17:59:58.692,-0.2009971,4.398008,9.255438,-0.031459536,-0.35216355,-0.7571669,-24.993752,-31.087502,-20.0625,0.23613966,-0.15151414,-0.6254133,1001.2142, , , , 
2026-03-20 17:59:58.712,-0.06699903,4.5224347,7.4656067,0.20189081,-0.3252855,-0.7278454,-24.431252,-31.462502,-20.025002,0.23561071,-0.1528018,-0.6314898,1001.2142, , , , 
2026-03-20 17:59:58.732,-0.09092726,4.6372905,6.1064835,0.24953826,-0.3594939,-0.7217367,-24.243752,-31.63125,-20.025002,0.2363534,-0.1550445,-0.63710517,1001.21716, , , , 
2026-03-20 17:59:58.752,-0.11485548,4.7712884,5.4891353,0.17623448,-0.45112363,-0.67653275,-23.90625,-32.100002,-19.95,0.23638348,-0.1577902,-0.6427312,1001.21716, , , , 
2026-03-20 17:59:58.772,0.076570325,4.6899323,5.7858453,0.11270455,-0.39614582,-0.6007855,-23.737501,-32.775,-19.40625,0.23558268,-0.16041549,-0.64804435,1001.21716, , , , 
2026-03-20 17:59:58.792,0.148355,4.5128636,6.680761,0.1640172,-0.3460549,-0.54092073,-23.625,-32.925003,-19.2,0.23501164,-0.16256417,-0.6527126,1001.21716, , , , 
2026-03-20 17:59:58.812,0.6891329,4.402794,6.8913293,0.25076,-0.2886336,-0.51282096,-23.38125,-33.2625,-18.91875,0.23511027,-0.16507082,-0.65678453,1001.2176, , , , 
2026-03-20 17:59:58.832,0.5072784,4.388437,6.7238317,0.33261588,-0.1933387,-0.51404274,-20.306252,-33.9375,-27.075,0.23631456,-0.16762769,-0.6604357,1001.2176, , , , 
2026-03-20 17:59:58.852,-0.07178468,4.508078,6.963114,0.26175556,-0.20189081,-0.46761698,-19.96875,-34.143753,-27.000002,0.23803145,-0.1697908,-0.6637505,1001.2176, , , , 
2026-03-20 17:59:58.872,-0.11006984,4.5320063,7.436893,0.1933387,-0.3497201,-0.42485645,-19.44375,-34.3125,-26.85,0.2384756,-0.17213471,-0.66706014,1001.2176, , , , 
2026-03-20 17:59:58.892,-0.16749759,4.666004,8.537591,0.28252497,-0.32772896,-0.43340856,-18.993752,-34.74375,-26.250002,0.23813917,-0.17497802,-0.67047524,1001.21735, , , , 
2026-03-20 17:59:58.912,-0.52163535,4.9579287,8.432307,0.43646288,-0.20311254,-0.4309651,-18.84375,-34.96875,-26.04375,0.23946127,-0.1781523,-0.67343247,1001.21735, , , , 
2026-03-20 17:59:58.932,-0.8662018,5.584848,7.652247,0.45967576,-0.20311254,-0.33689192,-18.6375,-35.381252,-25.781252,0.24212529,-0.18154357,-0.67566717,1001.21735, , , , 
2026-03-20 17:59:58.952,-0.66999036,6.1974106,6.5898337,0.17501275,-0.32284203,-0.2403753,-18.46875,-36.0,-25.725,0.24325629,-0.18501894,-0.67761904,1001.21735,37.88756937,127.73750864,177.39794921875,1.35
2026-03-20 17:59:58.972,-0.27756742,6.4175506,7.972885,-0.20005822,-0.29352054,-0.123089254,-18.2625,-36.131252,-25.48125,0.24136077,-0.1867693,-0.6796248,1001.2176, , , , 
2026-03-20 17:59:58.992,0.16271193,6.2261243,10.298709,-0.25137085,-0.23487751,-0.11331542,-17.79375,-36.28125,-25.368752,0.2380992,-0.18667966,-0.68146014,1001.2176, , , , 
2026-03-20 17:59:59.012,0.2727818,6.3457656,10.413564,-0.16951497,-0.12370012,-0.20494513,-17.400002,-36.393753,-25.29375,0.23560604,-0.18619871,-0.6832705,1001.2176, , , , 
2026-03-20 17:59:59.032,-0.9667004,6.9344,10.820344,-0.27336198,-0.0980438,-0.24281874,-17.2875,-36.45,-25.125002,0.2339872,-0.18477842,-0.6854345,1001.2176, , , , 
2026-03-20 17:59:59.052,-1.7850457,6.6568327,11.576476,-0.3686569,-0.2837467,-0.13164136,-17.2875,-36.3375,-25.1625,0.23088776,-0.18323274,-0.68780506,1001.2176, , , , 
2026-03-20 17:59:59.072,-0.9284152,5.6183476,12.710674,-0.18906265,-0.51343185,-0.013133593,-17.475,-36.2625,-25.25625,0.2260902,-0.18353261,-0.6897222,1001.2176, , , , 
2026-03-20 17:59:59.092,0.5407779,4.9052863,10.968699,0.24709481,-0.57818353,-0.10231985,-17.53125,-36.318752,-25.10625,0.22214484,-0.18736348,-0.69128835,1001.2176, , , , 
2026-03-20 17:59:59.112,0.7704889,4.8287163,8.441878,0.48411033,-0.2849684,-0.25014913,-17.550001,-36.393753,-25.10625,0.22152244,-0.19268858,-0.6927352,1001.2176, , , , 
2026-03-20 17:59:59.132,-0.033499517,5.020142,6.862615,0.3924806,-0.082161315,-0.29901832,-17.7,-36.787502,-25.0125,0.22374204,-0.19648807,-0.6940661,1001.21924, , , , 
2026-03-20 17:59:59.152,-0.55513483,4.9292145,6.6089764,0.19700389,-0.088269964,-0.25625777,-17.75625,-37.18125,-24.956251,0.22566949,-0.1983642,-0.6954936,1001.21924, , , , 
2026-03-20 17:59:59.172,-0.6029913,4.6085763,6.1591253,-0.008246674,-0.19578215,-0.19394957,-17.6625,-37.3125,-24.900002,0.22574455,-0.19943586,-0.6971023,1001.21924, , , , 
2026-03-20 17:59:59.192,-0.53599226,4.4985065,6.0825553,-0.15118903,-0.23854269,-0.15974113,-17.475,-37.275,-24.7875,0.22403413,-0.19989678,-0.69892526,1001.21924, , , , 
2026-03-20 17:59:59.212,-0.4211368,4.4602213,5.881558,-0.2196059,-0.24709481,-0.13286309,-17.2875,-37.3125,-24.6375,0.22141166,-0.1998648,-0.70079935,1001.2195, , , , 
2026-03-20 17:59:59.232,-0.1052842,4.316652,6.0011992,-0.29657486,-0.22266021,-0.11331542,-17.25,-37.3875,-24.6,0.21835081,-0.1993421,-0.7025905,1001.2195, , , , 
2026-03-20 17:59:59.252,0.18664017,4.063013,6.7334027,-0.25137085,-0.15790854,-0.18051054,-17.493752,-37.55625,-24.69375,0.21533985,-0.19831963,-0.7044979,1001.2195, , , , 
2026-03-20 17:59:59.272,-0.32542387,4.23051,6.9583282,-0.14874557,-0.101708986,-0.2367101,-17.60625,-37.575,-24.712502,0.21356311,-0.1971953,-0.7065389,1001.2195, , , , 
2026-03-20 17:59:59.292,-0.35413775,4.699504,6.556334,-0.097432934,-0.15546508,-0.25137085,-17.625,-37.443752,-25.0125,0.21245097,-0.19661093,-0.70859146,1001.2184, , , , 
2026-03-20 17:59:59.312,-0.32063824,5.2689953,6.2931237,-0.0962112,-0.22999059,-0.2623664,-17.493752,-37.18125,-25.25625,0.21096894,-0.19672927,-0.71084034,1001.2184, , , , 
2026-03-20 17:59:59.332,-0.39720857,5.517849,6.6759753,-0.038789913,-0.16646065,-0.23793183,-17.2875,-37.237503,-25.218752,0.2095604,-0.19706184,-0.7130265,1001.2184, , , , 
2026-03-20 17:59:59.352,-0.1052842,5.6949177,6.7094746,0.044287696,-0.13347395,-0.25747952,-17.081251,-37.29375,-25.275002,0.20908791,-0.19762632,-0.7148259,1001.2184, , , , 
2026-03-20 17:59:59.372,-0.148355,6.2404814,6.9009004,0.018631376,-0.15546508,-0.2904662,-16.875,-37.29375,-25.237501,0.20888256,-0.1983391,-0.7167644,1001.2176, , , , 
2026-03-20 17:59:59.392,-0.72263247,6.7669024,8.819944,-0.07422007,-0.14813471,-0.2819141,-16.66875,-37.40625,-25.237501,0.20827055,-0.19847278,-0.71897113,1001.2176, , , , 
2026-03-20 17:59:59.412,-0.7609176,6.9056864,10.380065,0.12858704,-0.21044292,-0.182954,-16.462502,-37.350002,-25.406252,0.20744988,-0.19916922,-0.7208351,1001.2176, , , , 
2026-03-20 17:59:59.432,-0.033499517,6.843473,9.848858,0.40103272,-0.17623448,-0.16096286,-16.3875,-37.4625,-25.312502,0.2080315,-0.20205072,-0.7217183,1001.2176, , , , 
2026-03-20 17:59:59.452,-0.65084773,7.1162543,8.690732,0.4486802,-0.113926284,-0.16340633,-16.331251,-37.96875,-24.937502,0.21023689,-0.20589638,-0.72215146,1001.21606, , , , 
2026-03-20 17:59:59.472,-0.7465607,7.0301127,8.973084,0.3081813,-0.17501275,-0.09010255,-16.425001,-38.23125,-24.768751,0.21204522,-0.20930819,-0.7224359,1001.21606, , , , 
2026-03-20 17:59:59.492,0.16749759,7.2358956,9.255438,0.23854269,-0.29718572,-0.11331542,-16.368752,-38.625,-24.69375,0.21226645,-0.2125406,-0.7229037,1001.21606, , , , 
2026-03-20 17:59:59.512,0.2536392,7.6570325,8.685946,0.14569125,-0.25686863,-0.18784092,-16.29375,-38.756252,-24.54375,0.2116892,-0.21563411,-0.7240212,1001.21606, , , , 
2026-03-20 17:59:59.532,-0.033499517,7.5086775,9.379865,0.051618073,-0.13225223,-0.15974113,-16.3125,-38.90625,-24.13125,0.21133709,-0.21716416,-0.7252934,1001.2142, , , , 
2026-03-20 17:59:59.552,0.43070808,6.364908,9.523434,0.016187917,-0.120034926,-0.13164136,-16.21875,-38.90625,-23.362501,0.2108479,-0.21798702,-0.7263352,1001.2142, , , , 
2026-03-20 17:59:59.572,0.4211368,5.493921,9.690931,0.028405212,-0.08704823,-0.15118903,-16.1625,-38.90625,-22.9125,0.21050468,-0.21839543,-0.727371,1001.2142, , , , 
2026-03-20 17:59:59.592,0.83748794,4.9770713,8.944371,-0.016798781,-0.27275112,-0.1414152,-16.1625,-39.0,-22.85625,0.20950761,-0.2192209,-0.72862345,1001.2142, , , , 
2026-03-20 17:59:59.612,1.8424734,4.5272202,7.944171,-0.1414152,-0.2837467,-0.16707152,-15.975,-39.300003,-23.025002,0.20696402,-0.22024854,-0.7303206,1001.2133, , , , 
2026-03-20 17:59:59.632,1.9381863,4.3740797,8.106883,-0.2489274,-0.113926284,-0.3026835,-15.843751,-39.975002,-23.41875,0.20451008,-0.2195724,-0.73256403,1001.2133, , , , 
2026-03-20 17:59:59.652,0.79920274,4.5655055,8.877372,-0.21349724,-0.018631376,-0.39064804,-15.993751,-40.18125,-23.6625,0.20317262,-0.21739051,-0.73538005,1001.2133, , , , 
2026-03-20 17:59:59.672,-0.02871387,4.800002,8.566305,-0.11575887,-0.03573559,-0.3686569,-15.993751,-40.18125,-23.775002,0.20274761,-0.21551391,-0.73813504,1001.2133, , , , 
2026-03-20 17:59:59.692,-0.22013968,4.7856455,7.63789,-0.10720677,-0.13469568,-0.318566,-15.975,-40.0875,-23.8875,0.2022011,-0.21455456,-0.7405861,1001.2123, , , , 
2026-03-20 17:59:59.712,-0.17706887,4.575077,7.456035,-0.12064579,-0.23976442,-0.26358816,-15.637501,-39.862503,-23.831251,0.20059974,-0.2142077,-0.7430058,1001.2123, , , , 
2026-03-20 17:59:59.732,0.19621146,4.4841495,6.9296145,-0.038789913,-0.27763805,-0.25014913,-15.39375,-39.787502,-23.775002,0.19863732,-0.21463987,-0.7452544,1001.2123, , , , 
2026-03-20 17:59:59.752,0.3493521,4.465007,6.2883377,0.03329213,-0.18967351,-0.26358816,-15.056251,-39.75,-23.737501,0.1973273,-0.21563289,-0.7472637,1001.2123, , , , 
2026-03-20 17:59:59.772,0.086141616,4.3932223,6.3074803,0.12247839,-0.0858265,-0.24770567,-14.718751,-39.91875,-23.6625,0.19729167,-0.21649191,-0.7489109,1001.2114, , , , 
2026-03-20 17:59:59.792,0.22492532,4.4745784,5.9437714,0.16523892,-0.012522728,-0.2452622,-14.625001,-40.0125,-23.7,0.19827077,-0.21748033,-0.75012666,1001.2114, , , , 
2026-03-20 17:59:59.812,-0.11006984,4.6755753,6.178268,0.15057817,0.021685699,-0.26480988,-14.606251,-40.050003,-23.75625,0.19984804,-0.2181612,-0.75126016,1001.2114, , , , 
2026-03-20 17:59:59.832,-0.42592242,4.847859,6.829116,0.22632541,-0.03451386,-0.21716243,-14.512501,-40.125,-23.71875,0.20137988,-0.21907005,-0.7523211,1001.2114, , , , 
