Time,Accel_X,Accel_Y,Accel_Z,Gyro_X,Gyro_Y,Gyro_Z,Mag_X,Mag_Y,Mag_Z,Orient_X,Orient_Y,Orient_Z,Pressure,Lat,Lng,Alt,Speed
2025-09-27 18:07:44.570,0.30388847,3.9098723,9.0233345,0.028863361,-0.1098793,0.02649626,-15.843751,-43.706253,-34.36875,0.15965621,0.13192004,0.70466554,1001.4411,37.88837463,127.73985949,142.086181640625,0.0
2025-09-27 18:07:44.591,0.701097,4.017549,8.690732,-0.05665771,-0.015195262,-0.04925097,-15.806251,-44.30625,-35.268753,0.16012214,0.13131845,0.7045055,1001.4411, , , , 
2025-09-27 18:07:44.609,0.5982057,3.871587,9.413364,-0.027336199,0.067271486,-0.05902481,-13.931251,-45.3375,-37.575,0.1599265,0.1310575,0.70425767,1001.4379, , , , 
2025-09-27 18:07:44.630,0.47856453,4.024728,9.702896,0.055130545,0.18394665,-0.043753188,-15.431251,-46.7625,-35.325,0.15892796,0.13159123,0.7041562,1001.4379, , , , 
2025-09-27 18:07:44.649,0.41156548,3.9984066,9.099904,0.091782436,0.14729477,-0.020540329,-17.475,-45.975002,-35.006252,0.15796727,0.1331676,0.70417607,1001.4489, , , , 
2025-09-27 18:07:44.670,0.5096712,4.141976,9.135797,0.055130545,0.08498656,-0.04130973,-17.831251,-46.275,-34.48125,0.15769447,0.13448018,0.7040813,1001.4489, , , , 
2025-09-27 18:07:44.689,0.33260235,4.1347976,8.932407,0.04046979,0.0721584,-0.04130973,-16.837502,-44.193752,-33.318752,0.15764037,0.13563481,0.70375586,1001.45233, , , , 
2025-09-27 18:07:44.709,0.39481574,4.0965123,8.853444,0.0019853106,0.083764836,-0.010766491,-17.212502,-45.225002,-31.987501,0.15738568,0.13656299,0.7036489,1001.45233, , , , 
2025-09-27 18:07:44.729,0.48095736,4.0271206,8.985049,-0.0029016077,0.051389,0.0014508038,-16.650002,-44.025,-34.575,0.15712,0.13704436,0.70373756,1001.4589, , , , 
2025-09-27 18:07:44.749,0.4235296,3.9194436,8.927621,-0.0029016077,0.0074067353,0.006948587,-16.10625,-45.09375,-35.34375,0.15704998,0.13709588,0.7038343,1001.4589, , , , 
2025-09-27 18:07:44.769,0.42831525,3.8285162,9.06162,-0.021227552,-0.0035888306,0.0075594517,-17.53125,-45.506252,-33.6375,0.15705064,0.13674213,0.7039221,1001.46967, , , , 
2025-09-27 18:07:44.789,0.35653058,3.8955152,9.075976,-0.04382955,0.017791437,0.018555017,-15.168751,-44.625,-33.768753,0.15671977,0.13626502,0.70410734,1001.46967, , , , 
2025-09-27 18:07:44.809,0.3900301,3.9242291,9.200403,-0.041996952,0.045280352,0.028328855,-15.843751,-43.706253,-34.6875,0.15609865,0.13599622,0.7044001,1001.476, , , , 
2025-09-27 18:07:44.830,0.36610186,3.9074793,9.097511,-0.020616686,0.04772381,0.013668099,-17.362501,-45.35625,-33.1875,0.1553567,0.13585952,0.7047648,1001.476, , , , 
2025-09-27 18:07:44.849,0.40438703,3.9720855,9.140582,0.0025961753,0.03978257,-0.0058795735,-15.093751,-45.0,-33.91875,0.15498887,0.13593742,0.70488656,1001.49554, , , , 
2025-09-27 18:07:44.869,0.3397808,3.9744785,9.02812,0.008704823,0.03489565,-0.01809687,-18.243752,-46.068752,-33.84375,0.15483302,0.13614184,0.7048552,1001.49554, , , , 
2025-09-27 18:07:44.890,0.19860429,3.9290147,8.949157,-0.034666575,0.0410043,-9.926553E-4,-16.725,-45.05625,-32.5125,0.15447971,0.13633798,0.7048348,1001.5214, , , , 
2025-09-27 18:07:44.909,0.15553348,3.9050865,9.102298,-0.045051277,0.047112945,0.017944153,-16.2,-45.375,-33.16875,0.15371726,0.13644144,0.7049819,1001.5214, , , , 
2025-09-27 18:07:44.929,0.19860429,3.938586,9.030513,-0.018784093,0.05383246,0.032604907,-16.10625,-44.11875,-32.325,0.15294148,0.13658984,0.7052583,1001.5434, , , , 
2025-09-27 18:07:44.949,0.3062813,3.9816568,9.0544405,7.6358096E-4,0.039171703,0.033215772,-15.6,-44.68125,-34.2,0.15247214,0.13689934,0.705556,1001.5434, , , , 
2025-09-27 18:07:44.969,0.3469593,3.9888353,9.221938,0.016035201,0.0037415468,0.010002911,-16.650002,-44.775,-34.3875,0.15243341,0.13703558,0.705744,1001.56586, , , , 
2025-09-27 18:07:44.990,0.083748795,4.0127635,8.973084,0.008093959,-0.0072540194,0.013057235,-18.4125,-44.71875,-32.9625,0.15260477,0.13711184,0.705767,1001.56586, , , , 
2025-09-27 18:07:45.009,0.14596218,4.0295134,9.114262,-0.0151189035,0.010461059,0.03565923,-16.21875,-44.737503,-33.65625,0.1524166,0.13737568,0.7058983,1001.5893, , , , 
2025-09-27 18:07:45.029,0.19860429,4.0031924,9.272188,0.015424335,0.022067491,0.03565923,-16.725,-45.05625,-32.98125,0.152237,0.13756159,0.7061273,1001.5893, , , , 
2025-09-27 18:07:45.049,0.17706887,4.0366917,9.1669035,0.044745844,0.051389,0.035048366,-18.1875,-44.325,-33.16875,0.15210257,0.13803488,0.7063616,1001.61127, , , , 
2025-09-27 18:07:45.069,0.2847459,4.072584,9.107083,0.039858926,0.049556404,0.03199404,-17.025002,-45.300003,-35.4,0.15205336,0.13876873,0.7065821,1001.61127, , , , 
2025-09-27 18:07:45.089,0.28953153,4.132405,9.116654,0.031306818,0.025121814,0.015500694,-16.78125,-44.550003,-32.68125,0.15216182,0.13927446,0.706739,1001.6347, , , , 
2025-09-27 18:07:45.109,0.2321038,4.072584,9.131011,0.034361143,0.023900084,0.0032833982,-16.48125,-45.393753,-33.75,0.152402,0.13974892,0.7067691,1001.6347, , , , 
2025-09-27 18:07:45.130,0.28235307,4.0558343,8.965906,0.016646065,0.05688678,0.010002911,-17.19375,-45.225002,-33.375,0.15230058,0.14028071,0.70682347,1001.64594, , , , 
2025-09-27 18:07:45.149,0.33260235,4.0103707,8.968299,-0.0029016077,0.08071051,-0.00160352,-16.9125,-45.43125,-34.78125,0.15198804,0.14080602,0.7069519,1001.64594, , , , 
2025-09-27 18:07:45.169,0.32063824,4.0031924,9.15494,-0.00962112,0.05933024,-0.019929463,-16.81875,-44.925003,-34.2,0.15156668,0.14115658,0.70701385,1001.66425, , , , 
2025-09-27 18:07:45.189,0.27038896,3.9744785,9.257831,0.011148282,0.041615162,-0.028481571,-16.29375,-44.49375,-34.59375,0.151215,0.14133614,0.70696753,1001.66425, , , , 
2025-09-27 18:07:45.211,0.18424734,3.95055,8.977871,0.014202606,0.048334677,-0.01687514,-16.1625,-43.74375,-33.5625,0.15089011,0.14165132,0.7068819,1001.6613, , , , 
2025-09-27 18:07:45.232,0.25842485,3.9888353,8.939586,-0.014508039,0.062995434,-0.010766491,-17.081251,-45.3375,-32.925003,0.15033157,0.14217782,0.70688707,1001.6613, , , , 
2025-09-27 18:07:45.250,0.21296121,3.938586,9.066405,-0.007177661,0.026343543,-0.029092435,-16.725,-44.30625,-32.7,0.15000662,0.14229968,0.7068474,1001.6762, , , , 
2025-09-27 18:07:45.270,0.124426775,3.9314077,9.030513,-0.005345067,0.012293654,-0.035201084,-17.15625,-44.98125,-32.30625,0.14977305,0.14235124,0.7066692,1001.6762, , , , 
2025-09-27 18:07:45.290,0.1052842,3.938586,9.032906,-0.013286309,0.048334677,-0.027870705,-16.44375,-45.15,-33.15,0.14929706,0.14257185,0.7065226,1001.70135, , , , 
2025-09-27 18:07:45.310,0.09092726,3.9290147,8.812766,-0.022449281,0.06849321,-0.027259842,-16.48125,-45.393753,-34.21875,0.1486947,0.14292848,0.7064277,1001.70135, , , , 
2025-09-27 18:07:45.331,0.17228323,3.9744785,8.855837,-0.046883874,0.05627592,-0.0297033,-16.087502,-44.850002,-33.825,0.14798668,0.14324696,0.70636505,1001.72186, , , , 
2025-09-27 18:07:45.352,0.2847459,3.9720855,8.85823,-0.07987057,0.061773703,-0.040698867,-16.650002,-44.04375,-33.80625,0.14713061,0.14321172,0.7062985,1001.72186, , , , 
2025-09-27 18:07:45.370,0.2440679,4.0151563,8.973084,-0.09025527,0.062995434,-0.04497492,-15.50625,-44.0625,-32.381252,0.14655621,0.14304756,0.7062576,1001.7343, , , , 
2025-09-27 18:07:45.390,0.0023928226,4.022335,8.898908,-0.102472566,0.037949976,-0.026038112,-15.95625,-44.2125,-33.881252,0.14574033,0.14287579,0.70619226,1001.7343, , , , 
2025-09-27 18:07:45.410,-0.11964113,3.95055,9.425328,-0.07803798,0.030008731,-0.0040469794,-15.225,-44.15625,-32.86875,0.14457385,0.14261529,0.70624477,1001.7519, , , , 
2025-09-27 18:07:45.430,0.10289137,3.711268,9.540184,-0.0010690134,0.033063058,0.016111558,-16.2,-44.737503,-34.125,0.14360562,0.14267609,0.70639086,1001.7519, , , , 
2025-09-27 18:07:45.451,-0.2847459,3.9720855,9.406186,0.03375028,0.04894554,0.04176788,-16.837502,-45.675003,-34.3125,0.14311874,0.14287333,0.70651793,1001.7641, , , , 
2025-09-27 18:07:45.472,0.0071784677,4.0677986,9.489935,0.053908817,0.04405862,0.038713556,-15.975,-44.23125,-32.79375,0.14249556,0.14388898,0.7068146,1001.7641, , , , 
2025-09-27 18:07:45.490,-0.021535404,4.0845485,9.073584,0.047189303,0.03611738,0.016722424,-16.95,-43.331253,-33.35625,0.14257324,0.14453153,0.70695746,1001.7614, , , , 
2025-09-27 18:07:45.510,-0.011964113,4.0414777,8.831908,-0.0108428495,0.066049755,-0.0028252497,-17.19375,-44.475002,-33.581253,0.14249705,0.14525528,0.70700073,1001.7614, , , , 
2025-09-27 18:07:45.530,-0.11724831,3.8931224,8.822337,-0.057268575,0.09659299,-0.013209951,-15.262501,-44.4,-33.61875,0.1415207,0.14597341,0.70705885,1001.76825, , , , 
2025-09-27 18:07:45.550,-0.11964113,3.8380876,8.987442,-0.058490302,0.061162837,-0.00160352,-15.712501,-44.4375,-33.581253,0.14040634,0.14630017,0.7071636,1001.76825, , , , 
2025-09-27 18:07:45.570,0.019142581,3.9170506,9.157332,-0.02489274,-0.012751802,0.0112246405,-14.231251,-45.037502,-33.54375,0.13990608,0.1461016,0.7072875,1001.7768,37.88837463,127.73985949,142.086181640625,0.0
2025-09-27 18:07:45.590,0.2943172,3.9864426,9.06162,-0.00962112,-0.020693045,0.0045051277,-15.093751,-44.25,-33.506252,0.14008333,0.14580597,0.7073628,1001.7768, , , , 
2025-09-27 18:07:45.610,0.02871387,3.95055,8.662018,-0.07742711,-0.0017562362,0.02649626,-15.337501,-44.775,-34.36875,0.14030297,0.14551252,0.7074539,1001.78656, , , , 
2025-09-27 18:07:45.630,1.052842,3.723232,8.568698,-0.13729186,-0.023136504,-0.0028252497,-16.575,-43.0125,-35.568752,0.13983512,0.1450019,0.7077722,1001.78656, , , , 
2025-09-27 18:07:45.650,0.32063824,3.76391,8.839087,-0.14767656,0.032452192,-0.029092435,-14.925,-44.86875,-33.16875,0.13947086,0.14356749,0.7079402,1001.7968, , , , 
2025-09-27 18:07:45.670,0.11006984,3.845266,8.903693,-0.15195261,0.03367392,-0.011988222,-15.4125,-45.037502,-32.49375,0.13842325,0.14266422,0.70810944,1001.7968, , , , 
2025-09-27 18:07:45.690,0.1794617,3.7854455,9.040084,-0.1470657,0.008628465,-0.021151192,-14.00625,-45.393753,-32.775,0.13751893,0.14166827,0.70826614,1001.8144, , , , 
2025-09-27 18:07:45.710,-0.031106694,3.6801612,8.927621,-0.14950916,0.031841327,-0.024205517,-13.650001,-44.98125,-32.53125,0.1365169,0.14071588,0.708343,1001.8144, , , , 
2025-09-27 18:07:45.729,-0.07178468,3.6203406,8.970692,-0.16966769,0.032452192,-0.007101303,-14.250001,-45.05625,-32.15625,0.13502508,0.1399373,0.7084988,1001.8222, , , , 
2025-09-27 18:07:45.749,-0.17706887,3.6059837,9.293723,-0.15317434,0.015958842,0.0112246405,-14.887501,-43.875,-32.30625,0.13354412,0.13898732,0.70875424,1001.8222, , , , 
2025-09-27 18:07:45.769,-0.18664017,3.644269,9.334401,-0.08842268,-0.0017562362,0.03565923,-14.75625,-44.943752,-35.8125,0.13232936,0.13813858,0.70907813,1001.83246, , , , 
2025-09-27 18:07:45.789,-0.14117654,3.7710886,9.119047,-0.07620538,-0.019471316,0.044822205,-14.75625,-43.987503,-32.15625,0.1316347,0.13762806,0.70942277,1001.83246, , , , 
2025-09-27 18:07:45.811,-0.069391854,3.8548372,9.157332,-0.11346813,0.006185006,0.0240528,-14.64375,-44.325,-34.4625,0.13107269,0.13704483,0.70978445,1001.84467, , , , 
2025-09-27 18:07:45.831,-0.1052842,3.8500516,9.379865,-0.1348484,0.051389,0.010002911,-12.900001,-45.65625,-33.037502,0.13011777,0.13664618,0.7100441,1001.84467, , , , 
2025-09-27 18:07:45.852,-0.24646074,3.7328033,9.525827,-0.1244637,0.062995434,0.0032833982,-14.7375,-44.71875,-33.65625,0.12878709,0.13635436,0.710264,1001.8388, , , , 
2025-09-27 18:07:45.869,-0.21535404,3.6777685,9.729217,-0.089033544,0.03611738,0.023441937,-15.356251,-44.775,-33.28125,0.12743188,0.1361039,0.7105184,1001.8388, , , , 
2025-09-27 18:07:45.889,-0.2009971,3.6681972,9.671789,-0.007788526,0.027565273,0.038713556,-13.89375,-44.25,-34.55625,0.12659985,0.1359263,0.7108243,1001.8359, , , , 
2025-09-27 18:07:45.910,-0.17467605,3.7136607,9.298509,0.023976443,0.025121814,0.051541716,-15.243751,-44.90625,-32.68125,0.12627235,0.13620497,0.7111249,1001.8359, , , , 
2025-09-27 18:07:45.930,-0.08853444,3.7136607,9.205189,0.0019853106,0.012293654,0.047876526,-15.993751,-45.73125,-32.081253,0.12627819,0.13661386,0.71142125,1001.8332, , , , 
2025-09-27 18:07:45.950,-0.04546363,3.711268,9.274581,1.527162E-4,0.020234896,0.032604907,-15.262501,-45.881252,-33.84375,0.1263341,0.1367708,0.711677,1001.8332, , , , 
2025-09-27 18:07:45.970,-0.062213387,3.7304106,9.147761,-0.013286309,0.027565273,0.035048366,-13.575001,-44.71875,-33.9375,0.1262238,0.13705003,0.7119662,1001.8315, , , , 
2025-09-27 18:07:45.990,0.05742774,3.7088752,9.262616,-0.027947064,0.019013166,0.025885396,-14.137501,-44.025,-34.8375,0.12606822,0.13710415,0.71221423,1001.8315, , , , 
2025-09-27 18:07:46.010,0.16031912,3.6203406,9.363115,-0.021227552,-0.0029779659,8.3993905E-4,-14.925,-44.86875,-33.16875,0.12611428,0.13679186,0.7123574,1001.8239, , , , 
2025-09-27 18:07:46.030,0.06699903,3.656233,9.241081,-0.0059559317,0.028176138,-0.010155627,-16.59375,-44.41875,-33.3375,0.1261207,0.13656339,0.7123879,1001.8239, , , , 
2025-09-27 18:07:46.050,0.014356935,3.7136607,9.233903,-0.029779658,0.0410043,-0.008323032,-14.175,-44.04375,-32.98125,0.12592147,0.13663799,0.7123975,1001.8205, , , , 
2025-09-27 18:07:46.070,-0.078963146,3.6849468,9.38465,-0.037110034,0.08132137,-0.010155627,-13.650001,-44.98125,-32.53125,0.12540539,0.13679771,0.71245664,1001.8205, , , , 
2025-09-27 18:07:46.090,-0.033499517,3.6897326,9.298509,-0.018173227,0.06360629,-0.0058795735,-14.175,-46.162502,-32.71875,0.12467054,0.1371248,0.7125459,1001.8217, , , , 
2025-09-27 18:07:46.110,-0.08853444,3.6753755,9.195618,-0.00962112,0.0043524117,-0.0077121677,-14.043751,-44.8875,-34.03125,0.1243909,0.13733341,0.7125569,1001.8217, , , , 
2025-09-27 18:07:46.129,-0.09332009,3.644269,9.250652,-0.002290743,-0.0041996953,-0.007101303,-14.043751,-44.8875,-34.03125,0.12450277,0.13727306,0.71248496,1001.81195, , , , 
2025-09-27 18:07:46.151,-0.11485548,3.6801612,9.0544405,-0.008399391,0.03489565,0.0026725335,-14.887501,-46.21875,-34.800003,0.12432913,0.13754149,0.71249104,1001.81195, , , , 
2025-09-27 18:07:46.171,-0.11006984,3.6777685,8.963513,-0.029168794,0.040393434,-0.007101303,-12.525001,-45.35625,-33.54375,0.124104805,0.13776878,0.71251065,1001.8105, , , , 
2025-09-27 18:07:46.191,-0.086141616,3.5533416,9.24826,-0.060322896,0.010461059,-0.026648976,-13.81875,-43.987503,-35.9625,0.1237673,0.13770626,0.712473,1001.8105, , , , 
2025-09-27 18:07:46.210,-0.13878371,3.4337006,9.442079,-0.03161225,-0.002367101,-0.020540329,-13.781251,-44.475002,-35.475002,0.12327969,0.13729593,0.7124054,1001.8007, , , , 
2025-09-27 18:07:46.230,-0.11006984,3.3810585,9.370294,0.009315688,-0.010308343,-0.0064904382,-13.312501,-44.193752,-34.143753,0.122928865,0.13692924,0.71236265,1001.8007, , , , 
2025-09-27 18:07:46.250,-0.078963146,3.4169507,9.152547,0.023365578,-0.010919208,0.0032833982,-12.637501,-43.74375,-34.0875,0.12289192,0.13668795,0.71235627,1001.80414, , , , 
2025-09-27 18:07:46.270,0.014356935,3.5437703,8.953942,-0.0108428495,-5.345067E-4,-0.008323032,-13.89375,-44.98125,-35.737503,0.12296583,0.13656984,0.71237874,1001.80414, , , , 
2025-09-27 18:07:46.290,-0.076570325,3.548556,9.047262,-0.05421425,0.00923933,-0.017486004,-14.343751,-45.65625,-34.275,0.12282644,0.13638636,0.712339,1001.799, , , , 
2025-09-27 18:07:46.310,-0.040677983,3.548556,9.332008,-0.072540194,-0.012140937,-0.015653409,-14.212501,-45.037502,-34.3125,0.12244163,0.13594595,0.7123134,1001.799, , , , 
2025-09-27 18:07:46.330,0.023928227,3.5174494,9.631111,-0.03894263,-0.0060322895,-0.021762058,-13.368751,-43.818752,-34.78125,0.12213364,0.13526194,0.7122868,1001.79803, , , , 
2025-09-27 18:07:46.350,-0.09332009,3.5653057,9.573684,0.014813471,0.023900084,-0.008323032,-14.250001,-44.643753,-36.1875,0.12187487,0.1349324,0.71225035,1001.79803, , , , 
2025-09-27 18:07:46.370,0.050249275,3.7136607,9.353543,0.043524116,-0.0054214248,-0.0064904382,-12.731251,-45.0,-34.631252,0.12200998,0.13523988,0.7122087,1001.79755, , , , 
2025-09-27 18:07:46.390,0.18903299,3.792624,9.21476,0.031917684,-0.03718639,-0.05413789,-13.781251,-45.112503,-34.818752,0.12287279,0.1353341,0.7119316,1001.79755, , , , 
2025-09-27 18:07:46.410,0.10289137,3.7136607,9.250652,0.0025961753,-0.009697478,-0.093233235,-14.025001,-43.912502,-32.23125,0.1234447,0.1352909,0.71152943,1001.79364, , , , 
2025-09-27 18:07:46.430,-0.16749759,3.6107693,9.367901,-0.017562363,0.030619597,-0.085292,-13.106251,-44.662502,-34.4625,0.123338535,0.13546485,0.710804,1001.79364, , , , 
2025-09-27 18:07:46.450,-0.1363909,3.5509489,9.533006,0.021532983,-0.010308343,-0.058413945,-13.500001,-45.09375,-33.46875,0.12297277,0.13567671,0.71035975,1001.78827, , , , 
2025-09-27 18:07:46.470,-0.059820566,3.548556,9.399008,0.074067354,-0.04818196,-0.049861837,-13.500001,-45.075,-34.0875,0.12327762,0.1356993,0.7099279,1001.78827, , , , 
2025-09-27 18:07:46.490,0.03589234,3.5724843,9.114262,0.075289086,-0.048792824,-0.04253146,-14.250001,-46.537502,-32.68125,0.124054015,0.13584054,0.7094879,1001.79047, , , , 
2025-09-27 18:07:46.510,0.16749759,3.603591,8.965906,0.041691523,-0.020693045,-0.064522594,-11.8125,-44.79375,-34.125,0.12490275,0.1359802,0.70905614,1001.79047, , , , 
2025-09-27 18:07:46.530,0.22253251,3.5844483,9.126225,0.009315688,0.015347977,-0.109726585,-13.106251,-45.412502,-34.875,0.12552233,0.13597825,0.7083637,1001.79315, , , , 
2025-09-27 18:07:46.550,0.10049855,3.6251264,9.150154,0.011148282,0.029397868,-0.14271328,-14.64375,-44.325,-34.4625,0.1255936,0.13605422,0.7075912,1001.79315, , , , 
2025-09-27 18:07:46.570,0.07178468,3.6203406,8.961121,0.0074830935,-0.021303909,-0.15920663,-14.212501,-44.287502,-34.050003,0.12568328,0.13629141,0.70660144,1001.7839,37.88837463,127.73985949,142.086181640625,0.0
2025-09-27 18:07:46.590,0.13399807,3.5964124,9.071191,-0.02367101,-0.084833845,-0.17508912,-12.993751,-45.525,-33.956253,0.12614623,0.13594489,0.7054444,1001.7839, , , , 
2025-09-27 18:07:46.610,0.08853444,3.5389848,9.233903,-0.031001387,-0.07689261,-0.1702022,-12.4125,-44.737503,-33.131252,0.12651715,0.13515872,0.70425403,1001.7802, , , , 
2025-09-27 18:07:46.630,0.06699903,3.586841,9.257831,-0.026725333,-0.06223185,-0.16103923,-13.05,-45.787502,-33.9375,0.12671204,0.13440815,0.7031636,1001.7802, , , , 
2025-09-27 18:07:46.649,-0.12203395,3.6681972,9.12144,-0.012675445,-0.05856666,-0.13843723,-13.2375,-45.9375,-33.75,0.12690076,0.13396445,0.70212513,1001.7758, , , , 
2025-09-27 18:07:46.671,-0.1698904,3.8500516,9.042477,-0.00962112,-0.057955798,-0.12377647,-11.868751,-44.41875,-35.0625,0.1272233,0.13394678,0.7009166,1001.7758, , , , 
2025-09-27 18:07:46.691,-0.23688944,3.8931224,8.970692,-0.030390523,-0.084833845,-0.124998204,-13.51875,-44.68125,-37.2,0.12765296,0.1340694,0.6999282,1001.7702, , , , 
2025-09-27 18:07:46.711,-0.2416751,3.830909,9.114262,-0.045051277,-0.09277509,-0.13293944,-14.343751,-45.65625,-34.275,0.12802255,0.13394593,0.6988931,1001.7702, , , , 
2025-09-27 18:07:46.730,-0.36370903,3.7208393,9.236296,-0.046883874,-0.048792824,-0.13355032,-15.281251,-46.631252,-33.3375,0.12799737,0.13381033,0.6978709,1001.76654, , , , 
2025-09-27 18:07:46.750,-0.42592242,3.6777685,9.394221,-0.031001387,-0.029856017,-0.10117448,-15.150001,-45.99375,-33.693752,0.1274746,0.13390987,0.6970097,1001.76654, , , , 
2025-09-27 18:07:46.771,-0.32063824,3.6658044,9.346365,0.0050396346,-0.08422298,-0.0816268,-15.187501,-45.61875,-36.037502,0.12723152,0.13397452,0.6962896,1001.76044, , , , 
2025-09-27 18:07:46.791,-0.2656033,3.591627,9.205189,0.0129808765,-0.11843141,-0.07063124,-12.806251,-45.375,-35.2125,0.12763791,0.13373442,0.69557,1001.76044, , , , 
2025-09-27 18:07:46.809,-0.19142582,3.5102708,9.071191,-0.014508039,-0.08055779,-0.06391173,-14.325001,-44.90625,-35.081253,0.12804668,0.13332985,0.694955,1001.76044, , , , 
2025-09-27 18:07:46.832,-0.17467605,3.481557,9.243474,-0.06826414,0.015958842,-0.065744326,-14.400001,-45.46875,-36.675003,0.12764625,0.13283491,0.69441265,1001.76044, , , , 
2025-09-27 18:07:46.850,-0.37328035,3.4360933,9.437292,-0.057268575,0.04894554,-0.04864011,-14.325001,-45.65625,-34.893753,0.12651165,0.13275248,0.69415,1001.7658, , , , 
2025-09-27 18:07:46.870,-0.35413775,3.481557,9.425328,-0.016951498,0.0184023,-0.029092435,-13.5375,-44.7,-35.79375,0.12547056,0.1328928,0.69397384,1001.7658, , , , 
2025-09-27 18:07:46.889,-0.21296121,3.5796626,9.255438,0.013591741,-0.024358233,-0.0297033,-13.012501,-45.75,-36.5625,0.1251591,0.13299133,0.6937594,1001.76776, , , , 
2025-09-27 18:07:46.910,-0.2656033,3.586841,9.107083,-0.008399391,-0.03413207,-0.033368487,-12.900001,-46.631252,-35.4375,0.12527001,0.13305056,0.69346297,1001.76776, , , , 
2025-09-27 18:07:46.930,-0.22492532,3.4217365,9.217153,-0.046273008,-0.057955798,-0.0193186,-13.63125,-47.325,-35.325,0.12520832,0.1327083,0.6931753,1001.77264, , , , 
2025-09-27 18:07:46.951,0.0,3.3236306,9.518648,-0.059712034,-0.117820546,0.0014508038,-13.33125,-47.287502,-35.662502,0.12517776,0.13159297,0.69312626,1001.77264, , , , 
2025-09-27 18:07:46.970,0.12203395,3.278167,9.741181,-0.02367101,-0.13187043,0.0032833982,-13.837501,-44.71875,-36.075,0.12542506,0.13031588,0.6931364,1001.76825, , , , 
2025-09-27 18:07:46.990,0.11485548,3.345166,9.466006,-0.007788526,-0.05978839,-0.008323032,-14.08125,-45.881252,-34.893753,0.12594305,0.12862565,0.6931234,1001.76825, , , , 
2025-09-27 18:07:47.009,-0.03589234,3.4121652,9.3104725,-0.026725333,0.026954409,-0.018707734,-13.556251,-45.45,-34.818752,0.12581575,0.12812644,0.6930889,1001.768, , , , 
2025-09-27 18:07:47.029,-0.148355,3.4719856,9.343972,-0.020616686,0.04772381,-0.01687514,-13.200001,-45.28125,-36.112503,0.12518723,0.12826553,0.6930655,1001.768, , , , 
2025-09-27 18:07:47.049,-0.26799613,3.4313076,9.3511505,0.023976443,-0.0017562362,-0.008933897,-13.06875,-45.393753,-36.73125,0.12480054,0.12853266,0.69298196,1001.76874, , , , 
2025-09-27 18:07:47.070,-0.20578274,3.4025939,9.250652,0.044745844,-0.038408123,0.0112246405,-11.94375,-43.93125,-34.162502,0.124896534,0.12876819,0.6928871,1001.76874, , , , 
2025-09-27 18:07:47.089,-0.11006984,3.4528432,9.08794,0.03619374,-0.012751802,0.008781182,-12.225,-45.43125,-35.8875,0.1251634,0.12892365,0.69286716,1001.7653, , , , 
2025-09-27 18:07:47.109,-0.1363909,3.507878,9.102298,0.009926553,0.012293654,-0.0028252497,-13.743751,-44.11875,-33.956253,0.12529556,0.12915467,0.69284636,1001.7653, , , , 
2025-09-27 18:07:47.129,-0.13399807,3.5605202,9.193225,-0.002290743,0.0043524117,-0.016264275,-11.700001,-45.881252,-36.693752,0.12518568,0.12942965,0.69277877,1001.7697, , , , 
2025-09-27 18:07:47.151,-0.24646074,3.4695928,9.150154,-0.007177661,-0.043905906,-0.011988222,-13.425,-44.8125,-34.875,0.12518556,0.12951528,0.6925779,1001.7697, , , , 
2025-09-27 18:07:47.170,-0.13160525,3.3906298,9.305687,-0.026725333,-0.07078396,0.0026725335,-13.781251,-44.475002,-35.79375,0.1252453,0.129175,0.69247156,1001.76215, , , , 
2025-09-27 18:07:47.191,-0.10049855,3.4073794,9.559326,-0.026725333,-0.044516772,0.014278964,-13.950001,-46.725002,-35.643753,0.12524977,0.12845582,0.6924925,1001.76215, , , , 
2025-09-27 18:07:47.209,-0.02871387,3.505485,9.645468,-0.012064579,-0.0060322895,0.014278964,-13.5375,-45.45,-35.90625,0.12508096,0.12794997,0.6926246,1001.7707, , , , 
2025-09-27 18:07:47.229,-0.08135597,3.5557344,9.5760765,-0.002290743,0.03611738,0.0032833982,-13.087501,-45.393753,-35.643753,0.12485692,0.1278908,0.6927256,1001.7707, , , , 
2025-09-27 18:07:47.249,-0.14117654,3.5413775,9.432507,0.006261364,0.044669487,0.0051159924,-13.575001,-45.693752,-36.65625,0.124497674,0.1282192,0.69279283,1001.77094, , , , 
2025-09-27 18:07:47.270,-0.2632105,3.4839497,9.518648,0.006872229,0.040393434,0.022831071,-14.08125,-45.131252,-35.100002,0.12393852,0.12870383,0.6929334,1001.77094, , , , 
2025-09-27 18:07:47.289,-0.17706887,3.4672,9.633504,0.028863361,0.032452192,0.04421134,-13.781251,-45.862503,-34.631252,0.12364326,0.12898302,0.6931173,1001.77313, , , , 
2025-09-27 18:07:47.310,-0.076570325,3.4480574,9.513863,0.062460925,0.029397868,0.04421134,-13.89375,-44.25,-34.55625,0.12360103,0.12943394,0.69350404,1001.77313, , , , 
2025-09-27 18:07:47.329,-0.1052842,3.4360933,9.360723,0.07284562,0.022678355,0.047265664,-14.118751,-46.125,-35.34375,0.12380771,0.12986404,0.6937822,1001.7692, , , , 
2025-09-27 18:07:47.351,-0.031106694,3.4121652,9.281759,0.066126116,0.003130682,0.05337431,-13.425,-46.425003,-35.662502,0.12424653,0.13032289,0.69415164,1001.7692, , , , 
2025-09-27 18:07:47.369,0.11485548,3.4241292,9.3511505,0.06185006,0.0025198173,0.045433067,-14.887501,-46.21875,-34.800003,0.124628395,0.13041954,0.69437844,1001.7651, , , , 
2025-09-27 18:07:47.389,0.083748795,3.385844,9.332008,0.067958705,0.02328922,0.037491824,-14.231251,-46.537502,-33.15,0.12509653,0.13052028,0.6946466,1001.7651, , , , 
2025-09-27 18:07:47.409,0.11964113,3.4504502,9.236296,0.07956514,0.032452192,0.035048366,-12.225,-45.45,-35.11875,0.12545335,0.13078532,0.6949065,1001.7592, , , , 
2025-09-27 18:07:47.429,0.1052842,3.5413775,8.874979,0.07895427,0.028176138,0.013057235,-12.937501,-44.53125,-34.162502,0.12601292,0.13122077,0.69508636,1001.7592, , , , 
2025-09-27 18:07:47.450,0.086141616,3.615555,8.69791,0.027641632,7.63581E-5,-0.004657844,-13.425,-46.425003,-36.487503,0.12682375,0.13181563,0.69508076,1001.7585, , , , 
2025-09-27 18:07:47.471,0.08853444,3.5676985,8.992228,-0.016340632,-0.021303909,-0.017486004,-13.312501,-45.787502,-36.075,0.1272989,0.1317577,0.6949712,1001.7585, , , , 
2025-09-27 18:07:47.492,0.15792629,3.5676985,9.188439,-0.010231985,-0.027412556,-0.024205517,-12.975,-44.775,-34.93125,0.12770194,0.1312566,0.6948257,1001.7607, , , , 
2025-09-27 18:07:47.510,0.13399807,3.5964124,9.174082,-0.0016798781,-0.012751802,-0.024205517,-13.650001,-44.5875,-35.943752,0.12794402,0.13101369,0.6947215,1001.7607, , , , 
2025-09-27 18:07:47.530,0.13160525,3.6681972,9.169296,-0.013286309,0.0049632764,-0.032757625,-13.181251,-45.675003,-33.46875,0.12818404,0.13082503,0.6945737,1001.7609, , , , 
2025-09-27 18:07:47.550,0.059820566,3.6897326,9.126225,-0.015729768,0.0043524117,-0.041920595,-13.89375,-45.73125,-35.850002,0.12833259,0.13073398,0.6943591,1001.7609, , , , 
2025-09-27 18:07:47.570,0.0047856453,3.7256248,8.980264,-0.04444041,-0.012140937,-0.044364054,-13.8,-44.49375,-34.706253,0.12837686,0.13074972,0.6940096,1001.75775,37.88837463,127.73985949,142.086181640625,0.0
2025-09-27 18:07:47.590,0.13399807,3.6586258,9.236296,-0.08048143,-0.020693045,-0.06269,-12.618751,-45.862503,-34.893753,0.12833728,0.13039407,0.6936957,1001.75775, , , , 
2025-09-27 18:07:47.610,0.05503492,3.5365918,9.52822,-0.07803798,0.010461059,-0.081015944,-13.875001,-44.756252,-33.9,0.1280208,0.12971291,0.6933104,1001.7619, , , , 
2025-09-27 18:07:47.630,-0.15074782,3.5270207,9.554541,-0.049327333,0.057497647,-0.057192214,-14.718751,-45.45,-35.325,0.12718639,0.12939629,0.6929714,1001.7619, , , , 
2025-09-27 18:07:47.650,-0.13160525,3.5964124,9.372686,-0.021838415,0.08132137,-0.03825541,-12.281251,-45.693752,-34.800003,0.12624648,0.12968035,0.6927856,1001.7658, , , , 
2025-09-27 18:07:47.670,-0.09332009,3.6873398,9.162118,-0.02611447,0.062384564,-0.03459022,-12.76875,-46.725002,-35.925003,0.12555636,0.1302442,0.6926545,1001.7658, , , , 
2025-09-27 18:07:47.690,-0.02871387,3.6801612,9.312865,-0.035888307,0.005574141,-0.050472703,-13.575001,-44.943752,-36.54375,0.12524046,0.13054733,0.69244176,1001.76483, , , , 
2025-09-27 18:07:47.710,-0.11964113,3.5988052,9.439685,-0.0029016077,-0.037797257,-0.06391173,-12.843751,-45.61875,-35.662502,0.12534226,0.13035867,0.69192445,1001.76483, , , , 
2025-09-27 18:07:47.730,-0.086141616,3.5509489,9.3511505,7.6358096E-4,-0.019471316,-0.05535962,-12.918751,-44.5125,-35.25,0.12543668,0.13026065,0.6914815,1001.76166, , , , 
2025-09-27 18:07:47.750,-0.11724831,3.5581272,9.367901,0.0050396346,0.012293654,-0.05169443,-14.306251,-45.65625,-35.662502,0.12536159,0.1303239,0.6911211,1001.76166, , , , 
2025-09-27 18:07:47.770,-0.2321038,3.5700915,9.190832,0.022754714,0.017180571,-0.045585785,-11.418751,-44.475002,-36.80625,0.12520498,0.13065958,0.6907833,1001.7641, , , , 
2025-09-27 18:07:47.790,-0.33020952,3.591627,9.020942,0.014202606,-0.012751802,-0.039477136,-14.94375,-46.59375,-35.23125,0.12518658,0.13115133,0.69042635,1001.7641, , , , 
2025-09-27 18:07:47.810,-0.30867413,3.5509489,9.128618,-0.004734202,-0.053068876,-0.026038112,-12.637501,-45.225002,-35.081253,0.12531255,0.13140069,0.6899968,1001.758, , , , 
2025-09-27 18:07:47.831,-0.29192436,3.4911282,9.219545,-0.0059559317,-0.059177525,-0.01809687,-12.712501,-43.3875,-34.256252,0.12544298,0.131264,0.68973273,1001.758, , , , 
2025-09-27 18:07:47.849,-0.36370903,3.505485,9.274581,-0.0108428495,-0.034742933,0.0051159924,-14.025001,-45.61875,-35.381252,0.12541807,0.13111806,0.68959725,1001.74994, , , , 
2025-09-27 18:07:47.870,-0.30867413,3.4456646,9.485149,0.0019853106,0.0012980876,0.033215772,-14.08125,-44.5125,-35.756252,0.12511352,0.13110934,0.6897003,1001.74994, , , , 
2025-09-27 18:07:47.890,-0.29910284,3.4887354,9.372686,0.03619374,-0.002367101,0.051541716,-11.887501,-45.16875,-34.55625,0.12491431,0.13126919,0.6899629,1001.75555, , , , 
2025-09-27 18:07:47.910,-0.17706887,3.546163,9.15494,0.044745844,-0.056734066,0.0692568,-13.8,-46.0875,-36.46875,0.12519312,0.13146389,0.69026995,1001.75555, , , , 
2025-09-27 18:07:47.930,0.04546363,3.6346977,9.169296,0.014813471,-0.08849903,0.046043932,-12.618751,-45.862503,-34.893753,0.12604809,0.13121511,0.69053555,1001.75507, , , , 
2025-09-27 18:07:47.950,-0.031106694,3.586841,9.267402,-0.020005822,-0.05856666,0.017944153,-13.725,-45.600002,-35.41875,0.12688279,0.13061953,0.6906541,1001.75507, , , , 
2025-09-27 18:07:47.970,-0.25842485,3.4600215,9.49472,-0.02367101,0.009850195,0.046043932,-12.4875,-45.3375,-35.71875,0.12677316,0.13024606,0.69091094,1001.74945, , , , 
2025-09-27 18:07:47.990,-0.18185452,3.5270207,9.564112,0.03252855,0.0019089525,0.07903063,-13.51875,-45.09375,-33.0,0.12645227,0.13027833,0.69138944,1001.74945, , , , 
2025-09-27 18:07:48.010,-0.13160525,3.6131623,9.298509,0.066736974,-0.03657553,0.09491312,-13.856251,-44.737503,-34.987503,0.12668587,0.1304231,0.6917739,1001.7548, , , , 
2025-09-27 18:07:48.030,0.03589234,3.603591,9.068798,0.0490219,-0.060399257,0.07170025,-13.6125,-45.7125,-34.5,0.12790273,0.13051665,0.6922908,1001.7548, , , , 
2025-09-27 18:07:48.050,-0.02632105,3.4791641,9.004191,0.0074830935,-0.013362667,0.047876526,-13.9875,-46.7625,-33.46875,0.1286924,0.13038746,0.6925912,1001.74994, , , , 
2025-09-27 18:07:48.070,-0.078963146,3.493521,8.9826565,-0.03649917,0.054443322,0.055206906,-14.175,-45.75,-36.600002,0.12855025,0.13042107,0.6929522,1001.74994, , , , 
2025-09-27 18:07:48.090,-0.047856454,3.4839497,9.164511,-0.08964441,0.14301872,0.044822205,-13.087501,-46.03125,-34.36875,0.12759183,0.13062516,0.6934693,1001.7536, , , , 
2025-09-27 18:07:48.110,-0.17706887,3.4337006,9.504292,-0.09269873,0.17905974,0.042989608,-12.656251,-44.49375,-33.581253,0.12576845,0.13092417,0.694095,1001.7536, , , , 
2025-09-27 18:07:48.130,-0.3062813,3.3499517,9.590433,-0.02611447,0.09109521,0.0570395,-14.812501,-45.206253,-35.79375,0.12364124,0.1313976,0.6948442,1001.75555, , , , 
2025-09-27 18:07:48.150,-0.2440679,3.397808,9.647861,0.052076224,-0.028023422,0.082084954,-13.668751,-44.5875,-35.643753,0.12319357,0.13148174,0.6953348,1001.75555, , , , 
2025-09-27 18:07:48.170,-0.1794617,3.4528432,9.382257,0.10155627,-0.07994693,0.10651954,-14.793751,-44.98125,-33.3375,0.12394675,0.13138132,0.6958096,1001.76166, , , , 
2025-09-27 18:07:48.190,-0.038285162,3.5700915,9.150154,0.09789108,-0.119653136,0.1211803,-14.231251,-45.787502,-32.8875,0.12531519,0.13125804,0.6963257,1001.76166, , , , 
2025-09-27 18:07:48.210,0.17228323,3.65384,9.06162,0.0386372,-0.10254893,0.09613484,-12.4125,-44.9625,-36.05625,0.1269422,0.13085303,0.6968279,1001.769, , , , 
2025-09-27 18:07:48.231,0.14117654,3.5940197,9.226724,-0.022449281,0.008628465,0.07903063,-13.275001,-44.175003,-36.0,0.1279891,0.13027534,0.6974826,1001.769, , , , 
2025-09-27 18:07:48.251,0.03589234,3.6610186,9.332008,-0.023060145,0.03733911,0.0881936,-15.0375,-44.737503,-33.9375,0.12787353,0.13012841,0.6981314,1001.76605, , , , 
2025-09-27 18:07:48.272,0.1363909,3.7064822,9.375079,0.016035201,-0.031688612,0.083306685,-14.26875,-45.393753,-35.381252,0.12814255,0.1300207,0.6987215,1001.76605, , , , 
2025-09-27 18:07:48.290,0.27996024,3.7567315,9.135797,0.053908817,-0.119653136,0.057650365,-13.293751,-46.29375,-34.5,0.12945177,0.12958314,0.6990502,1001.77264, , , , 
2025-09-27 18:07:48.310,1.1030912,3.8237305,8.707481,0.01970039,-0.32368198,-0.010766491,-15.187501,-46.256252,-34.4625,0.13184118,0.12832227,0.6989732,1001.77264, , , , 
2025-09-27 18:07:48.330,0.038285162,3.426522,8.886943,-0.028557928,-0.20578507,-0.005268709,-15.337501,-46.162502,-32.737503,0.13427246,0.12676674,0.69829845,1001.78094, , , , 
2025-09-27 18:07:48.350,0.16031912,3.5557344,9.269794,-0.06398808,-0.04940369,0.027717989,-14.83125,-45.956253,-34.2,0.13471162,0.12560871,0.69827706,1001.78094, , , , 
2025-09-27 18:07:48.370,0.4354937,3.5605202,9.365508,-0.045662142,0.053221595,0.03138318,-15.4125,-46.0125,-35.2125,0.13437434,0.12497123,0.6986057,1001.80585, , , , 
2025-09-27 18:07:48.390,0.6939186,3.6275191,9.552148,0.0056504994,0.003130682,-0.07063124,-13.762501,-45.84375,-35.7,0.13432035,0.124599785,0.6988419,1001.80585, , , , 
2025-09-27 18:07:48.410,-0.076570325,3.5102708,9.221938,0.06734784,-0.08605558,-0.053527027,-14.400001,-45.1875,-33.35625,0.13493775,0.124369696,0.69812196,1001.81757, , , , 
2025-09-27 18:07:48.430,-0.1363909,3.5126636,9.485149,0.08078687,-0.15202898,0.015500694,-14.00625,-44.11875,-36.09375,0.1358259,0.12433719,0.6977158,1001.81757, , , , 
2025-09-27 18:07:48.450,0.18903299,3.4504502,9.425328,0.10461059,-0.15019637,0.036270097,-14.1,-44.5125,-34.96875,0.137125,0.12386618,0.697623,1001.8173, , , , 
2025-09-27 18:07:48.470,0.28235307,3.5796626,9.217153,0.08261946,-0.120264,0.028328855,-16.1625,-45.3375,-35.325,0.1385575,0.12341102,0.69757473,1001.8173, , , , 
2025-09-27 18:07:48.490,0.2321038,3.4983068,9.107083,0.045967575,-0.048792824,0.005726857,-13.781251,-45.112503,-34.518753,0.1396076,0.12308146,0.6975183,1001.8298, , , , 
2025-09-27 18:07:48.510,0.2536392,3.6658044,9.183653,0.0025961753,0.11919499,0.014278964,-14.512501,-45.80625,-34.3875,0.13940103,0.123444565,0.6976293,1001.8298, , , , 
2025-09-27 18:07:48.530,0.29910284,3.7184465,9.052048,-0.020005822,0.10270164,-0.008323032,-14.493751,-44.193752,-33.881252,0.13874637,0.1243684,0.6978398,1001.8332, , , , 
2025-09-27 18:07:48.550,0.31345975,3.7064822,9.219545,-0.04016436,0.10025818,-0.039477136,-14.3625,-46.425003,-33.600002,0.13815337,0.12474454,0.6978267,1001.8332, , , , 
2025-09-27 18:07:48.570,0.19621146,3.6275191,9.430114,-0.018784093,0.106977694,-0.04130973,-12.918751,-45.2625,-35.5125,0.13729127,0.12522903,0.6977419,1001.83344,37.88837463,127.73985949,142.086181640625,0.0
2025-09-27 18:07:48.590,0.26081768,3.7016966,9.29133,0.020311253,0.017791437,-0.039477136,-13.9125,-45.0,-34.66875,0.13666181,0.12580915,0.6975378,1001.83344, , , , 
2025-09-27 18:07:48.609,0.09092726,3.7854455,9.056833,0.043524116,-0.033521205,-0.040088,-15.0375,-46.125,-32.775,0.13718672,0.12594573,0.6971725,1001.82587, , , , 
2025-09-27 18:07:48.631,-0.0023928226,3.842873,8.932407,-0.011453714,0.020845762,0.013668099,-14.55,-46.050003,-34.6875,0.13742448,0.12647337,0.6969879,1001.82587, , , , 
2025-09-27 18:07:48.650,0.2536392,3.8069808,9.186047,-0.03161225,0.0019089525,0.019165883,-13.743751,-46.350002,-34.443752,0.13738306,0.12682775,0.6970844,1001.8215, , , , 
2025-09-27 18:07:48.670,0.23688944,3.7543387,9.406186,0.0013744457,-0.05856666,8.3993905E-4,-15.225,-44.8875,-33.131252,0.13766292,0.12659156,0.69711506,1001.8215, , , , 
2025-09-27 18:07:48.690,0.31106696,3.6729827,9.24826,0.043524116,-0.14530946,-0.025427246,-13.593751,-44.9625,-35.006252,0.13883528,0.12583838,0.6968382,1001.80927, , , , 
2025-09-27 18:07:48.710,-0.038285162,3.5653057,9.018549,0.030695954,-0.06956223,-0.026648976,-15.262501,-45.15,-33.73125,0.13986173,0.12537783,0.69640726,1001.80927, , , , 
2025-09-27 18:07:48.730,0.047856454,3.6203406,8.999406,-0.030390523,0.037949976,0.020387612,-14.7375,-44.7,-34.443752,0.13965379,0.12561269,0.69635373,1001.80756, , , , 
2025-09-27 18:07:48.750,0.15074782,3.6059837,9.183653,-0.06459895,0.082543105,0.03138318,-13.312501,-45.5625,-33.61875,0.13876289,0.12581287,0.69669026,1001.80756, , , , 
2025-09-27 18:07:48.770,0.27756742,3.5892339,9.293723,-0.033444848,6.8722287E-4,0.016111558,-15.806251,-45.581253,-33.037502,0.13799484,0.1257142,0.697024,1001.8024, , , , 
2025-09-27 18:07:48.790,0.17228323,3.5389848,9.102298,-0.018173227,-0.021303909,-0.008323032,-14.19375,-46.518753,-35.325,0.13799973,0.12524548,0.69707805,1001.8024, , , , 
2025-09-27 18:07:48.810,0.16749759,3.493521,9.025727,-0.061544627,0.035506517,8.3993905E-4,-15.168751,-44.625,-33.768753,0.13773857,0.124963574,0.6970959,1001.8022, , , , 
2025-09-27 18:07:48.830,0.11964113,3.4600215,9.327223,-0.07987057,0.09659299,0.0112246405,-15.262501,-44.4,-33.61875,0.13635905,0.12483683,0.6974014,1001.8022, , , , 
2025-09-27 18:07:48.850,0.2105684,3.4887354,9.343972,-0.032223117,0.02451095,0.020387612,-14.7375,-45.46875,-33.768753,0.13537826,0.124750614,0.6976898,1001.789, , , , 
2025-09-27 18:07:48.870,0.3062813,3.641876,9.35833,-0.016951498,0.022678355,-0.0034361144,-13.9125,-45.0,-34.350002,0.13515218,0.12449864,0.69783413,1001.789, , , , 
2025-09-27 18:07:48.890,0.19621146,3.694518,9.245867,-0.04444041,0.075212725,-0.026648976,-15.337501,-44.775,-33.9,0.13478066,0.124578394,0.6978329,1001.77997, , , , 
2025-09-27 18:07:48.910,0.083748795,3.6753755,9.286545,-0.066431545,0.06849321,-0.031535894,-16.612501,-46.0125,-34.48125,0.1339457,0.12488154,0.69778,1001.77997, , , , 
2025-09-27 18:07:48.930,0.4139583,3.6227336,9.643075,-0.033444848,0.02573268,-0.07551816,-13.387501,-44.568752,-34.125,0.13342707,0.124780975,0.6975815,1001.7746, , , , 
2025-09-27 18:07:48.950,0.05503492,3.5964124,9.561719,-0.0010690134,0.11247548,-0.07918335,-14.19375,-45.768753,-35.04375,0.1328779,0.12487192,0.6971797,1001.7746, , , , 
2025-09-27 18:07:48.970,0.031106694,3.656233,9.23151,0.0013744457,0.08804089,-0.05108357,-13.106251,-45.412502,-35.193752,0.13192321,0.12575744,0.6968786,1001.7668, , , , 
2025-09-27 18:07:48.990,-0.047856454,3.6681972,9.097511,-0.021227552,0.061773703,-0.046807513,-13.200001,-45.28125,-36.112503,0.13138379,0.12645817,0.6966173,1001.7668, , , , 
2025-09-27 18:07:49.010,-0.05503492,3.5940197,9.245867,-0.029168794,-0.012140937,-0.026648976,-13.125001,-44.90625,-36.600002,0.13083147,0.12692839,0.6963366,1001.76044, , , , 
2025-09-27 18:07:49.031,0.0,3.4911282,9.23151,0.010537418,-0.10438152,-0.026038112,-14.7375,-45.46875,-33.768753,0.13112766,0.12661564,0.69604427,1001.76044, , , , 
2025-09-27 18:07:49.049,0.07178468,3.5246277,9.090333,0.030695954,-0.10377065,-0.026038112,-15.3,-45.506252,-35.86875,0.13191807,0.12607813,0.69569254,1001.7575, , , , 
2025-09-27 18:07:49.070,0.22013968,3.6011982,9.099904,-0.004734202,-0.11476622,-0.046807513,-13.14375,-44.90625,-35.831253,0.13277927,0.12552366,0.69532514,1001.7575, , , , 
2025-09-27 18:07:49.089,0.078963146,3.4863427,9.229117,0.0056504994,-0.16974404,-0.05108357,-13.218751,-45.91875,-34.518753,0.133823,0.12462879,0.69478,1001.74774, , , , 
2025-09-27 18:07:49.110,0.019142581,3.4624143,9.090333,0.013591741,-0.15691589,-0.03459022,-15.562501,-45.91875,-34.59375,0.13487713,0.12362888,0.69422776,1001.74774, , , , 
2025-09-27 18:07:49.130,-0.03589234,3.438486,9.042477,-0.0151189035,-0.12576179,8.3993905E-4,-13.70625,-45.581253,-36.037502,0.13542241,0.12304972,0.69396544,1001.74774, , , , 
2025-09-27 18:07:49.150,0.1363909,3.3667014,9.238688,-0.02611447,-0.14530946,0.041157015,-12.656251,-44.737503,-35.737503,0.13602571,0.121846005,0.69394875,1001.74164, , , , 
2025-09-27 18:07:49.170,0.3062813,3.385844,9.334401,-0.03894263,-0.01763872,0.042989608,-14.83125,-45.206253,-34.706253,0.13641798,0.12073264,0.69415593,1001.7424, , , , 
2025-09-27 18:07:49.189,-0.011964113,2.7972097,9.982856,-0.15134175,0.40630144,-0.03642281,-15.000001,-46.8375,-35.2125,0.13435152,0.1212279,0.6947545,1001.7424, , , , 
2025-09-27 18:07:49.209,0.11246266,3.6251264,8.853444,-0.1385136,0.1918879,0.05948296,-13.70625,-45.581253,-35.737503,0.13206163,0.121803194,0.695228,1001.7424, , , , 
2025-09-27 18:07:49.229,0.33499518,3.5844483,10.076176,1.527162E-4,-0.032299474,8.3993905E-4,-13.125001,-47.98125,-38.8875,0.12996781,0.12152504,0.69588035,1001.738, , , , 
2025-09-27 18:07:49.249,-0.18185452,3.5676985,9.420543,0.05146536,-0.031688612,0.0026725335,-13.743751,-46.575,-37.66875,0.13037159,0.12118509,0.69576377,1001.73773, , , , 
2025-09-27 18:07:49.269,-0.038285162,3.5174494,9.355937,0.0044287695,7.63581E-5,0.05948296,-11.118751,-47.41875,-38.53125,0.13039134,0.12164013,0.69585955,1001.73773, , , , 
2025-09-27 18:07:49.289,0.38763726,3.5581272,9.834501,0.047189303,-0.052458014,0.041157015,-11.681251,-47.34375,-38.30625,0.13058926,0.12163867,0.6961919,1001.73944, , , , 
2025-09-27 18:07:49.310,0.1794617,3.4911282,9.492328,0.116217025,-0.06223185,-0.010155627,-12.825001,-45.61875,-37.050003,0.13196056,0.12133679,0.6961391,1001.73944, , , , 
2025-09-27 18:07:49.329,0.019142581,3.534199,9.107083,0.10338886,-0.026190827,0.0075594517,-12.543751,-47.193752,-37.612503,0.13266659,0.12168379,0.6959779,1001.74603, , , , 
2025-09-27 18:07:49.349,0.21535404,3.591627,8.997013,0.055130545,-0.021303909,0.013057235,-13.1625,-46.631252,-37.575,0.13352863,0.12244693,0.6959105,1001.74603, , , , 
2025-09-27 18:07:49.369,0.076570325,3.5102708,9.2075815,0.041691523,-0.00481056,0.0063377223,-13.9875,-46.987503,-36.393753,0.13406678,0.12269429,0.6958754,1001.75336, , , , 
2025-09-27 18:07:49.389,-0.0047856453,3.4648073,9.102298,0.04657844,0.015347977,0.033826638,-13.8,-47.0625,-39.80625,0.1341583,0.12301857,0.69593084,1001.75336, , , , 
2025-09-27 18:07:49.409,0.30149564,3.5892339,9.164511,0.043524116,-0.0066431547,0.036880963,-12.88125,-45.862503,-36.73125,0.13434693,0.123578385,0.69621235,1001.75165, , , , 
2025-09-27 18:07:49.429,0.20578274,3.5964124,9.303294,0.052687086,-0.0017562362,-0.0034361144,-13.950001,-46.725002,-35.943752,0.13486722,0.12371216,0.69629663,1001.75165, , , , 
2025-09-27 18:07:49.449,0.21535404,3.5964124,8.827123,0.025809037,-0.019471316,-0.012599086,-15.150001,-46.96875,-36.43125,0.13545276,0.1239395,0.69613487,1001.75555, , , , 
2025-09-27 18:07:49.469,0.17706887,3.6370904,9.104691,-0.07131846,0.13996439,-0.03642281,-13.70625,-46.331253,-36.15,0.13508761,0.12432276,0.6960578,1001.75555, , , , 
2025-09-27 18:07:49.489,-0.11006984,3.5964124,9.174082,-0.08659008,0.18639012,-0.012599086,-14.156251,-46.48125,-37.48125,0.13335015,0.12515478,0.6961914,1001.74945, , , , 
2025-09-27 18:07:49.509,-0.12921242,3.5724843,9.329616,-0.05421425,0.10270164,0.03565923,-11.0625,-47.15625,-38.550003,0.1316303,0.12600274,0.69650966,1001.74945, , , , 
2025-09-27 18:07:49.529,0.038285162,3.546163,9.399008,0.0050396346,-0.032299474,0.034437504,-13.9875,-46.96875,-36.693752,0.13117598,0.12612574,0.69679934,1001.7492, , , , 
2025-09-27 18:07:49.549,-0.20578274,3.4576287,9.243474,-0.0016798781,-0.014584397,0.060093824,-12.187501,-47.30625,-34.0875,0.13140465,0.1259012,0.6969711,1001.7492, , , , 
2025-09-27 18:07:49.569,-0.009571291,3.481557,9.449257,-0.015729768,0.051999863,0.09430225,-14.025001,-45.862503,-37.537502,0.13090408,0.12603462,0.6975125,1001.7526,37.88838503,127.73986272,139.03826904296875,0.0
2025-09-27 18:07:49.589,0.10049855,3.4887354,9.509077,0.03619374,0.006185006,0.075976305,-10.5375,-45.99375,-38.362503,0.13056831,0.12608613,0.6981685,1001.7526, , , , 
2025-09-27 18:07:49.609,0.016749758,3.522235,9.171689,0.07467822,-0.06956223,0.063759014,-13.406251,-46.40625,-37.875,0.13108668,0.12608978,0.6985393,1001.7497, , , , 
2025-09-27 18:07:49.630,0.2943172,3.562913,9.1669035,0.050243627,-0.09766201,0.039935283,-14.437501,-47.1375,-37.875,0.13218111,0.12594195,0.69871306,1001.7497, , , , 
2025-09-27 18:07:49.649,0.20578274,3.548556,9.178867,0.027030766,-0.059177525,0.0045051277,-15.431251,-46.987503,-37.48125,0.1335276,0.12536052,0.6987058,1001.7526, , , , 
2025-09-27 18:07:49.669,0.09332009,3.5796626,9.23151,0.014813471,-0.0041996953,0.0075594517,-12.168751,-45.412502,-38.0625,0.13386229,0.12528025,0.6986764,1001.7526, , , , 
2025-09-27 18:07:49.689,0.10289137,3.6370904,9.174082,0.019089524,0.022067491,0.008781182,-13.25625,-46.912502,-34.93125,0.13389839,0.12549609,0.6987142,1001.74164, , , , 
2025-09-27 18:07:49.709,0.1363909,3.7256248,9.107083,0.0056504994,-0.00481056,0.018555017,-11.34375,-45.581253,-37.050003,0.13401313,0.1258485,0.698768,1001.74164, , , , 
2025-09-27 18:07:49.729,0.16510476,3.6801612,9.334401,-0.007177661,-0.012751802,0.016111558,-13.181251,-45.28125,-37.2,0.1342522,0.1259025,0.69883734,1001.7419, , , , 
2025-09-27 18:07:49.749,0.21296121,3.6059837,9.468399,-0.0016798781,-0.0011453715,0.017333288,-12.1125,-46.518753,-38.30625,0.13438171,0.12571557,0.69897604,1001.7419, , , , 
2025-09-27 18:07:49.769,0.23449662,3.6323047,9.413364,0.016646065,0.0025198173,0.01244637,-13.106251,-44.8875,-37.987503,0.1344937,0.12563202,0.6990884,1001.74677, , , , 
2025-09-27 18:07:49.789,0.15314065,3.6251264,9.253045,0.021532983,0.013515383,0.013057235,-13.781251,-46.068752,-37.537502,0.13464917,0.12568076,0.69913846,1001.74677, , , , 
2025-09-27 18:07:49.809,0.16749759,3.5988052,9.262616,7.6358096E-4,0.042226028,0.03138318,-12.675,-48.468754,-35.831253,0.13463834,0.12600584,0.69932425,1001.75165, , , , 
2025-09-27 18:07:49.830,0.25603202,3.6107693,9.466006,0.015424335,0.07765619,0.02649626,-11.8125,-45.75,-37.93125,0.13432285,0.12632012,0.69961756,1001.75165, , , , 
2025-09-27 18:07:49.849,0.1268196,3.6897326,9.205189,0.041691523,0.06543889,0.0240528,-12.0375,-47.643753,-37.95,0.13407013,0.12689626,0.6998645,1001.7526, , , , 
2025-09-27 18:07:49.869,0.15314065,3.737589,9.109476,0.031306818,0.010461059,0.014278964,-12.806251,-46.96875,-36.975002,0.1341923,0.12752753,0.69999135,1001.7526, , , , 
2025-09-27 18:07:49.889,0.19621146,3.6993039,9.092726,0.0044287695,-0.01763872,-0.0193186,-12.806251,-46.350002,-38.25,0.13476883,0.12775217,0.69990027,1001.7553, , , , 
2025-09-27 18:07:49.909,0.20338993,3.6227336,9.188439,-0.020005822,0.021456625,-0.031535894,-14.343751,-45.9,-36.73125,0.13485558,0.1277418,0.69972306,1001.7553, , , , 
2025-09-27 18:07:49.929,0.15553348,3.6107693,9.257831,-0.029779658,0.07582359,-0.032757625,-12.1125,-46.518753,-38.006252,0.1345311,0.12783177,0.6996309,1001.7568, , , , 
2025-09-27 18:07:49.949,0.05503492,3.5437703,9.2793665,-0.010231985,0.08132137,-0.021762058,-14.250001,-45.393753,-36.768753,0.13355342,0.12829866,0.6995747,1001.7568, , , , 
2025-09-27 18:07:49.969,0.07178468,3.586841,9.145369,0.016035201,0.026954409,-0.009544762,-11.4375,-46.2,-38.86875,0.13306135,0.12872632,0.6995492,1001.7558, , , , 
2025-09-27 18:07:49.989,0.09810573,3.6059837,9.013762,0.011148282,-0.029245151,-0.009544762,-12.056251,-46.275,-38.025,0.13311787,0.12887119,0.6994852,1001.7558, , , , 
2025-09-27 18:07:50.009,0.12203395,3.6394832,9.02812,-0.02489274,-0.04940369,-0.0064904382,-12.825001,-44.86875,-36.6375,0.13357139,0.12863739,0.69931585,1001.76044, , , , 
2025-09-27 18:07:50.029,0.29192436,3.591627,9.288938,-0.05054906,-0.027412556,-0.011377357,-12.13125,-46.7625,-39.84375,0.13376419,0.1281179,0.6992563,1001.76044, , , , 
2025-09-27 18:07:50.049,0.27996024,3.5700915,9.391829,-0.042607818,0.042226028,-0.026648976,-11.887501,-45.375,-38.100002,0.13349131,0.127434,0.6992423,1001.758, , , , 
2025-09-27 18:07:50.069,0.014356935,3.6011982,9.30808,-0.029779658,0.07704532,-0.0034361144,-15.937501,-47.925003,-36.28125,0.13277502,0.12748878,0.6992854,1001.758, , , , 
2025-09-27 18:07:50.089,0.148355,3.6203406,9.281759,-0.018173227,0.05016727,0.0045051277,-13.031251,-46.74375,-38.04375,0.13227141,0.12773575,0.69938475,1001.758, , , , 
2025-09-27 18:07:50.109,0.27517462,3.6658044,9.186047,-0.009010255,0.0080176005,-0.022983788,-11.83125,-45.131252,-37.800003,0.1321753,0.12782076,0.69940263,1001.757, , , , 
2025-09-27 18:07:50.129,0.050249275,3.5772698,9.209974,-0.032833982,0.013515383,-0.033979353,-11.512501,-46.4625,-38.381252,0.13223153,0.12770018,0.6992151,1001.7487, , , , 
2025-09-27 18:07:50.149,0.047856454,3.5198421,9.470792,-0.021227552,0.034284785,-0.011377357,-13.14375,-46.612503,-39.28125,0.13174203,0.12770501,0.6991252,1001.7487, , , , 
2025-09-27 18:07:50.169,0.062213387,3.562913,9.427721,0.023365578,0.02328922,-0.014431681,-13.14375,-45.65625,-35.625,0.13134122,0.12780437,0.6991202,1001.7507, , , , 
2025-09-27 18:07:50.189,-0.083748795,3.5892339,9.135797,0.01970039,0.0025198173,-0.016264275,-12.88125,-45.881252,-36.2625,0.1312922,0.12810522,0.6990017,1001.7507, , , , 
2025-09-27 18:07:50.209,-0.0526421,3.562913,9.281759,-0.002290743,0.020234896,-0.011988222,-15.6,-46.162502,-34.875,0.13112062,0.128506,0.6988401,1001.7548, , , , 
2025-09-27 18:07:50.229,-0.10289137,3.6179478,9.327223,0.0044287695,0.030619597,-0.0077121677,-14.64375,-46.443752,-34.350002,0.13074161,0.1288473,0.69878626,1001.7548, , , , 
2025-09-27 18:07:50.249,-0.08135597,3.6083765,9.303294,0.003817905,0.017791437,-0.010155627,-14.2875,-45.412502,-34.59375,0.13049792,0.12917422,0.6987217,1001.75775, , , , 
2025-09-27 18:07:50.269,-0.14596218,3.5940197,9.3200445,1.527162E-4,0.03489565,0.0032833982,-13.70625,-45.581253,-35.737503,0.13015822,0.12954308,0.69869524,1001.75775, , , , 
2025-09-27 18:07:50.291,-0.09810573,3.5509489,9.262616,0.006872229,0.041615162,0.020998476,-13.387501,-44.568752,-34.59375,0.12956582,0.1300707,0.69883823,1001.7653, , , , 
2025-09-27 18:07:50.311,-0.021535404,3.562913,9.298509,0.003817905,0.0184023,0.028939718,-14.250001,-45.393753,-36.0,0.1293233,0.13031189,0.6990284,1001.7653, , , , 
2025-09-27 18:07:50.331,-0.014356935,3.5988052,9.322437,0.03008509,0.030008731,0.030161448,-13.106251,-46.03125,-33.91875,0.12926754,0.13052724,0.6992333,1001.7641, , , , 
2025-09-27 18:07:50.351,0.043070808,3.615555,9.238688,0.030695954,0.020234896,0.027717989,-13.387501,-46.050003,-34.96875,0.12932737,0.13079906,0.6994174,1001.7641, , , , 
2025-09-27 18:07:50.370,0.08853444,3.6227336,9.109476,0.020311253,0.0080176005,0.013668099,-14.306251,-45.65625,-35.662502,0.12958947,0.13114414,0.6995418,1001.7553, , , , 
2025-09-27 18:07:50.391,0.040677983,3.5724843,9.262616,0.009315688,7.63581E-5,0.005726857,-15.20625,-44.1375,-33.956253,0.12983476,0.13120043,0.69957143,1001.7553, , , , 
2025-09-27 18:07:50.411,0.14596218,3.5653057,9.315259,0.01970039,0.009850195,8.3993905E-4,-12.975,-44.025,-34.5,0.12992541,0.13119179,0.69960874,1001.75726, , , , 
2025-09-27 18:07:50.431,0.02871387,3.5772698,9.114262,0.020922119,0.047112945,-0.0058795735,-14.925,-45.09375,-35.943752,0.12994102,0.13144761,0.6996239,1001.75726, , , , 
2025-09-27 18:07:50.451,0.038285162,3.6346977,9.085547,-0.0029016077,0.04344776,-0.0064904382,-13.593751,-44.9625,-35.475002,0.12977225,0.13184084,0.6996379,1001.75604, , , , 
2025-09-27 18:07:50.471,0.043070808,3.5940197,9.142975,-0.008399391,0.012293654,-0.023594651,-13.25625,-45.300003,-33.9375,0.12968808,0.13199812,0.6995812,1001.75604, , , , 
2025-09-27 18:07:50.491,-0.038285162,3.5581272,9.123833,-0.0151189035,-5.345067E-4,-0.021762058,-14.212501,-46.518753,-34.537502,0.12959078,0.13199705,0.6994446,1001.7524, , , , 
2025-09-27 18:07:50.511,-0.10767702,3.495914,9.284152,-0.020005822,-0.0054214248,-0.0064904382,-14.343751,-45.65625,-34.275,0.12938128,0.13188095,0.699361,1001.7524, , , , 
2025-09-27 18:07:50.531,-0.078963146,3.4911282,9.480363,0.009315688,0.006185006,0.010613776,-14.606251,-44.8125,-34.59375,0.12912026,0.13166612,0.69938976,1001.7514, , , , 
2025-09-27 18:07:50.551,-0.040677983,3.5964124,9.224331,0.03619374,0.012904518,0.02527453,-15.88125,-46.068752,-34.3875,0.12897956,0.13181399,0.69956106,1001.7514, , , , 
2025-09-27 18:07:50.571,-0.014356935,3.6873398,8.963513,0.016646065,-0.010919208,0.019165883,-12.093751,-44.79375,-35.943752,0.12915783,0.13201547,0.69964534,1001.7441,37.88838503,127.73986272,139.03826904296875,0.0
2025-09-27 18:07:50.591,0.050249275,3.6897326,9.111869,-0.04138609,-0.020693045,-0.0058795735,-14.343751,-46.40625,-33.91875,0.12952523,0.13193804,0.699655,1001.7441, , , , 
2025-09-27 18:07:50.611,0.016749758,3.5796626,9.437292,-0.049938194,0.0067958706,-0.01687514,-15.093751,-44.25,-33.80625,0.12931618,0.1315905,0.6996196,1001.7419, , , , 
2025-09-27 18:07:50.631,-0.0741775,3.5581272,9.540184,-0.0029016077,0.022067491,0.0020616686,-13.931251,-45.0,-33.581253,0.1287846,0.13146293,0.6996377,1001.7419, , , , 
2025-09-27 18:07:50.650,0.014356935,3.5988052,9.420543,0.03497201,-0.010308343,0.0026725335,-14.531251,-46.050003,-36.075,0.12862507,0.13152103,0.69967604,1001.7331, , , , 
2025-09-27 18:07:50.671,-0.038285162,3.5820556,9.300901,0.03497201,-0.011530072,-0.0040469794,-14.793751,-45.7125,-33.45,0.1289464,0.1316047,0.69961023,1001.7331, , , , 
2025-09-27 18:07:50.691,-0.10289137,3.5772698,9.229117,0.021532983,0.022067491,0.0063377223,-14.26875,-45.412502,-34.912502,0.12902652,0.13182403,0.6995804,1001.74384, , , , 
2025-09-27 18:07:50.712,-0.10049855,3.6203406,9.217153,0.023365578,0.020234896,0.0112246405,-13.950001,-45.99375,-34.74375,0.12889044,0.13229102,0.69964606,1001.74384, , , , 
2025-09-27 18:07:50.730,-0.069391854,3.6346977,9.131011,0.022143848,-0.01886045,0.01244637,-13.2375,-45.300003,-34.40625,0.12904717,0.13257204,0.6996686,1001.73895, , , , 
2025-09-27 18:07:50.750,-0.009571291,3.603591,9.233903,0.009315688,-0.03718639,0.013057235,-16.050001,-46.21875,-34.518753,0.12940356,0.13249603,0.6996741,1001.73895, , , , 
2025-09-27 18:07:50.769,0.1052842,3.586841,9.355937,0.011759147,-0.014584397,0.0112246405,-14.906251,-45.600002,-34.66875,0.12966475,0.13227646,0.69973356,1001.74115, , , , 
2025-09-27 18:07:50.791,-0.019142581,3.6083765,9.255438,0.01847866,0.0067958706,0.010613776,-12.31875,-44.456253,-35.006252,0.12979746,0.13222165,0.6997836,1001.74115, , , , 
2025-09-27 18:07:50.810,-0.02632105,3.6658044,9.162118,0.021532983,-0.007864884,0.02527453,-13.762501,-45.09375,-35.5875,0.12997165,0.1324156,0.69989944,1001.7426, , , , 
2025-09-27 18:07:50.830,0.05742774,3.67059,9.162118,0.01725693,-0.028634287,0.022831071,-13.9125,-45.0,-34.350002,0.13037375,0.132461,0.7000014,1001.7426, , , , 
2025-09-27 18:07:50.850,0.06460621,3.6897326,9.128618,-0.0016798781,-0.0060322895,0.010613776,-14.925,-44.850002,-33.787502,0.13084593,0.13237025,0.70007026,1001.74506, , , , 
2025-09-27 18:07:50.870,0.016749758,3.6586258,9.229117,-0.019394957,0.026343543,0.0063377223,-14.606251,-44.8125,-34.29375,0.13077962,0.13242844,0.7001584,1001.74506, , , , 
2025-09-27 18:07:50.891,-0.014356935,3.603591,9.29133,-4.581486E-4,0.011682789,0.011835505,-13.500001,-46.4625,-32.775,0.13057752,0.1324951,0.70023537,1001.74286, , , , 
2025-09-27 18:07:50.911,0.023928227,3.5892339,9.260223,0.023976443,-0.029245151,0.0112246405,-14.38125,-45.91875,-34.55625,0.13073064,0.1324014,0.70030516,1001.74286, , , , 
2025-09-27 18:07:50.930,0.069391854,3.6011982,9.080762,0.009926553,-0.00481056,-0.00160352,-13.89375,-45.0,-34.96875,0.1310367,0.13232327,0.7003005,1001.7375, , , , 
2025-09-27 18:07:50.950,0.011964113,3.5796626,9.071191,-0.031001387,0.026343543,-0.0064904382,-14.025001,-45.61875,-34.912502,0.13088813,0.13237278,0.70030624,1001.7375, , , , 
2025-09-27 18:07:50.970,-0.047856454,3.5006995,9.334401,-0.03649917,0.02573268,-0.015042545,-15.075001,-45.0,-34.3875,0.13043644,0.13221844,0.7003099,1001.7397, , , , 
2025-09-27 18:07:50.989,-0.18664017,3.4887354,9.312865,-0.014508039,0.023900084,0.009392046,-14.043751,-44.1375,-33.91875,0.12980321,0.13215382,0.70034873,1001.7397, , , , 
2025-09-27 18:07:51.010,-0.11485548,3.5365918,9.257831,0.009315688,-0.029856017,0.04054615,-15.075001,-45.73125,-34.800003,0.12940997,0.13218622,0.7005515,1001.73456, , , , 
2025-09-27 18:07:51.030,-0.08853444,3.5988052,9.15494,0.03008509,-0.046349365,0.049709123,-13.25625,-45.300003,-33.9375,0.1296622,0.13207097,0.70070404,1001.73456, , , , 
2025-09-27 18:07:51.050,0.13160525,3.6753755,9.152547,0.0019853106,-0.03046688,0.045433067,-14.887501,-46.21875,-34.18125,0.13033222,0.13187669,0.70100254,1001.7409, , , , 
2025-09-27 18:07:51.069,0.17706887,3.7160535,9.209974,-0.020616686,0.003130682,0.023441937,-14.175,-44.775,-33.5625,0.13065076,0.13163354,0.7012347,1001.7409, , , , 
2025-09-27 18:07:51.091,0.040677983,3.7160535,9.276974,-0.039553493,0.031230463,0.01244637,-15.88125,-45.318752,-34.275,0.13059595,0.13151331,0.7013976,1001.7426, , , , 
2025-09-27 18:07:51.109,0.05503492,3.751946,9.391829,-0.029168794,0.021456625,0.019165883,-14.08125,-45.881252,-34.893753,0.13026454,0.13156164,0.70156825,1001.7426, , , , 
2025-09-27 18:07:51.129,0.07178468,3.737589,9.432507,0.009315688,-0.019471316,0.009392046,-12.918751,-45.2625,-35.0625,0.13033561,0.1315191,0.70167327,1001.7458, , , , 
2025-09-27 18:07:51.149,0.0526421,3.6753755,9.348758,0.017867794,-0.008475749,0.008170316,-14.08125,-45.881252,-34.59375,0.13066487,0.13147447,0.7016862,1001.7458, , , , 
2025-09-27 18:07:51.169,0.086141616,3.6275191,9.293723,0.014202606,0.021456625,0.0026725335,-14.212501,-45.037502,-33.862503,0.13080321,0.13157493,0.7017162,1001.73773, , , , 
2025-09-27 18:07:51.191,0.0071784677,3.6346977,9.131011,0.0050396346,0.039171703,0.0026725335,-15.618751,-46.912502,-34.6875,0.13067873,0.13193442,0.7017663,1001.73773, , , , 
2025-09-27 18:07:51.209,0.016749758,3.5772698,9.164511,-0.004123337,0.014737112,0.005726857,-16.087502,-46.96875,-33.54375,0.13055237,0.13211487,0.7018088,1001.73065, , , , 
2025-09-27 18:07:51.230,0.047856454,3.5294135,9.131011,0.006872229,0.0025198173,0.006948587,-14.83125,-45.225002,-34.3875,0.13048543,0.13208342,0.70183104,1001.73065, , , , 
2025-09-27 18:07:51.250,0.043070808,3.5581272,8.999406,-0.0065667965,0.010461059,0.008781182,-16.368752,-45.61875,-35.456253,0.13047245,0.1320461,0.701859,1001.7277, , , , 
2025-09-27 18:07:51.271,0.13399807,3.5533416,9.0951185,-0.021838415,0.00923933,-3.8179048E-4,-14.45625,-45.54375,-34.425003,0.13037528,0.13199486,0.701937,1001.7277, , , , 
2025-09-27 18:07:51.289,0.09332009,3.5413775,9.188439,-0.012064579,0.0043524117,-0.010766491,-15.056251,-44.98125,-36.09375,0.13031207,0.13177049,0.701958,1001.71967, , , , 
2025-09-27 18:07:51.312,-0.062213387,3.574877,8.930014,-0.007177661,0.0074067353,-0.0028252497,-14.325001,-44.90625,-35.081253,0.13018334,0.13173507,0.7019225,1001.71967, , , , 
2025-09-27 18:07:51.331,-0.016749758,3.6610186,8.865408,-0.041996952,-0.011530072,-0.0028252497,-13.950001,-45.99375,-34.74375,0.13007888,0.13177569,0.70190835,1001.72015, , , , 
2025-09-27 18:07:51.351,0.06699903,3.644269,9.099904,-0.08353576,-0.026190827,-0.020540329,-13.33125,-45.581253,-32.53125,0.13000475,0.13138708,0.70184916,1001.72015, , , , 
2025-09-27 18:07:51.370,-0.0526421,3.5676985,9.4229355,-0.08842268,0.015958842,-0.026648976,-15.525001,-45.9,-36.45,0.1294558,0.1307964,0.70177096,1001.72015, , , , 
2025-09-27 18:07:51.391,-0.11964113,3.5724843,9.466006,-0.05421425,0.005574141,-0.014431681,-15.375001,-45.768753,-34.4625,0.12862597,0.13045569,0.70173466,1001.72015, , , , 
2025-09-27 18:07:51.410,-0.062213387,3.6203406,9.583255,-0.026725333,-0.03291034,-0.004657844,-15.31875,-45.506252,-35.568752,0.12822288,0.13015506,0.70169413,1001.7233, , , , 
2025-09-27 18:07:51.431,-0.040677983,3.6586258,9.614362,-4.581486E-4,-0.008475749,-0.0064904382,-12.76875,-46.725002,-35.925003,0.12818627,0.129847,0.701619,1001.7233, , , , 
2025-09-27 18:07:51.451,-0.03589234,3.6873398,9.597611,0.0044287695,0.027565273,-0.013820816,-13.837501,-44.737503,-35.456253,0.12803376,0.1300026,0.7015677,1001.72894, , , , 
2025-09-27 18:07:51.471,-0.050249275,3.7064822,9.580862,0.01970039,0.042836893,-0.015042545,-14.19375,-46.518753,-35.625,0.12777917,0.13041101,0.70149475,1001.72894, , , , 
2025-09-27 18:07:51.491,-0.059820566,3.6849468,9.449257,0.033139415,0.040393434,-0.024205517,-15.1125,-45.24375,-35.456253,0.1276571,0.13097335,0.70136684,1001.7343, , , , 
2025-09-27 18:07:51.511,-0.06699903,3.694518,9.403793,0.03924806,0.042226028,-0.030314164,-14.156251,-44.775,-34.65,0.12761727,0.13160923,0.7011715,1001.7343, , , , 
2025-09-27 18:07:51.531,-0.09571291,3.6681972,9.372686,0.048411034,0.042836893,-0.027259842,-14.250001,-46.0125,-35.49375,0.12757884,0.1323171,0.70095646,1001.73627, , , , 
2025-09-27 18:07:51.552,-0.05503492,3.6370904,9.293723,0.062460925,0.022678355,-0.022983788,-13.743751,-46.575,-36.9,0.1276471,0.13321793,0.7007024,1001.73627, , , , 
2025-09-27 18:07:51.570,-0.09571291,3.5844483,9.272188,0.07223476,0.0019089525,-0.015042545,-13.8,-45.862503,-34.3125,0.12789647,0.13366276,0.7005368,1001.73627,37.88838503,127.73986272,139.03826904296875,0.0
2025-09-27 18:07:51.590,-0.03589234,3.5988052,9.23151,0.06734784,-0.0029779659,-3.8179048E-4,-15.525001,-46.65,-36.24375,0.12826781,0.13417773,0.7003845,1001.73627, , , , 
2025-09-27 18:07:51.610,0.043070808,3.6466618,9.212367,0.066736974,0.015958842,-0.005268709,-13.556251,-44.71875,-34.706253,0.12870309,0.13457736,0.700311,1001.73773, , , , 
2025-09-27 18:07:51.630,0.06460621,3.615555,9.104691,0.05146536,0.015347977,-0.014431681,-14.08125,-45.881252,-35.362503,0.12922908,0.1351368,0.7001823,1001.73773, , , , 
2025-09-27 18:07:51.650,-0.0526421,3.6203406,9.183653,0.04657844,0.022678355,-0.014431681,-14.025001,-46.03125,-31.500002,0.12942898,0.13556173,0.70005554,1001.7382, , , , 
2025-09-27 18:07:51.670,-0.09092726,3.6227336,9.183653,0.050243627,0.028176138,-0.011988222,-14.306251,-45.412502,-33.206253,0.12956089,0.13604078,0.69993377,1001.7382, , , , 
2025-09-27 18:07:51.690,-0.09092726,3.6490545,9.059227,0.050243627,0.014126248,-0.010766491,-15.431251,-46.03125,-34.443752,0.12969424,0.13658695,0.69981825,1001.738, , , , 
2025-09-27 18:07:51.710,-0.09810573,3.629912,8.992228,0.038026333,-0.019471316,-0.013820816,-13.500001,-46.6875,-35.381252,0.13003896,0.13693814,0.6996487,1001.738, , , , 
2025-09-27 18:07:51.730,0.0023928226,3.6203406,8.956335,0.021532983,-0.044516772,-0.010155627,-13.387501,-44.568752,-33.80625,0.13060217,0.13703284,0.69943875,1001.7402, , , , 
2025-09-27 18:07:51.750,-0.016749758,3.6203406,8.958728,-0.0010690134,-0.024358233,-0.008933897,-12.750001,-45.75,-33.975002,0.13093655,0.13683115,0.6993274,1001.7402, , , , 
2025-09-27 18:07:51.769,-0.05503492,3.591627,9.001799,-0.029779658,0.0012980876,-0.0058795735,-14.85,-44.5875,-34.893753,0.13092749,0.13665736,0.6993098,1001.737, , , , 
2025-09-27 18:07:51.790,-0.18903299,3.5772698,8.970692,-0.045051277,-0.0060322895,0.010002911,-13.275001,-44.175003,-35.7,0.13050008,0.13640325,0.69937897,1001.737, , , , 
2025-09-27 18:07:51.810,-0.32063824,3.5533416,8.961121,-0.0481056,-0.032299474,0.02649626,-12.806251,-44.643753,-34.48125,0.13015212,0.13611378,0.69948596,1001.737, , , , 
2025-09-27 18:07:51.830,-0.3469593,3.5365918,8.946764,-0.06093376,-0.06284271,0.044822205,-14.212501,-45.768753,-34.74375,0.12979798,0.13574757,0.6996685,1001.737, , , , 
2025-09-27 18:07:51.850,-0.28953153,3.4504502,9.2075815,-0.06704241,-0.08300125,0.058872093,-12.431251,-44.9625,-35.287502,0.1295338,0.13503236,0.6999458,1001.7297, , , , 
2025-09-27 18:07:51.870,-0.30867413,3.426522,9.286545,-0.05665771,-0.07506001,0.072921984,-14.325001,-47.025,-34.5,0.12925588,0.13408326,0.7003365,1001.7297, , , , 
2025-09-27 18:07:51.890,-0.124426775,3.3954153,9.066405,-0.059101168,-0.012751802,0.08697187,-14.812501,-45.956253,-35.90625,0.12873974,0.13315222,0.70103145,1001.72675, , , , 
2025-09-27 18:07:51.911,-0.124426775,3.481557,9.114262,-0.07498365,-0.04329504,0.082084954,-13.9875,-45.375,-34.3125,0.12826127,0.13249466,0.7016359,1001.72675, , , , 
2025-09-27 18:07:51.929,0.11006984,3.5246277,9.3200445,-0.06887501,-0.093996815,0.0570395,-14.325001,-44.90625,-35.081253,0.12825644,0.13167946,0.70199674,1001.72504, , , , 
2025-09-27 18:07:51.951,0.021535404,3.5294135,9.410972,-0.07620538,-0.047571093,0.046654798,-13.781251,-44.475002,-35.475002,0.12847504,0.1301186,0.70240545,1001.72504, , , , 
2025-09-27 18:07:51.971,0.07178468,3.5581272,9.492328,-0.07742711,-0.0035888306,0.057650365,-13.89375,-45.506252,-32.325,0.12805122,0.12929113,0.7028392,1001.72284, , , , 
2025-09-27 18:07:51.991,0.17228323,3.5796626,9.4636135,-0.04382955,-0.051236283,0.056428634,-15.150001,-45.2625,-33.581253,0.12782742,0.12853032,0.70330137,1001.72284, , , , 
2025-09-27 18:07:52.010,0.2632105,3.5964124,9.420543,-0.021227552,-0.09521855,0.049709123,-15.187501,-46.237503,-34.7625,0.12836494,0.12754437,0.70363116,1001.72235, , , , 
2025-09-27 18:07:52.030,0.30149564,3.6059837,9.2793665,-0.026725333,-0.057344932,0.03199404,-15.637501,-44.925003,-34.800003,0.12913795,0.12653077,0.70387673,1001.72235, , , , 
2025-09-27 18:07:52.049,0.24646074,3.6275191,9.174082,-0.054825112,-0.015195262,0.019165883,-14.7375,-45.45,-34.55625,0.12954101,0.12573422,0.7041401,1001.72406, , , , 
2025-09-27 18:07:52.070,0.14356937,3.5676985,9.21476,-0.05665771,-0.027412556,0.0063377223,-14.531251,-44.550003,-35.7,0.12957834,0.12518676,0.7042598,1001.72406, , , , 
2025-09-27 18:07:52.090,0.11485548,3.5270207,9.193225,-0.047494736,-0.043905906,0.006948587,-14.250001,-44.643753,-35.8875,0.12961692,0.124618806,0.7043074,1001.7238, , , , 
2025-09-27 18:07:52.110,0.2009971,3.505485,9.236296,-0.045662142,-0.054290608,0.0045051277,-14.85,-44.60625,-34.275,0.12975664,0.12398182,0.70433944,1001.7238, , , , 
2025-09-27 18:07:52.130,0.18664017,3.495914,9.339187,-0.053603385,-0.041462447,0.0020616686,-15.76875,-44.287502,-36.975002,0.12986422,0.1232403,0.70435905,1001.72797, , , , 
2025-09-27 18:07:52.150,0.26081768,3.4839497,9.45165,-0.046273008,-0.053679742,-0.00160352,-14.925,-45.09375,-35.943752,0.12987566,0.122308865,0.7043966,1001.72797, , , , 
2025-09-27 18:07:52.170,0.16749759,3.5150564,9.413364,-0.031001387,-0.074449144,0.005726857,-16.181252,-46.10625,-34.66875,0.13005763,0.121691756,0.70438087,1001.72894, , , , 
2025-09-27 18:07:52.191,0.2440679,3.5724843,9.394221,-0.016951498,-0.10804671,0.019165883,-17.493752,-45.24375,-33.3375,0.13069169,0.120709,0.704381,1001.72894, , , , 
2025-09-27 18:07:52.210,0.2847459,3.603591,9.473185,-0.016340632,-0.13492475,0.034437504,-16.06875,-43.350002,-34.6875,0.13156031,0.11979974,0.70442164,1001.7316, , , , 
2025-09-27 18:07:52.230,0.4546363,3.5605202,9.664611,-0.002290743,-0.13858995,0.03199404,-16.03125,-43.10625,-33.9375,0.13265282,0.11864001,0.7045049,1001.7316, , , , 
2025-09-27 18:07:52.250,0.4019942,3.5389848,9.626326,0.029474225,-0.07811433,0.020998476,-17.118752,-44.2125,-34.6875,0.13368319,0.11764608,0.7045584,1001.7331, , , , 
2025-09-27 18:07:52.270,0.36610186,3.5964124,9.387043,0.045967575,-0.035964664,0.019165883,-15.375001,-45.768753,-34.7625,0.13443668,0.11733892,0.70460325,1001.7331, , , , 
2025-09-27 18:07:52.290,0.45702913,3.696911,9.2075815,0.039858926,-0.048792824,-0.0064904382,-16.237501,-44.23125,-35.381252,0.13527758,0.117411,0.70456254,1001.72894, , , , 
2025-09-27 18:07:52.310,0.44506502,3.6346977,9.276974,0.015424335,-0.0457385,-0.03886627,-16.275002,-45.0,-33.018753,0.13621612,0.117374934,0.7042909,1001.72894, , , , 
2025-09-27 18:07:52.330,0.37567315,3.4983068,9.353543,0.013591741,0.0067958706,-0.049861837,-15.431251,-45.28125,-33.862503,0.13668229,0.11737993,0.70385396,1001.727, , , , 
2025-09-27 18:07:52.350,0.47856453,3.5294135,9.391829,0.022754714,0.012293654,-0.060857404,-16.650002,-44.025,-34.575,0.13672775,0.1174957,0.7035205,1001.727, , , , 
2025-09-27 18:07:52.370,0.46181476,3.495914,9.410972,0.026419902,0.010461059,-0.081015944,-15.900001,-43.21875,-33.46875,0.13692239,0.11759662,0.7030602,1001.736, , , , 
2025-09-27 18:07:52.390,0.38285163,3.4624143,9.497113,0.030695954,0.04344776,-0.090178914,-16.875,-45.16875,-34.800003,0.13693038,0.11781946,0.7025177,1001.736, , , , 
2025-09-27 18:07:52.409,0.2536392,3.505485,9.339187,0.042302385,0.06543889,-0.08590286,-15.0375,-44.2125,-37.050003,0.13663526,0.11838046,0.70200205,1001.7353, , , , 
2025-09-27 18:07:52.430,0.10767702,3.5198421,9.300901,0.037415467,0.062384564,-0.06879865,-15.562501,-45.91875,-33.825,0.13628787,0.119210936,0.7015218,1001.7353, , , , 
2025-09-27 18:07:52.450,0.033499517,3.5509489,9.389436,0.045967575,0.04894554,-0.046807513,-14.812501,-43.59375,-33.7125,0.13576539,0.12040787,0.7010388,1001.7375, , , , 
2025-09-27 18:07:52.469,0.019142581,3.603591,9.540184,0.06307179,0.039171703,-0.03459022,-14.793751,-44.9625,-33.956253,0.13556151,0.12110021,0.7008072,1001.7375, , , , 
2025-09-27 18:07:52.490,-0.019142581,3.330809,9.183653,0.09666935,0.016569708,-0.027870705,-15.58125,-44.662502,-35.8875,0.13553822,0.12230424,0.70044875,1001.7341, , , , 
2025-09-27 18:07:52.510,0.08853444,3.481557,8.592627,0.053908817,-0.2192241,-0.049861837,-13.81875,-46.10625,-35.381252,0.13687064,0.1224814,0.69998425,1001.7341, , , , 
2025-09-27 18:07:52.530,0.16749759,3.4504502,8.965906,0.012370012,-0.009086614,-0.021151192,-13.875001,-46.4625,-36.43125,0.13803072,0.12216578,0.69936913,1001.7399, , , , 
2025-09-27 18:07:52.550,0.10049855,3.534199,9.245867,-0.045051277,0.092927806,-0.037033677,-15.093751,-44.25,-33.506252,0.13745427,0.12238486,0.6992716,1001.7399, , , , 
2025-09-27 18:07:52.569,0.0047856453,3.5030923,9.506684,-0.0481056,0.099036455,-0.040698867,-16.087502,-44.850002,-33.825,0.13619518,0.1227267,0.69920033,1001.758,37.88838503,127.73986272,139.03826904296875,0.0
2025-09-27 18:07:52.590,-0.04546363,3.4624143,9.568898,0.023365578,0.04405862,-0.021151192,-15.731251,-45.1875,-33.075,0.13507773,0.12315867,0.6990895,1001.758, , , , 
2025-09-27 18:07:52.610,0.05503492,3.534199,9.08794,0.04657844,-0.012751802,0.0014508038,-15.50625,-45.65625,-34.612503,0.13478528,0.123781614,0.6989469,1001.7746, , , , 
2025-09-27 18:07:52.630,0.20578274,3.5700915,8.961121,0.025198173,-0.03657553,0.0026725335,-15.4125,-46.0125,-35.53125,0.13520862,0.12398685,0.69886583,1001.7746, , , , 
2025-09-27 18:07:52.649,0.29910284,3.5700915,8.927621,-0.004123337,-0.022525638,-0.004657844,-14.7375,-46.95,-34.3125,0.13556461,0.123920865,0.698814,1001.79315, , , , 
2025-09-27 18:07:52.669,0.2656033,3.5820556,8.965906,-0.031001387,0.0012980876,-0.012599086,-15.88125,-46.068752,-34.706253,0.13574368,0.12374061,0.6987603,1001.79315, , , , 
2025-09-27 18:07:52.689,0.20338993,3.5270207,9.238688,-0.037110034,0.017791437,-0.0064904382,-13.781251,-44.475002,-36.09375,0.13543929,0.12351971,0.6987558,1001.8278, , , , 
2025-09-27 18:07:52.709,0.29910284,3.548556,9.293723,-0.024281874,-0.0054214248,-0.011988222,-13.781251,-45.84375,-35.4,0.13524425,0.12334508,0.6987738,1001.8278, , , , 
2025-09-27 18:07:52.729,0.2847459,3.562913,9.272188,-0.025503604,-0.018249584,-0.022983788,-13.837501,-44.737503,-35.756252,0.13523631,0.1231513,0.6987399,1001.8278, , , , 
2025-09-27 18:07:52.749,0.15792629,3.5796626,9.501899,-0.043218683,0.015958842,-0.026038112,-14.606251,-47.04375,-35.550003,0.13502099,0.12259158,0.6985226,1001.8488, , , , 
2025-09-27 18:07:52.769,0.15074782,3.6370904,9.5665045,-0.02489274,0.03489565,-0.017486004,-11.606251,-46.331253,-39.300003,0.13438913,0.122464485,0.6984424,1001.86566, , , , 
2025-09-27 18:07:52.789,0.086141616,3.656233,9.573684,-0.007177661,0.058108512,-0.008323032,-14.718751,-43.95,-34.95,0.13369374,0.12277597,0.698446,1001.86566, , , , 
2025-09-27 18:07:52.810,0.14117654,3.656233,9.408579,0.020311253,0.04894554,-0.008933897,-14.062501,-46.612503,-36.09375,0.13339734,0.12313991,0.69844264,1001.8774, , , , 
2025-09-27 18:07:52.829,0.15314065,3.5820556,9.269794,0.037415467,0.020234896,-0.009544762,-13.875001,-45.7125,-36.6375,0.13340059,0.123783305,0.6983661,1001.8774, , , , 
2025-09-27 18:07:52.849,0.2321038,3.5102708,9.3200445,0.0368046,0.015347977,-0.008933897,-14.75625,-44.193752,-35.7,0.1335541,0.12411716,0.6982866,1001.8864, , , , 
2025-09-27 18:07:52.869,0.33738798,3.5246277,9.262616,0.03375028,0.036728244,-0.015042545,-14.343751,-45.15,-36.15,0.13367109,0.124375276,0.6982347,1001.8864, , , , 
2025-09-27 18:07:52.889,0.09332009,3.4863427,9.262616,0.043524116,0.066049755,-0.008323032,-14.26875,-45.393753,-35.381252,0.13361394,0.124779046,0.69819194,1001.8796, , , , 
2025-09-27 18:07:52.909,0.0023928226,3.5246277,9.0233345,0.052687086,0.036728244,0.010613776,-16.25625,-46.36875,-33.2625,0.13342659,0.12550436,0.698214,1001.8796, , , , 
2025-09-27 18:07:52.929,0.1268196,3.5126636,9.119047,0.023365578,-0.015195262,0.014278964,-13.031251,-45.768753,-35.025,0.13365908,0.12599507,0.69825864,1001.8569, , , , 
2025-09-27 18:07:52.950,0.09571291,3.4624143,9.585648,0.04535671,0.0037415468,0.0112246405,-15.1125,-45.24375,-34.987503,0.13381833,0.12602021,0.6982836,1001.8569, , , , 
2025-09-27 18:07:52.969,-0.0047856453,3.6370904,9.597611,0.075289086,0.051389,0.024663666,-15.4125,-46.0125,-35.53125,0.13373353,0.12637877,0.69843,1001.8112, , , , 
2025-09-27 18:07:52.989,0.19381863,3.7591243,9.224331,0.055130545,0.055054188,0.028939718,-12.543751,-45.600002,-35.7,0.13374145,0.12724507,0.69861966,1001.8112, , , , 
2025-09-27 18:07:53.009,0.2416751,3.7615173,9.288938,0.044745844,0.014126248,-0.0028252497,-16.21875,-46.85625,-33.075,0.13412523,0.12778592,0.69868034,1001.7736, , , , 
2025-09-27 18:07:53.029,0.17467605,3.7208393,9.164511,0.055130545,0.0025198173,-0.013820816,-13.51875,-46.6875,-34.912502,0.13469744,0.12815683,0.69855905,1001.7736, , , , 
2025-09-27 18:07:53.049,0.21535404,3.7471602,8.953942,0.0386372,6.8722287E-4,-0.011988222,-14.793751,-45.7125,-33.75,0.13522506,0.12865658,0.6984023,1001.74384, , , , 
2025-09-27 18:07:53.071,0.28713873,3.6729827,9.0544405,0.014813471,-0.01886045,-0.03581195,-14.94375,-44.362503,-34.425003,0.13582286,0.12889443,0.6982012,1001.74384, , , , 
2025-09-27 18:07:53.091,0.2321038,3.6179478,9.250652,0.006261364,0.003130682,-0.045585785,-14.718751,-44.7,-34.74375,0.13624893,0.12880798,0.6978435,1001.7255, , , , 
2025-09-27 18:07:53.110,0.16749759,3.5964124,9.245867,0.01847866,0.023900084,-0.040088,-15.093751,-46.5,-33.825,0.13616797,0.12892662,0.6975928,1001.7255, , , , 
2025-09-27 18:07:53.129,0.08135597,3.6275191,9.08794,0.03008509,7.63581E-5,-0.03459022,-14.793751,-44.98125,-33.3375,0.13619179,0.12918292,0.69734365,1001.706, , , , 
2025-09-27 18:07:53.149,0.1052842,3.6251264,8.953942,0.009315688,-0.020693045,-0.03581195,-14.6625,-45.075,-34.575,0.13644001,0.12933406,0.69705546,1001.706, , , , 
2025-09-27 18:07:53.169,0.08135597,3.6179478,8.989835,-0.031001387,-0.002367101,-0.03581195,-12.843751,-46.36875,-36.09375,0.13646416,0.12935492,0.69678783,1001.69965, , , , 
2025-09-27 18:07:53.189,-0.0047856453,3.5940197,9.178867,-0.04138609,0.010461059,-0.03214676,-16.35,-46.237503,-34.48125,0.13611418,0.12926948,0.6965876,1001.69965, , , , 
2025-09-27 18:07:53.209,-0.033499517,3.6059837,9.315259,-0.02611447,0.015347977,-0.022372922,-15.168751,-46.237503,-35.23125,0.13555455,0.12922609,0.69645387,1001.69965, , , , 
2025-09-27 18:07:53.229,-0.06699903,3.6514473,9.183653,-0.010231985,-0.00481056,-0.013209951,-13.968751,-45.375,-34.95,0.1351747,0.12931697,0.69634634,1001.69916, , , , 
2025-09-27 18:07:53.249,-0.062213387,3.6897326,9.209974,-0.018173227,-0.007864884,-0.0064904382,-14.025001,-44.1375,-34.706253,0.1349276,0.12946138,0.6962199,1001.695, , , , 
2025-09-27 18:07:53.269,-0.0047856453,3.694518,9.262616,-0.017562363,-0.0060322895,-0.015653409,-15.4875,-46.275,-34.725002,0.1347563,0.12949812,0.6961231,1001.695, , , , 
2025-09-27 18:07:53.289,0.011964113,3.65384,9.339187,-0.0151189035,-0.00481056,-0.022983788,-14.775001,-45.1875,-37.18125,0.13458417,0.12945963,0.69598705,1001.69696, , , , 
2025-09-27 18:07:53.309,-0.0047856453,3.5964124,9.399008,-0.007788526,0.006185006,-0.01809687,-16.612501,-46.03125,-33.693752,0.13431731,0.1294554,0.69584894,1001.69696, , , , 
2025-09-27 18:07:53.329,0.02632105,3.6059837,9.399008,1.527162E-4,0.023900084,-0.008933897,-15.13125,-45.24375,-34.36875,0.13401128,0.12953079,0.69579023,1001.69867, , , , 
2025-09-27 18:07:53.349,0.11006984,3.6227336,9.439685,0.008093959,0.03978257,-3.8179048E-4,-15.637501,-44.175003,-34.987503,0.13370226,0.12967253,0.69581854,1001.69867, , , , 
2025-09-27 18:07:53.369,0.17467605,3.6394832,9.312865,0.019089524,0.034284785,-0.0028252497,-15.0375,-46.875,-33.037502,0.13354239,0.12992224,0.69588584,1001.7033, , , , 
2025-09-27 18:07:53.389,0.0023928226,3.7686956,8.673982,-0.004734202,7.63581E-5,-0.011988222,-13.875001,-45.487503,-34.0125,0.13358621,0.1300065,0.6959079,1001.7033, , , , 
2025-09-27 18:07:53.409,-0.05503492,3.2757742,8.685946,0.009315688,-0.04329504,0.023441937,-13.856251,-46.125,-33.825,0.13384925,0.12999475,0.69592196,1001.7153, , , , 
2025-09-27 18:07:53.429,-0.011964113,3.3762727,8.700303,-0.017562363,-0.110490166,0.043600474,-13.8,-44.475002,-35.006252,0.13425757,0.12941347,0.6960671,1001.7153, , , , 
2025-09-27 18:07:53.449,0.05503492,3.4743786,8.886943,-0.067653276,-0.08727731,0.03199404,-13.593751,-45.693752,-35.8875,0.13459548,0.12839359,0.6962379,1001.7204, , , , 
2025-09-27 18:07:53.469,-0.023928227,3.5006995,9.243474,-0.101250835,0.011682789,0.035048366,-16.650002,-46.275,-35.23125,0.13417706,0.1274796,0.6965037,1001.7204, , , , 
2025-09-27 18:07:53.489,0.0741775,3.615555,9.475577,-0.091477,0.04344776,0.036270097,-13.575001,-44.943752,-36.54375,0.13287549,0.12688075,0.6970258,1001.7209, , , , 
2025-09-27 18:07:53.509,0.05742774,3.6921253,9.561719,-0.06459895,0.0049632764,0.029550584,-14.925,-45.825,-36.506252,0.13237122,0.12655835,0.6972817,1001.7209, , , , 
2025-09-27 18:07:53.529,0.1268196,3.739982,9.492328,-0.04444041,0.019013166,0.021609342,-15.4125,-45.2625,-35.71875,0.13194947,0.12619714,0.69760734,1001.7187, , , , 
2025-09-27 18:07:53.549,0.14356937,3.7088752,9.45165,-0.028557928,0.02328922,0.017333288,-14.325001,-46.3875,-35.775,0.13173415,0.12616201,0.69778544,1001.7187, , , , 
2025-09-27 18:07:53.569,0.050249275,3.7040894,9.305687,-0.021838415,0.020845762,0.016722424,-14.718751,-44.7,-34.74375,0.13157159,0.12622592,0.69792753,1001.71234,37.88838962,127.73984965,140.2037353515625,0.0
2025-09-27 18:07:53.589,0.09092726,3.6610186,9.18126,-0.019394957,-0.010308343,0.02527453,-14.981251,-44.71875,-37.18125,0.13151,0.12628853,0.69806826,1001.71234, , , , 
2025-09-27 18:07:53.609,0.22013968,3.6179478,9.190832,-0.029779658,-0.010308343,0.023441937,-14.250001,-45.393753,-36.45,0.13162886,0.1261088,0.6982298,1001.72064, , , , 
2025-09-27 18:07:53.629,0.3493521,3.603591,9.229117,-0.046883874,0.015958842,0.005726857,-15.543751,-45.9,-34.893753,0.13167697,0.12575392,0.6984018,1001.72064, , , , 
2025-09-27 18:07:53.651,0.27517462,3.5150564,9.406186,-0.049938194,0.04405862,-0.009544762,-13.462501,-44.4375,-36.600002,0.13146523,0.12533575,0.6985297,1001.72723, , , , 
2025-09-27 18:07:53.669,0.124426775,3.4600215,9.353543,-0.027947064,0.09353867,0.008170316,-13.950001,-45.35625,-36.018753,0.1305847,0.12532172,0.69875747,1001.72723, , , , 
2025-09-27 18:07:53.689,0.08135597,3.546163,9.229117,-0.010231985,0.073380135,0.010002911,-14.7375,-44.925003,-37.2,0.12990728,0.12566882,0.6989824,1001.7297, , , , 
2025-09-27 18:07:53.709,0.1052842,3.5700915,9.195618,-0.024281874,0.06055197,-9.926553E-4,-13.743751,-45.84375,-36.487503,0.12944712,0.1260418,0.6990977,1001.7297, , , , 
2025-09-27 18:07:53.729,-0.0023928226,3.5270207,9.169296,-0.06093376,0.020234896,-0.019929463,-14.306251,-44.90625,-35.86875,0.12899184,0.12616271,0.6990863,1001.72577, , , , 
2025-09-27 18:07:53.749,-0.069391854,3.4528432,9.3104725,-0.047494736,0.014737112,-0.010766491,-13.875001,-45.73125,-36.16875,0.12842046,0.1260281,0.6990313,1001.72577, , , , 
2025-09-27 18:07:53.769,0.033499517,3.4743786,9.272188,-0.03161225,-0.008475749,0.0020616686,-13.556251,-44.943752,-37.162502,0.12791908,0.12586126,0.6990564,1001.7238, , , , 
2025-09-27 18:07:53.789,0.069391854,3.4887354,9.379865,-0.0151189035,-0.020693045,-0.0064904382,-14.1,-46.631252,-34.3875,0.12784863,0.1254498,0.6990619,1001.7238, , , , 
2025-09-27 18:07:53.809,-0.014356935,3.493521,9.305687,-0.013286309,-0.013973532,-0.00160352,-14.1,-44.737503,-37.125,0.12782913,0.12528266,0.6990326,1001.717, , , , 
2025-09-27 18:07:53.829,0.05742774,3.5413775,9.312865,-0.020005822,-0.013362667,0.0020616686,-15.4125,-46.0125,-35.831253,0.12771384,0.12513326,0.69904184,1001.717, , , , 
2025-09-27 18:07:53.849,0.13878371,3.562913,9.415757,-0.027947064,-0.014584397,-0.014431681,-12.76875,-45.35625,-37.068752,0.12774405,0.12485983,0.6990158,1001.71063, , , , 
2025-09-27 18:07:53.870,0.09092726,3.5294135,9.513863,-0.024281874,0.0025198173,-0.02481638,-14.793751,-45.1875,-36.881252,0.12769628,0.12465044,0.6989359,1001.71063, , , , 
2025-09-27 18:07:53.889,0.09810573,3.493521,9.5353985,-0.007177661,0.021456625,-0.030314164,-15.056251,-45.73125,-35.5875,0.12736368,0.12455386,0.69877964,1001.7094, , , , 
2025-09-27 18:07:53.909,-0.019142581,3.4576287,9.408579,0.01847866,0.0074067353,-0.03092503,-15.356251,-45.018753,-35.4375,0.12716149,0.12464482,0.6986044,1001.7094, , , , 
2025-09-27 18:07:53.929,-0.040677983,3.4719856,9.32483,0.01970039,-0.010919208,-0.0193186,-14.45625,-45.54375,-34.425003,0.12715748,0.12480999,0.69839764,1001.7177, , , , 
2025-09-27 18:07:53.950,0.0047856453,3.5006995,9.339187,0.017867794,0.019013166,-0.0077121677,-13.762501,-45.09375,-35.90625,0.12713604,0.12503098,0.6982771,1001.7177, , , , 
2025-09-27 18:07:53.969,-0.02632105,3.4839497,9.288938,0.019089524,0.014126248,-0.009544762,-14.906251,-45.075,-36.7125,0.12707363,0.12543313,0.6981845,1001.7165, , , , 
2025-09-27 18:07:53.989,0.04546363,3.4719856,9.2793665,0.024587307,-0.017027855,-0.005268709,-13.575001,-44.943752,-36.862503,0.12719524,0.12560715,0.69809234,1001.7165, , , , 
2025-09-27 18:07:54.009,0.10049855,3.4576287,9.226724,0.025809037,0.008628465,-0.009544762,-13.33125,-45.80625,-35.456253,0.12743571,0.12569517,0.6980151,1001.7165, , , , 
2025-09-27 18:07:54.029,-0.016749758,3.5365918,9.037691,0.0019853106,0.057497647,-0.011377357,-12.900001,-45.24375,-36.91875,0.12734425,0.12607716,0.6979693,1001.71674, , , , 
2025-09-27 18:07:54.049,-0.043070808,3.5413775,9.174082,-0.031001387,0.04344776,-0.018707734,-13.668751,-44.081253,-37.66875,0.12691882,0.12655926,0.6979216,1001.7165, , , , 
2025-09-27 18:07:54.070,-0.06460621,3.4073794,9.434899,1.527162E-4,0.0043524117,-0.015042545,-12.637501,-45.46875,-37.237503,0.12644976,0.12670153,0.6978116,1001.7165, , , , 
2025-09-27 18:07:54.089,-0.0071784677,3.347559,9.298509,0.017867794,-0.018249584,-0.0022143847,-13.33125,-46.55625,-35.100002,0.1263898,0.12661406,0.6977436,1001.7248, , , , 
2025-09-27 18:07:54.109,-0.0023928226,3.385844,9.217153,0.011148282,0.015347977,0.014889829,-12.88125,-44.49375,-37.425003,0.12635395,0.12657453,0.69777185,1001.7248, , , , 
2025-09-27 18:07:54.129,0.10767702,3.4983068,9.150154,-0.013897174,0.03978257,0.0032833982,-14.118751,-44.756252,-36.80625,0.12609908,0.12669134,0.69794506,1001.7319, , , , 
2025-09-27 18:07:54.149,-0.02632105,3.5102708,9.1669035,-0.031001387,0.017791437,-0.0064904382,-13.1625,-43.66875,-36.35625,0.12587476,0.12673402,0.6979794,1001.7319, , , , 
2025-09-27 18:07:54.170,-0.1268196,3.4863427,9.391829,-0.031001387,0.014126248,0.005726857,-13.368751,-44.568752,-35.2125,0.1255151,0.1267044,0.69799644,1001.7314, , , , 
2025-09-27 18:07:54.191,-0.16271193,3.5006995,9.415757,-0.007177661,0.01962403,0.020387612,-14.26875,-44.8875,-38.025,0.12509644,0.12676537,0.6981107,1001.7314, , , , 
2025-09-27 18:07:54.210,-0.047856454,3.5533416,9.363115,0.009926553,-0.009086614,0.024663666,-14.83125,-45.225002,-34.3875,0.124945946,0.12695093,0.6982543,1001.7343, , , , 
2025-09-27 18:07:54.230,0.040677983,3.5270207,9.3511505,0.008704823,-0.0054214248,0.015500694,-12.4125,-44.9625,-35.737503,0.12517403,0.12702478,0.69838154,1001.7343, , , , 
2025-09-27 18:07:54.250,0.11724831,3.4863427,9.437292,-0.007788526,0.012904518,0.006948587,-14.868751,-44.831253,-35.9625,0.12526189,0.12691459,0.69844115,1001.7309, , , , 
2025-09-27 18:07:54.270,0.124426775,3.4695928,9.518648,0.003817905,0.02573268,-3.8179048E-4,-14.137501,-45.506252,-36.15,0.12517005,0.12678118,0.69853693,1001.7309, , , , 
2025-09-27 18:07:54.289,0.014356935,3.4600215,9.403793,0.028252495,0.01962403,0.0032833982,-14.55,-46.050003,-35.456253,0.12517782,0.1268105,0.6985783,1001.7316, , , , 
2025-09-27 18:07:54.310,0.040677983,3.534199,9.293723,0.037415467,0.006185006,0.016111558,-13.5375,-45.45,-35.90625,0.12527712,0.12705363,0.6986318,1001.7316, , , , 
2025-09-27 18:07:54.330,0.16031912,3.5988052,9.205189,0.03924806,-0.023747368,0.003894263,-13.781251,-45.84375,-35.4,0.12575547,0.12724435,0.6986553,1001.727, , , , 
2025-09-27 18:07:54.350,0.11006984,3.5724843,9.109476,0.020922119,-0.034742933,-0.0077121677,-15.243751,-45.131252,-35.287502,0.12651426,0.12724414,0.6985615,1001.727, , , , 
2025-09-27 18:07:54.370,0.12921242,3.5365918,9.257831,-0.0016798781,-0.0054214248,-0.010155627,-16.125,-45.84375,-34.3875,0.12699291,0.12715806,0.69847554,1001.7277, , , , 
2025-09-27 18:07:54.390,0.083748795,3.5581272,9.272188,0.003817905,0.017180571,-0.028481571,-15.356251,-45.018753,-35.4375,0.12707858,0.12713431,0.6984021,1001.7277, , , , 
2025-09-27 18:07:54.410,-0.0526421,3.5964124,9.183653,0.006872229,0.022067491,-0.03825541,-14.493751,-45.80625,-35.025,0.12704267,0.12745209,0.69813776,1001.73456, , , , 
2025-09-27 18:07:54.429,-0.13399807,3.6203406,9.19801,0.013591741,0.014126248,-0.03825541,-14.775001,-45.693752,-35.30625,0.1269602,0.12792535,0.6978476,1001.73456, , , , 
2025-09-27 18:07:54.450,-0.12921242,3.6203406,9.020942,0.016035201,-0.0066431547,-0.03459022,-13.593751,-45.693752,-35.5875,0.12699239,0.12843184,0.69754094,1001.7392, , , , 
2025-09-27 18:07:54.469,-0.031106694,3.591627,8.961121,-0.014508039,-0.020693045,-0.044364054,-13.031251,-46.518753,-35.1375,0.12713875,0.12874302,0.6972074,1001.7392, , , , 
2025-09-27 18:07:54.490,-0.09571291,3.4863427,9.241081,-0.053603385,-0.010919208,-0.05291616,-13.668751,-45.3375,-34.96875,0.12701598,0.12857784,0.69677603,1001.73724, , , , 
2025-09-27 18:07:54.510,-0.15553348,3.3355947,9.509077,-0.0377209,0.009850195,-0.03642281,-12.075001,-44.568752,-34.10625,0.1263788,0.128331,0.6965275,1001.73724, , , , 
2025-09-27 18:07:54.530,-0.06699903,3.3619158,9.442079,0.003817905,6.8722287E-4,-0.020540329,-12.675,-45.487503,-35.850002,0.12579162,0.1281808,0.6964082,1001.7358, , , , 
2025-09-27 18:07:54.550,-0.076570325,3.4241292,9.18126,0.008704823,-0.031077746,-0.023594651,-14.137501,-44.756252,-35.41875,0.12575352,0.12808476,0.6962537,1001.7358, , , , 
2025-09-27 18:07:54.570,-0.050249275,3.438486,9.245867,-0.0065667965,-0.027412556,-0.019929463,-14.062501,-45.881252,-35.68125,0.12585114,0.12788232,0.6960642,1001.736,37.88838962,127.73984965,140.2037353515625,0.0
2025-09-27 18:07:54.590,-0.021535404,3.4313076,9.334401,-0.015729768,-0.008475749,-0.014431681,-13.9125,-45.75,-33.99375,0.12574272,0.12768884,0.6959586,1001.736, , , , 
2025-09-27 18:07:54.610,0.009571291,3.4337006,9.353543,-0.012064579,-0.03046688,-0.018707734,-14.306251,-44.90625,-35.86875,0.12566635,0.12735543,0.6958427,1001.73724, , , , 
2025-09-27 18:07:54.631,0.086141616,3.4456646,9.391829,-0.007177661,-0.024358233,-0.0193186,-13.837501,-44.737503,-35.456253,0.12573898,0.12694651,0.6957036,1001.73724, , , , 
2025-09-27 18:07:54.650,0.11246266,3.438486,9.396614,-0.009010255,0.011682789,-0.026038112,-13.293751,-45.5625,-33.91875,0.1256375,0.12666044,0.69561917,1001.7309, , , , 
2025-09-27 18:07:54.670,0.16271193,3.4217365,9.458828,0.00320704,-0.0017562362,-0.037033677,-13.725,-44.100002,-35.04375,0.12561335,0.12649244,0.69550747,1001.7309, , , , 
2025-09-27 18:07:54.690,0.014356935,3.5174494,9.209974,0.027641632,0.012293654,-0.043753188,-14.718751,-45.45,-34.85625,0.12578993,0.12644558,0.6951751,1001.7297, , , , 
2025-09-27 18:07:54.710,-0.15553348,3.5940197,8.987442,1.527162E-4,0.02328922,-0.039477136,-13.762501,-45.09375,-35.5875,0.12583901,0.12687708,0.6948629,1001.7297, , , , 
2025-09-27 18:07:54.729,-0.19381863,3.6131623,9.0951185,-0.018784093,0.0067958706,-0.032757625,-13.5375,-43.95,-35.68125,0.12568952,0.12733608,0.694582,1001.73114, , , , 
2025-09-27 18:07:54.750,-0.2009971,3.6083765,9.257831,-0.007177661,-0.03718639,-0.028481571,-14.137501,-45.506252,-35.53125,0.12562132,0.1275581,0.69432116,1001.73114, , , , 
2025-09-27 18:07:54.769,-0.14356937,3.5724843,9.336794,0.0025961753,-0.051236283,-0.021762058,-16.48125,-45.393753,-33.75,0.12590301,0.12755492,0.69397146,1001.73114, , , , 
2025-09-27 18:07:54.790,-0.124426775,3.574877,9.399008,0.010537418,-0.007864884,-0.025427246,-13.368751,-44.568752,-35.2125,0.12606408,0.12755746,0.69374853,1001.73114, , , , 
2025-09-27 18:07:54.810,-0.18664017,3.5605202,9.377472,0.008093959,0.005574141,-0.01687514,-14.025001,-45.61875,-34.912502,0.12593196,0.12786861,0.69356453,1001.738, , , , 
2025-09-27 18:07:54.829,-0.09092726,3.4983068,9.513863,0.01725693,-0.016416991,-0.025427246,-11.90625,-45.393753,-37.0125,0.12591662,0.12800254,0.69338936,1001.738, , , , 
2025-09-27 18:07:54.850,-0.2105684,3.4049866,9.489935,0.015424335,0.016569708,-0.014431681,-15.093751,-45.225002,-36.075,0.12581722,0.12805448,0.6932013,1001.73456, , , , 
2025-09-27 18:07:54.870,-0.21535404,3.3906298,9.449257,0.016035201,0.054443322,0.016111558,-14.343751,-45.65625,-34.275,0.12525581,0.12840368,0.6932139,1001.73456, , , , 
2025-09-27 18:07:54.890,-0.19142582,3.4049866,9.370294,0.026419902,0.026954409,0.038713556,-13.087501,-45.393753,-35.9625,0.12475818,0.12880231,0.6934158,1001.7382, , , , 
2025-09-27 18:07:54.910,-0.1052842,3.385844,9.420543,0.034361143,-0.002367101,0.05948296,-14.493751,-46.537502,-35.287502,0.124657795,0.12897965,0.69371635,1001.7382, , , , 
2025-09-27 18:07:54.929,0.050249275,3.4241292,9.363115,0.053908817,0.008628465,0.06864593,-13.275001,-46.29375,-35.8875,0.12489813,0.12905927,0.6942404,1001.74066, , , , 
2025-09-27 18:07:54.950,0.18185452,3.5198421,9.1669035,0.05818487,0.0049632764,0.0655916,-12.281251,-44.41875,-37.95,0.12540525,0.12918149,0.6946866,1001.74066, , , , 
2025-09-27 18:07:54.969,0.16749759,3.5820556,9.02812,0.034361143,0.011682789,0.04421134,-13.125001,-45.412502,-34.10625,0.12608975,0.12926589,0.6950358,1001.7326, , , , 
2025-09-27 18:07:54.989,0.16510476,3.586841,9.109476,-0.0065667965,0.025121814,0.0240528,-13.743751,-45.600002,-34.65,0.12651588,0.1293329,0.6952839,1001.7326, , , , 
2025-09-27 18:07:55.011,0.18664017,3.5318062,9.265009,-0.007177661,0.02328922,0.0063377223,-13.556251,-44.7,-35.025,0.12664966,0.12928596,0.69546175,1001.73065, , , , 
2025-09-27 18:07:55.030,0.083748795,3.5006995,9.253045,0.006872229,0.005574141,-0.0034361144,-15.58125,-47.30625,-32.662502,0.12678304,0.12912622,0.6955303,1001.73065, , , , 
2025-09-27 18:07:55.051,0.11006984,3.534199,9.269794,0.0050396346,-0.013362667,-0.004657844,-13.725,-46.331253,-35.53125,0.12705572,0.12893263,0.6955394,1001.7253, , , , 
2025-09-27 18:07:55.069,0.14596218,3.5294135,9.339187,0.006261364,-0.010308343,-0.013820816,-13.425,-44.8125,-35.193752,0.1272565,0.12877676,0.69550705,1001.7253, , , , 
2025-09-27 18:07:55.090,0.12921242,3.548556,9.334401,0.029474225,-0.007864884,-0.021762058,-14.231251,-45.787502,-33.65625,0.12764993,0.12863506,0.69536066,1001.72577, , , , 
2025-09-27 18:07:55.110,0.13878371,3.6275191,9.138189,0.028252495,-0.032299474,-0.027259842,-13.856251,-46.85625,-33.9375,0.12818468,0.12859954,0.69515324,1001.72577, , , , 
2025-09-27 18:07:55.131,0.19860429,3.6490545,9.135797,-4.581486E-4,-0.010919208,-0.04741838,-13.9125,-42.881252,-35.25,0.12874788,0.12854445,0.6948662,1001.7253, , , , 
2025-09-27 18:07:55.150,0.09810573,3.5988052,9.260223,-0.012064579,0.006185006,-0.06207913,-13.875001,-44.98125,-36.05625,0.12898207,0.12847872,0.6945089,1001.7253, , , , 
2025-09-27 18:07:55.170,-0.05742774,3.548556,9.267402,0.0050396346,-0.010308343,-0.05780308,-13.762501,-45.09375,-35.5875,0.12897459,0.12853116,0.6940917,1001.71967, , , , 
2025-09-27 18:07:55.190,-0.059820566,3.5964124,9.212367,0.014202606,-0.042073313,-0.054748755,-13.556251,-44.71875,-34.40625,0.12903924,0.12859468,0.6937624,1001.71967, , , , 
2025-09-27 18:07:55.210,-0.019142581,3.6586258,9.226724,0.00320704,-0.04329504,-0.05780308,-12.656251,-45.24375,-34.0125,0.12946504,0.12858883,0.69317526,1001.72406, , , , 
2025-09-27 18:07:55.229,-0.019142581,3.615555,9.303294,-0.008399391,-0.012751802,-0.06207913,-13.837501,-45.487503,-35.568752,0.12965548,0.12857217,0.69271946,1001.72406, , , , 
2025-09-27 18:07:55.250,-0.1052842,3.6107693,9.353543,-4.581486E-4,-0.014584397,-0.060857404,-12.243751,-46.2,-34.612503,0.12959075,0.12864704,0.69216156,1001.7231, , , , 
2025-09-27 18:07:55.270,-0.1052842,3.6059837,9.3200445,0.011759147,-0.029856017,-0.05291616,-12.76875,-44.60625,-36.65625,0.12961309,0.12875824,0.69171876,1001.7231, , , , 
2025-09-27 18:07:55.289,-0.18185452,3.5509489,9.343972,0.016646065,-0.025579963,-0.04253146,-14.2875,-45.412502,-34.29375,0.12968229,0.12885636,0.6913139,1001.72284, , , , 
2025-09-27 18:07:55.310,-0.17228323,3.5389848,9.327223,0.026419902,-0.012751802,-0.023594651,-14.94375,-45.84375,-34.96875,0.12964745,0.12905008,0.6910155,1001.72284, , , , 
2025-09-27 18:07:55.330,-0.13160525,3.562913,9.205189,0.03252855,-0.009697478,-0.017486004,-12.3,-45.693752,-34.48125,0.12969331,0.12931153,0.6908083,1001.7265, , , , 
2025-09-27 18:07:55.350,-0.08853444,3.603591,9.138189,0.003817905,-0.014584397,-0.021762058,-13.425,-44.0625,-35.081253,0.12986812,0.12958913,0.69055593,1001.7265, , , , 
2025-09-27 18:07:55.371,-0.148355,3.5294135,9.250652,-0.011453714,-0.002367101,-0.021151192,-11.887501,-45.16875,-34.55625,0.12976266,0.12967394,0.69037217,1001.727, , , , 
2025-09-27 18:07:55.391,-0.15553348,3.4576287,9.379865,0.006872229,7.63581E-5,-0.010766491,-11.75625,-44.53125,-34.612503,0.12947223,0.12973185,0.6902529,1001.727, , , , 
2025-09-27 18:07:55.410,-0.23928227,3.4791641,9.255438,0.027030766,6.8722287E-4,0.0075594517,-12.618751,-43.74375,-35.175003,0.1292618,0.12988737,0.6902118,1001.7299, , , , 
2025-09-27 18:07:55.430,-0.18185452,3.507878,9.109476,0.031917684,-0.0017562362,0.024663666,-14.6625,-45.075,-33.80625,0.12921113,0.13020189,0.6902695,1001.7299, , , , 
2025-09-27 18:07:55.450,-0.17228323,3.6083765,8.941978,0.011148282,-0.00481056,0.032604907,-12.88125,-44.49375,-37.10625,0.12929964,0.13053009,0.6903866,1001.72455, , , , 
2025-09-27 18:07:55.470,-0.078963146,3.6131623,8.977871,-0.021227552,-0.027412556,0.025885396,-13.668751,-44.5875,-35.643753,0.12945043,0.1306659,0.6905219,1001.72455, , , , 
2025-09-27 18:07:55.490,-0.078963146,3.5437703,9.339187,-0.047494736,-0.015195262,0.020998476,-13.593751,-44.9625,-35.475002,0.12946829,0.13023692,0.69068563,1001.72845, , , , 
2025-09-27 18:07:55.510,-0.10049855,3.522235,9.540184,-0.03527744,0.038560838,0.035048366,-13.89375,-44.98125,-35.737503,0.12907888,0.13002509,0.6908862,1001.72845, , , , 
2025-09-27 18:07:55.530,-0.10767702,3.562913,9.458828,-0.0029016077,0.039171703,0.04176788,-14.83125,-45.206253,-34.706253,0.12845987,0.13006167,0.69125235,1001.7321, , , , 
2025-09-27 18:07:55.550,-0.14356937,3.6251264,9.162118,0.011148282,0.006185006,0.04421134,-13.837501,-45.487503,-35.568752,0.12829356,0.13029808,0.69162285,1001.7321, , , , 
2025-09-27 18:07:55.570,-0.09571291,3.6179478,9.157332,-0.014508039,0.003130682,0.047876526,-12.431251,-44.9625,-34.66875,0.12831934,0.1305045,0.691893,1001.72577,37.88838962,127.73984965,140.2037353515625,0.0
2025-09-27 18:07:55.590,-0.031106694,3.5964124,9.341579,-0.015729768,0.022067491,0.044822205,-13.5375,-45.45,-35.60625,0.12820932,0.13054113,0.6922253,1001.72577, , , , 
2025-09-27 18:07:55.610,-0.06699903,3.5413775,9.305687,-0.0035124724,0.02573268,0.043600474,-13.5375,-43.95,-35.23125,0.1280396,0.13054648,0.6925731,1001.72675, , , , 
2025-09-27 18:07:55.630,0.011964113,3.5006995,9.32483,-0.007788526,0.016569708,0.04421134,-12.731251,-46.5,-34.85625,0.12789819,0.130521,0.6929123,1001.72675, , , , 
2025-09-27 18:07:55.650,0.02632105,3.4887354,9.403793,-0.0016798781,0.048334677,0.04176788,-15.975,-44.456253,-35.71875,0.12759662,0.13042054,0.69337493,1001.72675, , , , 
2025-09-27 18:07:55.670,-0.05742774,3.5150564,9.265009,0.012370012,0.048334677,0.051541716,-12.150001,-43.575,-35.081253,0.12725797,0.13059084,0.693778,1001.72675, , , , 
2025-09-27 18:07:55.690,0.038285162,3.5246277,9.157332,0.020922119,7.63581E-5,0.05093085,-13.012501,-45.018753,-35.68125,0.12731916,0.13071813,0.6941488,1001.727, , , , 
2025-09-27 18:07:55.711,0.086141616,3.5437703,9.135797,-0.0035124724,-0.02008218,0.046654798,-14.475,-45.787502,-36.5625,0.12772815,0.13054305,0.6944674,1001.727, , , , 
2025-09-27 18:07:55.730,0.1363909,3.5653057,9.394221,-0.014508039,0.014737112,0.041157015,-14.56875,-46.800003,-34.800003,0.12793222,0.13022244,0.694799,1001.7341, , , , 
2025-09-27 18:07:55.750,0.13160525,3.5940197,9.379865,0.010537418,0.031841327,0.035048366,-13.25625,-46.29375,-36.206253,0.12791207,0.13009281,0.69514,1001.7341, , , , 
2025-09-27 18:07:55.770,0.15074782,3.6394832,9.276974,0.022754714,0.0080176005,0.024663666,-12.937501,-43.78125,-34.068752,0.12811391,0.13013104,0.6953839,1001.7321, , , , 
2025-09-27 18:07:55.791,0.18903299,3.6586258,9.3104725,0.008704823,-0.024969097,-0.00160352,-13.181251,-45.9,-35.925003,0.12879992,0.12992501,0.69544774,1001.7321, , , , 
2025-09-27 18:07:55.810,0.19142582,3.6275191,9.413364,0.0056504994,0.0012980876,-0.011377357,-13.725,-44.100002,-35.04375,0.12917502,0.12970081,0.695429,1001.7309, , , , 
2025-09-27 18:07:55.829,0.2416751,3.5892339,9.250652,0.0050396346,0.045891218,-0.012599086,-13.668751,-45.3375,-34.96875,0.12932399,0.12967338,0.69539124,1001.7309, , , , 
2025-09-27 18:07:55.850,0.2632105,3.6634114,9.401401,-0.018784093,0.05933024,-0.03214676,-13.293751,-46.29375,-34.800003,0.12915142,0.12979169,0.69538796,1001.7316, , , , 
2025-09-27 18:07:55.870,0.1268196,3.6203406,9.456435,0.022754714,0.017791437,-0.04741838,-14.08125,-45.881252,-34.59375,0.12917018,0.1297794,0.6951952,1001.7316, , , , 
2025-09-27 18:07:55.890,0.05742774,3.6586258,9.183653,0.03924806,-0.0011453715,-0.04497492,-12.150001,-45.80625,-35.268753,0.12942414,0.13001728,0.6948712,1001.7336, , , , 
2025-09-27 18:07:55.910,0.10049855,3.7256248,9.15494,0.023976443,-0.012751802,-0.05902481,-13.087501,-44.662502,-35.53125,0.12985858,0.13031359,0.69447815,1001.7336, , , , 
2025-09-27 18:07:55.930,0.023928227,3.644269,9.276974,0.023976443,-0.002367101,-0.07002038,-14.156251,-46.893753,-33.9,0.13023566,0.13052343,0.6939902,1001.7375, , , , 
2025-09-27 18:07:55.950,-0.08853444,3.6227336,9.152547,0.030695954,0.0043524117,-0.06879865,-11.606251,-44.625,-36.46875,0.13036785,0.13096981,0.6933464,1001.7375, , , , 
2025-09-27 18:07:55.970,-0.059820566,3.586841,9.114262,0.012370012,-0.002367101,-0.06696605,-12.281251,-45.693752,-35.568752,0.13038626,0.1313224,0.69284624,1001.736, , , , 
2025-09-27 18:07:55.990,-0.15792629,3.548556,9.224331,-0.0035124724,-5.345067E-4,-0.06818778,-13.856251,-45.487503,-35.100002,0.13027023,0.1314853,0.69236064,1001.736, , , , 
2025-09-27 18:07:56.010,-0.2416751,3.4911282,9.255438,-0.004123337,-5.345067E-4,-0.050472703,-11.887501,-43.893753,-37.10625,0.12990549,0.13160482,0.69193983,1001.7336, , , , 
2025-09-27 18:07:56.030,-0.23688944,3.4767714,9.348758,0.021532983,-0.021303909,-0.022983788,-14.08125,-45.881252,-34.59375,0.12953681,0.13173771,0.6916496,1001.7336, , , , 
2025-09-27 18:07:56.050,-0.18664017,3.5509489,9.296116,0.0490219,-0.028634287,-0.0058795735,-13.6125,-45.7125,-34.03125,0.12954801,0.13184212,0.69147056,1001.7397, , , , 
2025-09-27 18:07:56.070,-0.11006984,3.5940197,9.047262,0.047189303,-0.035964664,-0.0028252497,-14.26875,-44.662502,-34.800003,0.12991309,0.13205422,0.6913308,1001.7397, , , , 
2025-09-27 18:07:56.090,-0.06699903,3.6251264,8.9826565,0.016035201,-0.052458014,-0.015653409,-13.425,-46.425003,-37.10625,0.13045108,0.13215202,0.6911491,1001.73944, , , , 
2025-09-27 18:07:56.109,-0.078963146,3.5892339,9.145369,-0.008399391,-0.0561232,-0.026648976,-13.556251,-45.45,-35.1375,0.13086987,0.13194318,0.690912,1001.73944, , , , 
2025-09-27 18:07:56.129,-0.1268196,3.546163,9.329616,0.003817905,-0.026801692,-0.018707734,-14.1,-46.85625,-36.84375,0.13099931,0.13159926,0.69064945,1001.737, , , , 
2025-09-27 18:07:56.151,-0.05503492,3.615555,9.2793665,0.01847866,-0.013362667,-0.005268709,-11.19375,-46.3125,-37.18125,0.13096657,0.13156925,0.6905532,1001.737, , , , 
2025-09-27 18:07:56.171,-0.06699903,3.644269,9.142975,0.021532983,-0.021914775,-0.009544762,-14.175,-44.268753,-35.60625,0.13116038,0.13160856,0.6904585,1001.7316, , , , 
2025-09-27 18:07:56.192,-0.08135597,3.6514473,9.090333,0.003817905,-0.010308343,-0.012599086,-13.725,-46.350002,-35.0625,0.13137981,0.13169537,0.6903293,1001.7316, , , , 
2025-09-27 18:07:56.210,-0.069391854,3.6370904,9.145369,-0.017562363,-0.009697478,-0.011988222,-13.425,-44.8125,-35.193752,0.13141133,0.13175136,0.6902249,1001.72577, , , , 
2025-09-27 18:07:56.230,-0.016749758,3.6370904,9.29133,-0.0151189035,-0.028023422,-0.013209951,-13.06875,-46.7625,-35.8875,0.13138303,0.13156115,0.69009817,1001.72577, , , , 
2025-09-27 18:07:56.250,0.009571291,3.6251264,9.4229355,7.6358096E-4,-0.013973532,-0.019929463,-12.993751,-44.79375,-33.525,0.13146684,0.1313011,0.6899687,1001.72845, , , , 
2025-09-27 18:07:56.270,-0.08135597,3.6227336,9.300901,0.011148282,0.011071924,-0.013820816,-13.5375,-45.45,-35.90625,0.13144526,0.1313088,0.6898535,1001.72845, , , , 
2025-09-27 18:07:56.290,-0.086141616,3.6634114,9.245867,0.009315688,0.020845762,-0.00160352,-13.5375,-45.45,-36.225002,0.13131136,0.13158163,0.68980354,1001.7304, , , , 
2025-09-27 18:07:56.310,0.0071784677,3.6849468,9.176475,0.015424335,-0.025579963,-0.010155627,-13.218751,-45.91875,-34.518753,0.13140263,0.13175413,0.6897464,1001.7304, , , , 
2025-09-27 18:07:56.331,-0.050249275,3.6634114,9.111869,0.0019853106,-0.04329504,-0.018707734,-12.618751,-45.862503,-34.893753,0.13180734,0.13168585,0.68956286,1001.7314, , , , 
2025-09-27 18:07:56.352,-0.047856454,3.6849468,9.152547,-0.016340632,-0.018249584,-0.020540329,-13.481251,-45.075,-34.85625,0.1320764,0.13148166,0.68933696,1001.7314, , , , 
2025-09-27 18:07:56.370,-0.08853444,3.6490545,9.257831,-0.015729768,-0.0066431547,-0.008933897,-13.368751,-46.050003,-35.737503,0.13198617,0.1314474,0.689226,1001.7253, , , , 
2025-09-27 18:07:56.390,0.0047856453,3.603591,9.367901,7.6358096E-4,-0.016416991,-0.012599086,-11.94375,-45.412502,-34.8375,0.13197915,0.13130902,0.6891547,1001.7253, , , , 
2025-09-27 18:07:56.410,-0.1268196,3.5964124,9.221938,0.022754714,-0.027412556,0.0032833982,-14.325001,-45.65625,-34.575,0.13203783,0.13126129,0.6890883,1001.7265, , , , 
2025-09-27 18:07:56.430,0.03589234,3.6490545,9.135797,0.027030766,-0.051236283,0.010613776,-14.925,-44.86875,-33.16875,0.13234848,0.13124612,0.6890478,1001.7265, , , , 
2025-09-27 18:07:56.450,-0.009571291,3.6586258,9.066405,0.0074830935,-0.05978839,-0.010766491,-12.58125,-44.86875,-33.73125,0.13308547,0.1309435,0.68890893,1001.72845, , , , 
2025-09-27 18:07:56.470,-0.15074782,3.6011982,9.159725,-0.017562363,0.0012980876,0.008781182,-13.9125,-45.0,-33.881252,0.13329946,0.13079125,0.6888186,1001.72845, , , , 
2025-09-27 18:07:56.490,0.05742774,3.6394832,9.298509,-0.032223117,0.012293654,0.021609342,-13.687501,-44.60625,-34.55625,0.13293883,0.13078281,0.688975,1001.7255, , , , 
2025-09-27 18:07:56.510,0.06460621,3.6370904,9.322437,-0.021838415,0.0025198173,0.0051159924,-13.5375,-46.706253,-33.825,0.13276501,0.13051556,0.68913954,1001.7255, , , , 
2025-09-27 18:07:56.530,-0.2105684,3.6059837,9.219545,-0.034666575,0.025121814,0.028939718,-14.26875,-45.393753,-35.381252,0.1323442,0.13044085,0.6892993,1001.7214, , , , 
2025-09-27 18:07:56.550,0.03589234,3.6227336,9.420543,-0.007788526,-0.0041996953,0.035048366,-13.293751,-46.3125,-34.03125,0.1319592,0.13043946,0.68958306,1001.7214, , , , 
2025-09-27 18:07:56.570,-0.0071784677,3.6586258,9.401401,0.031306818,-0.048792824,0.014278964,-14.250001,-46.0125,-35.49375,0.1322879,0.13023107,0.689693,1001.71844,37.88838962,127.73984965,140.2037353515625,0.0
2025-09-27 18:07:56.590,-0.07178468,3.656233,9.224331,0.03924806,-0.05978839,0.020998476,-13.63125,-45.956253,-35.86875,0.1329031,0.13012117,0.689672,1001.71844, , , , 
2025-09-27 18:07:56.610,0.031106694,3.644269,9.174082,0.03008509,-0.039629854,0.0240528,-13.668751,-45.3375,-35.4375,0.13344508,0.13008541,0.68971044,1001.7131, , , , 
2025-09-27 18:07:56.630,0.02632105,3.603591,9.140582,0.006872229,-0.027412556,0.020998476,-14.343751,-46.40625,-33.91875,0.13385822,0.13000593,0.6897826,1001.7131, , , , 
2025-09-27 18:07:56.650,0.09571291,3.5653057,9.394221,0.0044287695,-0.010919208,0.013668099,-13.6125,-44.9625,-33.91875,0.13404241,0.12977794,0.6898885,1001.71185, , , , 
2025-09-27 18:07:56.671,0.0526421,3.6466618,9.176475,0.0368046,0.0049632764,0.009392046,-13.5375,-44.7,-35.49375,0.13414796,0.12976108,0.690006,1001.71185, , , , 
2025-09-27 18:07:56.690,0.050249275,3.7136607,8.953942,0.022754714,-0.048792824,-0.013209951,-14.250001,-46.03125,-34.725002,0.13466255,0.12988743,0.6898996,1001.705, , , , 
2025-09-27 18:07:56.710,0.0,3.644269,9.0233345,-0.018784093,-0.050625417,-0.02481638,-13.387501,-46.050003,-34.96875,0.13516092,0.12970482,0.68965435,1001.705, , , , 
2025-09-27 18:07:56.730,0.033499517,3.562913,9.281759,-0.051159926,0.0019089525,-0.023594651,-14.681251,-45.09375,-33.1875,0.13507806,0.1294818,0.6895246,1001.71185, , , , 
2025-09-27 18:07:56.750,-0.16749759,3.4719856,9.635897,-0.018784093,0.04344776,-0.008933897,-13.387501,-46.050003,-34.96875,0.13421303,0.12927915,0.68950427,1001.71185, , , , 
2025-09-27 18:07:56.770,-0.04546363,3.6346977,9.499506,0.021532983,-0.021914775,0.022220206,-14.325001,-45.65625,-35.34375,0.13374174,0.12935124,0.6895853,1001.71844, , , , 
2025-09-27 18:07:56.790,0.11724831,3.629912,9.60479,0.057574004,-0.04329504,0.011835505,-13.70625,-45.581253,-36.506252,0.13398087,0.1292607,0.6896433,1001.71844, , , , 
2025-09-27 18:07:56.810,0.11724831,3.67059,9.267402,0.06429352,-0.007864884,-9.926553E-4,-12.150001,-45.80625,-35.71875,0.13482296,0.12928347,0.6895775,1001.7265, , , , 
2025-09-27 18:07:56.830,0.06699903,3.6801612,9.226724,0.034361143,0.040393434,-0.0077121677,-14.19375,-45.768753,-35.04375,0.13506268,0.12958139,0.68952906,1001.7265, , , , 
2025-09-27 18:07:56.850,0.047856454,3.6753755,9.401401,0.030695954,0.091706075,-0.0040469794,-12.88125,-44.15625,-33.112503,0.13474832,0.13040504,0.68954164,1001.7182, , , , 
2025-09-27 18:07:56.870,-0.11246266,3.5581272,9.281759,0.060017463,0.12286018,0.0032833982,-11.3625,-44.850002,-35.86875,0.13430904,0.13135514,0.68960845,1001.7182, , , , 
2025-09-27 18:07:56.890,0.009571291,3.6323047,9.379865,0.031917684,0.21815509,0.03138318,-13.81875,-46.612503,-33.3375,0.133279,0.13276573,0.6899103,1001.71625, , , , 
2025-09-27 18:07:56.910,-0.043070808,3.6179478,9.480363,0.055130545,0.17722714,0.028328855,-15.58125,-45.91875,-33.506252,0.13274077,0.13349165,0.69012403,1001.71625, , , , 
2025-09-27 18:07:56.929,0.011964113,3.6634114,9.040084,0.10155627,-0.008475749,0.0026725335,-13.462501,-46.443752,-34.631252,0.13289668,0.13483302,0.6902759,1001.7111, , , , 
2025-09-27 18:07:56.949,-0.0071784677,3.7328033,8.810373,0.06918044,-0.012751802,-0.0064904382,-12.900001,-45.881252,-35.175003,0.13369758,0.13534075,0.69012105,1001.7111, , , , 
2025-09-27 18:07:56.969,-0.03589234,3.7184465,8.796016,0.0129808765,0.0049632764,-0.011377357,-12.0375,-45.91875,-35.11875,0.1342058,0.13573524,0.6899698,1001.715, , , , 
2025-09-27 18:07:56.989,0.05742774,3.751946,8.992228,-0.0016798781,0.0019089525,-0.027259842,-13.200001,-47.4,-35.831253,0.13439609,0.13593628,0.6898366,1001.715, , , , 
2025-09-27 18:07:57.009,0.0047856453,3.7280176,8.970692,-0.0010690134,-0.024969097,-0.043753188,-13.81875,-46.8375,-35.49375,0.13470139,0.13592432,0.68951535,1001.71185, , , , 
2025-09-27 18:07:57.029,-0.15074782,3.6586258,8.941978,-0.020005822,-0.021303909,-0.037644543,-12.806251,-46.7625,-34.050003,0.13486284,0.1358337,0.68917894,1001.71185, , , , 
2025-09-27 18:07:57.049,-0.14356937,3.67059,9.080762,-0.04382955,0.014126248,-0.012599086,-11.981251,-46.40625,-35.25,0.13448161,0.1357913,0.68903995,1001.71063, , , , 
2025-09-27 18:07:57.069,-0.13878371,3.6634114,9.202796,-0.038331766,0.008628465,-0.005268709,-12.431251,-47.325,-36.693752,0.13394926,0.13567922,0.68904746,1001.71063, , , , 
2025-09-27 18:07:57.089,-0.2009971,3.6610186,9.226724,-0.029168794,-0.012140937,0.0045051277,-10.96875,-45.80625,-36.0,0.13357112,0.13551514,0.6890637,1001.7155, , , , 
2025-09-27 18:07:57.109,-0.11246266,3.65384,9.300901,-0.032223117,-0.0066431547,0.021609342,-12.0,-47.15625,-35.04375,0.13324225,0.13530815,0.689157,1001.7155, , , , 
2025-09-27 18:07:57.129,-0.06699903,3.6753755,9.3511505,-0.018784093,0.0043524117,0.021609342,-12.450001,-47.325,-36.225002,0.132895,0.13496168,0.6894004,1001.7236, , , , 
2025-09-27 18:07:57.150,-0.10767702,3.682554,9.284152,-0.013897174,0.010461059,0.02527453,-12.075001,-46.912502,-35.98125,0.13273817,0.13485655,0.6895469,1001.7236, , , , 
2025-09-27 18:07:57.169,0.02632105,3.7471602,9.360723,-0.017562363,0.00923933,0.02649626,-12.618751,-45.862503,-34.125,0.13250175,0.13479868,0.68982214,1001.7226, , , , 
2025-09-27 18:07:57.189,0.016749758,3.735196,9.379865,0.003817905,0.021456625,0.009392046,-14.19375,-45.768753,-35.5125,0.13247274,0.13471448,0.68999046,1001.7226, , , , 
2025-09-27 18:07:57.209,-0.083748795,3.7328033,9.221938,0.008093959,0.030008731,0.0075594517,-11.306251,-46.818752,-37.4625,0.13241304,0.1348755,0.69006944,1001.7299, , , , 
2025-09-27 18:07:57.229,-0.10049855,3.696911,9.212367,-0.004123337,0.033063058,0.01244637,-12.843751,-46.36875,-35.775,0.1322439,0.13513918,0.6901607,1001.7299, , , , 
2025-09-27 18:07:57.249,-0.09332009,3.6681972,9.300901,-0.004123337,0.015347977,0.017944153,-13.312501,-46.3125,-33.73125,0.132014,0.13534603,0.6902882,1001.7309, , , , 
2025-09-27 18:07:57.269,-0.0526421,3.6586258,9.303294,0.01725693,-0.009086614,0.022220206,-11.34375,-46.8375,-34.987503,0.13194714,0.13535514,0.6904252,1001.7309, , , , 
2025-09-27 18:07:57.289,0.0071784677,3.6921253,9.212367,0.030695954,-0.021303909,0.024663666,-12.731251,-45.75,-34.74375,0.1322099,0.1352979,0.690551,1001.7314, , , , 
2025-09-27 18:07:57.309,0.047856454,3.7256248,9.159725,0.023365578,0.0012980876,0.019776747,-13.087501,-46.03125,-34.36875,0.13272794,0.1353561,0.6906975,1001.7314, , , , 
2025-09-27 18:07:57.329,0.031106694,3.737589,9.159725,0.0056504994,0.0074067353,0.0063377223,-13.125001,-46.3875,-36.825,0.13299699,0.13544689,0.6907764,1001.7321, , , , 
2025-09-27 18:07:57.349,0.009571291,3.6753755,9.267402,7.6358096E-4,-0.0041996953,-0.0028252497,-13.14375,-46.40625,-35.4375,0.13313857,0.13542259,0.69078135,1001.7321, , , , 
2025-09-27 18:07:57.369,-0.069391854,3.6753755,9.305687,0.022754714,7.63581E-5,0.0075594517,-12.900001,-47.381252,-35.550003,0.13317958,0.13534446,0.69080263,1001.7326, , , , 
2025-09-27 18:07:57.389,-0.148355,3.7663028,9.119047,0.026419902,0.009850195,0.025885396,-13.650001,-45.956253,-34.78125,0.1332495,0.13554698,0.69087785,1001.7326, , , , 
2025-09-27 18:07:57.409,-0.05503492,3.8117664,9.068798,0.009926553,-0.00481056,0.028939718,-12.712501,-46.48125,-36.7125,0.13349332,0.1359323,0.691047,1001.7365, , , , 
2025-09-27 18:07:57.429,-0.05503492,3.7854455,9.085547,1.527162E-4,-0.01886045,0.020998476,-13.218751,-45.28125,-35.79375,0.13378635,0.13599728,0.69115,1001.7365, , , , 
2025-09-27 18:07:57.450,-0.08853444,3.751946,9.135797,-0.013897174,-0.018249584,0.024663666,-13.556251,-45.45,-34.818752,0.13397765,0.13593583,0.69125,1001.7387, , , , 
2025-09-27 18:07:57.470,-0.043070808,3.711268,9.253045,-0.007788526,-0.0066431547,0.036270097,-14.400001,-46.66875,-33.9,0.13398369,0.13581811,0.6914467,1001.7387, , , , 
2025-09-27 18:07:57.491,-0.043070808,3.6634114,9.212367,0.020311253,-0.017027855,0.049709123,-14.26875,-46.03125,-33.9375,0.13412848,0.13564335,0.6917836,1001.7485, , , , 
2025-09-27 18:07:57.510,0.0023928226,3.6729827,8.965906,0.031917684,-0.013362667,0.052763447,-15.337501,-47.643753,-33.131252,0.13438831,0.13560091,0.69200975,1001.7485, , , , 
2025-09-27 18:07:57.529,0.13399807,3.778267,8.810373,-0.020616686,-0.022525638,0.04421134,-12.843751,-44.8875,-35.081253,0.13481855,0.13556528,0.69230145,1001.74896, , , , 
2025-09-27 18:07:57.549,0.05503492,3.7328033,9.016156,-0.066431545,0.010461059,0.022220206,-13.293751,-45.5625,-33.91875,0.13501725,0.13518627,0.69255,1001.74896, , , , 
2025-09-27 18:07:57.569,-0.09332009,3.6753755,9.18126,-0.07987057,0.035506517,0.033826638,-14.043751,-44.8875,-34.03125,0.13426329,0.13477558,0.6929298,1001.7419,37.88838962,127.73984965,140.2037353515625,0.0
2025-09-27 18:07:57.591,0.047856454,3.7040894,9.372686,-0.06398808,0.005574141,0.03932442,-14.250001,-46.03125,-34.725002,0.13361435,0.13435389,0.69332314,1001.7419, , , , 
2025-09-27 18:07:57.609,0.0047856453,3.694518,9.3104725,-0.046273008,0.016569708,0.033826638,-14.175,-45.525,-33.99375,0.13325292,0.13390099,0.6936639,1001.7409, , , , 
2025-09-27 18:07:57.629,-0.10049855,3.723232,9.162118,-0.045051277,0.022678355,0.036270097,-12.900001,-45.65625,-32.71875,0.13284141,0.13377106,0.6939641,1001.7409, , , , 
2025-09-27 18:07:57.649,-0.1268196,3.6801612,9.140582,-0.043218683,0.00923933,0.053985175,-14.156251,-46.143753,-33.487503,0.13242346,0.13372278,0.69429255,1001.7465, , , , 
2025-09-27 18:07:57.671,0.17706887,3.6921253,9.032906,-0.026725333,0.00923933,0.0692568,-15.58125,-45.91875,-33.1875,0.13218334,0.13348733,0.69487923,1001.7465, , , , 
2025-09-27 18:07:57.691,0.33738798,3.6323047,8.578269,-0.032223117,0.039171703,0.058261227,-12.7875,-45.99375,-35.025,0.13237849,0.1332905,0.6953969,1001.7475, , , , 
2025-09-27 18:07:57.711,0.46899325,3.4839497,8.32463,-0.06704241,-0.0054214248,0.049709123,-13.875001,-45.487503,-34.0125,0.1324973,0.13299899,0.69578075,1001.7475, , , , 
2025-09-27 18:07:57.729,0.6843473,3.2949169,7.786245,-0.031001387,-0.21800236,0.05459604,-14.306251,-45.412502,-33.506252,0.13384247,0.13117242,0.6962409,1001.73676, , , , 
2025-09-27 18:07:57.750,0.88295156,3.0077782,6.6281185,0.0050396346,-0.58757555,0.060704686,-12.88125,-45.6375,-33.80625,0.13780077,0.12774815,0.69617534,1001.73676, , , , 
2025-09-27 18:07:57.771,0.37806597,2.5674987,5.5298133,0.03252855,-1.0017419,0.13461933,-14.025001,-43.5,-35.662502,0.14462848,0.12196309,0.69569504,1001.717, , , , 
2025-09-27 18:07:57.791,0.062213387,1.9573289,3.9026937,0.19013166,-1.7488295,0.37896523,-16.237501,-47.100002,-34.143753,0.15472129,0.11336317,0.6952797,1001.717, , , , 
2025-09-27 18:07:57.811,0.02632105,1.4787644,1.4715859,0.21578798,-2.7506478,0.69783664,-16.25625,-44.25,-33.525,0.17608704,0.09560956,0.694985,1001.6845, , , , 
2025-09-27 18:07:57.831,0.28713873,0.8422736,-0.21535404,0.033139415,-3.7152033,0.99960387,-20.23125,-45.65625,-32.100002,0.1998576,0.07313951,0.6946272,1001.6845, , , , 
2025-09-27 18:07:57.849,1.0097711,0.0071784677,-1.1102697,-0.26190826,-4.6473827,1.2958733,-21.431252,-44.925003,-30.31875,0.22838135,0.041804165,0.6936101,1001.63007, , , , 
2025-09-27 18:07:57.871,1.2921243,-1.1509477,-1.0193424,-0.570395,-5.5917797,1.667279,-22.143751,-44.025,-29.38125,0.2604744,0.0016300945,0.69118583,1001.63007, , , , 
2025-09-27 18:07:57.890,2.845066,-2.359323,0.019142581,-0.7170025,-6.145223,2.078391,-27.54375,-43.725002,-26.343752,0.29520288,-0.046201307,0.6873008,1001.5876, , , , 
2025-09-27 18:07:57.911,3.3044882,-3.8141594,0.6125626,-0.7640391,-6.4066734,2.4723988,-32.025,-43.2,-24.206251,0.33035764,-0.09836855,0.6821587,1001.5876, , , , 
2025-09-27 18:07:57.929,4.4051867,-4.4985065,0.3589234,-0.82084954,-6.5563354,3.01729,-34.162502,-40.575,-21.975,0.36452675,-0.15365268,0.6764189,1001.56635, , , , 
2025-09-27 18:07:57.951,7.908279,-6.407979,2.009971,-0.9283618,-6.74326,3.6996262,-38.662502,-38.5875,-17.60625,0.40409076,-0.22767846,0.66839993,1001.56635, , , , 
2025-09-27 18:07:57.970,10.51167,-6.640083,4.074977,-0.56550807,-6.9167457,3.9409177,-41.287502,-35.30625,-12.4125,0.43341613,-0.28705445,0.66037196,1001.55634, , , , 
2025-09-27 18:07:57.990,11.456835,-6.6687965,3.7998023,0.10155627,-6.6143675,3.9836783,-41.737503,-31.275002,-7.3500004,0.46284208,-0.3411633,0.6507513,1001.55634, , , , 
2025-09-27 18:07:58.010,11.844472,-6.879365,1.2801601,0.38133234,-5.378588,3.9280896,-43.59375,-29.268751,-2.79375,0.486811,-0.38576806,0.64307415,1001.5527, , , , 
2025-09-27 18:07:58.030,10.913664,-7.9680996,-1.0193424,-0.018173227,-3.7775114,4.250626,-44.456253,-25.9125,1.5937501,0.49999315,-0.42373812,0.63889277,1001.5527, , , , 
2025-09-27 18:07:58.050,11.849257,-8.913264,-0.95712906,-0.64064443,-2.3590834,4.6568513,-44.34375,-22.3125,3.3750002,0.4987977,-0.4598154,0.63908815,1001.5522, , , , 
2025-09-27 18:07:58.070,12.9236355,-9.284152,-0.14356937,-1.1091777,-1.3163372,4.843165,-43.575,-18.2625,6.0,0.48510206,-0.49504262,0.64217556,1001.5522, , , , 
2025-09-27 18:07:58.090,13.820944,-9.633504,0.97866446,-1.4036145,-0.5454259,4.738707,-45.881252,-13.781251,6.1312504,0.4629325,-0.52834576,0.6463806,1001.5583, , , , 
2025-09-27 18:07:58.110,14.203795,-10.092926,1.9716859,-1.491579,-0.15630503,4.581715,-46.443752,-7.9687505,4.6312504,0.42897916,-0.56606454,0.65137124,1001.5583, , , , 
2025-09-27 18:07:58.130,13.909478,-10.269995,2.507678,-1.3956733,0.08926262,4.3172107,-48.9,-0.84375006,0.31875002,0.40026227,-0.59257287,0.6547114,1001.5817, , , , 
2025-09-27 18:07:58.150,13.304094,-10.628919,2.0147567,-1.3089305,0.23892449,4.071032,-53.006252,0.35625002,-1.8000001,0.37148055,-0.6157464,0.6575217,1001.5817, , , , 
2025-09-27 18:07:58.170,12.598211,-11.117054,2.07697,-1.279609,0.2841285,3.931144,-55.65,-0.24375,9.168751,0.34283793,-0.6367033,0.659308,1001.6159, , , , 
2025-09-27 18:07:58.191,12.437892,-11.708081,2.1080768,-1.15316,0.20471606,3.8645597,-52.500004,4.7625003,13.500001,0.31459624,-0.6558111,0.6603165,1001.6159, , , , 
2025-09-27 18:07:58.210,13.062419,-11.3778715,2.065006,-1.0077741,0.053221595,3.7521605,-50.381252,7.9687505,12.468751,0.28737247,-0.67296255,0.66076314,1001.6491, , , , 
2025-09-27 18:07:58.230,13.7324095,-10.325029,2.103291,-0.87094045,-0.052458014,3.4076328,-47.756252,10.63125,10.35,0.26266548,-0.6877897,0.66046363,1001.6491, , , , 
2025-09-27 18:07:58.250,13.316058,-9.542577,1.9740787,-0.7506001,0.05688678,2.9024477,-47.175003,13.5375,10.743751,0.24119726,-0.69984204,0.6596191,1001.67255, , , , 
2025-09-27 18:07:58.270,11.0811615,-9.387043,1.0887343,-0.76037395,0.4484511,2.4644575,-45.7125,14.94375,9.731251,0.2167287,-0.711642,0.6583307,1001.67255, , , , 
2025-09-27 18:07:58.290,9.91825,-9.21476,1.1174482,-0.850171,0.7551052,2.3483932,-43.6875,18.28125,8.25,0.19606842,-0.72025806,0.65678346,1001.6938, , , , 
2025-09-27 18:07:58.310,10.229317,-8.281559,1.861616,-0.7469349,0.80336356,2.173686,-44.60625,17.4375,8.868751,0.17512982,-0.727953,0.6551883,1001.6938, , , , 
2025-09-27 18:07:58.330,10.083355,-7.578069,1.5146568,-0.5722276,0.77220947,1.8041128,-42.393753,21.018751,7.9687505,0.15660106,-0.7336685,0.65418714,1001.716, , , , 
2025-09-27 18:07:58.350,9.329616,-7.3172517,0.5479564,-0.51358455,0.7612139,1.4174354,-42.600002,22.237501,8.681251,0.14101961,-0.7379667,0.65328664,1001.716, , , , 
2025-09-27 18:07:58.370,8.812766,-7.4919276,0.51206404,-0.56611896,0.79603314,1.1993567,-41.456253,23.493752,7.1062503,0.12723932,-0.74187803,0.65178674,1001.7214, , , , 
2025-09-27 18:07:58.390,9.265009,-7.422536,1.134198,-0.48426306,0.60727596,1.016708,-42.16875,23.550001,7.0125003,0.11220662,-0.7462749,0.64950943,1001.7214, , , , 
2025-09-27 18:07:58.410,10.080962,-7.219146,1.5026926,-0.34620762,0.33727372,0.7858012,-40.0125,24.13125,7.8375,0.10556062,-0.7482021,0.6484503,1001.7358, , , , 
2025-09-27 18:07:58.430,10.482956,-6.798009,1.7036897,-0.13790272,-0.055512335,0.41195193,-39.412502,24.825,6.0375004,0.10041036,-0.749841,0.6475342,1001.7358, , , , 
2025-09-27 18:07:58.450,10.861022,-6.6855464,2.3114667,0.12538,-0.37804893,0.16699515,-40.29375,25.593752,7.6312504,0.10106109,-0.74972886,0.6477898,1001.74725, , , , 
2025-09-27 18:07:58.470,12.08854,-5.979664,2.5268207,0.52793986,-0.69997466,-0.06024654,-39.6375,24.431252,6.39375,0.105350345,-0.7475917,0.64994127,1001.74725, , , , 
