Time,Accel_X,Accel_Y,Accel_Z,Gyro_X,Gyro_Y,Gyro_Z,Mag_X,Mag_Y,Mag_Z,Orient_X,Orient_Y,Orient_Z,Pressure,Lat,Lng,Alt,Speed
2025-11-24 20:24:46.493,-2.8657043,2.2648067,8.333902,-0.33688226,0.8514447,0.30382016,5.08125,21.581251,-45.881252,0.07334844,0.1960259,0.020402707,1002.23755,37.88744612,127.74019263,148.9222412109375,0.0
2025-11-24 20:24:46.507,-4.206283,1.0749756,8.3219385,-0.7461499,0.16546325,0.90435934,6.9,22.518751,-45.45,0.065689735,0.20477122,0.034412593,1002.2324, , , , 
2025-11-24 20:24:46.527,-4.2951164,0.87158567,8.877372,-0.9709417,-0.08567133,1.2562073,7.51875,22.893751,-45.45,0.059644856,0.2041615,0.045642715,1002.22217, , , , 
2025-11-24 20:24:46.547,-3.342175,0.78753775,9.875777,-1.1285403,-0.18768282,1.3918154,8.137501,23.23125,-44.850002,0.05229638,0.20145202,0.059976432,1002.22217, , , , 
2025-11-24 20:24:46.567,-2.9590242,0.7851449,11.180464,-1.1554176,-0.20234315,1.2446012,8.606251,23.41875,-44.362503,0.043988977,0.19782147,0.07493429,1002.22217, , , , 
2025-11-24 20:24:46.587,-3.2991042,0.52911294,11.783754,-1.2232217,-0.21761434,0.97888273,9.356251,24.187502,-43.74375,0.03497248,0.19394004,0.08822957,1002.22217, , , , 
2025-11-24 20:24:46.607,-3.7348971,-0.08853444,11.558829,-1.5481924,-0.5077668,0.9397885,9.7875,24.806252,-43.425003,0.02409137,0.18902859,0.09937678,1002.23, , , , 
2025-11-24 20:24:46.627,-3.6774693,-0.811466,10.560424,-2.0002956,-0.79975176,1.277587,10.51875,25.875002,-43.03125,0.005952814,0.17829008,0.11483814,1002.23, , , , 
2025-11-24 20:24:46.647,-3.5814574,-1.0007981,10.36152,-2.0656564,-0.9701782,1.7381659,10.89375,26.775002,-42.75,-0.010274239,0.16730522,0.13160479,1002.23096, , , , 
2025-11-24 20:24:46.667,-3.3876386,-0.7755736,10.380663,-1.8066571,-0.9512419,2.201188,11.118751,27.656252,-42.206253,-0.0243326,0.15566961,0.15277694,1002.23096, , , , 
2025-11-24 20:24:46.687,-3.519244,-0.21535404,10.435997,-1.437629,-0.3477248,2.593963,11.587501,28.7625,-41.25,-0.035079937,0.14734823,0.17745817,1002.2185, , , , 
2025-11-24 20:24:46.707,-3.6317065,-0.040677983,10.967503,-1.0680665,0.08788565,2.6587126,12.056251,29.56875,-40.66875,-0.043160714,0.14495268,0.2041249,1002.2185, , , , 
2025-11-24 20:24:46.727,-3.222534,-0.3376871,11.123036,-0.609931,0.06100837,2.298313,12.637501,30.187502,-39.975002,-0.048018374,0.14526787,0.22990268,1002.2175, , , , 
2025-11-24 20:24:46.747,-3.531208,-0.29461628,10.7590275,-0.13408098,0.051158458,1.601947,13.63125,30.375002,-39.018753,-0.049224403,0.14528456,0.2507801,1002.2175, , , , 
2025-11-24 20:24:46.767,-4.4578285,0.25603202,9.983455,0.26907822,0.46172416,0.9239065,14.7375,30.431252,-38.7,-0.047795944,0.14805284,0.26438195,1002.2156, , , , 
2025-11-24 20:24:46.787,-5.7744794,0.13878371,9.301201,0.5433486,0.64864343,0.53533125,15.806251,30.018751,-38.4,-0.043789454,0.15682963,0.27256647,1002.2156, , , , 
2025-11-24 20:24:46.807,-5.72423,0.689432,8.546864,0.6734591,0.99316126,0.27449948,16.875,30.093752,-38.23125,-0.04009691,0.16717456,0.27548677,1002.2197, , , , 
2025-11-24 20:24:46.827,-5.211867,0.5841478,7.6109705,0.793796,1.2356677,0.008170082,17.75625,29.625002,-38.643753,-0.036288958,0.18055363,0.27564374,1002.2197, , , , 
2025-11-24 20:24:46.847,-5.262116,0.3999005,6.6939216,0.6514686,1.090286,-0.20501561,18.6375,29.19375,-38.23125,-0.032928392,0.1940182,0.27346578,1002.22095, , , , 
2025-11-24 20:24:46.867,-5.5663037,0.2970091,5.53759,0.2055501,0.9723925,-0.55564195,19.48125,28.95,-37.78125,-0.032376,0.2054163,0.26932737,1002.22095, , , , 
2025-11-24 20:24:46.887,-5.721837,0.38315073,4.7955155,-0.353986,0.6791858,-0.7285117,20.5125,28.462502,-37.4625,-0.036631223,0.21424085,0.2630255,1002.2107, , , , 
2025-11-24 20:24:46.907,-5.872585,0.09810573,4.1464624,-0.8884773,-1.1351069,-0.4243098,20.90625,28.66875,-36.881252,-0.043686308,0.2147271,0.2573556,1002.2107, , , , 
2025-11-24 20:24:46.927,-5.9374905,0.29940194,5.3700924,-0.71682924,-3.2493258,0.14744325,21.13125,28.968752,-36.768753,-0.047764394,0.18936537,0.25734144,1002.20776, , , , 
2025-11-24 20:24:46.947,-5.654838,1.6854445,10.366306,0.6386408,-4.195528,0.16149275,20.60625,29.118752,-36.862503,-0.037989393,0.15651612,0.26170945,1002.20776, , , , 
2025-11-24 20:24:46.967,-4.881657,0.71336025,9.619446,1.4108281,-5.4508953,-0.21173494,19.331251,29.456251,-37.3875,-0.014954065,0.11346709,0.26240897,1002.2012, , , , 
2025-11-24 20:24:46.987,-4.7688956,-1.0677971,7.687541,0.9490276,-6.07396,-0.08162446,17.1375,29.5125,-38.5875,0.011688946,0.06312925,0.25908768,1002.2012, , , , 
2025-11-24 20:24:47.007,-3.9119658,-2.4011974,5.788836,-0.33566058,-1.3208045,0.7907418,14.00625,28.9125,-40.21875,0.023565853,0.027602492,0.25761423,1002.2031, , , , 
2025-11-24 20:24:47.027,-0.6415756,-3.2679975,7.426424,-1.541473,1.4836717,1.4113626,10.78125,28.575,-41.5125,0.01420253,0.027792308,0.26644945,1002.2031, , , , 
2025-11-24 20:24:47.047,-0.2009971,-2.734099,10.581959,-2.2782311,1.3511177,0.9904888,8.26875,28.050001,-42.131252,-0.015163044,0.03907881,0.28175473,1002.20166, , , , 
2025-11-24 20:24:47.067,-2.2767708,-1.8218354,11.838789,-2.098642,-0.039246935,1.2922474,7.3125005,28.087502,-42.0,-0.037206292,0.03763604,0.29190862,1002.20166, , , , 
2025-11-24 20:24:47.088,-1.6926229,-1.9728823,10.584352,-1.835367,-0.074676074,1.4669497,7.8375,28.85625,-41.11875,-0.05465219,0.031130921,0.30539322,1002.20483, , , , 
2025-11-24 20:24:47.108,-0.52193445,-1.2089736,10.395319,-1.0356915,0.08238802,1.3191247,9.1875,30.300001,-40.36875,-0.06843495,0.027963197,0.31918648,1002.20703, , , , 
2025-11-24 20:24:47.127,-0.15314065,-0.96729857,10.8714905,-0.04734066,0.021226943,0.8890882,10.106251,31.781252,-39.24375,-0.073183164,0.02716082,0.330678,1002.20703, , , , 
2025-11-24 20:24:47.148,-0.55782676,-0.66071814,10.356734,0.92031777,0.36582115,0.6563554,11.231251,32.79375,-38.49375,-0.06884416,0.030378878,0.33776283,1002.20703, , , , 
2025-11-24 20:24:47.167,-0.48364928,-0.29940194,9.363414,1.1457204,0.76531523,0.7094991,12.13125,33.375,-38.268753,-0.060530044,0.039233077,0.3432945,1002.21045, , , , 
2025-11-24 20:24:47.187,-0.2656033,-0.12921242,9.178867,0.7437065,0.82090235,0.572593,12.8625,32.943752,-38.04375,-0.05227715,0.05303081,0.3498781,1002.21045, , , , 
2025-11-24 20:24:47.207,-0.11006984,-0.6128617,9.466306,0.03939965,0.4440096,0.5927509,14.025001,32.1375,-38.41875,-0.050786685,0.059990928,0.3538632,1002.208, , , , 
2025-11-24 20:24:47.227,-0.14356937,-0.62721866,10.124631,-0.4199575,0.578396,0.3832303,15.0375,31.500002,-38.68125,-0.053892076,0.062588826,0.35888878,1002.208, , , , 
2025-11-24 20:24:47.247,-0.4429713,-0.4621139,11.3575325,-0.5085303,0.7476007,-0.19157697,15.750001,30.993752,-38.737503,-0.061035223,0.067110404,0.36064154,1002.21387, , , , 
2025-11-24 20:24:47.266,-0.9720842,-0.6798607,11.362318,0.021685077,0.4647784,-0.21051323,16.44375,30.806252,-38.53125,-0.06585793,0.07096894,0.35871968,1002.21387, , , , 
2025-11-24 20:24:47.287,-1.3022938,-0.38793638,10.088738,0.38819343,0.07383616,-0.08162446,17.175001,30.900002,-38.381252,-0.06487514,0.0740644,0.35688725,1002.22314, , , , 
2025-11-24 20:24:47.307,-1.2113664,0.30897322,9.064013,0.45294324,-0.7466081,-0.095063105,17.400002,31.125002,-38.081253,-0.060211655,0.07351603,0.35594165,1002.22314, , , , 
2025-11-24 20:24:47.328,-1.3405789,0.7588239,8.944371,0.5390727,-1.6634898,-0.15675868,17.5125,31.181252,-37.912502,-0.049572963,0.062657796,0.35499418,1002.21045, , , , 
2025-11-24 20:24:47.346,-1.3956138,0.77318084,9.619446,0.76447535,-2.5290604,-0.14576343,17.15625,31.087502,-38.41875,-0.03605672,0.04561433,0.35410604,1002.21045, , , , 
2025-11-24 20:24:47.366,-1.1180464,0.4429713,11.156535,1.0968527,-2.4136102,-0.06452074,16.462502,30.768751,-38.9625,-0.018487303,0.026026977,0.35348377,1002.2173, , , , 
2025-11-24 20:24:47.387,-0.67028946,0.55304116,11.063215,1.1481638,-2.434379,-0.0046577104,15.76875,30.50625,-39.487503,-0.009180709,0.016882591,0.35326496,1002.2173, , , , 
2025-11-24 20:24:47.407,0.27756742,0.72053874,11.441281,1.1506071,-1.4839007,0.19020256,13.462501,29.41875,-41.04375,0.01677605,-0.003438898,0.35390082,1002.22095, , , , 
2025-11-24 20:24:47.427,1.0223335,1.1300105,11.733505,1.1646566,-1.0013313,0.17615308,11.681251,28.44375,-42.131252,0.031541035,-0.010751247,0.35541746,1002.22095, , , , 
2025-11-24 20:24:47.447,1.4557334,1.5107684,12.138191,1.3137034,-0.86999923,0.042377528,10.087501,27.712502,-43.162502,0.04585797,-0.015134556,0.35654324,1002.22046, , , , 
2025-11-24 20:24:47.467,1.3549358,1.7668004,11.513365,1.4694694,-0.6177193,0.009391776,8.925,26.60625,-44.25,0.0651608,-0.017745089,0.35655093,1002.22046, , , , 
2025-11-24 20:24:47.486,1.0175478,1.9534405,10.198809,1.3906702,-0.30007872,0.07536328,8.118751,25.44375,-45.206253,0.079784006,-0.01678734,0.35665178,1002.22314,37.88743755,127.74020446,148.22564697265625,0.28
2025-11-24 20:24:47.506,0.83060855,2.12363,9.018549,1.1273949,-0.16874656,0.14072394,7.6125,24.150002,-45.9,0.091811836,-0.014370876,0.3575898,1002.22314, , , , 
2025-11-24 20:24:47.526,1.0534402,2.1978076,8.968299,0.9398649,-0.40025768,0.07353074,7.3500004,22.650002,-46.331253,0.10183419,-0.013177773,0.35876337,1002.2239, , , , 
2025-11-24 20:24:47.546,1.3334004,2.2241287,9.569197,0.98506755,-0.6494833,-0.029702447,7.33125,21.46875,-46.575,0.11229517,-0.014537362,0.35891545,1002.2239, , , , 
2025-11-24 20:24:47.567,1.3884354,2.1858435,9.595518,1.0058364,-0.69835114,-0.05596888,7.275,20.118752,-47.11875,0.12372401,-0.017169988,0.35796458,1002.2273, , , , 
2025-11-24 20:24:47.586,1.6184454,2.1906292,9.157332,0.85915667,-0.5474719,-0.04191939,7.3125005,19.181252,-47.4,0.13448219,-0.01963768,0.35685322,1002.2273, , , , 
2025-11-24 20:24:47.607,1.8314066,2.3198416,8.690433,0.56961507,-0.2585411,-0.056579728,6.7875004,18.393751,-47.86875,0.14422855,-0.02111566,0.3557833,1002.2217, , , , 
2025-11-24 20:24:47.627,1.6974086,2.353341,8.589934,0.41323817,-0.03130592,-0.035200074,6.3562503,17.8125,-48.037502,0.14891978,-0.020752229,0.35516164,1002.2217, , , , 
2025-11-24 20:24:47.646,1.5227325,2.3724837,8.510971,0.41568157,0.13614258,0.0014507623,5.64375,16.893751,-48.15,0.15229909,-0.01889002,0.35505426,1002.218, , , , 
2025-11-24 20:24:47.667,1.4724833,2.516053,8.190332,0.5012002,0.16912833,-0.0052685575,5.2312503,16.29375,-48.562504,0.1558736,-0.01586312,0.3553626,1002.218, , , , 
2025-11-24 20:24:47.686,1.338186,2.8130622,7.5604224,0.53052086,0.10315683,-0.057190575,5.1937504,15.76875,-48.9,0.1601505,-0.012851001,0.35550806,1002.22, , , , 
2025-11-24 20:24:47.706,1.1132607,3.0020952,7.0002027,0.449889,0.052991,-0.09384141,5.4,15.225,-49.125004,0.16453682,-0.010249921,0.35515288,1002.22, , , , 
2025-11-24 20:24:47.726,1.1467602,3.251248,6.725028,0.2623589,0.0151184695,-0.14698513,5.625,15.093751,-49.218754,0.167943,-0.008375783,0.3544143,1002.2229, , , , 
2025-11-24 20:24:47.747,1.2496517,3.411567,7.048358,0.067498624,-0.100331664,-0.30152947,5.8500004,14.925,-48.99375,0.17033876,-0.0074750762,0.35234672,1002.2229, , , , 
2025-11-24 20:24:47.766,1.0917253,3.2105699,7.6540413,-0.19088978,-0.18279605,-0.41575792,5.9625,14.45625,-49.050003,0.17062469,-0.008355653,0.34914425,1002.21436, , , , 
2025-11-24 20:24:47.787,0.92183495,3.0379875,8.405686,-0.35276428,-0.15408622,-0.4517979,5.6062503,14.212501,-48.975002,0.16891764,-0.00998721,0.3450725,1002.21436, , , , 
2025-11-24 20:24:47.806,0.79471624,2.8322048,9.4280205,-0.45905173,-0.047798797,-0.47317755,5.3812504,14.3625,-49.0875,0.16563879,-0.011444947,0.34072953,1002.2114, , , , 
2025-11-24 20:24:47.826,0.5985048,2.6742785,10.021739,-0.49936762,0.15996562,-0.43408334,4.8187504,14.38125,-49.4625,0.16121854,-0.011849936,0.3364248,1002.2114, , , , 
2025-11-24 20:24:47.847,0.3281158,2.585744,10.342378,-0.53418595,0.3523825,-0.33329353,4.4625,14.887501,-49.162502,0.15563121,-0.010559459,0.33289224,1002.21216, , , , 
2025-11-24 20:24:47.867,0.19381863,2.600101,10.761421,-0.42606595,0.43301436,-0.21723256,4.36875,15.618751,-49.425003,0.14960474,-0.008026912,0.33055118,1002.21216, , , , 
2025-11-24 20:24:47.886,0.19860429,2.6312077,10.977074,-0.3130592,0.38658994,-0.17997088,4.3125,15.637501,-49.237503,0.14587753,-0.0057703713,0.32944632,1002.2158, , , , 
2025-11-24 20:24:47.907,0.2727818,2.6862426,11.089537,0.13285927,0.20089239,-0.06940752,4.9125004,16.25625,-48.768753,0.1433173,-0.001960181,0.32812583,1002.2158, , , , 
2025-11-24 20:24:47.926,0.37357944,2.7675984,10.601102,0.34482327,0.2192178,8.39915E-4,5.1375003,16.518751,-48.73125,0.14491168,8.818124E-4,0.32792458,1002.21924, , , , 
2025-11-24 20:24:47.946,0.42382872,2.9255247,9.849456,0.40529716,0.31939676,0.06253549,5.3625,16.25625,-48.487503,0.14748956,0.0046034446,0.32841426,1002.21924, , , , 
2025-11-24 20:24:47.967,0.4860421,3.071487,9.078369,0.31611344,0.454394,0.08269345,5.34375,16.35,-48.7125,0.1495838,0.009239853,0.3295169,1002.2124, , , , 
2025-11-24 20:24:47.987,0.53389853,3.167499,8.740981,0.19333316,0.5191438,0.056427017,5.7562504,16.2,-48.881252,0.15045035,0.014454717,0.3308669,1002.2124, , , , 
2025-11-24 20:24:48.007,0.4429713,3.1076784,8.82473,0.11514471,0.46783265,0.010613471,6.1312504,16.0125,-48.956253,0.15017946,0.020738766,0.33222213,1002.2102, , , , 
2025-11-24 20:24:48.027,0.30179477,2.9685955,9.123833,0.15912572,0.3328354,0.018554486,6.525,15.76875,-48.787502,0.15016061,0.024747709,0.3329453,1002.2102, , , , 
2025-11-24 20:24:48.047,0.285045,2.9111679,9.135797,0.22815146,0.22776967,0.03321482,6.8250003,15.7875,-48.881252,0.15112482,0.027869783,0.3335766,1002.2051, , , , 
2025-11-24 20:24:48.067,0.28265217,2.96381,8.999406,0.23487078,0.16668494,0.015500249,6.8625,15.656251,-48.881252,0.15264353,0.030326031,0.33408555,1002.2051, , , , 
2025-11-24 20:24:48.087,0.26081768,2.9949167,8.784052,0.18783553,0.106211066,0.0026724567,7.3125005,15.356251,-49.10625,0.15416326,0.032377165,0.33438024,1002.2051, , , , 
2025-11-24 20:24:48.106,0.29461628,3.0690942,8.750552,0.120642334,0.06772769,-0.04741702,7.8187504,15.39375,-49.256252,0.15534028,0.033712447,0.33441928,1002.2051, , , , 
2025-11-24 20:24:48.126,0.285045,3.0762727,8.707481,-0.017409148,0.065284304,-0.09994988,8.19375,15.3,-49.312504,0.15574324,0.03466376,0.33399,1002.2114, , , , 
2025-11-24 20:24:48.147,0.14117654,2.975774,9.056833,-0.11942064,0.17157172,-0.12499462,8.606251,15.150001,-49.312504,0.15477027,0.03555979,0.3331472,1002.2114, , , , 
2025-11-24 20:24:48.167,-0.059820566,2.7364917,9.38495,-0.12369657,0.24181916,-0.061466504,8.64375,15.50625,-49.031254,0.15235537,0.037793577,0.3323216,1002.22363, , , , 
2025-11-24 20:24:48.187,-0.10289137,2.6982067,9.727123,0.00335966,0.14469445,-0.0046577104,8.606251,15.543751,-49.2,0.15104237,0.03939283,0.33229503,1002.22363, , , , 
2025-11-24 20:24:48.207,0.019142581,2.6982067,9.753445,0.1719535,0.027946262,0.034436513,8.94375,15.562501,-49.050003,0.15157571,0.040466294,0.33254337,1002.2234, , , , 
2025-11-24 20:24:48.226,0.0741775,2.868097,9.511769,0.28862533,-0.09483404,0.03993414,9.0,15.4875,-48.750004,0.15373147,0.040825937,0.33278632,1002.2234, , , , 
2025-11-24 20:24:48.247,0.0023928226,2.951846,9.174082,0.3307738,-0.17241164,0.08758023,8.925,15.281251,-48.956253,0.15692188,0.040645804,0.33295694,1002.2129, , , , 
2025-11-24 20:24:48.267,0.14117654,3.1914272,8.855837,0.25380704,-0.21639264,0.1144575,9.150001,15.281251,-48.54375,0.1602711,0.03968358,0.33340693,1002.2129, , , , 
2025-11-24 20:24:48.287,0.36161533,3.382853,8.724232,0.13102673,-0.17118995,0.11018158,8.981251,14.906251,-48.693752,0.16353798,0.038440928,0.33413646,1002.2146, , , , 
2025-11-24 20:24:48.307,0.55782676,3.557529,8.752945,-0.025961008,-0.12048962,0.081471756,8.625,14.606251,-48.99375,0.16464074,0.037112687,0.33475906,1002.2146, , , , 
2025-11-24 20:24:48.327,0.57457656,3.559922,8.980264,-0.12675081,-0.006872032,0.05764871,8.306251,14.475,-48.91875,0.16414425,0.036281284,0.33526808,1002.21826, , , , 
2025-11-24 20:24:48.347,0.6583253,3.5264223,9.212367,-0.16279079,0.0029015245,0.01977618,7.93125,14.306251,-49.162502,0.16287675,0.035720825,0.33576545,1002.21826, , , , 
2025-11-24 20:24:48.368,0.5386842,3.464209,9.372986,-0.111479625,0.013896775,0.016111096,7.74375,14.2875,-49.125004,0.16217342,0.035209287,0.33598706,1002.2129, , , , 
2025-11-24 20:24:48.387,0.42382872,3.449852,9.262916,-0.06994201,-0.05390727,0.052151084,7.9500003,14.56875,-49.050003,0.1618371,0.034749564,0.33623862,1002.2129, , , , 
2025-11-24 20:24:48.407,0.40947178,3.5048869,9.12144,-0.029626092,-0.10949437,0.08819107,8.26875,14.418751,-49.218754,0.16209704,0.033998955,0.33665925,1002.20703, , , , 
2025-11-24 20:24:48.427,0.55064833,3.6149569,8.922835,-0.03634541,-0.20173231,0.105294794,8.26875,14.56875,-49.237503,0.16322835,0.03229449,0.3374477,1002.20703, , , , 
2025-11-24 20:24:48.447,0.74207413,3.696612,8.846265,-0.06566608,-0.2933594,0.07658497,8.3625,14.681251,-49.312504,0.16457401,0.029920638,0.33795097,1002.2097, , , , 
2025-11-24 20:24:48.467,0.8572287,3.7325041,8.920443,-0.12613995,-0.37643462,0.036269058,8.2875,14.45625,-49.29375,0.16593766,0.02647678,0.3380331,1002.2097, , , , 
2025-11-24 20:24:48.487,1.0079765,3.6846478,9.226724,-0.18905723,-0.36849362,-0.0071010995,8.025001,14.400001,-48.9,0.16684192,0.022492412,0.33764747,1002.20703,37.88743755,127.74020446,148.22564697265625,0.28
2025-11-24 20:24:48.507,1.1084751,3.5647075,9.605089,-0.193944,-0.28358585,-0.034589227,8.025001,14.400001,-48.80625,0.16706654,0.018669745,0.3369692,1002.20703, , , , 
2025-11-24 20:24:48.528,1.0773684,3.4067812,9.760623,-0.15362808,-0.12965234,-0.025426516,7.74375,14.2875,-48.9,0.16672766,0.01587982,0.33625636,1002.2107, , , , 
2025-11-24 20:24:48.548,0.9696914,3.3254254,9.636196,-0.10720369,-0.020921519,0.008170082,7.5750003,14.325001,-49.0125,0.1658621,0.014258401,0.33590016,1002.2136, , , , 
2025-11-24 20:24:48.568,0.87637126,3.315854,9.406485,-0.07482879,0.010842538,0.03077143,7.6875005,14.587501,-49.237503,0.16541643,0.01395056,0.33597112,1002.2136, , , , 
2025-11-24 20:24:48.587,0.85244304,3.3086755,9.159725,-0.04795151,-0.044133715,0.036269058,7.18125,14.512501,-49.36875,0.1651709,0.013621961,0.3363377,1002.2136, , , , 
2025-11-24 20:24:48.607,0.9457632,3.3349965,8.9108715,-0.06994201,-0.10460759,0.022219568,6.8812504,14.587501,-48.975002,0.165407,0.012789269,0.33652547,1002.2124, , , , 
2025-11-24 20:24:48.627,1.055833,3.3804603,8.937193,-0.13347013,-0.13820419,-0.005879405,6.4875,14.812501,-48.768753,0.1655319,0.011293875,0.33646202,1002.2124, , , , 
2025-11-24 20:24:48.647,1.1060823,3.3589249,9.245867,-0.15607147,-0.08322794,-0.017485503,6.05625,14.83125,-48.99375,0.16522878,0.0097310925,0.3361513,1002.2107, , , , 
2025-11-24 20:24:48.668,1.1395818,3.289533,9.621839,-0.09009997,-0.011147963,-0.018707197,6.2250004,14.775001,-48.975002,0.16466776,0.008759939,0.33589074,1002.2107, , , , 
2025-11-24 20:24:48.687,1.1515459,3.289533,9.595518,-0.032069482,0.027946262,-0.028480753,6.2812505,15.000001,-49.237503,0.16440594,0.008461821,0.33570194,1002.2229, , , , 
2025-11-24 20:24:48.708,1.0582259,3.2703903,9.377771,-0.040010497,0.060321167,-0.035200074,6.43125,14.793751,-49.10625,0.16429438,0.008590493,0.33549523,1002.2229, , , , 
2025-11-24 20:24:48.727,0.9553344,3.2536407,9.267701,-0.062000997,0.071392775,-0.04680617,6.4875,14.56875,-48.843754,0.16385439,0.009132242,0.3351816,1002.2217, , , , 
2025-11-24 20:24:48.747,0.8042875,3.2009985,9.233903,-0.049173206,0.087274805,-0.02481567,6.4687505,14.55,-48.91875,0.16339654,0.009823188,0.33489716,1002.2217, , , , 
2025-11-24 20:24:48.767,0.65353966,3.1627133,9.140582,-0.028404398,0.08788565,0.01305686,6.5437503,14.418751,-48.468754,0.1629175,0.010768099,0.3348718,1002.2119, , , , 
2025-11-24 20:24:48.787,0.6367899,3.1698918,8.975478,-0.019241689,0.037108973,0.028328042,6.675,14.75625,-48.562504,0.16268031,0.011724748,0.33510277,1002.2119, , , , 
2025-11-24 20:24:48.807,0.6128617,3.141178,8.889337,-0.04550812,-0.06062659,0.018554486,6.43125,14.775001,-48.6375,0.16267547,0.0120139755,0.3353298,1002.20874, , , , 
2025-11-24 20:24:48.827,0.5913263,3.0260234,8.937193,-0.12247488,-0.18035266,0.03321482,6.3,14.962501,-48.61875,0.1624896,0.010856824,0.33535868,1002.20825, , , , 
2025-11-24 20:24:48.847,0.7540382,2.990131,9.195618,-0.18783553,-0.2365506,0.04359922,5.9812503,14.85,-48.881252,0.16175975,0.008769561,0.33535796,1002.20825, , , , 
2025-11-24 20:24:48.867,0.9696914,2.9877381,9.655338,-0.20982604,-0.22922044,0.044820916,5.5687504,14.493751,-48.825,0.16061847,0.006036758,0.33537683,1002.20825, , , , 
2025-11-24 20:24:48.887,1.0941181,2.9542387,10.0983095,-0.114533864,-0.14553437,0.046042614,5.3812504,14.3625,-48.80625,0.1595531,0.003694836,0.33544815,1002.2112, , , , 
2025-11-24 20:24:48.907,1.1108679,2.8704898,10.122238,0.07543964,-0.055739813,0.064978875,5.025,14.118751,-48.750004,0.15929653,0.0024830815,0.33571628,1002.2112, , , , 
2025-11-24 20:24:48.927,1.0462617,2.8537402,9.64816,0.23242739,-0.066124216,0.08330429,4.65,14.212501,-48.937504,0.16036804,0.0021702354,0.3362379,1002.2146, , , , 
2025-11-24 20:24:48.947,0.9768698,2.844169,9.059227,0.34543413,-0.1577513,0.1040731,4.0875,14.19375,-49.125004,0.16295724,0.0019977803,0.33691552,1002.2146, , , , 
2025-11-24 20:24:48.967,0.9816555,2.9255247,8.597113,0.39124766,-0.25487602,0.10346226,3.7125,14.212501,-49.48125,0.1668476,0.0012668599,0.33757475,1002.2134, , , , 
2025-11-24 20:24:48.987,0.96490574,2.9949167,8.29801,0.37414396,-0.23716144,0.10712734,3.2062502,14.062501,-49.781254,0.17230958,3.2392156E-5,0.33819923,1002.2134, , , , 
2025-11-24 20:24:49.007,0.8452646,3.1028929,8.159226,0.38330665,-0.31473905,0.12545276,2.7562501,13.9125,-49.800003,0.17675169,-0.0010423224,0.3387268,1002.2051, , , , 
2025-11-24 20:24:49.027,0.81625164,3.4331024,7.632506,0.3246653,-0.55724543,0.10773818,2.34375,13.406251,-50.025,0.18178973,-0.0033101768,0.3391656,1002.2051, , , , 
2025-11-24 20:24:49.047,0.81625164,3.7923248,7.3522468,0.2275406,-0.96773475,0.01733279,1.95,13.218751,-49.706253,0.18774529,-0.008181243,0.3386397,1002.20337, , , , 
2025-11-24 20:24:49.067,0.81625164,4.005286,7.5149584,0.22143213,-1.4558017,-0.048638713,1.5187501,12.975,-49.575,0.19487613,-0.016532805,0.33658677,1002.20337, , , , 
2025-11-24 20:24:49.087,0.7612167,4.041178,7.8167534,0.369868,-1.9554747,-0.085289545,0.90000004,12.731251,-49.537502,0.20381287,-0.028940056,0.3329598,1002.20825, , , , 
2025-11-24 20:24:49.107,0.8883354,4.2161536,7.886145,0.61481774,-2.6072488,-0.07551599,-0.0375,12.637501,-49.350002,0.21858601,-0.051619872,0.32676446,1002.20825, , , , 
2025-11-24 20:24:49.127,1.1970096,4.4195433,7.54128,0.6838435,-2.9139705,-0.046195325,-1.5937501,12.543751,-49.275,0.23348269,-0.07381712,0.32058603,1002.20654, , , , 
2025-11-24 20:24:49.147,1.6830516,4.45065,7.0986075,0.59527063,-2.851664,-0.020539738,-3.525,11.85,-49.18125,0.24820825,-0.09700177,0.3139576,1002.20654, , , , 
2025-11-24 20:24:49.167,2.2121646,4.2592244,6.600601,0.5280775,-2.5339472,-9.926268E-4,-6.0375004,11.2875,-48.862503,0.26127064,-0.118649706,0.30757937,1002.2073, , , , 
2025-11-24 20:24:49.187,2.2217357,5.0587263,6.4232335,0.4126273,-2.4197187,0.10040802,-8.6625,10.81875,-48.112503,0.27462333,-0.14194387,0.30077136,1002.2092, , , , 
2025-11-24 20:24:49.207,2.600101,4.996513,6.6388865,0.65879875,-2.8260086,0.092467,-11.19375,10.14375,-47.287502,0.28393593,-0.1578769,0.29665682,1002.2092, , , , 
2025-11-24 20:24:49.227,3.0643084,4.963013,5.8223357,0.6814001,-2.7979095,0.16088189,-13.593751,9.993751,-46.4625,0.2981896,-0.18049964,0.29051057,1002.2092, , , , 
2025-11-24 20:24:49.247,3.4450665,4.963013,4.6061835,0.21959959,-2.346417,0.27816457,-15.806251,9.46875,-45.43125,0.3099198,-0.2018562,0.28524995,1002.2097, , , , 
2025-11-24 20:24:49.267,3.6487553,5.144868,4.6301117,-0.1395786,-2.163163,0.40399912,-17.71875,9.0375,-44.49375,0.31778473,-0.22652103,0.2801581,1002.2097, , , , 
2025-11-24 20:24:49.287,3.5838501,4.776373,5.413163,-0.08521319,-2.4838576,0.68262184,-19.78125,8.887501,-43.612503,0.3217627,-0.24766897,0.27695084,1002.2114, , , , 
2025-11-24 20:24:49.307,4.5798626,4.749753,5.6620164,0.022295926,-2.6873462,0.82800347,-21.84375,9.075001,-42.787502,0.32687068,-0.27190596,0.27482983,1002.2114, , , , 
2025-11-24 20:24:49.327,5.9973106,4.4243293,5.9781685,0.2403684,-2.6897895,0.8713736,-23.8125,9.5625,-41.90625,0.3326331,-0.2963474,0.2732841,1002.20703, , , , 
2025-11-24 20:24:49.347,6.8709903,4.395615,5.7816577,0.37170056,-2.5131783,0.8719845,-25.725,10.21875,-40.93125,0.3394989,-0.31986737,0.2723926,1002.20703, , , , 
2025-11-24 20:24:49.367,7.187142,4.112963,4.88405,0.33016294,-2.0416043,0.8518265,-27.54375,10.63125,-39.693752,0.3457201,-0.3403985,0.2725253,1002.2163, , , , 
2025-11-24 20:24:49.387,6.7633133,3.4307094,3.5647075,0.17500775,-1.6659331,0.95994645,-29.362501,10.81875,-38.081253,0.35051778,-0.3616059,0.27454263,1002.2163, , , , 
2025-11-24 20:24:49.407,6.5647087,2.6742785,2.7939196,0.14018944,-1.5956857,1.085781,-30.6,11.2875,-36.525,0.35191458,-0.3735521,0.2767411,1002.22314, , , , 
2025-11-24 20:24:49.427,7.1129646,1.7548363,2.0614166,0.14324369,-1.6805935,1.2158915,-31.968752,11.587501,-35.175003,0.35349107,-0.3941612,0.2816839,1002.22314, , , , 
2025-11-24 20:24:49.447,7.9555373,0.8500503,1.7213368,0.09132166,-1.9169914,1.2268867,-33.0,12.093751,-34.18125,0.35459977,-0.41216388,0.28564316,1002.23047, , , , 
2025-11-24 20:24:49.467,8.420044,-0.30179477,1.9800607,0.095597595,-2.214474,1.3392826,-33.862503,12.88125,-32.8875,0.35567355,-0.43262416,0.28878698,1002.23047, , , , 
2025-11-24 20:24:49.487,8.554042,-1.6423737,2.3174486,0.23975755,-2.2010355,1.5830107,-34.6875,13.70625,-31.987501,0.35634807,-0.45462722,0.29258734,1002.23364,37.88743755,127.74020446,148.22564697265625,0.28
2025-11-24 20:24:49.507,8.891729,-2.6144578,2.032703,0.27335414,-1.9921256,1.7882553,-35.5875,14.812501,-30.69375,0.35584834,-0.4757434,0.2989972,1002.23364, , , , 
2025-11-24 20:24:49.527,9.305986,-3.6197424,1.6926229,0.23548162,-1.8064281,1.949519,-36.487503,15.900001,-29.062502,0.35373083,-0.49571592,0.30743736,1002.2356, , , , 
2025-11-24 20:24:49.547,9.459127,-4.955835,0.9457632,0.1487413,-1.5871339,2.2005773,-37.0875,17.1,-27.843752,0.34797353,-0.51945305,0.3204108,1002.2356, , , , 
2025-11-24 20:24:49.567,9.882956,-6.0571313,0.07178468,-0.060779303,-1.5077237,2.5114985,-37.65,18.35625,-26.23125,0.34011847,-0.5384278,0.33270085,1002.2461, , , , 
2025-11-24 20:24:49.587,10.64178,-6.7704916,-0.49082774,-0.45721918,-1.5743061,2.8181438,-37.725002,19.63125,-25.312502,0.32841918,-0.5590278,0.34557348,1002.2461, , , , 
2025-11-24 20:24:49.607,11.542079,-7.11775,-0.38793638,-0.8292252,-1.6494403,3.0081174,-37.631252,21.337502,-24.281252,0.31281912,-0.58164316,0.35720947,1002.25586, , , , 
2025-11-24 20:24:49.627,12.066406,-7.3115687,0.124426775,-1.0918895,-1.6836478,3.1999233,-37.350002,23.2875,-23.00625,0.2939318,-0.6054669,0.36746693,1002.25586, , , , 
2025-11-24 20:24:49.647,12.736696,-7.5436726,0.6870392,-1.2665918,-1.5193298,3.382643,-36.525,25.368752,-21.5625,0.27206984,-0.62916315,0.3771534,1002.26025, , , , 
2025-11-24 20:24:49.667,13.282558,-7.6588273,1.041476,-1.3716575,-1.2566655,3.4809895,-35.850002,27.825,-19.743752,0.24755406,-0.65118504,0.38680962,1002.26025, , , , 
2025-11-24 20:24:49.688,13.615161,-7.615756,1.3764713,-1.4443483,-0.96468055,3.5481827,-34.350002,30.487501,-18.0375,0.2138552,-0.6756325,0.39868787,1002.26465, , , , 
2025-11-24 20:24:49.707,13.7686,-7.3881392,1.6304095,-1.477945,-0.727061,3.5402417,-32.625,33.35625,-16.237501,0.18513554,-0.69252384,0.4078334,1002.26465, , , , 
2025-11-24 20:24:49.727,13.5170555,-7.1632137,1.8840487,-1.4883293,-0.5157078,3.4944282,-30.656252,36.1875,-14.493751,0.15563405,-0.70709854,0.41625693,1002.2666, , , , 
2025-11-24 20:24:49.747,13.007085,-6.708278,2.3150558,-1.3734901,-0.30679804,3.4596097,-28.031252,38.925003,-12.675,0.12560634,-0.71931285,0.42436123,1002.2666, , , , 
2025-11-24 20:24:49.767,12.882658,-6.198308,2.7532415,-1.1071607,-0.15469708,3.3466032,-25.218752,41.381252,-11.08125,0.09609437,-0.72883123,0.4327709,1002.2698, , , , 
2025-11-24 20:24:49.787,12.559328,-5.6189456,2.9039893,-0.762032,0.040774055,3.200534,-22.25625,43.331253,-9.65625,0.06839306,-0.735141,0.44224072,1002.2698, , , , 
2025-11-24 20:24:49.807,12.12862,-5.0970116,2.65035,-0.42606595,0.26747474,2.9427567,-19.78125,45.05625,-8.38125,0.036917843,-0.73842025,0.4556279,1002.27, , , , 
2025-11-24 20:24:49.827,11.84836,-4.6229334,2.312663,-0.19577655,0.42629504,2.5689182,-16.931252,46.631252,-7.51875,0.014925336,-0.7380417,0.46641695,1002.27, , , , 
2025-11-24 20:24:49.847,11.235498,-4.2520456,1.8601205,-0.051005747,0.53197163,2.1211672,-14.475,47.662502,-7.2000003,-0.0035572636,-0.7357841,0.47621134,1002.2666, , , , 
2025-11-24 20:24:49.867,10.34477,-4.189533,1.3094722,-0.033902023,0.52341974,1.6679184,-12.168751,48.73125,-6.95625,-0.018728811,-0.7328275,0.48425496,1002.2666, , , , 
2025-11-24 20:24:49.889,9.523733,-4.3788652,0.9457632,-0.09132166,0.5069269,1.3649383,-9.5625,49.66875,-7.0125003,-0.034314547,-0.7294018,0.49173793,1002.26294, , , , 
2025-11-24 20:24:49.907,8.9013,-4.551149,0.770788,-0.14141114,0.50020754,1.2598724,-7.4625,49.725002,-7.1250005,-0.04276359,-0.7275625,0.49521086,1002.26294, , , , 
2025-11-24 20:24:49.927,8.415258,-4.7377887,0.6415756,-0.18172707,0.49959671,1.269646,-5.775,50.2125,-6.8625,-0.05393512,-0.7252944,0.49928054,1002.26953, , , , 
2025-11-24 20:24:49.947,8.262117,-4.8433723,0.5841478,-0.1835596,0.4855472,1.3783768,-3.9562502,50.30625,-6.6937504,-0.068689674,-0.7224861,0.50436604,1002.26953, , , , 
2025-11-24 20:24:49.967,8.393723,-4.699504,0.6128617,-0.12736166,0.42934927,1.4761124,-2.68125,50.287502,-6.1687503,-0.08107866,-0.72000325,0.50901437,1002.2661, , , , 
2025-11-24 20:24:49.987,8.7266245,-4.4817567,0.622433,-0.033902023,0.28824356,1.5237585,-1.48125,50.86875,-6.1875005,-0.09313742,-0.71739703,0.51435727,1002.2661, , , , 
2025-11-24 20:24:50.007,9.406485,-4.223332,0.6056832,0.09926268,0.12697987,1.4669497,0.20625001,50.737503,-5.9437504,-0.10378199,-0.71481,0.52037346,1002.2683, , , , 
2025-11-24 20:24:50.028,10.37827,-4.124927,0.46929234,0.2831277,0.0010689828,1.2262759,1.3875,50.737503,-5.90625,-0.11181208,-0.71214014,0.52679574,1002.2766, , , , 
2025-11-24 20:24:50.047,11.05843,-4.278367,0.14117654,0.36742464,-0.018478129,0.9196305,3.05625,50.756252,-6.3562503,-0.11671797,-0.7093408,0.53302634,1002.2766, , , , 
2025-11-24 20:24:50.067,11.508579,-4.4339004,-0.3065804,0.2947338,0.10376768,0.5640411,4.2562504,50.475002,-6.3562503,-0.11946473,-0.7061453,0.538996,1002.2766, , , , 
2025-11-24 20:24:50.087,11.652149,-4.56072,-0.59611195,0.12308572,0.2112768,0.32031304,5.0437503,50.643753,-6.3562503,-0.12032295,-0.70464855,0.5408423,1002.271, , , , 
2025-11-24 20:24:50.107,11.764611,-4.6707897,-0.58893347,-0.16279079,0.2772483,0.019165333,5.8875003,50.5875,-6.7500005,-0.12136611,-0.7036352,0.5402865,1002.271, , , , 
2025-11-24 20:24:50.127,12.054143,-4.922335,-0.3376871,-0.434007,0.33711132,-0.30763796,6.24375,50.60625,-6.9,-0.121487245,-0.70450157,0.5363585,1002.2671, , , , 
2025-11-24 20:24:50.147,12.327224,-5.451448,0.11724831,-0.6368083,0.45011806,-0.6741463,6.7312503,50.60625,-6.6375003,-0.1207008,-0.70653224,0.52914095,1002.2671, , , , 
2025-11-24 20:24:50.167,12.387045,-6.15763,0.8644072,-0.62764555,0.47455198,-1.0266051,6.9,50.49375,-6.7312503,-0.11868662,-0.70887357,0.519549,1002.27246, , , , 
2025-11-24 20:24:50.187,12.430116,-6.792027,1.474876,-0.4187358,0.37009707,-1.2801068,6.5437503,50.68125,-6.4500003,-0.11446837,-0.7108463,0.5093271,1002.27246, , , , 
2025-11-24 20:24:50.207,12.5042925,-7.306783,1.9175483,-0.046729814,0.20028155,-1.479243,5.6062503,50.662502,-6.01875,-0.10705599,-0.7119764,0.499995,1002.2678, , , , 
2025-11-24 20:24:50.227,12.487543,-7.620542,2.14038,0.47737715,-0.06734591,-1.6331764,4.5,50.98125,-5.5687504,-0.09240024,-0.71169645,0.49145058,1002.2678, , , , 
2025-11-24 20:24:50.247,12.329617,-7.4766736,2.1308086,0.88427776,-0.27503398,-1.7522917,3.0,51.35625,-5.34375,-0.08048435,-0.71063715,0.48836607,1002.26807, , , , 
2025-11-24 20:24:50.267,11.908181,-6.815955,1.6998014,1.2678899,-0.45156884,-2.0100694,1.5187501,51.45,-5.34375,-0.055252794,-0.7075586,0.48575684,1002.26807, , , , 
2025-11-24 20:24:50.287,11.580364,-6.7178497,1.2281163,1.3821182,-0.4888305,-2.3913143,0.20625001,51.412502,-5.68125,-0.030779997,-0.7043018,0.48385808,1002.26855, , , , 
2025-11-24 20:24:50.307,11.211571,-7.2589264,0.9529416,1.3411915,-0.42835665,-2.7908084,-1.5187501,50.925003,-6.76875,-0.0035850292,-0.7005508,0.48010194,1002.26855, , , , 
2025-11-24 20:24:50.327,10.660922,-8.142476,0.7109674,1.2477319,-0.3257343,-3.1408238,-3.54375,50.4,-7.7812505,0.03263396,-0.69483656,0.47185013,1002.2693, , , , 
2025-11-24 20:24:50.347,10.0983095,-8.7673025,0.73489565,1.1585482,-0.3037438,-3.3100286,-5.68125,49.800003,-9.28125,0.054745685,-0.6909306,0.4651566,1002.2693, , , , 
2025-11-24 20:24:50.367,9.44477,-9.313165,0.7851449,1.1084588,-0.3617743,-3.3466794,-8.4375,48.956253,-10.556251,0.091467835,-0.6839477,0.45208985,1002.2554, , , , 
2025-11-24 20:24:50.387,8.915657,-9.368199,0.52193445,1.0528716,-0.4161397,-3.1408238,-11.56875,47.925003,-11.7375,0.119763605,-0.678226,0.44141927,1002.2554, , , , 
2025-11-24 20:24:50.407,8.733803,-8.865408,0.325723,0.89954895,-0.43202174,-2.8073013,-14.2875,46.78125,-12.88125,0.14558475,-0.67291445,0.4313982,1002.2622, , , , 
2025-11-24 20:24:50.427,8.851051,-7.9770727,0.18903299,0.6111527,-0.36421767,-2.5183706,-17.475,45.2625,-13.593751,0.16822222,-0.6682361,0.42167005,1002.2622, , , , 
2025-11-24 20:24:50.447,8.721839,-7.1895347,0.24646074,0.27213246,-0.23044212,-2.396812,-20.23125,43.85625,-14.175,0.18767999,-0.66401255,0.41113517,1002.2593, , , , 
2025-11-24 20:24:50.467,8.606684,-6.7537417,0.6942177,-0.028404398,-0.1241547,-2.3754323,-22.6875,42.43125,-14.325001,0.20412593,-0.660138,0.3989126,1002.2593, , , , 
2025-11-24 20:24:50.487,8.39133,-6.5001025,1.2400804,-0.1511847,-0.07284354,-2.3821516,-25.1625,41.04375,-14.587501,0.21851717,-0.65630794,0.38504246,1002.2573,37.88743755,127.74020446,148.22564697265625,0.28
2025-11-24 20:24:50.507,8.012965,-6.4881387,1.4796617,-0.14507623,0.0035123718,-2.3497767,-27.0375,39.45,-14.400001,0.23519818,-0.6509953,0.36705464,1002.2573, , , , 
2025-11-24 20:24:50.527,7.428817,-6.509674,1.3501502,-0.14813046,0.18439952,-2.2776966,-28.893751,37.85625,-14.55,0.24753885,-0.6456553,0.35330656,1002.2529, , , , 
2025-11-24 20:24:50.547,6.823134,-6.5455666,1.4102699,-0.16462334,0.39208758,-2.1518621,-30.6,36.65625,-14.64375,0.25827757,-0.6391212,0.34046343,1002.2529, , , , 
2025-11-24 20:24:50.567,6.305985,-6.2748785,1.4557334,-0.08154811,0.61749023,-1.923329,-32.30625,35.175003,-14.56875,0.26717025,-0.6315325,0.32905254,1002.2595, , , , 
2025-11-24 20:24:50.587,5.7553368,-6.0020967,1.4246268,0.079715565,0.7811973,-1.7022022,-33.84375,33.80625,-14.418751,0.27460012,-0.62278503,0.31997335,1002.2595, , , , 
2025-11-24 20:24:50.607,5.171189,-5.6500525,1.2951152,0.2702999,0.8306759,-1.5012335,-34.987503,32.550003,-14.64375,0.28139403,-0.6132082,0.31339183,1002.2605, , , , 
2025-11-24 20:24:50.627,4.5320063,-5.372485,1.1539388,0.48959407,0.79097086,-1.2819394,-35.925003,30.712502,-15.1125,0.28816777,-0.6034078,0.30917022,1002.2605, , , , 
2025-11-24 20:24:50.647,4.2831526,-5.3243294,0.8258229,0.6991147,0.65291935,-1.0547042,-36.675003,29.268751,-15.618751,0.29527515,-0.5940643,0.3073266,1002.2661, , , , 
2025-11-24 20:24:50.667,4.57747,-5.5112686,0.2105684,0.88305604,0.4580591,-0.8085327,-37.3875,28.218752,-16.5375,0.30482814,-0.5839622,0.307943,1002.2661, , , , 
2025-11-24 20:24:50.687,4.6325045,-5.6620164,-0.45972106,0.95880115,0.32855946,-0.55075514,-37.875,27.075,-17.25,0.31254724,-0.5773869,0.31051132,1002.2617, , , , 
2025-11-24 20:24:50.707,4.486542,-5.391628,-1.2735798,0.8408313,0.27846998,-0.15859123,-38.53125,26.250002,-18.0,0.31890666,-0.57228106,0.31498882,1002.2617, , , , 
2025-11-24 20:24:50.727,4.503292,-4.955835,-1.7931215,0.5036436,0.23265645,0.19142427,-38.925003,25.462502,-18.862501,0.32236087,-0.5690709,0.32076284,1002.26416, , , , 
2025-11-24 20:24:50.747,5.221438,-4.9725847,-1.7356937,0.09681929,0.06284091,0.51944923,-38.850002,24.806252,-19.893751,0.32191223,-0.5686213,0.32650915,1002.26416, , , , 
2025-11-24 20:24:50.767,6.4642105,-5.3940206,-1.6136597,-0.21776704,-0.14064758,0.79440683,-38.79375,24.31875,-20.775002,0.31786382,-0.571713,0.33144474,1002.2693, , , , 
2025-11-24 20:24:50.788,7.2230344,-5.6213384,-1.3908281,-0.3631487,-0.26587126,0.99537563,-38.5875,24.2625,-20.8875,0.31287652,-0.57595366,0.33485344,1002.2693, , , , 
2025-11-24 20:24:50.808,8.82473,-6.100202,-1.218545,-0.4755446,-0.5945071,1.2128372,-38.025,24.525002,-20.643751,0.30242848,-0.58626395,0.34043747,1002.2722, , , , 
2025-11-24 20:24:50.827,9.123833,-6.4666033,-1.3453646,-0.6050442,-0.8247965,1.3301198,-37.55625,25.0125,-19.96875,0.29110625,-0.5998256,0.34533474,1002.2722, , , , 
2025-11-24 20:24:50.847,9.368199,-7.02443,-1.4605191,-0.88481224,-0.99888796,1.4919944,-37.425003,26.19375,-19.44375,0.280641,-0.6128896,0.3484557,1002.26587, , , , 
2025-11-24 20:24:50.868,9.420842,-7.5364943,-1.1204392,-1.3130162,-1.0337063,1.8065808,-37.21875,27.281252,-18.88125,0.2670423,-0.6280148,0.350665,1002.26587, , , , 
2025-11-24 20:24:50.887,9.439984,-7.500602,-0.40707895,-1.6428736,-0.9695673,2.185306,-37.143753,28.575,-18.16875,0.24884479,-0.6446156,0.35258052,1002.2705, , , , 
2025-11-24 20:24:50.907,9.564411,-7.213463,0.47168517,-1.8182632,-0.9078717,2.5310457,-36.581253,30.35625,-16.987501,0.22613797,-0.66193604,0.3547669,1002.2705, , , , 
2025-11-24 20:24:50.927,9.880563,-6.9188466,1.189831,-1.7852011,-0.85900396,2.7918775,-35.5125,31.893751,-15.3,0.20033821,-0.6790982,0.35771674,1002.2732, , , , 
2025-11-24 20:24:50.947,10.196416,-6.8135624,1.6710875,-1.5439165,-0.79975176,2.9897919,-33.862503,33.956253,-13.387501,0.1663622,-0.69874716,0.36359116,1002.2732, , , , 
2025-11-24 20:24:50.967,10.488639,-6.8518476,1.8984057,-1.1908467,-0.782648,3.0740888,-31.66875,36.35625,-11.793751,0.13965327,-0.7123346,0.37066144,1002.2803, , , , 
2025-11-24 20:24:50.987,10.682458,-6.9332037,1.5514464,-0.8182299,-0.6812474,3.1229565,-30.112501,38.4,-10.05,0.11441172,-0.72341895,0.38030875,1002.2803, , , , 
2025-11-24 20:24:51.007,10.907383,-6.6628146,1.218545,-0.43217444,-0.5737383,3.1021879,-27.88125,40.5,-8.306251,0.090664074,-0.7318128,0.39222348,1002.2803, , , , 
2025-11-24 20:24:51.027,10.859527,-6.171987,0.8859426,-0.098651834,-0.55785626,2.9959004,-25.593752,42.393753,-7.14375,0.06906477,-0.7378579,0.4057145,1002.2803, , , , 
2025-11-24 20:24:51.047,10.51496,-5.465805,0.4334,0.14507623,-0.50288,2.8547947,-23.456251,43.93125,-6.1312504,0.050098486,-0.7418822,0.4203154,1002.2732, , , , 
2025-11-24 20:24:51.067,10.306485,-4.979763,-0.009571291,0.2495311,-0.3361187,2.6556585,-20.831251,45.300003,-5.7000003,0.033273894,-0.7440306,0.43518093,1002.2732, , , , 
2025-11-24 20:24:51.088,10.0576315,-4.6229334,-0.4334,0.16095825,0.0010689828,2.333131,-18.393751,46.48125,-5.4375,0.0141105605,-0.7444594,0.45217946,1002.27344, , , , 
2025-11-24 20:24:51.107,9.650553,-4.4458647,-0.7325028,-0.024739314,0.37864894,2.0826838,-15.975,47.625,-5.4750004,-9.2777336E-4,-0.7433131,0.46315563,1002.27344, , , , 
2025-11-24 20:24:51.127,9.157332,-4.601398,-0.8428718,-0.33382803,0.8001335,1.7625997,-13.593751,48.375004,-5.6625004,-0.01681035,-0.7410872,0.47066045,1002.2759, , , , 
2025-11-24 20:24:51.147,8.633005,-5.0491548,-0.78753775,-0.70888823,1.0224819,1.4767232,-10.9875,48.9,-5.55,-0.03376501,-0.73880917,0.47404966,1002.2759, , , , 
2025-11-24 20:24:51.168,8.286046,-5.752944,-0.51236314,-0.9410102,1.0218711,1.3960915,-8.64375,49.631252,-5.34375,-0.05619668,-0.736896,0.47399557,1002.27466, , , , 
2025-11-24 20:24:51.187,8.29801,-6.049953,-0.32093734,-0.9923214,0.93574166,1.44557,-6.8250003,49.800003,-4.9875,-0.07017874,-0.7361569,0.47301313,1002.27466, , , , 
2025-11-24 20:24:51.207,8.290832,-6.018846,-0.02871387,-0.89336413,0.68834853,1.5640744,-5.025,50.1375,-4.3875003,-0.09358149,-0.73519576,0.4718077,1002.27075, , , , 
2025-11-24 20:24:51.227,8.458329,-5.721837,0.28743783,-0.7070557,0.31634253,1.6483713,-3.80625,50.662502,-3.54375,-0.11104778,-0.7347604,0.47240818,1002.27075, , , , 
2025-11-24 20:24:51.247,8.867801,-5.4203415,0.37597227,-0.49570256,-0.028862532,1.677692,-2.5125,50.68125,-2.98125,-0.126123,-0.73477274,0.47493836,1002.2698, , , , 
2025-11-24 20:24:51.267,9.669696,-5.389235,0.44775695,-0.2678565,-0.31596074,1.6447062,-0.84375006,51.000004,-2.2875001,-0.13859858,-0.73497254,0.4791704,1002.2698, , , , 
2025-11-24 20:24:51.287,10.5436735,-5.456234,0.34247273,-0.062000997,-0.41552883,1.5848432,0.43125,50.86875,-1.5562501,-0.14854513,-0.7350314,0.48481077,1002.2705, , , , 
2025-11-24 20:24:51.307,11.542079,-5.453841,-0.078963146,0.1163664,-0.3361187,1.4767232,2.1750002,50.850002,-1.21875,-0.15650754,-0.73430145,0.4915043,1002.2705, , , , 
2025-11-24 20:24:51.327,12.276975,-5.262116,-0.57457656,0.20310672,-0.10827268,1.289804,3.61875,50.718754,-0.93750006,-0.1630415,-0.7325449,0.49826968,1002.2727, , , , 
2025-11-24 20:24:51.347,12.693625,-4.9486566,-1.1324034,0.16095825,0.32367268,0.97155255,5.25,50.49375,-0.4875,-0.17017978,-0.72901183,0.50489575,1002.2727, , , , 
2025-11-24 20:24:51.367,12.899407,-4.963013,-1.4916258,-0.055892523,0.674299,0.55976516,6.76875,50.775,-0.43125,-0.17564374,-0.72581124,0.5067715,1002.2739, , , , 
2025-11-24 20:24:51.387,12.975978,-5.360521,-1.434198,-0.39979953,0.89176065,0.013667707,7.9875,50.41875,-0.65625,-0.18029074,-0.7238079,0.5038411,1002.2739, , , , 
2025-11-24 20:24:51.406,12.55215,-5.9135623,-0.85244304,-0.661853,1.0780691,-0.5061633,8.887501,50.325,-0.71250004,-0.18372694,-0.72320825,0.49625206,1002.27026, , , , 
2025-11-24 20:24:51.427,12.046965,-6.5958157,-0.19860429,-0.67834586,1.142208,-0.86473066,9.168751,50.100002,-0.45000002,-0.18576458,-0.7231249,0.48568,1002.27026, , , , 
2025-11-24 20:24:51.447,11.419746,-6.99781,0.39750767,-0.4963134,1.0921185,-1.0974635,9.1875,50.006252,-0.09375,-0.18585165,-0.7227524,0.47415128,1002.27026, , , , 
2025-11-24 20:24:51.467,11.046466,-7.2326055,0.9098708,-0.14507623,0.8679376,-1.2654464,8.64375,50.23125,0.71250004,-0.18332754,-0.7216573,0.46356848,1002.27026, , , , 
2025-11-24 20:24:51.487,10.909776,-7.349854,1.1443675,0.36375955,0.42018655,-1.4395379,7.5937505,50.4,1.48125,-0.17455953,-0.71965826,0.45375758,1002.2698,37.88745672,127.74020551,147.6051025390625,1.99
2025-11-24 20:24:51.507,10.890634,-7.251748,1.230509,0.83105767,-0.09483404,-1.6044667,6.3562503,50.756252,1.7062501,-0.16174424,-0.7182878,0.44929582,1002.2698, , , , 
2025-11-24 20:24:51.527,11.259427,-7.3139615,1.1946167,1.2397909,-0.65192676,-1.8084897,4.7625003,50.906254,1.7437501,-0.14319344,-0.7177492,0.44766793,1002.2649, , , , 
2025-11-24 20:24:51.547,11.67847,-7.4216385,1.0654043,1.578811,-1.1680927,-2.120709,3.1125002,50.98125,0.93750006,-0.1186924,-0.7182979,0.44790962,1002.2649, , , , 
2025-11-24 20:24:51.567,11.493923,-7.428817,0.9625129,1.719306,-1.4234269,-2.4316301,1.575,50.906254,-0.0,-0.08895429,-0.7196418,0.44862068,1002.2666, , , , 
2025-11-24 20:24:51.587,11.096715,-7.5990067,0.770788,1.703424,-1.450915,-2.7181175,-0.45000002,51.131252,-1.5187501,-0.055640813,-0.7210602,0.44839606,1002.2666, , , , 
2025-11-24 20:24:51.607,10.890634,-8.024929,0.6439684,1.5830871,-1.3305781,-2.9508505,-2.8312502,50.662502,-3.2250001,-0.020854557,-0.7219023,0.44619718,1002.2749, , , , 
2025-11-24 20:24:51.626,10.42164,-8.39133,0.2970091,1.4108281,-1.0703571,-3.104784,-5.5125003,50.475002,-4.5,0.022387546,-0.72130543,0.44028652,1002.2749, , , , 
2025-11-24 20:24:51.647,9.837492,-8.630612,0.06699903,1.1787062,-0.8864921,-3.108449,-8.212501,50.062504,-6.1875005,0.055104107,-0.71952856,0.43333864,1002.27295, , , , 
2025-11-24 20:24:51.667,9.361021,-8.515757,0.08135597,0.89466214,-0.81868804,-3.016211,-11.212501,48.956253,-7.4812503,0.08536448,-0.7174647,0.4245293,1002.27295, , , , 
2025-11-24 20:24:51.687,9.066405,-8.065607,0.011964113,0.6074876,-0.7343911,-2.8586125,-14.062501,48.45,-8.175,0.11298742,-0.7155908,0.41435468,1002.2678, , , , 
2025-11-24 20:24:51.707,8.664112,-7.292426,0.18185452,0.25930467,-0.53708744,-2.749271,-16.893751,47.100002,-8.925,0.1374797,-0.7137611,0.40275505,1002.2678, , , , 
2025-11-24 20:24:51.727,8.613862,-6.832705,0.44057846,-0.08704574,-0.26953635,-2.692462,-19.875,45.84375,-9.1125,0.15852015,-0.71157396,0.38935342,1002.2637, , , , 
2025-11-24 20:24:51.747,8.709874,-6.7728844,0.79710907,-0.35215345,0.08055548,-2.6961272,-22.48125,44.41875,-9.13125,0.1763035,-0.70846456,0.374115,1002.2637, , , , 
2025-11-24 20:24:51.767,8.707481,-7.0340014,1.0366904,-0.46699274,0.5612923,-2.7278912,-24.937502,42.65625,-9.01875,0.1946271,-0.7017759,0.35367733,1002.25806, , , , 
2025-11-24 20:24:51.787,8.386544,-7.11775,1.0582259,-0.45844087,0.84533626,-2.740108,-26.118752,42.018753,-8.868751,0.20410447,-0.6957838,0.34141997,1002.25806, , , , 
2025-11-24 20:24:51.807,7.6923265,-7.251748,0.8955139,-0.3723114,1.1617551,-2.7309453,-29.212502,39.825,-8.700001,0.21842346,-0.6829223,0.321714,1002.2539, , , , 
2025-11-24 20:24:51.827,7.1010003,-7.2613196,0.8428718,-0.26113722,1.2546039,-2.6930728,-31.29375,38.325,-8.793751,0.22926438,-0.67084,0.30682325,1002.2539, , , , 
2025-11-24 20:24:51.847,6.2342005,-7.0986075,0.86919284,-0.054059982,1.2484955,-2.613052,-33.075,36.46875,-9.618751,0.2401873,-0.6578622,0.29291582,1002.251, , , , 
2025-11-24 20:24:51.867,5.5591254,-7.004988,0.7540382,0.17989452,1.1678636,-2.492104,-34.818752,34.6875,-10.5375,0.25162175,-0.64437145,0.28055716,1002.251, , , , 
2025-11-24 20:24:51.887,5.266902,-7.3953176,0.4764708,0.4395046,0.994383,-2.360161,-36.24375,32.4,-11.55,0.26393077,-0.6309777,0.26992053,1002.2561, , , , 
2025-11-24 20:24:51.907,4.8242297,-7.6396847,-0.05742774,0.62336963,0.8893173,-2.1372018,-37.4625,30.35625,-12.375001,0.28027537,-0.61497396,0.2592572,1002.2561, , , , 
2025-11-24 20:24:51.927,3.8497524,-7.3546395,-0.61764735,0.69361705,0.8667159,-1.7205276,-38.41875,28.706251,-13.031251,0.29242173,-0.6030187,0.25376523,1002.25757, , , , 
2025-11-24 20:24:51.947,3.1196425,-6.698707,-1.015155,0.6282564,0.83250844,-1.1438879,-39.43125,26.94375,-13.70625,0.30171737,-0.5924366,0.25165883,1002.25757, , , , 
2025-11-24 20:24:51.967,2.9183464,-6.0834527,-1.3286148,0.4511107,0.67246646,-0.45485213,-40.0875,25.3875,-14.325001,0.3071217,-0.5843199,0.25269353,1002.25464, , , , 
2025-11-24 20:24:51.987,3.626921,-6.3825555,-1.4054842,0.31611344,0.3407764,0.12545276,-40.443752,24.243752,-15.450001,0.30872074,-0.5799375,0.2561703,1002.25464, , , , 
2025-11-24 20:24:52.007,4.359723,-6.650851,-1.3884354,0.28801447,0.040163208,0.8029587,-40.7625,23.212502,-16.21875,0.30687472,-0.5799727,0.2621874,1002.25757, , , , 
2025-11-24 20:24:52.027,6.207879,-6.9475603,-1.3405789,0.4107948,-0.39231664,1.5426948,-40.66875,22.931252,-16.743752,0.3003028,-0.5859863,0.27500978,1002.2615, , , , 
2025-11-24 20:24:52.047,7.859824,-7.0603223,-1.7428722,0.56595,-0.7753179,1.9941108,-40.612503,23.5125,-17.2875,0.2936407,-0.595191,0.28897494,1002.2615, , , , 
2025-11-24 20:24:52.067,8.85823,-6.8614187,-2.353341,0.5543439,-1.0208784,2.2244003,-40.237503,24.35625,-17.25,0.2865939,-0.6067002,0.30482295,1002.2615, , , , 
2025-11-24 20:24:52.087,9.219545,-6.8614187,-2.7221348,0.2544179,-1.2444485,2.2610512,-39.61875,25.425001,-17.00625,0.27885702,-0.6199736,0.31987986,1002.2634, , , , 
2025-11-24 20:24:52.107,9.116654,-6.8853474,-2.4586253,-0.2892362,-1.3513469,2.3514566,-38.90625,26.906252,-16.29375,0.26889583,-0.63512534,0.3321947,1002.2634, , , , 
2025-11-24 20:24:52.127,9.238688,-7.0148587,-1.8960128,-0.7308788,-1.2432269,2.5402083,-37.987503,28.425001,-15.3,0.25497484,-0.65155596,0.34208986,1002.25977, , , , 
2025-11-24 20:24:52.147,9.502198,-7.1153574,-1.3046865,-1.0564604,-0.9487985,2.7546158,-36.975002,29.925001,-14.325001,0.2364389,-0.6679608,0.3508206,1002.25977, , , , 
2025-11-24 20:24:52.167,9.68166,-7.1105714,-0.61046886,-1.2219999,-0.4924956,2.9012191,-35.643753,32.025,-13.275001,0.2136491,-0.682864,0.3592757,1002.26245, , , , 
2025-11-24 20:24:52.187,9.597911,-7.029216,-0.11485548,-1.2238325,0.022448637,2.8944998,-34.18125,33.768753,-12.543751,0.18128888,-0.69734454,0.37022403,1002.26245, , , , 
2025-11-24 20:24:52.206,9.243474,-7.062715,0.031106694,-1.1279294,0.49654245,2.8340259,-32.4375,35.737503,-11.55,0.15371458,-0.70453185,0.37952313,1002.2639, , , , 
2025-11-24 20:24:52.227,9.040084,-7.2086773,-0.21774685,-1.0344698,0.6523085,2.8181438,-30.581251,37.725002,-10.556251,0.12566778,-0.7089582,0.3892041,1002.2639, , , , 
2025-11-24 20:24:52.247,9.006584,-7.2972116,-0.42622152,-0.95322716,0.52341974,2.8822827,-28.331251,39.84375,-9.7875,0.09772555,-0.7125218,0.39899012,1002.26685, , , , 
2025-11-24 20:24:52.267,8.906086,-7.1105714,-0.34247273,-0.87442786,0.35421506,3.0239995,-25.95,41.756252,-9.1125,0.07013674,-0.71613884,0.4091285,1002.26685, , , , 
2025-11-24 20:24:52.287,8.855837,-6.7202425,-0.1794617,-0.81639737,0.31451,3.2103078,-23.475,43.4625,-8.3625,0.04242408,-0.71945393,0.42020473,1002.27026, , , , 
2025-11-24 20:24:52.306,9.15494,-6.7034926,0.2105684,-0.7589777,0.31023404,3.3820322,-20.56875,44.9625,-7.5375004,0.006791909,-0.72236633,0.43511942,1002.27026, , , , 
2025-11-24 20:24:52.327,9.691231,-6.5144596,0.4668995,-0.63253236,0.2528144,3.402801,-17.98125,46.143753,-7.0687504,-0.021792853,-0.72348964,0.44752157,1002.26587, , , , 
2025-11-24 20:24:52.347,10.440783,-6.322735,0.37597227,-0.4834856,0.16912833,3.2188597,-15.075001,47.4,-5.9437504,-0.048476312,-0.72354317,0.459814,1002.26587, , , , 
2025-11-24 20:24:52.366,10.715957,-6.107381,0.22492532,-0.3943019,0.07261447,2.8798394,-12.0,48.487503,-5.4187503,-0.07188289,-0.722993,0.4710453,1002.27344, , , , 
2025-11-24 20:24:52.387,10.6154585,-6.1767726,-0.06460621,-0.4395046,-0.03802524,2.4400294,-9.09375,49.425003,-5.0437503,-0.09177511,-0.7225717,0.48033413,1002.27344, , , , 
2025-11-24 20:24:52.407,10.375877,-6.5144596,-0.0526421,-0.5781669,-0.1485886,2.1364384,-6.24375,49.95,-4.3875003,-0.10890021,-0.7230695,0.48707893,1002.2815, , , , 
2025-11-24 20:24:52.427,10.040882,-6.68435,0.18185452,-0.68262184,-0.19073705,1.9959434,-3.6375,50.381252,-4.275,-0.12450204,-0.72449523,0.49176723,1002.2815, , , , 
2025-11-24 20:24:52.447,9.755837,-6.5838513,0.56500524,-0.7229377,-0.18401773,1.9873916,-0.76875,50.41875,-3.80625,-0.13969602,-0.7261233,0.4954742,1002.28076, , , , 
2025-11-24 20:24:52.468,10.009775,-6.2581286,1.0582259,-0.6685723,-0.11804623,2.0521414,1.4625001,50.737503,-3.1312501,-0.15903091,-0.7274421,0.5000329,1002.27856, , , , 
2025-11-24 20:24:52.487,10.739885,-6.17438,1.1946167,-0.5354076,-0.028251685,2.0429788,3.6937501,50.850002,-2.4,-0.17449741,-0.7271725,0.50421745,1002.27856,37.88745672,127.74020551,147.6051025390625,1.99
2025-11-24 20:24:52.507,11.587543,-6.006882,1.1802598,-0.37780902,0.070781924,1.9476864,5.7562504,50.831253,-1.725,-0.18914996,-0.72566295,0.5087182,1002.27856, , , , 
2025-11-24 20:24:52.527,12.48515,-5.7003016,1.015155,-0.17867282,0.16118732,1.8010831,7.2937503,50.68125,-1.06875,-0.20244153,-0.7229262,0.5135127,1002.27295, , , , 
2025-11-24 20:24:52.547,13.58884,-5.341378,0.42382872,-0.06139015,0.37192962,1.5084873,9.262501,50.268753,-0.4875,-0.21386816,-0.7192254,0.5182253,1002.27295, , , , 
2025-11-24 20:24:52.567,14.256737,-5.52084,0.18185452,-0.17500775,0.6828509,1.0375241,11.1,49.781254,-0.22500001,-0.22357959,-0.71538436,0.5208993,1002.2793, , , , 
2025-11-24 20:24:52.587,13.852349,-5.6356955,0.541077,-0.4010212,1.0652412,0.45714283,12.712501,49.406254,0.1875,-0.23176128,-0.7122412,0.51950055,1002.2793, , , , 
2025-11-24 20:24:52.607,13.090834,-6.2437716,1.4294125,-0.53785104,1.4616811,-0.16592139,14.00625,49.29375,0.58125,-0.24031594,-0.7090523,0.5115743,1002.2676, , , , 
2025-11-24 20:24:52.627,12.489936,-7.218249,2.1164517,-0.37536564,1.6357726,-0.6436039,14.6625,49.312504,0.91875005,-0.24501845,-0.7060296,0.50216264,1002.2676, , , , 
2025-11-24 20:24:52.647,11.72154,-8.314759,2.2791636,0.05283829,1.5594167,-0.9496384,14.906251,49.425003,1.7812501,-0.24653636,-0.701629,0.49292874,1002.26807, , , , 
2025-11-24 20:24:52.667,11.082358,-8.760123,2.1475582,0.6374191,1.1538141,-1.0217184,14.7375,49.3875,2.53125,-0.24410285,-0.6957513,0.48668197,1002.26807, , , , 
2025-11-24 20:24:52.687,10.909776,-8.338688,2.0733807,1.4438138,0.20150323,-1.0363787,13.650001,49.500004,2.9250002,-0.23639755,-0.68925446,0.4856573,1002.26294, , , , 
2025-11-24 20:24:52.707,11.240284,-7.457531,1.8290138,2.1163566,-0.89260054,-1.2807176,12.543751,49.725002,2.79375,-0.22031596,-0.68401337,0.4906569,1002.26294, , , , 
2025-11-24 20:24:52.727,11.333605,-6.7369924,1.5203397,2.4981363,-1.7997087,-1.7742822,11.34375,49.912502,2.15625,-0.1936682,-0.68168753,0.4996116,1002.26685, , , , 
2025-11-24 20:24:52.747,11.32164,-6.6484575,1.5059828,2.4761457,-2.358634,-2.3900926,9.900001,50.49375,0.16875,-0.14781886,-0.68322134,0.51070136,1002.26685, , , , 
2025-11-24 20:24:52.767,11.249856,-7.0316086,1.6615162,2.1377363,-2.278002,-2.90015,8.493751,50.718754,-2.325,-0.10578077,-0.68651533,0.51565444,1002.26685, , , , 
2025-11-24 20:24:52.787,11.132607,-7.5053873,1.7333009,1.771228,-1.9047744,-3.228786,7.5375004,50.625004,-3.6562502,-0.07403955,-0.6889051,0.5156922,1002.26685, , , , 
2025-11-24 20:24:52.807,10.682458,-8.644969,1.9462621,1.2171896,-0.9585721,-3.624615,3.8437502,50.250004,-7.55625,-0.025068626,-0.6904578,0.5084798,1002.26196, , , , 
2025-11-24 20:24:52.827,9.77498,-9.471091,1.8481563,0.98567843,-0.35322243,-3.768164,0.7875,49.74375,-9.46875,0.009263499,-0.68827784,0.49787804,1002.26196, , , , 
2025-11-24 20:24:52.847,9.071191,-9.679267,1.5634105,0.86778486,-0.20845163,-3.7266264,-2.4750001,49.331253,-10.875,0.04041795,-0.68416345,0.4850975,1002.2612, , , , 
2025-11-24 20:24:52.867,8.585149,-9.583553,1.2520444,0.75409096,-0.2365506,-3.5708604,-5.9625,48.693752,-12.3,0.069519766,-0.6794349,0.47139695,1002.2612, , , , 
2025-11-24 20:24:52.887,8.551649,-9.303594,1.0462617,0.48043138,-0.29152685,-3.2770429,-9.75,47.943752,-13.275001,0.10268947,-0.67424285,0.45364234,1002.2644, , , , 
2025-11-24 20:24:52.907,9.1669035,-8.73141,1.2640085,0.22692975,-0.16996825,-3.0388124,-13.312501,46.85625,-13.9875,0.12552047,-0.670681,0.43895572,1002.2644, , , , 
2025-11-24 20:24:52.927,9.437592,-8.700303,1.2831511,0.01007898,0.08177718,-3.0327039,-16.25625,45.525,-14.475,0.14542373,-0.6664352,0.42341036,1002.2634, , , , 
2025-11-24 20:24:52.947,9.212367,-8.7984085,1.4222339,-0.15423894,0.26686388,-3.1188333,-19.462502,44.325,-14.512501,0.16335727,-0.6611336,0.40623444,1002.2634, , , , 
2025-11-24 20:24:52.967,8.463115,-8.920443,1.5275182,-0.22631891,0.53136075,-3.1597602,-22.050001,42.99375,-14.400001,0.1798172,-0.6544391,0.38794583,1002.2627, , , , 
2025-11-24 20:24:52.987,7.433603,-8.949157,1.4724833,-0.1963874,0.7164475,-3.0730197,-24.750002,41.475002,-14.45625,0.19467981,-0.6460057,0.36964068,1002.2627, , , , 
2025-11-24 20:24:53.007,6.5551376,-8.568398,1.4294125,-0.09009997,0.8080746,-2.8396761,-27.431252,39.80625,-14.437501,0.2112097,-0.6338418,0.34838337,1002.2583, , , , 
2025-11-24 20:24:53.027,5.669195,-7.77129,1.4126626,0.051005747,0.7891383,-2.5935047,-29.531252,38.15625,-14.493751,0.22319812,-0.62347573,0.33350983,1002.2583, , , , 
2025-11-24 20:24:53.047,5.0276194,-7.254141,1.2879368,0.2043284,0.66574717,-2.3797083,-31.706251,36.300003,-15.000001,0.23493797,-0.61334574,0.3205395,1002.25146, , , , 
2025-11-24 20:24:53.067,4.6612186,-7.1081786,1.1850454,0.34176904,0.49226654,-2.220277,-33.037502,34.537502,-15.450001,0.24695738,-0.6039095,0.3090971,1002.25146, , , , 
2025-11-24 20:24:53.087,4.362116,-7.4048886,0.95054877,0.5036436,0.31817508,-2.0351903,-34.425003,32.71875,-16.368752,0.25939617,-0.595365,0.2989653,1002.2478, , , , 
2025-11-24 20:24:53.107,3.801896,-7.443174,0.5386842,0.5989357,0.21616358,-1.782834,-35.5125,30.768751,-17.025002,0.27181852,-0.5876838,0.29056457,1002.2478, , , , 
2025-11-24 20:24:53.127,3.1986058,-7.086643,0.2009971,0.6306998,0.13186665,-1.3949461,-36.487503,28.95,-17.550001,0.28319484,-0.5811524,0.284378,1002.2473, , , , 
2025-11-24 20:24:53.147,2.8465617,-6.7034926,-0.2105684,0.6026008,0.084220566,-0.8854995,-37.725002,27.243752,-17.643751,0.2923842,-0.5761508,0.2810688,1002.2473, , , , 
2025-11-24 20:24:53.167,3.2321053,-6.88774,-0.7109674,0.43583953,0.03771982,-0.2838149,-38.4375,26.081251,-17.962502,0.29940784,-0.57273996,0.28121704,1002.2532, , , , 
2025-11-24 20:24:53.187,3.6583266,-7.170392,-1.1228321,0.22692975,0.09827005,0.34719032,-38.850002,25.125002,-18.300001,0.30001366,-0.5723792,0.28481886,1002.2532, , , , 
2025-11-24 20:24:53.207,4.922335,-7.632506,-1.4270196,-0.010689827,0.029778805,0.96849835,-38.8875,24.243752,-18.35625,0.2955379,-0.5745766,0.29159683,1002.25586, , , , 
2025-11-24 20:24:53.227,6.3275204,-8.309974,-1.6854445,-0.24892026,-0.14981028,1.5604093,-38.86875,24.018751,-18.75,0.28660953,-0.57991993,0.300714,1002.25586, , , , 
2025-11-24 20:24:53.247,7.637292,-8.705089,-1.9534405,-0.54212695,-0.45095798,1.9440213,-38.7,24.35625,-18.525002,0.27408233,-0.588591,0.31111455,1002.25806, , , , 
2025-11-24 20:24:53.267,8.266903,-8.815159,-1.6399808,-0.937956,-0.8272399,2.214016,-38.15625,25.2,-18.487501,0.25854778,-0.6012313,0.32081914,1002.25806, , , , 
2025-11-24 20:24:53.287,8.633005,-8.621041,-0.19860429,-1.3081294,-1.0972344,2.5286021,-37.4625,26.643751,-18.35625,0.23449534,-0.62188655,0.33081084,1002.2473, , , , 
2025-11-24 20:24:53.307,9.303594,-8.029715,1.4700904,-1.3967023,-0.9854493,2.7521722,-36.54375,28.25625,-17.7,0.21177597,-0.6394846,0.338347,1002.2473, , , , 
2025-11-24 20:24:53.327,9.957133,-7.3809605,2.7939196,-1.2000095,-0.6183301,2.854184,-35.475002,30.0375,-16.575,0.1872214,-0.65434945,0.34719527,1002.25024, , , , 
2025-11-24 20:24:53.347,10.2682,-7.0097737,3.2656047,-0.7589777,-0.27320144,2.8664007,-34.40625,32.0625,-15.168751,0.16292945,-0.66502446,0.35841328,1002.25024, , , , 
2025-11-24 20:24:53.367,10.424033,-6.7226353,2.65035,-0.15790401,-0.022143213,2.8108137,-32.925003,34.5,-13.687501,0.14078608,-0.6714255,0.3726442,1002.25757, , , , 
2025-11-24 20:24:53.387,10.330414,-6.6077795,1.6184454,0.28129515,-0.014813046,2.7265167,-30.937502,36.80625,-12.50625,0.12180388,-0.6746358,0.38949785,1002.25757, , , , 
2025-11-24 20:24:53.407,9.997811,-6.5288167,0.5195416,0.49020493,-0.22250111,2.6599343,-29.175001,38.662502,-11.90625,0.10606275,-0.67665976,0.40770924,1002.25903, , , , 
2025-11-24 20:24:53.427,9.516555,-6.195915,-0.26081768,0.42973104,-0.4772244,2.6807032,-27.2625,40.425003,-11.868751,0.08912316,-0.6800831,0.43037677,1002.25903, , , , 
2025-11-24 20:24:53.447,9.337093,-5.6739807,-0.4884349,0.18966807,-0.5725166,2.7546158,-25.368752,41.775,-11.981251,0.0753947,-0.6841522,0.44731262,1002.2593, , , , 
2025-11-24 20:24:53.467,9.569197,-5.29083,-0.39750767,-0.105982,-0.5835118,2.7766063,-23.325,42.881252,-12.187501,0.060223367,-0.68917197,0.4622962,1002.2593, , , , 
2025-11-24 20:24:53.487,9.827921,-5.0395837,-0.19860429,-0.4046863,-0.5205946,2.6984177,-20.8875,44.1375,-12.243751,0.04380672,-0.69477576,0.47477806,1002.2583,37.88747425,127.74019335,147.44989013671875,1.11
2025-11-24 20:24:53.507,9.9140625,-5.0180483,-0.1268196,-0.65574455,-0.37948886,2.6000714,-18.50625,45.15,-11.887501,0.026348365,-0.70046735,0.48474774,1002.2583, , , , 
2025-11-24 20:24:53.527,10.086346,-5.1999025,-0.023928227,-0.9153546,-0.1913479,2.496838,-16.050001,46.068752,-11.493751,0.0076862182,-0.70604455,0.4921794,1002.2551, , , , 
2025-11-24 20:24:53.547,10.469497,-5.3219366,0.14117654,-1.1505308,0.070781924,2.364895,-13.70625,47.11875,-11.137501,-0.012388119,-0.711259,0.4970341,1002.2551, , , , 
2025-11-24 20:24:53.567,10.613066,-5.2453666,0.26081768,-1.3472236,0.37254047,2.1449902,-11.493751,48.075,-10.6125,-0.038964506,-0.71674085,0.49935704,1002.2527, , , , 
2025-11-24 20:24:53.587,10.620244,-5.425127,0.58893347,-1.465728,0.4281276,1.9470756,-9.1125,49.0125,-9.806251,-0.06066545,-0.7205318,0.49838102,1002.2527, , , , 
2025-11-24 20:24:53.607,10.577173,-5.465805,0.5985048,-1.4339639,0.4220191,1.7992506,-6.7875004,49.725002,-8.700001,-0.08137258,-0.72438395,0.4958415,1002.2534, , , , 
2025-11-24 20:24:53.627,10.830812,-5.3243294,1.0630114,-1.1462549,0.5771743,1.7228947,-4.55625,50.437504,-7.2562504,-0.10113312,-0.72658587,0.49369314,1002.2534, , , , 
2025-11-24 20:24:53.647,10.893026,-4.896014,1.3094722,-0.8090672,0.5099811,1.6483713,-2.4562502,50.7,-5.71875,-0.119457,-0.72680265,0.4928927,1002.2593, , , , 
2025-11-24 20:24:53.667,11.414961,-4.7114677,1.3429717,-0.46577105,0.37192962,1.5396405,-0.6,50.812504,-4.275,-0.13515364,-0.72567576,0.49399996,1002.2593, , , , 
2025-11-24 20:24:53.687,12.119048,-4.8122654,1.2017952,-0.117588095,0.2992388,1.3612732,1.2375001,51.037502,-3.3937502,-0.14750056,-0.72350645,0.49690115,1002.2571, , , , 
2025-11-24 20:24:53.707,12.293725,-5.130511,0.98883396,0.22570807,0.36948624,1.0546278,2.7375002,50.98125,-2.5687501,-0.15826507,-0.7188915,0.50240797,1002.2571, , , , 
2025-11-24 20:24:53.727,11.984752,-5.1592245,0.8979067,0.42362258,0.2693073,0.75164753,4.425,50.925003,-2.4,-0.16328801,-0.7143822,0.5071287,1002.2583, , , , 
2025-11-24 20:24:53.747,12.2171545,-5.343771,0.5195416,0.5842754,0.14897038,0.49135026,5.7562504,50.8875,-2.23125,-0.16508545,-0.7099965,0.5120157,1002.2583, , , , 
2025-11-24 20:24:53.767,12.195619,-5.5112686,0.043070808,0.6960605,0.052380152,0.16515782,6.7125,50.643753,-2.30625,-0.16367467,-0.70595866,0.5166978,1002.25757, , , , 
2025-11-24 20:24:53.786,11.972787,-5.3533425,-0.10289137,0.7186618,-1.5271181E-4,0.024662958,7.1062503,50.625004,-2.7,-0.16095333,-0.70324814,0.51983166,1002.25757, , , , 
2025-11-24 20:24:53.807,11.86511,-5.29083,-0.3472584,0.6685723,-0.1253764,-0.2813715,7.51875,50.5125,-3.61875,-0.15393095,-0.69977945,0.52393055,1002.2605, , , , 
2025-11-24 20:24:53.827,12.200404,-5.235795,-0.31375888,0.6172612,-0.23410721,-0.5147152,7.4062505,50.4,-4.4625,-0.14645971,-0.6980334,0.5258973,1002.2605, , , , 
2025-11-24 20:24:53.847,12.856337,-5.499305,-0.25603202,0.59649235,-0.43507597,-0.7761578,7.2375,50.5125,-5.0062504,-0.13429642,-0.69734925,0.526607,1002.2622, , , , 
2025-11-24 20:24:53.867,13.3639145,-5.8920264,0.02871387,0.5995466,-0.75943583,-1.1005177,6.80625,50.568752,-5.4375,-0.12104652,-0.6984535,0.5257595,1002.2622, , , , 
2025-11-24 20:24:53.887,13.624732,-6.133702,0.541077,0.60137916,-1.1479347,-1.4462572,6.0937505,50.550003,-5.9812503,-0.10367679,-0.70135427,0.5237406,1002.25757, , , , 
2025-11-24 20:24:53.907,13.682159,-6.387341,1.3310076,0.5628958,-1.3922737,-1.9159988,5.4187503,50.5125,-6.5437503,-0.08195892,-0.70582336,0.5202655,1002.25757, , , , 
2025-11-24 20:24:53.927,13.30888,-6.7298136,1.7979071,0.4694361,-1.2841537,-2.400477,4.03125,50.531254,-7.2937503,-0.056651138,-0.7107223,0.5145846,1002.2539, , , , 
2025-11-24 20:24:53.947,12.5449705,-7.333104,1.9872392,0.2935121,-0.93780327,-2.8616667,2.2125,50.625004,-8.118751,-0.029520601,-0.7148704,0.5057962,1002.2539, , , , 
2025-11-24 20:24:53.967,11.67847,-8.161619,1.9728823,0.08826743,-0.4381302,-3.2440572,0.15,50.625004,-8.793751,-0.0024154996,-0.717364,0.4935069,1002.2554, , , , 
2025-11-24 20:24:53.987,10.761421,-9.157332,1.8266209,-0.10781454,0.11476293,-3.508554,-2.5687501,50.812504,-9.39375,0.029157367,-0.7172646,0.47380894,1002.2554, , , , 
2025-11-24 20:24:54.006,10.000204,-9.542876,1.718944,-0.15607147,0.50509435,-3.548259,-5.45625,50.23125,-9.88125,0.05178905,-0.71437895,0.455925,1002.2578, , , , 
2025-11-24 20:24:54.027,9.420842,-9.104691,1.4389837,-0.09071082,0.8123505,-3.3753893,-8.231251,49.518753,-10.087501,0.07182462,-0.7090224,0.4382127,1002.2578, , , , 
2025-11-24 20:24:54.046,8.927621,-8.211868,1.0175478,0.051005747,1.1831348,-3.1658685,-11.325001,48.581253,-10.06875,0.089255646,-0.70093524,0.4219586,1002.25854, , , , 
2025-11-24 20:24:54.067,8.348259,-7.637292,0.62721866,0.19333316,1.214288,-3.1053948,-14.531251,47.325,-10.25625,0.10533555,-0.69066894,0.40680683,1002.25854, , , , 
2025-11-24 20:24:54.087,7.912466,-7.510173,0.33050862,0.281906,1.0346988,-3.1072273,-17.737501,46.256252,-10.25625,0.12188828,-0.6798502,0.39198935,1002.25854, , , , 
2025-11-24 20:24:54.106,7.3522468,-7.4192457,0.18903299,0.34115818,0.77692133,-2.9832253,-20.868752,45.018753,-10.425,0.13928059,-0.66954833,0.37722635,1002.25854, , , , 
2025-11-24 20:24:54.127,6.9595246,-7.160821,-0.05503492,0.29045787,0.6675797,-2.7358322,-23.60625,43.59375,-10.96875,0.16041352,-0.65779376,0.35985726,1002.26294, , , , 
2025-11-24 20:24:54.147,6.9332037,-6.8039913,-0.043070808,0.18661384,0.65291935,-2.4640052,-25.987501,42.09375,-11.587501,0.17505942,-0.6490852,0.34702215,1002.26294, , , , 
2025-11-24 20:24:54.167,6.7872415,-6.3945193,0.10767702,0.10109522,0.61138177,-2.2612038,-27.6,40.425003,-12.468751,0.187569,-0.6409025,0.33481246,1002.2617, , , , 
2025-11-24 20:24:54.187,6.6915283,-5.9805613,0.31136605,0.02779355,0.4776062,-2.1072702,-29.362501,38.4,-13.25625,0.19875194,-0.6334907,0.3228842,1002.2617, , , , 
2025-11-24 20:24:54.206,6.5694947,-5.72423,0.4668995,-0.041843038,0.38475743,-2.0076258,-30.956251,36.768753,-13.687501,0.20910195,-0.6269941,0.3109653,1002.2654, , , , 
2025-11-24 20:24:54.226,6.4570317,-5.64766,0.63918275,-0.095597595,0.338333,-1.9349351,-32.268753,35.100002,-14.08125,0.2186242,-0.6211034,0.29899788,1002.2654, , , , 
2025-11-24 20:24:54.247,6.4666033,-6.2437716,0.5769694,-0.14324369,0.32794863,-1.8579683,-33.825,33.862503,-14.025001,0.22738141,-0.61549175,0.28709638,1002.27, , , , 
2025-11-24 20:24:54.267,6.2437716,-6.8015985,0.4668995,-0.19944163,0.3187859,-1.7260253,-34.78125,32.775,-13.931251,0.23685022,-0.6088542,0.27268803,1002.27, , , , 
2025-11-24 20:24:54.287,5.671588,-6.9020967,0.40947178,-0.24647687,0.30656898,-1.4639719,-35.850002,31.181252,-14.118751,0.24256717,-0.60421705,0.26222616,1002.27295, , , , 
2025-11-24 20:24:54.307,5.1496534,-6.502496,0.48125646,-0.28740364,0.30534726,-1.0760838,-36.862503,29.868752,-14.19375,0.24605407,-0.6003768,0.25361127,1002.27295, , , , 
2025-11-24 20:24:54.326,4.6564326,-5.951847,0.60329044,-0.2843494,0.27480492,-0.71629477,-37.706253,28.66875,-14.6625,0.24736345,-0.5974018,0.24714208,1002.2742, , , , 
2025-11-24 20:24:54.347,5.020441,-6.3083777,0.6678966,-0.21471281,0.13431004,-0.35772744,-38.381252,27.656252,-14.868751,0.2469277,-0.595693,0.2430396,1002.2742, , , , 
2025-11-24 20:24:54.367,5.171189,-6.658029,0.45732823,-0.044897273,0.038941514,0.09185616,-38.737503,26.868752,-14.887501,0.24514416,-0.59570426,0.24181518,1002.2754, , , , 
2025-11-24 20:24:54.387,6.076274,-6.954739,-0.047856454,0.18172707,-0.14064758,0.669794,-38.775,26.437502,-15.01875,0.24103951,-0.59791625,0.24632527,1002.2754, , , , 
2025-11-24 20:24:54.406,7.048358,-7.038787,-0.80189466,0.29534465,-0.36482853,1.0772291,-38.4,26.1375,-14.75625,0.23668191,-0.60214037,0.25424916,1002.2771, , , , 
2025-11-24 20:24:54.427,7.8909307,-7.1345,-1.4964114,0.2367033,-0.6140542,1.3667707,-38.7,26.41875,-14.962501,0.23139462,-0.60862494,0.26439908,1002.2771, , , , 
2025-11-24 20:24:54.447,8.420044,-7.136893,-1.9199411,-0.03451287,-0.8254074,1.5469707,-38.625,26.962502,-15.093751,0.2245534,-0.61757284,0.27469218,1002.27344, , , , 
2025-11-24 20:24:54.467,8.223832,-6.780063,-1.8481563,-0.4987568,-0.7985301,1.8151326,-38.568752,27.825,-14.85,0.21456641,-0.6282377,0.28407618,1002.27344, , , , 
2025-11-24 20:24:54.487,8.219047,-6.5431733,-1.2616158,-0.909857,-0.6543701,2.1003983,-38.381252,28.893751,-14.7375,0.19987322,-0.63955885,0.29270336,1002.2678,37.88748776,127.74018203,146.76025390625,1.04
2025-11-24 20:24:54.506,8.67129,-6.3921266,-0.57457656,-1.193901,-0.52548134,2.3587866,-37.425003,30.13125,-13.856251,0.18050273,-0.6510632,0.3007908,1002.2678, , , , 
2025-11-24 20:24:54.527,9.298808,-6.404091,0.06460621,-1.2922474,-0.3929275,2.553647,-36.28125,31.9125,-12.900001,0.15168346,-0.66481155,0.31080806,1002.27, , , , 
2025-11-24 20:24:54.547,9.669696,-6.502496,0.44536412,-1.2171131,-0.27503398,2.6116774,-34.85625,33.375,-12.0375,0.1271386,-0.6744684,0.31919137,1002.27, , , , 
2025-11-24 20:24:54.567,9.576375,-6.7441707,0.663111,-1.0436325,-0.15286453,2.5915196,-33.24375,35.23125,-10.856251,0.102811016,-0.6823037,0.32830375,1002.2661, , , , 
2025-11-24 20:24:54.587,9.439984,-6.8398833,0.91226363,-0.8524374,-0.12171131,2.4882863,-31.368752,36.881252,-9.65625,0.07978568,-0.6884062,0.3379396,1002.2661, , , , 
2025-11-24 20:24:54.607,9.123833,-6.6771717,0.91226363,-0.6135961,-0.09544489,2.4021568,-29.475,38.5125,-8.793751,0.058631662,-0.69317275,0.34800646,1002.2717, , , , 
2025-11-24 20:24:54.627,9.066405,-6.399305,0.96490574,-0.40346462,-0.06306998,2.361841,-27.750002,40.66875,-7.5937505,0.039082974,-0.6964658,0.35895997,1002.2717, , , , 
2025-11-24 20:24:54.647,9.135797,-6.006882,0.90508515,-0.22937314,-0.019088976,2.306254,-25.968752,42.225002,-6.9750004,0.021119803,-0.6984664,0.37071037,1002.27637, , , , 
2025-11-24 20:24:54.667,9.310772,-5.683552,0.6511469,-0.10903624,0.08483142,2.2366173,-24.16875,43.8375,-6.58125,0.004481451,-0.69912875,0.38292557,1002.27637, , , , 
2025-11-24 20:24:54.687,9.38495,-5.439484,0.2105684,-0.05283829,0.20883341,2.1339948,-22.237501,45.112503,-5.9625,-0.015055335,-0.69816226,0.39805162,1002.271, , , , 
2025-11-24 20:24:54.707,9.128618,-5.439484,-0.22731815,-0.073607095,0.20333578,2.0448112,-19.85625,45.825,-6.05625,-0.029994098,-0.696739,0.40931177,1002.271, , , , 
2025-11-24 20:24:54.727,8.786445,-5.547161,-0.7085746,-0.19333316,0.06161922,2.06558,-17.868752,46.48125,-5.6625004,-0.044710387,-0.69584155,0.4196881,1002.2634, , , , 
2025-11-24 20:24:54.746,8.822337,-5.6189456,-0.84765744,-0.3967453,-0.11682454,2.1706457,-15.806251,47.193752,-5.6625004,-0.060017183,-0.6962024,0.42929015,1002.2634, , , , 
2025-11-24 20:24:54.766,9.032906,-5.496912,-0.4621139,-0.61970454,-0.282975,2.32519,-13.968751,47.943752,-5.6062503,-0.07655764,-0.6980698,0.43799314,1002.2661, , , , 
2025-11-24 20:24:54.787,9.569197,-5.532804,-0.009571291,-0.7510367,-0.39476004,2.4149847,-12.95625,48.35625,-5.4187503,-0.089833565,-0.7002654,0.44399473,1002.2661, , , , 
2025-11-24 20:24:54.807,10.337592,-5.432306,0.8282157,-0.80051535,-0.5114319,2.4833996,-9.450001,49.406254,-4.8187504,-0.117188,-0.70538694,0.455026,1002.2676, , , , 
2025-11-24 20:24:54.827,10.7590275,-5.130511,1.6280167,-0.625813,-0.6824691,2.480956,-6.95625,49.74375,-4.14375,-0.13460842,-0.70837504,0.46263048,1002.2676, , , , 
2025-11-24 20:24:54.846,11.520544,-4.965406,1.8744774,-0.37047887,-0.8321267,2.4119303,-4.40625,50.175003,-3.6375,-0.14958017,-0.71070737,0.47155595,1002.27026, , , , 
2025-11-24 20:24:54.867,12.276975,-5.022834,1.7380866,-0.18417045,-0.8095253,2.2586076,-2.4375,50.475002,-2.8125,-0.16186863,-0.71212715,0.4813598,1002.27026, , , , 
2025-11-24 20:24:54.887,13.01187,-4.9438705,1.5155541,-0.022295926,-0.6812474,2.0258749,-0.28125,50.643753,-2.0625,-0.17208259,-0.7125267,0.49102172,1002.2722, , , , 
2025-11-24 20:24:54.907,13.622339,-4.8242297,1.1324034,0.09132166,-0.49310645,1.7644323,1.8000001,50.831253,-1.4625001,-0.18043445,-0.7118718,0.50010306,1002.2722, , , , 
2025-11-24 20:24:54.927,14.204094,-4.5320063,0.622433,0.10964708,-0.20356485,1.4553436,3.9750001,50.850002,-1.0125,-0.18726997,-0.71025616,0.50791466,1002.2722, , , , 
2025-11-24 20:24:54.947,14.769099,-4.5798626,0.33050862,0.025961008,-0.03863609,0.9501729,5.8875003,50.718754,-0.8625,-0.1928097,-0.708387,0.51321393,1002.2722, , , , 
2025-11-24 20:24:54.968,14.790635,-4.4578285,0.26799613,-0.057725064,-0.0019852535,0.5451048,7.65,50.343754,-0.975,-0.19653817,-0.7073021,0.51563865,1002.27, , , , 
2025-11-24 20:24:54.987,14.864813,-4.7138605,0.581755,-0.1279725,-0.003206948,-0.003436016,8.90625,50.381252,-1.35,-0.1964858,-0.70776755,0.5146013,1002.27, , , , 
2025-11-24 20:24:55.006,14.740386,-5.130511,0.96490574,-0.09315421,0.021226943,-0.57885414,9.4875,50.062504,-1.3687501,-0.19302864,-0.70917195,0.51134765,1002.26953, , , , 
2025-11-24 20:24:55.027,14.498711,-5.8968124,1.4557334,0.03939965,0.03771982,-1.079138,10.293751,49.912502,-1.5375,-0.18603802,-0.7108455,0.5064483,1002.26953, , , , 
2025-11-24 20:24:55.047,14.09881,-6.567102,1.730908,0.2727433,-0.023975754,-1.5177264,10.181251,50.081253,-1.6125001,-0.17520805,-0.7122902,0.50068635,1002.26636, , , , 
2025-11-24 20:24:55.067,13.512269,-7.0579295,1.9366908,0.62886727,-0.19562383,-1.9520388,9.712501,49.987503,-1.63125,-0.15567964,-0.71340746,0.4936668,1002.26636, , , , 
2025-11-24 20:24:55.087,12.9688,-7.342675,1.9510478,0.9105442,-0.34955734,-2.2740316,8.56875,50.081253,-1.9687501,-0.14047557,-0.71362585,0.4899786,1002.26294, , , , 
2025-11-24 20:24:55.107,12.224333,-7.7234335,1.6567305,1.12373,-0.42102647,-2.6955163,6.9,50.250004,-2.2125,-0.109521195,-0.71330214,0.48401538,1002.26294, , , , 
2025-11-24 20:24:55.127,11.407782,-8.140083,1.3477573,1.1530505,-0.3141282,-2.9820037,4.96875,50.381252,-2.775,-0.08155883,-0.71216863,0.47818977,1002.2634, , , , 
2025-11-24 20:24:55.147,10.711171,-8.7984085,1.0319048,1.047374,-0.100331664,-3.184194,2.5687501,50.2125,-3.6000001,-0.05296299,-0.7099314,0.4707299,1002.2634, , , , 
2025-11-24 20:24:55.167,10.289736,-9.475877,1.2352947,0.9258154,0.07505786,-3.3295758,-0.01875,50.081253,-4.78125,-0.025036559,-0.70663416,0.46121472,1002.2661, , , , 
2025-11-24 20:24:55.187,9.686445,-10.043275,1.7428722,0.9923977,0.055434387,-3.3918822,-3.05625,50.156254,-5.8875003,0.00229193,-0.7021863,0.4501527,1002.2661, , , , 
2025-11-24 20:24:55.207,8.987442,-10.2682,1.9824536,1.1561048,-0.13514996,-3.33263,-6.3562503,49.3875,-7.3125005,0.030075647,-0.6969725,0.43931013,1002.2622, , , , 
2025-11-24 20:24:55.227,7.701898,-9.801301,1.4796617,1.1927556,-0.17241164,-3.1060057,-9.8625,48.43125,-8.606251,0.065256275,-0.68985385,0.42746803,1002.2622, , , , 
2025-11-24 20:24:55.247,6.9762745,-9.008977,0.933799,0.95819026,-0.009315421,-2.7633202,-13.06875,47.568752,-9.637501,0.090565845,-0.68370754,0.41914874,1002.2649, , , , 
2025-11-24 20:24:55.267,6.6939216,-7.9363947,0.811466,0.5995466,0.19722731,-2.4585075,-16.21875,46.0875,-10.743751,0.11116141,-0.6774444,0.41064933,1002.2649, , , , 
2025-11-24 20:24:55.287,6.725028,-7.251748,1.07019,0.25930467,0.23937577,-2.2819726,-19.10625,44.756252,-11.793751,0.12765065,-0.6717548,0.4009325,1002.27075, , , , 
2025-11-24 20:24:55.307,6.882954,-7.012167,1.3477573,0.11880979,0.19783816,-2.232494,-21.300001,43.800003,-12.3,0.1418523,-0.66680396,0.389897,1002.27075, , , , 
2025-11-24 20:24:55.327,6.937989,-6.98106,1.448555,0.12552911,0.13553174,-2.2312722,-23.41875,42.45,-12.637501,0.15535156,-0.6622111,0.37813267,1002.27, , , , 
2025-11-24 20:24:55.347,6.629315,-6.8111696,1.3190435,0.1719535,0.06956023,-2.2153902,-25.3875,41.11875,-13.218751,0.1690678,-0.6576437,0.36627224,1002.27, , , , 
2025-11-24 20:24:55.367,6.349056,-6.602994,1.0989038,0.15301724,0.032222193,-2.1384234,-27.000002,40.18125,-13.181251,0.18279327,-0.6531906,0.35469216,1002.2698, , , , 
2025-11-24 20:24:55.387,6.2054863,-6.5048885,1.0031909,0.10353861,0.10071344,-2.0614567,-28.781252,38.7,-13.44375,0.19889492,-0.6475951,0.34049085,1002.2698, , , , 
2025-11-24 20:24:55.407,5.872585,-6.4471617,0.88354975,0.07727218,0.22715883,-1.9917438,-30.487501,37.275,-13.35,0.21055937,-0.6424639,0.3294717,1002.26587, , , , 
2025-11-24 20:24:55.427,5.453841,-6.332306,0.689432,0.033291176,0.36154523,-1.9141662,-31.837502,36.0,-13.406251,0.22102636,-0.6365566,0.3189196,1002.26587, , , , 
2025-11-24 20:24:55.448,5.432306,-6.8255267,0.5841478,0.008857286,0.40858045,-1.8280368,-33.300003,34.331253,-13.781251,0.2303054,-0.6302052,0.30871063,1002.2693, , , , 
2025-11-24 20:24:55.467,5.276473,-7.2565336,0.325723,0.06688777,0.38658994,-1.691207,-34.631252,33.05625,-13.931251,0.23883419,-0.6239785,0.2990524,1002.2693, , , , 
2025-11-24 20:24:55.487,4.7162533,-7.187142,-0.03589234,0.092543356,0.37620556,-1.4199908,-35.49375,31.81875,-14.493751,0.24643685,-0.6181091,0.29093042,1002.2671,37.88748776,127.74018203,146.76025390625,1.04
2025-11-24 20:24:55.507,4.0005,-6.643672,-0.23688944,0.022295926,0.33588964,-0.9765157,-36.35625,30.35625,-14.793751,0.25312972,-0.6120412,0.28374472,1002.2671, , , , 
2025-11-24 20:24:55.527,4.2352962,-6.8614187,-0.23688944,-0.05283829,0.2100551,-0.579465,-37.350002,29.23125,-14.75625,0.2555472,-0.60905015,0.28024793,1002.26733, , , , 
2025-11-24 20:24:55.547,4.45065,-7.1823564,-0.5171488,-0.095597595,0.13797513,-0.12132954,-37.631252,28.406252,-15.150001,0.2553116,-0.6080548,0.27895942,1002.26733, , , , 
2025-11-24 20:24:55.567,5.044369,-7.433603,-0.7612167,-0.13896775,0.056045234,0.41132927,-38.04375,27.487501,-15.0375,0.2519171,-0.6089131,0.28072754,1002.2754, , , , 
2025-11-24 20:24:55.587,6.207879,-7.9914293,-1.1084751,-0.18844637,-0.11804623,0.9513946,-38.23125,27.16875,-14.83125,0.24553156,-0.6120645,0.28537005,1002.2754, , , , 
2025-11-24 20:24:55.607,7.1823564,-8.286046,-1.5418751,-0.26419145,-0.27686653,1.3850962,-37.987503,27.45,-14.83125,0.23652007,-0.61748785,0.29242826,1002.2688, , , , 
2025-11-24 20:24:55.627,7.9340014,-8.333902,-1.867299,-0.43461782,-0.46195325,1.7363334,-37.800003,28.050001,-14.493751,0.2249771,-0.625231,0.30112922,1002.2688, , , , 
2025-11-24 20:24:55.647,7.8335032,-7.8957167,-1.7548363,-0.70522314,-0.559078,2.0362594,-37.331253,29.00625,-14.475,0.21065828,-0.6349851,0.31031254,1002.26245, , , , 
2025-11-24 20:24:55.667,7.670791,-7.66122,-1.0941181,-1.0369133,-0.67513895,2.3636734,-36.7125,30.468752,-14.325001,0.18805835,-0.6494752,0.3213906,1002.26245, , , , 
2025-11-24 20:24:55.687,7.637292,-7.632506,-0.325723,-1.2140589,-0.722785,2.6837575,-35.775,31.931252,-13.6125,0.16612487,-0.66244495,0.33008295,1002.2615, , , , 
2025-11-24 20:24:55.707,8.178369,-7.9507513,0.45254257,-1.1639694,-0.6971294,2.9910135,-34.55625,33.61875,-12.637501,0.14137761,-0.67537606,0.3398014,1002.2615, , , , 
2025-11-24 20:24:55.727,9.030513,-8.070393,0.90508515,-0.8255601,-0.6592569,3.2365742,-32.850002,35.60625,-11.325001,0.115514584,-0.6869693,0.35177955,1002.26514, , , , 
2025-11-24 20:24:55.747,9.70798,-7.8741813,0.84017986,-0.40957308,-0.62749285,3.2775009,-30.862501,37.55625,-10.03125,0.090689875,-0.6963845,0.3664788,1002.26514, , , , 
2025-11-24 20:24:55.767,10.237094,-7.6779695,0.4214359,-0.027182704,-0.5902312,3.1443362,-28.500002,39.61875,-9.09375,0.06858902,-0.70327115,0.38320127,1002.2622, , , , 
2025-11-24 20:24:55.788,10.328021,-7.325926,0.0047856453,0.18233791,-0.5554129,3.001398,-27.2625,40.65,-8.53125,0.054180875,-0.70690066,0.39640772,1002.2622, , , , 
2025-11-24 20:24:55.807,10.055239,-6.6101727,-0.62482584,0.32100025,-0.45401222,2.7533941,-23.8125,43.125,-7.9687505,0.029698705,-0.71129256,0.4226855,1002.2612, , , , 
2025-11-24 20:24:55.827,9.743873,-6.076274,-0.933799,0.23303823,-0.2664821,2.593352,-21.206251,44.475002,-7.4625,0.014808373,-0.7126847,0.4388411,1002.2612, , , , 
2025-11-24 20:24:55.847,9.442377,-5.7696934,-1.0630114,0.022906773,-0.016034741,2.4247582,-18.65625,45.693752,-7.425,-4.0071248E-4,-0.71313936,0.45281684,1002.26733, , , , 
2025-11-24 20:24:55.867,9.044869,-5.688338,-0.96490574,-0.273965,0.28824356,2.2598295,-16.3125,46.800003,-7.7812505,-0.016743515,-0.7129787,0.46400112,1002.26733, , , , 
2025-11-24 20:24:55.887,8.85823,-5.8677993,-0.7851449,-0.5170822,0.5179221,2.1620939,-13.9875,47.53125,-7.7625003,-0.03470689,-0.71235436,0.472439,1002.26465, , , , 
2025-11-24 20:24:55.907,8.851051,-6.033203,-0.68464637,-0.7040015,0.66452545,2.0826838,-11.868751,48.225002,-7.89375,-0.05417824,-0.71145874,0.47852835,1002.26465, , , , 
2025-11-24 20:24:55.927,8.863015,-6.0714884,-0.68225354,-0.8335011,0.7445465,1.9751747,-9.69375,48.862503,-7.4812503,-0.07447071,-0.71042305,0.4826457,1002.26807, , , , 
2025-11-24 20:24:55.947,8.705089,-5.8944197,-0.7540382,-0.94895124,0.6547519,1.7968072,-7.74375,49.237503,-6.7125,-0.09462269,-0.709636,0.48483777,1002.26807, , , , 
2025-11-24 20:24:55.967,8.52772,-6.2844496,-0.7085746,-1.0827267,0.32000762,1.541473,-5.45625,49.93125,-5.9437504,-0.11750815,-0.7105856,0.48468095,1002.2612, , , , 
2025-11-24 20:24:55.987,8.355437,-6.6771717,-0.325723,-1.1761864,0.035887275,1.4864968,-3.5062501,50.550003,-5.08125,-0.13365999,-0.7134804,0.48308542,1002.2612, , , , 
2025-11-24 20:24:56.007,8.17119,-6.7848487,0.23688944,-1.1615261,-0.048409645,1.6599774,-1.9125,50.718754,-4.1625004,-0.14936434,-0.7169635,0.48185295,1002.26, , , , 
2025-11-24 20:24:56.027,8.542078,-6.8303123,0.61046886,-1.0918895,-0.033749312,1.8530052,-0.075,50.86875,-3.35625,-0.16592853,-0.7196809,0.48180553,1002.26, , , , 
2025-11-24 20:24:56.047,9.394521,-6.983453,0.68464637,-0.9892671,-0.022143213,1.9409672,1.44375,50.831253,-2.25,-0.18304059,-0.72136086,0.48278224,1002.25977, , , , 
2025-11-24 20:24:56.067,10.261022,-7.004988,0.63918275,-0.8481614,-0.004428643,1.9403564,3.24375,50.79375,-1.125,-0.19980697,-0.7220565,0.48442817,1002.25977, , , , 
2025-11-24 20:24:56.087,11.19482,-7.0268226,0.63918275,-0.60137916,-0.107050985,1.8664438,5.30625,50.718754,0.075,-0.21903624,-0.721607,0.4875467,1002.2671, , , , 
2025-11-24 20:24:56.107,11.855539,-6.775277,0.4764708,-0.3594836,-0.26892552,1.7662648,7.1062503,50.643753,1.06875,-0.23180461,-0.7205702,0.49143857,1002.2671, , , , 
2025-11-24 20:24:56.127,13.007085,-6.6532435,0.13878371,-0.21104772,-0.4497363,1.5390297,8.981251,50.250004,2.0062501,-0.241586,-0.7195615,0.49619323,1002.26685, , , , 
2025-11-24 20:24:56.147,13.6199465,-6.4761744,-0.05503492,-0.17561859,-0.554802,1.126097,10.650001,49.612503,2.4750001,-0.24757226,-0.71958584,0.5002803,1002.26685, , , , 
2025-11-24 20:24:56.167,13.591232,-6.073881,0.14117654,-0.22326468,-0.52914643,0.62146074,12.0,49.537502,2.5687501,-0.25007138,-0.72087854,0.50265235,1002.26514, , , , 
2025-11-24 20:24:56.187,13.414164,-5.9757752,0.52911294,-0.26663482,-0.42469156,0.12056598,13.2375,49.218754,3.075,-0.24960168,-0.723314,0.5027253,1002.26514, , , , 
2025-11-24 20:24:56.207,12.990335,-6.1504517,1.2281163,-0.19699824,-0.22860959,-0.41575792,14.08125,48.956253,3.075,-0.24504958,-0.7271294,0.49980187,1002.2615, , , , 
2025-11-24 20:24:56.227,12.736696,-6.5838513,1.6591234,0.030236939,-0.034971006,-0.823193,14.306251,48.91875,3.1875002,-0.23840111,-0.72954154,0.49632797,1002.2615, , , , 
2025-11-24 20:24:56.247,12.609577,-6.9619174,1.8074784,0.37780902,0.070781924,-1.2306281,14.2875,48.54375,3.4125001,-0.22874531,-0.7305866,0.4929979,1002.2637, , , , 
2025-11-24 20:24:56.267,12.363116,-7.282855,1.7285153,0.80418044,0.040163208,-1.7412964,13.81875,48.7125,3.1125002,-0.21497951,-0.73042196,0.49030924,1002.2637, , , , 
2025-11-24 20:24:56.287,12.030215,-7.929216,1.5155541,1.0937984,-0.09544489,-2.1836262,13.1625,49.0125,2.71875,-0.19635238,-0.7295447,0.48816252,1002.26196, , , , 
2025-11-24 20:24:56.307,11.5468645,-8.729017,1.2664014,1.1121238,-0.21822518,-2.4530098,11.75625,49.425003,1.95,-0.17349419,-0.7287465,0.48587143,1002.26196, , , , 
2025-11-24 20:24:56.327,11.146964,-8.989835,1.5849459,0.86526513,-0.08933641,-2.4994342,9.88125,49.93125,1.0125,-0.14936987,-0.7284779,0.4822738,1002.2617, , , , 
2025-11-24 20:24:56.347,11.192428,-9.209974,2.612065,0.61603945,0.3029039,-2.6154952,7.5375004,50.325,-0.01875,-0.121551156,-0.72755724,0.47445083,1002.2617, , , , 
2025-11-24 20:24:56.367,10.893026,-8.941978,3.3086755,0.6306998,0.6071058,-2.8531148,4.875,50.625004,-1.0500001,-0.10061735,-0.7248841,0.46571714,1002.2688, , , , 
2025-11-24 20:24:56.387,10.660922,-9.294023,3.3900316,0.79929364,0.6981221,-3.2972007,2.625,50.68125,-1.7625,-0.07806402,-0.7204184,0.45517567,1002.2688, , , , 
2025-11-24 20:24:56.407,9.942777,-10.06481,3.0284162,1.1328926,0.6309289,-3.7229614,-0.01875,50.625004,-2.5875,-0.051839467,-0.71431684,0.4434349,1002.26, , , , 
2025-11-24 20:24:56.426,9.092726,-10.627422,2.4562325,1.4523658,0.36337775,-3.856737,-2.79375,50.362503,-3.525,-0.022069925,-0.70690954,0.43184024,1002.26, , , , 
2025-11-24 20:24:56.447,8.482257,-10.562817,1.7261224,1.6582212,0.046271678,-3.7736616,-6.1125,49.85625,-4.5375004,0.010392337,-0.6991761,0.42146498,1002.2632, , , , 
2025-11-24 20:24:56.467,7.9890366,-10.091131,0.91226363,1.6209595,-0.041690327,-3.6264474,-9.806251,49.10625,-5.925,0.052049913,-0.6893801,0.40998298,1002.2632, , , , 
2025-11-24 20:24:56.487,7.52453,-9.514162,0.45014977,1.4047196,0.0053449133,-3.5177166,-13.087501,47.737503,-7.4062505,0.08383055,-0.6812869,0.40026152,1002.2637,37.88750372,127.74017484,146.3896484375,1.21
2025-11-24 20:24:56.506,7.349854,-9.092726,0.17706887,1.123119,0.11415208,-3.4010448,-16.575,46.575,-8.56875,0.11297777,-0.6730456,0.3892381,1002.2637, , , , 
2025-11-24 20:24:56.526,6.9619174,-8.839087,0.20578274,0.8971056,0.3016822,-3.2990334,-19.85625,45.075,-9.900001,0.13907002,-0.6642121,0.37690425,1002.26, , , , 
2025-11-24 20:24:56.547,6.4905314,-8.479864,0.31375888,0.77730316,0.44462046,-3.108449,-22.9125,43.518753,-11.0625,0.16224584,-0.65457666,0.3640719,1002.26, , , , 
2025-11-24 20:24:56.566,6.346663,-8.134998,0.15553348,0.76936215,0.49165568,-2.9300816,-25.875002,41.943752,-12.1125,0.18323217,-0.64432037,0.3516848,1002.2739, , , , 
2025-11-24 20:24:56.587,6.0858455,-7.8000035,0.05503492,0.793796,0.48249298,-2.8231833,-28.181252,39.6375,-13.1625,0.2030047,-0.63372445,0.33996606,1002.2739, , , , 
2025-11-24 20:24:56.607,5.6524453,-7.52453,-0.06460621,0.8493831,0.32061845,-2.7315562,-30.093752,37.443752,-13.70625,0.22738016,-0.620649,0.3257991,1002.2739, , , , 
2025-11-24 20:24:56.627,5.4634123,-7.622935,-0.29461628,0.8286143,0.13858597,-2.6228254,-31.837502,35.23125,-14.512501,0.24202679,-0.6134286,0.31748492,1002.2739, , , , 
2025-11-24 20:24:56.647,5.482555,-8.017751,-0.42622152,0.801737,-0.04718795,-2.492715,-33.600002,33.037502,-15.075001,0.2658006,-0.603004,0.30369663,1002.2683, , , , 
2025-11-24 20:24:56.667,5.003691,-8.058429,-0.55064833,0.81578654,-0.14492351,-2.1622465,-35.325,30.91875,-15.8625,0.28367883,-0.5960621,0.29346994,1002.2683, , , , 
2025-11-24 20:24:56.687,4.034,-7.199106,-0.7588239,0.7821899,-0.1937913,-1.6728816,-36.73125,28.95,-16.3875,0.2993623,-0.59031075,0.28562596,1002.26416, , , , 
2025-11-24 20:24:56.707,3.4594233,-6.248557,-1.0223335,0.64047337,-0.23288552,-1.091355,-37.8375,26.98125,-16.9125,0.3118273,-0.5864001,0.28072405,1002.26416, , , , 
2025-11-24 20:24:56.727,3.897609,-5.860621,-1.1371889,0.4199575,-0.21394925,-0.52021277,-38.756252,25.10625,-17.19375,0.3199902,-0.58463556,0.27867514,1002.2634, , , , 
2025-11-24 20:24:56.746,4.54397,-6.006882,-1.2329018,0.27579755,-0.06734591,-0.001603474,-39.412502,23.8125,-17.325,0.32360965,-0.58465135,0.2791818,1002.2634, , , , 
2025-11-24 20:24:56.767,5.439484,-6.093024,-1.6304095,0.20066333,0.084220566,0.62818,-40.068752,22.81875,-17.681252,0.32203153,-0.5859702,0.2846964,1002.2595, , , , 
2025-11-24 20:24:56.786,6.4570317,-6.2748785,-1.9534405,0.17806198,0.011453386,0.96972,-40.21875,22.40625,-17.6625,0.31859288,-0.5880255,0.2904055,1002.2595, , , , 
2025-11-24 20:24:56.806,7.596614,-6.5072813,-2.6575286,0.13163759,-0.30740887,1.3973131,-40.631252,22.143751,-18.150002,0.31064886,-0.59459174,0.30218995,1002.26025, , , , 
2025-11-24 20:24:56.827,8.134998,-6.799206,-3.1387851,-0.12003148,-0.8009735,1.6392087,-40.631252,22.3125,-18.0,0.30303943,-0.60363764,0.31178167,1002.26025, , , , 
2025-11-24 20:24:56.847,7.9387875,-6.8015985,-2.9015965,-0.4694361,-1.1919158,1.9104248,-40.275,22.95,-17.98125,0.29362658,-0.61674666,0.31985357,1002.2622, , , , 
2025-11-24 20:24:56.867,8.2094755,-6.686743,-2.2169502,-0.7962394,-1.4612993,2.2769332,-39.956253,24.112501,-17.475,0.28099602,-0.63355964,0.32668558,1002.2622, , , , 
2025-11-24 20:24:56.887,8.836694,-6.579066,-1.4198412,-1.0479084,-1.5627,2.6605453,-39.15,25.63125,-16.556252,0.260041,-0.6578236,0.3346692,1002.2617, , , , 
2025-11-24 20:24:56.907,9.463913,-6.5048885,-0.74207413,-1.1083823,-1.5181081,2.9280963,-38.23125,27.581251,-15.58125,0.23974138,-0.67781407,0.3414399,1002.2617, , , , 
2025-11-24 20:24:56.927,10.079167,-6.349056,-0.2009971,-1.0118685,-1.3611205,3.0844731,-37.237503,29.85,-13.950001,0.2175024,-0.6965957,0.3492487,1002.26514, , , , 
2025-11-24 20:24:56.947,10.60828,-6.303592,0.20817557,-0.7705838,-1.0398147,3.0881383,-35.756252,32.34375,-12.39375,0.1946679,-0.71272665,0.35849097,1002.26514, , , , 
2025-11-24 20:24:56.967,10.3232355,-6.114559,0.5697909,-0.4614951,-0.65864605,3.0233886,-34.162502,34.55625,-10.5,0.17223334,-0.72507554,0.3694406,1002.2661, , , , 
2025-11-24 20:24:56.986,9.619446,-6.033203,0.9314062,-0.10659285,-0.31962582,3.0032306,-32.25,36.525,-8.90625,0.15051885,-0.73335147,0.38263652,1002.2661, , , , 
2025-11-24 20:24:57.006,9.53809,-6.090631,0.79950184,0.26480228,-0.06734591,3.0466008,-30.018751,38.568752,-7.8,0.12943801,-0.7379939,0.39853832,1002.2739, , , , 
2025-11-24 20:24:57.027,10.222736,-5.441877,-0.014356935,0.63497573,0.17035003,3.0160584,-27.712502,40.125,-6.95625,0.104281135,-0.73933333,0.42192626,1002.2739, , , , 
2025-11-24 20:24:57.047,10.888241,-4.898407,-0.8330014,0.837777,0.23326729,2.7637784,-25.518751,42.075,-7.0687504,0.086397655,-0.7375869,0.44146824,1002.26807, , , , 
2025-11-24 20:24:57.067,10.991431,-4.610969,-1.5753746,0.8493831,0.21677442,2.3740578,-23.175001,43.6875,-7.2562504,0.07177474,-0.73466635,0.45956933,1002.26807, , , , 
2025-11-24 20:24:57.087,10.5029955,-4.601398,-2.0757737,0.6306998,0.2833568,2.0161014,-20.75625,44.737503,-7.7625003,0.059738148,-0.7316008,0.474868,1002.2639, , , , 
2025-11-24 20:24:57.107,9.784551,-4.855336,-2.288735,0.12430742,0.45622656,1.7070127,-18.54375,45.91875,-8.418751,0.048098985,-0.72916,0.4863461,1002.2639, , , , 
2025-11-24 20:24:57.127,8.930014,-5.29083,-2.2002003,-0.49814594,0.65353024,1.5243694,-16.25625,46.48125,-9.09375,0.035047866,-0.7281987,0.49306446,1002.26, , , , 
2025-11-24 20:24:57.147,8.094321,-5.7266226,-1.623231,-1.1309837,0.88137627,1.4816101,-14.325001,47.41875,-9.712501,0.018860584,-0.7290894,0.49478063,1002.26, , , , 
2025-11-24 20:24:57.167,7.615756,-6.215058,-0.51236314,-1.5500249,1.0072107,1.5549117,-12.6,48.2625,-9.88125,-0.0013260787,-0.7313948,0.4924636,1002.25977, , , , 
2025-11-24 20:24:57.187,7.3402824,-6.4737816,0.7157531,-1.6153855,0.9039776,1.7265598,-11.025001,48.600002,-9.375,-0.030364314,-0.73495203,0.48724076,1002.25977, , , , 
2025-11-24 20:24:57.207,7.632506,-6.3825555,1.3980067,-1.3679924,0.66819054,1.8957645,-9.431251,49.031254,-8.3625,-0.054047707,-0.73735005,0.48427245,1002.26685, , , , 
2025-11-24 20:24:57.227,8.62822,-6.3753767,1.5059828,-0.90130514,0.34505233,2.0026627,-7.6687503,49.275,-7.2375,-0.07594284,-0.7387114,0.48415357,1002.26685, , , , 
2025-11-24 20:24:57.246,9.921241,-6.847062,1.0175478,-0.5085303,0.0884965,1.9666227,-5.9812503,49.425003,-6.1125,-0.09465715,-0.7389755,0.4870794,1002.27344, , , , 
2025-11-24 20:24:57.267,11.036895,-7.050751,0.4884349,-0.16523418,-0.112548605,1.9073706,-3.8625002,49.818752,-5.0062504,-0.1098492,-0.73841053,0.49231327,1002.27344, , , , 
2025-11-24 20:24:57.287,11.743076,-6.5886374,-0.19142582,0.09132166,-0.1937913,1.8957645,-1.8937501,50.100002,-4.33125,-0.12225465,-0.7369287,0.49959663,1002.2732, , , , 
2025-11-24 20:24:57.307,12.406187,-5.9374905,-0.9912268,0.15362808,-0.24754585,1.7876445,-0.09375,50.156254,-3.8625002,-0.13527448,-0.73435146,0.5098481,1002.2732, , , , 
2025-11-24 20:24:57.327,13.459627,-5.803193,-1.4988043,-0.027182704,-0.26098448,1.5347537,1.8937501,50.625004,-3.5062501,-0.14398889,-0.7331156,0.51647526,1002.2698, , , , 
2025-11-24 20:24:57.347,13.842778,-5.5519466,-1.2903296,-0.2275406,-0.18646112,1.1767973,3.525,50.7,-3.4875002,-0.15106247,-0.7332537,0.5200519,1002.2698, , , , 
2025-11-24 20:24:57.367,13.933705,-5.178367,-0.8883354,-0.30695075,-0.055128966,0.8335011,5.34375,50.49375,-3.3937502,-0.15669253,-0.73401827,0.52107596,1002.27515, , , , 
2025-11-24 20:24:57.387,14.082061,-5.19751,-0.71336025,-0.33566058,0.1349209,0.36979166,6.80625,50.718754,-3.2250001,-0.1604596,-0.7349156,0.5200798,1002.27515, , , , 
2025-11-24 20:24:57.407,14.062918,-5.2405806,-0.4645067,-0.2751867,0.29251948,-0.049860407,7.6875005,50.287502,-2.79375,-0.16216686,-0.7356849,0.5171946,1002.2722, , , , 
2025-11-24 20:24:57.427,14.292628,-5.671588,-0.26799613,-0.08582404,0.2912978,-0.51654774,8.19375,50.475002,-2.4,-0.16109121,-0.7360529,0.51314217,1002.2722, , , , 
2025-11-24 20:24:57.447,14.108381,-6.0403814,-0.24646074,0.23059484,0.17157172,-1.0528716,8.19375,50.79375,-2.25,-0.15363267,-0.7359956,0.5077857,1002.2844, , , , 
2025-11-24 20:24:57.467,13.617554,-6.212665,-0.39511484,0.46577105,-1.5271181E-4,-1.5372735,8.19375,50.812504,-2.04375,-0.1419815,-0.735772,0.50362855,1002.2844, , , , 
2025-11-24 20:24:57.487,12.9688,-6.579066,-0.51236314,0.5635066,-0.09361234,-2.0210645,7.5000005,50.9625,-2.2875001,-0.12543854,-0.73585147,0.49879864,1002.27563,37.8875187,127.7401646,147.122802734375,1.96
2025-11-24 20:24:57.507,12.138191,-6.8015985,-0.4334,0.59221643,-0.039246935,-2.4609509,6.6000004,50.831253,-2.71875,-0.10519257,-0.735959,0.49248716,1002.27563, , , , 
2025-11-24 20:24:57.527,11.036895,-7.3115687,-0.4621139,0.5354076,0.18134528,-2.8488388,5.08125,51.000004,-3.2250001,-0.082746096,-0.7354014,0.4842897,1002.272, , , , 
2025-11-24 20:24:57.547,10.335199,-8.022536,-0.3711866,0.45172155,0.32367268,-3.0919561,2.7562501,51.000004,-3.6937501,-0.0596782,-0.7339489,0.47387752,1002.272, , , , 
2025-11-24 20:24:57.567,9.887741,-8.633005,-0.059820566,0.441948,0.32611609,-3.276432,0.54375005,50.925003,-4.2000003,-0.036292486,-0.7317492,0.4616665,1002.26294, , , , 
2025-11-24 20:24:57.587,9.241081,-9.083155,0.059820566,0.501811,0.17218257,-3.3417926,-2.41875,50.775,-4.74375,-0.005925277,-0.7281812,0.44523117,1002.26294, , , , 
2025-11-24 20:24:57.609,8.62822,-9.104691,0.21535404,0.5512897,-0.13148487,-3.311861,-5.64375,50.100002,-5.08125,0.019410204,-0.72548676,0.43191484,1002.27295, , , , 
2025-11-24 20:24:57.627,8.23819,-8.786445,0.3807579,0.6166503,-0.39476004,-3.1951892,-8.700001,49.406254,-5.625,0.045479458,-0.723351,0.41900235,1002.27295, , , , 
2025-11-24 20:24:57.647,7.687541,-8.075178,0.23449662,0.61298525,-0.52181625,-2.9777277,-11.981251,48.375004,-6.39375,0.07159252,-0.7215644,0.40712515,1002.26685, , , , 
2025-11-24 20:24:57.668,7.4527454,-7.4383883,0.047856454,0.4278985,-0.46684003,-2.8195183,-14.775001,47.4375,-6.8812504,0.09636642,-0.719743,0.3956053,1002.2715, , , , 
2025-11-24 20:24:57.687,7.306783,-6.873383,0.0071784677,0.13163759,-0.25793025,-2.71262,-17.643751,46.350002,-7.1625004,0.118666045,-0.71774846,0.38320193,1002.2715, , , , 
2025-11-24 20:24:57.707,7.1919274,-6.660422,0.29222345,-0.1279725,0.035887275,-2.6356533,-20.175001,44.9625,-7.4812503,0.13774346,-0.7150023,0.36939391,1002.2715, , , , 
2025-11-24 20:24:57.727,7.105786,-6.7704916,0.35204405,-0.3478775,0.4519506,-2.4982126,-22.48125,43.78125,-7.3125005,0.15694894,-0.7096678,0.3510642,1002.2676, , , , 
2025-11-24 20:24:57.747,7.0025954,-6.7609205,0.622433,-0.40651885,0.80624205,-2.3674912,-24.88125,42.225002,-7.5750003,0.16851535,-0.7032933,0.3364645,1002.2676, , , , 
2025-11-24 20:24:57.767,6.928418,-6.5168524,0.581755,-0.29900974,0.9675057,-2.2135577,-27.018751,40.93125,-7.74375,0.17799607,-0.69531137,0.3229437,1002.26733, , , , 
2025-11-24 20:24:57.787,6.88774,-6.2772713,0.39750767,-0.1927223,1.0212603,-2.1213198,-27.91875,40.3125,-7.65,0.1846069,-0.68862337,0.31384626,1002.26733, , , , 
2025-11-24 20:24:57.807,6.492924,-5.8654065,0.148355,-0.020463383,0.9339091,-2.068176,-30.712502,38.41875,-7.89375,0.19593479,-0.6768484,0.30006522,1002.2656, , , , 
2025-11-24 20:24:57.827,6.3083777,-5.985347,-0.069391854,0.02535016,0.7732563,-2.0779498,-32.475002,37.162502,-7.9687505,0.20593204,-0.6677064,0.28946257,1002.2656, , , , 
2025-11-24 20:24:57.847,6.1624155,-6.439983,-0.069391854,0.05650337,0.64192414,-2.0425205,-33.975002,35.41875,-8.512501,0.21644084,-0.6592416,0.2787478,1002.26, , , , 
2025-11-24 20:24:57.867,5.5830536,-6.748956,-0.22971097,0.15362808,0.6095492,-1.8500273,-35.41875,34.125,-9.39375,0.2292009,-0.64929104,0.26638266,1002.26, , , , 
2025-11-24 20:24:57.887,4.7979083,-6.5455666,-0.46929234,0.20127417,0.6474217,-1.495125,-36.693752,32.4375,-10.087501,0.23792334,-0.6415315,0.2589701,1002.2593, , , , 
2025-11-24 20:24:57.907,4.3764725,-6.0284176,-0.8572287,0.16584504,0.6950678,-1.0437089,-37.8375,30.956251,-10.78125,0.24407431,-0.63432217,0.25441656,1002.2593, , , , 
2025-11-24 20:24:57.927,4.668397,-5.9350977,-1.3405789,0.017409148,0.67246646,-0.53914905,-38.568752,29.85,-11.25,0.24695344,-0.6281518,0.2524794,1002.2527, , , , 
2025-11-24 20:24:57.947,5.3051867,-6.131309,-1.5107684,-0.11942064,0.534415,-0.13354649,-39.412502,28.575,-11.681251,0.24593051,-0.62328213,0.25245467,1002.2505, , , , 
2025-11-24 20:24:57.967,5.8127646,-6.143273,-1.4724833,-0.15912572,0.28641102,0.32458895,-39.99375,27.900002,-12.20625,0.24311768,-0.62227064,0.25378704,1002.2505, , , , 
2025-11-24 20:24:57.987,7.3307114,-6.751349,-1.4054842,-0.105982,-0.23899399,0.7718055,-40.0875,27.300001,-12.58125,0.23625948,-0.62517226,0.25845164,1002.2505, , , , 
2025-11-24 20:24:58.007,8.202297,-7.096215,-1.7644076,-0.08093726,-0.55663455,1.093722,-39.581253,27.075,-12.843751,0.22980812,-0.6313193,0.26428467,1002.2583, , , , 
2025-11-24 20:24:58.027,8.666505,-7.630113,-1.9127626,-0.281906,-0.7936433,1.3496671,-39.018753,27.375002,-12.843751,0.22196202,-0.6399038,0.27111232,1002.2583, , , , 
2025-11-24 20:24:58.047,8.649755,-7.481459,-1.3286148,-0.5329642,-0.94269,1.7051802,-38.268753,28.050001,-12.712501,0.211121,-0.65082437,0.27803248,1002.2583, , , , 
2025-11-24 20:24:58.067,8.697611,-6.916454,-0.4429713,-0.6728483,-1.026987,2.1559854,-37.48125,28.66875,-12.225,0.19668172,-0.66326284,0.28575704,1002.2583, , , , 
2025-11-24 20:24:58.087,9.224331,-6.282057,0.22253251,-0.633754,-1.0483667,2.5011141,-37.21875,30.000002,-11.587501,0.17938332,-0.67634314,0.29505995,1002.2588, , , , 
2025-11-24 20:24:58.107,10.014561,-5.860621,0.5267201,-0.4395046,-0.9622371,2.6635995,-36.45,31.425001,-10.63125,0.16079476,-0.6887826,0.30628052,1002.2588, , , , 
2025-11-24 20:24:58.126,10.567602,-5.5016975,0.49800622,-0.17622943,-0.6891884,2.6165643,-35.49375,33.0,-9.543751,0.14267904,-0.6989581,0.31927088,1002.2593, , , , 
2025-11-24 20:24:58.147,10.36152,-5.1759744,0.0023928226,0.072996244,-0.22005773,2.372836,-34.21875,34.95,-8.493751,0.122244805,-0.7065292,0.33708107,1002.2593, , , , 
2025-11-24 20:24:58.167,9.605089,-5.152046,-0.541077,0.12369657,0.20089239,2.109561,-32.550003,36.6375,-7.74375,0.107579604,-0.7084682,0.35120833,1002.2656, , , , 
2025-11-24 20:24:58.187,8.549256,-5.3365927,-0.9696914,0.033291176,0.51547873,1.9727312,-30.45,38.4375,-7.425,0.0930362,-0.707949,0.36424854,1002.2656, , , , 
2025-11-24 20:24:58.207,7.548458,-5.5016975,-1.1706885,-0.1395786,0.65658444,2.0790186,-28.931252,39.84375,-7.05,0.07702562,-0.7064286,0.37634665,1002.26807, , , , 
2025-11-24 20:24:58.227,7.3977103,-5.4346986,-1.2496517,-0.31122667,0.630318,2.297702,-26.906252,41.34375,-7.05,0.05861413,-0.70509905,0.3880825,1002.26807, , , , 
2025-11-24 20:24:58.247,7.673184,-5.1568317,-1.1515459,-0.47249034,0.50937027,2.4913406,-24.975,42.73125,-7.36875,0.03799748,-0.70459133,0.39945084,1002.2676, , , , 
2025-11-24 20:24:58.267,8.4655075,-4.7018967,-1.0462617,-0.6612422,0.33955473,2.5725832,-23.2875,43.74375,-7.5937505,0.016057247,-0.70511365,0.4101085,1002.2676, , , , 
2025-11-24 20:24:58.287,9.104691,-4.453043,-0.7683952,-0.81639737,0.2112768,2.4992816,-21.0375,44.9625,-7.7812505,-0.011670861,-0.7071361,0.42121786,1002.27344, , , , 
2025-11-24 20:24:58.307,9.583553,-4.426722,-0.3687938,-0.92512816,0.08483142,2.341683,-19.1625,46.162502,-7.65,-0.033111367,-0.70959747,0.4278818,1002.27344, , , , 
2025-11-24 20:24:58.327,9.904491,-4.651647,-0.02632105,-0.95994645,-0.0025961008,2.1425467,-16.931252,47.100002,-6.9,-0.053128973,-0.71251065,0.43278572,1002.2666, , , , 
2025-11-24 20:24:58.347,9.835099,-4.821837,0.39750767,-0.90924615,-0.009926268,1.9666227,-14.55,48.05625,-6.0750003,-0.07159185,-0.71528536,0.43656692,1002.2666, , , , 
2025-11-24 20:24:58.367,9.784551,-4.915157,0.57936215,-0.793796,-0.020310672,1.8475075,-12.187501,48.61875,-5.11875,-0.08871755,-0.71740794,0.43999738,1002.2683, , , , 
2025-11-24 20:24:58.387,9.557233,-4.953442,0.64875406,-0.6600205,-0.04352287,1.793753,-10.03125,48.956253,-4.4812503,-0.1044167,-0.7188836,0.44361824,1002.2683, , , , 
2025-11-24 20:24:58.407,10.040882,-5.137689,0.6559325,-0.49692425,-0.100331664,1.773595,-8.025001,49.331253,-3.6375,-0.12252603,-0.71978456,0.4491633,1002.271, , , , 
2025-11-24 20:24:58.427,10.933704,-5.5830536,0.3999005,-0.3594836,-0.15530792,1.6746378,-6.2250004,49.65,-2.8875,-0.13533953,-0.7199834,0.45425525,1002.271, , , , 
2025-11-24 20:24:58.447,11.644971,-5.8414783,0.2632105,-0.22815146,-0.19501299,1.5365863,-4.6312504,49.725002,-2.23125,-0.14623839,-0.71987814,0.4594792,1002.27686, , , , 
2025-11-24 20:24:58.467,12.0278225,-5.796015,0.05503492,-0.10781454,-0.23410721,1.4260229,-2.71875,50.062504,-1.21875,-0.15533331,-0.7194745,0.46489158,1002.27686, , , , 
2025-11-24 20:24:58.487,12.583256,-5.563911,-0.050249275,-0.07605048,-0.26831466,1.3386718,-1.2375001,50.268753,-0.88125,-0.16310656,-0.71899796,0.4702911,1002.281,37.88753287,127.74015561,147.36712646484375,1.55
2025-11-24 20:24:58.506,13.682159,-5.226224,-0.16510476,-0.072996244,-0.326956,1.1199884,0.28125,50.268753,-0.61875004,-0.16945362,-0.7188106,0.47510347,1002.281, , , , 
2025-11-24 20:24:58.527,14.824135,-5.494519,-0.38554356,-0.15729317,-0.34955734,0.73759806,1.6875001,50.812504,-0.4875,-0.1735002,-0.719454,0.47826144,1002.281, , , , 
2025-11-24 20:24:58.547,15.391533,-5.5663037,-0.21296121,-0.24220094,-0.33428615,0.33069745,2.8875,50.850002,-0.76875,-0.17487662,-0.7213177,0.4787773,1002.281, , , , 
2025-11-24 20:24:58.567,16.114763,-5.1329036,0.11246266,-0.22937314,-0.22066857,-0.16286714,3.91875,50.7,-0.65625,-0.17306979,-0.72441435,0.47637507,1002.2837, , , , 
2025-11-24 20:24:58.587,15.755541,-4.817051,0.58893347,-0.16767757,-0.09300149,-0.7718819,4.425,51.018753,-0.4875,-0.16778263,-0.7269744,0.47179288,1002.2837, , , , 
2025-11-24 20:24:58.607,15.209678,-5.4729834,0.9409775,-0.048562355,0.054212693,-1.4065522,4.875,50.756252,-0.3375,-0.15856776,-0.7294159,0.4648676,1002.28, , , , 
2025-11-24 20:24:58.626,14.402998,-6.090631,1.16351,0.21226943,0.17401512,-1.7810016,4.4812503,50.737503,-0.31875002,-0.14607382,-0.73086977,0.45680282,1002.28, , , , 
2025-11-24 20:24:58.647,13.550554,-6.167201,0.96729857,0.4963134,0.17462596,-2.088334,3.73125,50.8875,-0.13125001,-0.1306017,-0.7308248,0.44898745,1002.2754, , , , 
2025-11-24 20:24:58.667,12.571292,-6.215058,0.70618176,0.6368083,0.10804361,-2.3870385,2.60625,50.5875,-0.13125001,-0.11187246,-0.7300418,0.4412445,1002.2754, , , , 
2025-11-24 20:24:58.687,11.510972,-6.282057,0.79471624,0.6612422,0.07322531,-2.6460376,0.6,50.550003,-0.58125,-0.09056912,-0.72909504,0.43271607,1002.2742, , , , 
2025-11-24 20:24:58.707,10.60828,-6.5551376,0.98883396,0.66735065,0.013896775,-2.9056478,-1.4250001,50.362503,-0.58125,-0.061443143,-0.72761166,0.42034858,1002.2742, , , , 
2025-11-24 20:24:58.727,10.0672035,-6.99781,1.2137593,0.6966713,-0.055739813,-3.095621,-3.6937501,50.437504,-1.40625,-0.036356576,-0.72617215,0.40913433,1002.2656, , , , 
2025-11-24 20:24:58.747,9.483055,-7.4048886,1.2065809,0.7351547,-0.008093726,-3.1945784,-6.4125004,50.156254,-2.04375,-0.010154371,-0.72400665,0.39731592,1002.2656, , , , 
2025-11-24 20:24:58.767,8.752945,-7.591828,1.0893325,0.7467608,0.02183779,-3.1383805,-9.450001,49.518753,-2.8875,0.015913254,-0.7207331,0.38536212,1002.2612, , , , 
2025-11-24 20:24:58.787,8.242975,-7.4862447,1.0366904,0.7082774,-0.015423893,-3.040034,-10.89375,49.256252,-3.3750002,0.03485263,-0.7179223,0.37651214,1002.2612, , , , 
2025-11-24 20:24:58.807,7.589435,-7.062715,1.0773684,0.5775561,-0.08567133,-2.7871432,-15.450001,47.5875,-4.5750003,0.06455959,-0.71334267,0.36200798,1002.27026, , , , 
2025-11-24 20:24:58.827,7.5364943,-6.593423,1.0869397,0.40346462,-0.04291202,-2.5678492,-18.28125,46.5,-5.2125,0.08587631,-0.70990837,0.350681,1002.27026, , , , 
2025-11-24 20:24:58.847,7.6420774,-6.2198434,1.2257234,0.20921518,0.1428619,-2.3949795,-20.90625,45.3375,-5.68125,0.1087649,-0.7051664,0.3363076,1002.2671, , , , 
2025-11-24 20:24:58.867,7.6755767,-6.114559,1.2376875,0.07116371,0.38536826,-2.2972438,-23.306252,43.725002,-5.83125,0.12424253,-0.7002919,0.32450166,1002.2671, , , , 
2025-11-24 20:24:58.887,7.52453,-6.1241302,1.1754742,-0.024128467,0.66941226,-2.1872914,-25.837502,42.318752,-6.2250004,0.13731417,-0.693954,0.31267872,1002.26416, , , , 
2025-11-24 20:24:58.907,7.1919274,-6.049953,1.0845468,-0.079715565,0.93329823,-2.0614567,-28.031252,40.6875,-6.525,0.14805882,-0.6860816,0.30124402,1002.26416, , , , 
2025-11-24 20:24:58.927,7.0316086,-5.9470615,1.0462617,-0.040010497,0.9723925,-1.9654775,-29.812502,39.05625,-7.0687504,0.15729906,-0.6772629,0.29026133,1002.26953, , , , 
2025-11-24 20:24:58.947,6.9523463,-5.8821564,0.7827521,0.055892523,0.8911498,-1.8933975,-31.687502,37.55625,-7.5937505,0.16622154,-0.6683535,0.2799807,1002.26953, , , , 
2025-11-24 20:24:58.967,6.495317,-5.616553,0.48364928,0.1163664,0.80135524,-1.8158199,-32.79375,36.1875,-8.118751,0.1754104,-0.6597198,0.27046824,1002.2666, , , , 
2025-11-24 20:24:58.987,6.1265235,-5.590232,0.35682967,0.11209047,0.6791858,-1.6979263,-33.825,34.800003,-9.01875,0.18670557,-0.64976734,0.2593893,1002.2666, , , , 
2025-11-24 20:24:59.007,6.100202,-6.0140605,0.49322057,0.15057385,0.5759526,-1.5946932,-34.987503,33.525,-9.375,0.19520296,-0.6425812,0.25110194,1002.26416, , , , 
2025-11-24 20:24:59.027,6.15763,-6.658029,0.1794617,0.24525517,0.43545774,-1.4425921,-35.71875,32.4,-10.106251,0.20350634,-0.6362343,0.2437021,1002.26416, , , , 
2025-11-24 20:24:59.047,5.8630137,-6.8709903,-0.16271193,0.31061584,0.32794863,-1.2061943,-36.84375,31.275002,-10.78125,0.21139692,-0.6307799,0.23785418,1002.26685, , , , 
2025-11-24 20:24:59.067,5.3653064,-6.48096,-0.45254257,0.30817243,0.22105035,-0.8818344,-37.85625,30.000002,-11.08125,0.2181096,-0.62654895,0.23398957,1002.26685, , , , 
2025-11-24 20:24:59.087,4.924728,-5.9757752,-0.4764708,0.26968905,0.07994463,-0.51960194,-38.4,29.212502,-11.625,0.22302881,-0.62382716,0.23206802,1002.26587, , , , 
2025-11-24 20:24:59.107,5.482555,-6.0978093,-0.6128617,0.18905723,-0.097888276,-0.09689565,-39.16875,28.275002,-11.681251,0.22573698,-0.6231015,0.2320459,1002.26587, , , , 
2025-11-24 20:24:59.128,6.006882,-6.2676997,-0.7923234,0.1951657,-0.10094251,0.34719032,-39.300003,27.6,-11.700001,0.22555204,-0.624594,0.23501597,1002.2676, , , , 
2025-11-24 20:24:59.147,7.077072,-6.43759,-1.2329018,0.24097924,-0.12476555,0.78280073,-39.412502,27.300001,-11.83125,0.22244012,-0.62682974,0.24106757,1002.2676, , , , 
2025-11-24 20:24:59.167,8.436793,-6.7369924,-1.8888344,0.22815146,-0.32390177,1.0949438,-39.15,27.150002,-11.887501,0.21777445,-0.6306235,0.24939628,1002.26807, , , , 
2025-11-24 20:24:59.187,9.332308,-6.8805614,-2.4011974,0.096208446,-0.5248705,1.3252331,-38.831253,27.768751,-12.243751,0.2117819,-0.6363175,0.25876066,1002.26807, , , , 
2025-11-24 20:24:59.207,9.631411,-6.4160547,-2.5570302,-0.16523418,-0.6281037,1.5396405,-38.831253,28.462502,-12.375001,0.20383106,-0.6439817,0.26814866,1002.2742, , , , 
2025-11-24 20:24:59.227,9.420842,-5.7003016,-2.3724837,-0.5317425,-0.5725166,1.7259489,-38.100002,29.60625,-12.1125,0.19287878,-0.6527209,0.2769196,1002.2742, , , , 
2025-11-24 20:24:59.247,9.099904,-5.317151,-1.5107684,-0.9428427,-0.47478104,1.8517835,-37.95,30.956251,-11.493751,0.17426504,-0.6641699,0.2857928,1002.26904, , , , 
2025-11-24 20:24:59.267,8.812766,-5.2884374,-0.4668995,-1.0839485,-0.4576773,1.937913,-37.10625,32.15625,-10.81875,0.15621941,-0.6734615,0.2912569,1002.26904, , , , 
2025-11-24 20:24:59.287,8.549256,-5.53759,0.22492532,-0.9941539,-0.47783527,2.0399244,-35.831253,33.581253,-9.731251,0.13716218,-0.6825015,0.2967666,1002.26685, , , , 
2025-11-24 20:24:59.307,8.570791,-6.253343,0.5315057,-0.79196346,-0.41064206,2.2592187,-34.818752,34.818752,-8.75625,0.11779945,-0.69074345,0.30392915,1002.26685, , , , 
2025-11-24 20:24:59.327,8.666505,-6.7872415,0.581755,-0.59649235,-0.26526043,2.5340998,-33.037502,36.09375,-7.6875005,0.09754998,-0.6974883,0.31408095,1002.2666, , , , 
2025-11-24 20:24:59.347,8.532506,-6.782456,0.53389853,-0.40041038,-0.055739813,2.90183,-31.462502,37.5,-6.675,0.07582259,-0.7022211,0.3276673,1002.2666, , , , 
2025-11-24 20:24:59.367,9.186047,-6.320342,0.4118646,-0.25502872,-0.04902049,3.1327302,-29.625002,38.831253,-6.0,0.052716095,-0.7053861,0.34377858,1002.2722, , , , 
2025-11-24 20:24:59.386,9.739087,-5.489733,0.29222345,-0.06810947,-0.19073705,3.1437254,-27.768751,40.518753,-5.7000003,0.029823868,-0.707752,0.361134,1002.2722, , , , 
2025-11-24 20:24:59.406,10.14138,-4.752146,0.22013968,0.08826743,-0.4460712,2.9806292,-25.44375,42.45,-5.49375,0.0044013225,-0.71045816,0.38280296,1002.2742, , , , 
2025-11-24 20:24:59.427,10.330414,-4.4243293,0.2440679,0.2275406,-0.6378772,2.7564483,-22.800001,44.23125,-5.2875004,-0.012172887,-0.7128448,0.39947668,1002.2742, , , , 
2025-11-24 20:24:59.447,10.558031,-4.141677,0.0047856453,0.31000498,-0.58595526,2.4931731,-20.268751,45.768753,-5.175,-0.025730409,-0.7146484,0.41544348,1002.2744, , , , 
2025-11-24 20:24:59.467,10.397712,-4.1225343,-0.34247273,0.2403684,-0.3721587,2.07291,-17.4375,47.175003,-4.96875,-0.03713622,-0.7153487,0.4295736,1002.2744, , , , 
2025-11-24 20:24:59.486,9.763016,-4.3669014,-0.45972106,0.08093726,-0.1937913,1.7180079,-15.056251,47.90625,-5.0062504,-0.047099147,-0.71546125,0.44064885,1002.27563,37.88754252,127.74014996,147.396728515625,1.33
2025-11-24 20:24:59.507,9.212367,-4.706682,-0.41665024,-0.083380654,-0.07345438,1.5200934,-12.993751,48.468754,-5.08125,-0.05667479,-0.7154229,0.44889668,1002.27563, , , , 
2025-11-24 20:24:59.527,8.834301,-5.07069,-0.48125646,-0.22631891,-0.009926268,1.4449592,-11.043751,49.0125,-5.1000004,-0.06663874,-0.7154839,0.4551985,1002.27515, , , , 
2025-11-24 20:24:59.547,8.755338,-5.1592245,-0.32093734,-0.35520768,-0.075897776,1.4370182,-9.6,49.18125,-5.0437503,-0.0799808,-0.71614784,0.4612725,1002.27515, , , , 
2025-11-24 20:24:59.567,8.9348,-5.032405,-0.043070808,-0.3875826,-0.22066857,1.454122,-8.25,49.36875,-4.89375,-0.09073196,-0.71744955,0.46542022,1002.271, , , , 
2025-11-24 20:24:59.587,9.585947,-5.0802617,0.1363909,-0.39369106,-0.31107396,1.4241904,-6.8250003,49.575,-4.65,-0.10079345,-0.7192423,0.46945482,1002.271, , , , 
2025-11-24 20:24:59.606,10.402497,-5.3557353,0.27517462,-0.36620292,-0.25793025,1.3716575,-5.68125,49.800003,-4.2937503,-0.11017571,-0.7209739,0.4732966,1002.27246, , , , 
2025-11-24 20:24:59.627,11.115857,-5.6524453,0.28743783,-0.3014531,-0.14675605,1.3411151,-4.0875,50.11875,-3.8437502,-0.119236395,-0.7220222,0.47706187,1002.27246, , , , 
2025-11-24 20:24:59.647,11.616257,-5.42752,0.1794617,-0.23731416,-0.03130592,1.2959125,-2.79375,50.4,-3.6000001,-0.1281746,-0.72212243,0.4809128,1002.27686, , , , 
2025-11-24 20:24:59.667,12.154941,-5.0180483,-0.0047856453,-0.22021043,0.04688253,1.1291511,-1.3875,50.568752,-3.3000002,-0.13663462,-0.7216158,0.48435834,1002.27686, , , , 
2025-11-24 20:24:59.687,12.525828,-4.76411,-0.04546363,-0.23181653,0.04566083,0.89641833,-0.0,50.737503,-2.8312502,-0.1455266,-0.72102445,0.48709652,1002.2759, , , , 
2025-11-24 20:24:59.707,13.121941,-5.0515475,0.0071784677,-0.24097924,-0.048409645,0.6031353,1.0125,50.86875,-2.7375002,-0.15044719,-0.7212087,0.48774716,1002.2759, , , , 
2025-11-24 20:24:59.727,13.033406,-5.1065826,0.4118646,-0.17256436,-0.11010522,0.3288649,2.1375,50.906254,-2.4,-0.15274015,-0.72204834,0.48730132,1002.27344, , , , 
2025-11-24 20:24:59.747,13.095619,-5.0108695,0.6966105,0.014965758,-0.158973,0.09918632,3.1125002,50.8875,-2.2125,-0.15277445,-0.7226747,0.48688766,1002.27344, , , , 
2025-11-24 20:24:59.767,13.435699,-5.266902,0.7851449,0.22631891,-0.23593976,-0.20990239,3.6000001,50.7,-2.4375,-0.14894515,-0.72311705,0.48665965,1002.27295, , , , 
2025-11-24 20:24:59.787,13.607983,-5.482555,0.7588239,0.3582619,-0.30985227,-0.3717769,3.54375,50.531254,-2.2875001,-0.14606032,-0.72320145,0.4866721,1002.27295, , , , 
2025-11-24 20:24:59.806,14.263915,-5.8486567,0.8428718,0.67834586,-0.6024481,-0.78593135,3.5625002,50.718754,-2.15625,-0.13193972,-0.723572,0.4873245,1002.2754, , , , 
2025-11-24 20:24:59.827,14.474782,-5.877371,0.93619186,0.90748996,-0.77226365,-1.2294065,3.1125002,50.925003,-2.5687501,-0.116702564,-0.7240485,0.48802844,1002.2754, , , , 
2025-11-24 20:24:59.847,13.823635,-6.0523458,0.8955139,1.0107231,-0.7661552,-1.7364097,2.5687501,50.812504,-2.9437501,-0.096569784,-0.724428,0.48789147,1002.2766, , , , 
2025-11-24 20:24:59.867,12.25544,-6.3945193,0.86201435,0.90626824,-0.5193729,-2.2153902,1.9125,51.131252,-3.9562502,-0.07342787,-0.72442526,0.48560297,1002.2766, , , , 
2025-11-24 20:24:59.887,10.950753,-6.859026,0.9098708,0.74492824,-0.23471805,-2.4902716,0.22500001,50.925003,-4.8375,-0.04981202,-0.7235974,0.48061413,1002.2732, , , , 
2025-11-24 20:24:59.907,10.112667,-7.4862447,1.1108679,0.61970454,-0.04291202,-2.684521,-2.11875,50.718754,-5.775,-0.026872955,-0.7218582,0.47314405,1002.2732, , , , 
2025-11-24 20:24:59.927,9.511769,-8.159226,1.1970096,0.59221643,0.058488626,-2.8176856,-4.40625,50.625004,-6.5437503,-0.0043820296,-0.71924555,0.46395445,1002.27344, , , , 
2025-11-24 20:24:59.947,8.968299,-8.697611,0.974477,0.59649235,-0.030084228,-2.8977067,-7.1250005,50.100002,-7.4625,0.023833625,-0.7150895,0.45117593,1002.27344, , , , 
2025-11-24 20:24:59.967,8.508578,-8.752945,1.0199406,0.62092626,-0.24143738,-2.8915982,-9.69375,49.256252,-8.38125,0.046973843,-0.71205413,0.44040415,1002.2771, , , , 
2025-11-24 20:24:59.987,8.192725,-8.482257,0.92662054,0.6526903,-0.4729485,-2.8054688,-12.0,48.3375,-9.01875,0.07074297,-0.70958906,0.42978078,1002.2771, , , , 
2025-11-24 20:25:00.007,7.7736826,-7.7353973,0.80907315,0.57999945,-0.5621322,-2.6955163,-14.812501,47.325,-9.525001,0.09444135,-0.70760506,0.41938937,1002.27637, , , , 
2025-11-24 20:25:00.027,7.105786,-7.0316086,0.78035927,0.35887277,-0.52242714,-2.6032784,-17.38125,46.18125,-9.712501,0.11706949,-0.7058701,0.408483,1002.27637, , , , 
2025-11-24 20:25:00.047,6.5288167,-6.7585278,1.0486546,0.13469182,-0.37032616,-2.4988234,-19.800001,45.225002,-9.9375,0.13748954,-0.7040768,0.39656428,1002.2793, , , , 
2025-11-24 20:25:00.067,6.6556363,-6.658029,1.4509479,0.06139015,-0.3257343,-2.3534417,-22.3125,44.287502,-9.95625,0.1553035,-0.70205504,0.3839729,1002.2793, , , , 
2025-11-24 20:25:00.087,7.294819,-6.5647087,1.3980067,0.17684028,-0.24204823,-2.1701877,-24.562502,42.956253,-10.2375,0.17544243,-0.698977,0.36930016,1002.27563, , , , 
2025-11-24 20:25:00.108,7.5699935,-6.114559,0.85244304,0.26968905,-0.06306998,-2.0907774,-26.643751,41.756252,-10.200001,0.19073279,-0.69522315,0.3592988,1002.2766, , , , 
2025-11-24 20:25:00.127,7.495816,-5.681159,0.12921242,0.18600298,0.07017108,-2.1262066,-28.593752,40.350002,-10.1625,0.20563988,-0.6903299,0.3496499,1002.2766, , , , 
2025-11-24 20:25:00.147,7.278069,-5.764908,-0.39750767,-0.098651834,0.26258796,-2.2184446,-30.562502,38.71875,-10.3125,0.21960437,-0.6847775,0.33871067,1002.2766, , , , 
2025-11-24 20:25:00.166,6.916454,-6.0978093,-0.42622152,-0.37536564,0.41957572,-2.2434893,-32.006252,37.3875,-10.368751,0.23166384,-0.6787363,0.325938,1002.2771, , , , 
2025-11-24 20:25:00.187,6.820741,-6.6628146,-0.28265217,-0.5745019,0.52403057,-2.201341,-33.46875,35.90625,-10.5,0.24141765,-0.6725002,0.31171063,1002.2771, , , , 
2025-11-24 20:25:00.207,6.526424,-7.096215,0.05503492,-0.56106323,0.5698441,-2.1029944,-34.893753,34.350002,-10.125,0.25104368,-0.664498,0.29338503,1002.2739, , , , 
2025-11-24 20:25:00.227,5.6333027,-7.2613196,0.4214359,-0.37597647,0.5722875,-1.8720177,-36.018753,32.925003,-10.087501,0.25776848,-0.6578906,0.28028286,1002.2739, , , , 
2025-11-24 20:25:00.247,4.9007998,-6.8255267,0.39750767,-0.16889927,0.6009973,-1.4572525,-37.143753,31.35,-10.14375,0.26346156,-0.65126777,0.27058935,1002.27466, , , , 
2025-11-24 20:25:00.267,4.5798626,-6.411269,0.09571291,-0.12308572,0.6675797,-1.0131665,-38.41875,30.000002,-10.1625,0.26729715,-0.6449476,0.26469222,1002.27466, , , , 
2025-11-24 20:25:00.288,5.449055,-6.9020967,-0.0023928226,-0.16095825,0.7640936,-0.5373165,-38.98125,28.706251,-10.6125,0.26818913,-0.6391622,0.2617481,1002.2771, , , , 
2025-11-24 20:25:00.308,6.1648083,-7.007381,-0.19860429,-0.014965758,0.8001335,-0.07795938,-39.6375,27.487501,-11.137501,0.2661545,-0.6340598,0.26180482,1002.2771, , , , 
2025-11-24 20:25:00.327,7.2900333,-6.8135624,-0.72771716,0.20249587,0.5735092,0.2848839,-40.03125,26.925001,-11.53125,0.26266405,-0.6301143,0.2655529,1002.2722, , , , 
2025-11-24 20:25:00.347,7.986644,-6.6771717,-1.5394822,0.34482327,0.17401512,0.46569467,-39.91875,26.41875,-12.1125,0.25986147,-0.628576,0.27140987,1002.2722, , , , 
2025-11-24 20:25:00.367,8.144869,-6.6221366,-2.2360928,0.229984,-0.12659809,0.66673976,-40.050003,26.5125,-12.88125,0.25758705,-0.6297668,0.27804652,1002.2661, , , , 
2025-11-24 20:25:00.387,7.9483585,-6.389734,-2.5136602,-0.1524064,-0.22860959,0.9575031,-39.7125,26.75625,-13.14375,0.2519372,-0.63462424,0.2860692,1002.2661, , , , 
2025-11-24 20:25:00.407,7.7066836,-6.102595,-2.1284158,-0.56167406,-0.23532891,1.2879715,-39.393753,27.13125,-13.35,0.24284874,-0.6406423,0.29189402,1002.27075, , , , 
2025-11-24 20:25:00.427,7.75454,-5.803193,-1.2975081,-0.8481614,-0.18279605,1.6379869,-39.018753,27.750002,-13.406251,0.22909595,-0.64809865,0.29751563,1002.27075, , , , 
2025-11-24 20:25:00.447,8.180761,-5.547161,-0.5841478,-0.93245834,-0.09972081,1.9446323,-38.325,28.706251,-12.975,0.21161081,-0.6559588,0.30389547,1002.27295, , , , 
2025-11-24 20:25:00.467,8.738588,-5.425127,0.014356935,-0.7675296,-0.11438115,2.1798084,-37.537502,30.018751,-12.637501,0.19225147,-0.66361386,0.31167334,1002.27295, , , , 
2025-11-24 20:25:00.487,9.262916,-5.4777694,0.083748795,-0.46454933,-0.24326992,2.3148057,-36.45,31.5375,-11.962501,0.17315717,-0.6709375,0.32139143,1002.2771,37.88754252,127.74014996,147.396728515625,1.33
2025-11-24 20:25:00.507,9.631411,-5.278866,-0.23688944,-0.05955761,-0.4301892,2.3991027,-35.025,33.05625,-11.493751,0.15178399,-0.67958593,0.33667684,1002.2771, , , , 
2025-11-24 20:25:00.528,9.61466,-4.840979,-0.84765744,0.21471281,-0.64337486,2.4326992,-33.525,34.6875,-10.89375,0.13741523,-0.6862557,0.3510417,1002.2771, , , , 
2025-11-24 20:25:00.547,9.418449,-4.409972,-1.2257234,0.3594836,-0.8125796,2.4833996,-32.025,35.943752,-10.481251,0.12495214,-0.69305015,0.36651257,1002.2771, , , , 
2025-11-24 20:25:00.567,9.195618,-4.05075,-1.4533406,0.39369106,-0.81196874,2.5823567,-30.375002,37.48125,-10.21875,0.11306158,-0.6996225,0.38272586,1002.26855, , , , 
2025-11-24 20:25:00.588,9.346664,-3.818646,-1.6950158,0.28007346,-0.59267455,2.6800923,-28.875002,39.05625,-9.712501,0.10022634,-0.70528406,0.39927912,1002.26904, , , , 
2025-11-24 20:25:00.607,9.473484,-3.9167516,-1.6974086,0.057114217,-0.25670856,2.6794815,-26.962502,40.36875,-9.58125,0.08549799,-0.70964146,0.41505703,1002.26904, , , , 
2025-11-24 20:25:00.627,9.463913,-4.2352962,-1.4102699,-0.2171562,0.14958122,2.6238945,-25.0125,42.112503,-9.337501,0.06827231,-0.7124329,0.42906767,1002.26904, , , , 
2025-11-24 20:25:00.647,9.70798,-4.316652,-1.1300105,-0.5128063,0.48066044,2.4424727,-22.95,43.21875,-9.28125,0.0434643,-0.7141199,0.44297186,1002.2717, , , , 
2025-11-24 20:25:00.667,9.777372,-4.4674,-0.7157531,-0.66246384,0.506316,2.1565962,-20.550001,44.41875,-9.243751,0.022996068,-0.7148747,0.45056778,1002.2717, , , , 
2025-11-24 20:25:00.687,9.528519,-4.7688956,-0.4429713,-0.70522314,0.33711132,1.8719414,-18.4125,45.487503,-9.056251,0.004227765,-0.716095,0.4555327,1002.2742, , , , 
2025-11-24 20:25:00.707,9.267701,-5.144868,-0.3376871,-0.7082774,0.092772424,1.6587558,-16.10625,46.425003,-8.681251,-0.012225871,-0.71806943,0.45899728,1002.2742, , , , 
