Time,Accel_X,Accel_Y,Accel_Z,Gyro_X,Gyro_Y,Gyro_Z,Mag_X,Mag_Y,Mag_Z,Orient_X,Orient_Y,Orient_Z,Pressure,Lat,Lng,Alt,Speed
2025-11-24 20:07:44.645,-2.7580273,2.707778,8.183154,-1.7906988,1.2484955,-0.40842775,15.39375,10.96875,-51.487503,0.035074484,0.1945647,0.6616783,1002.2285,37.88739593,127.74013555,148.509033203125,0.0
2025-11-24 20:07:44.660,-3.7707894,2.4538395,9.542876,-2.311828,1.4818391,-0.6210026,16.5,13.35,-50.23125,-0.013286744,0.1883851,0.6626761,1002.22, , , , 
2025-11-24 20:07:44.680,-4.148855,1.7117655,8.975478,-2.634355,1.4134243,-0.7089646,17.85,14.981251,-49.631252,-0.047971804,0.18171717,0.6617527,1002.22, , , , 
2025-11-24 20:07:44.700,-4.8290153,1.4676976,8.76491,-3.0961556,1.2002385,-0.65276664,18.993752,16.85625,-48.43125,-0.07776943,0.17229788,0.66076213,1002.2224, , , , 
2025-11-24 20:07:44.720,-5.575875,1.9680966,9.789336,-3.5237489,0.93451995,-0.5922928,20.71875,18.900002,-47.25,-0.10905128,0.15824,0.6604333,1002.2224, , , , 
2025-11-24 20:07:44.740,-3.5790644,1.0677971,11.218749,-3.5762815,0.8074637,-0.64238226,22.10625,21.487501,-45.80625,-0.13992077,0.14070982,0.66063684,1002.2178, , , , 
2025-11-24 20:07:44.760,-2.0398812,0.031106694,11.278569,-3.2757447,1.058522,-0.96246624,22.893751,24.4125,-44.100002,-0.1705971,0.12387034,0.6589653,1002.2178, , , , 
2025-11-24 20:07:44.780,-2.3485553,-0.5554339,10.103095,-2.9611585,0.78608406,-1.0693644,23.775002,27.35625,-42.393753,-0.19912055,0.10899186,0.6541456,1002.2202, , , , 
2025-11-24 20:07:44.800,-3.5288153,-2.14038,8.88455,-3.0527856,0.30412558,-1.1591591,24.0375,30.300001,-40.29375,-0.22374782,0.09166442,0.64819986,1002.2202, , , , 
2025-11-24 20:07:44.820,-4.7114677,-4.3501515,8.760123,-3.5011475,-0.2854184,-0.4829511,24.281252,33.16875,-38.0625,-0.25311694,0.06439661,0.6417582,1002.2207, , , , 
2025-11-24 20:07:44.840,-4.141677,-3.3493536,11.300105,-3.278799,-0.6409315,0.6526903,24.337502,35.831253,-35.662502,-0.27429324,0.03966197,0.644137,1002.2207, , , , 
2025-11-24 20:07:44.860,-1.8696918,-2.2360928,12.001501,-1.7852011,0.66880137,1.6166073,24.16875,38.34375,-32.775,-0.29182917,0.028030736,0.65275705,1002.2344, , , , 
2025-11-24 20:07:44.880,1.2735798,-1.4676976,11.589935,0.3594836,1.2197856,2.2659378,24.13125,40.21875,-30.2625,-0.30103955,0.035826314,0.6648562,1002.2344, , , , 
2025-11-24 20:07:44.900,-2.695814,-4.3501515,9.349057,2.0522177,1.470233,1.917755,24.50625,41.5875,-28.031252,-0.29978734,0.056347385,0.6765042,1002.22876, , , , 
2025-11-24 20:07:44.920,-11.099108,-9.686445,5.925526,2.9678779,1.6253881,1.1120474,25.687502,42.05625,-26.343752,-0.29233423,0.08605982,0.68267035,1002.22876, , , , 
2025-11-24 20:07:44.940,-7.0148587,-5.111368,5.52084,2.743697,1.9674627,0.24456798,27.4125,41.456253,-25.650002,-0.28669155,0.12602663,0.6777353,1002.21265, , , , 
2025-11-24 20:07:44.960,-6.9475603,-3.2129626,6.4618177,2.246467,1.04997,0.4595862,29.1375,40.18125,-25.725,-0.28098714,0.15308847,0.67101777,1002.21265, , , , 
2025-11-24 20:07:44.980,-7.574779,-2.1260228,6.2007008,1.9306592,0.2717507,0.7174401,30.993752,38.643753,-26.212502,-0.27091697,0.1718526,0.6693128,1002.21387, , , , 
2025-11-24 20:07:45.000,-8.089535,-0.8210373,6.617351,2.0479417,-0.51509696,0.5383855,32.025,36.7125,-26.906252,-0.2570061,0.18580143,0.67037773,1002.21387, , , , 
2025-11-24 20:07:45.020,-6.3825555,-0.20578274,5.413163,2.5299003,-2.1930943,0.33191913,32.4375,35.475002,-27.91875,-0.23374325,0.19337903,0.672165,1002.20703, , , , 
2025-11-24 20:07:45.040,-5.985347,0.98883396,5.238188,2.6618433,-3.4386883,0.3380276,32.53125,34.2,-29.00625,-0.19818418,0.19329296,0.6752618,1002.20703, , , , 
2025-11-24 20:07:45.060,-4.199105,1.6663018,6.1121664,2.4486575,-4.63656,0.26594764,31.66875,32.287502,-31.2,-0.1549049,0.18531726,0.6791803,1002.20435, , , , 
2025-11-24 20:07:45.080,-4.347759,2.204986,11.493923,2.1530075,-5.708062,0.35329878,30.112501,30.806252,-33.975002,-0.09073592,0.15911435,0.6845693,1002.20435, , , , 
2025-11-24 20:07:45.100,-1.8505492,1.6495521,10.215558,2.1517859,-4.2737164,0.23051849,27.900002,28.893751,-37.612503,-0.04357201,0.14367136,0.6863377,1002.2012, , , , 
2025-11-24 20:07:45.120,-1.3669,0.95054877,10.203594,1.923329,-3.2939174,0.34902287,24.806252,27.112501,-41.25,-0.0047803465,0.13154401,0.6859593,1002.2012, , , , 
2025-11-24 20:07:45.140,-1.7811574,0.77318084,9.466306,1.3308071,-1.9884605,0.37590012,21.31875,25.050001,-44.30625,0.024322418,0.123696305,0.68562645,1002.1948, , , , 
2025-11-24 20:07:45.160,-1.3477573,1.8601205,9.981061,0.96979636,-1.2780452,0.4247679,18.243752,23.081251,-47.0625,0.04307479,0.120089345,0.68598616,1002.1948, , , , 
2025-11-24 20:07:45.180,-1.352543,2.3030918,10.237094,0.94352996,-1.4277028,0.47852248,15.637501,21.225,-48.6375,0.058475956,0.11691973,0.6872875,1002.2041, , , , 
2025-11-24 20:07:45.200,-0.8428718,2.5088747,10.021739,1.2361258,-1.6518837,0.4791333,13.725,19.425001,-49.93125,0.07655068,0.11300939,0.688535,1002.2041, , , , 
2025-11-24 20:07:45.220,-0.15074782,2.7388847,9.353843,1.5171155,-1.6494403,0.4907394,12.356251,18.225,-50.718754,0.10268007,0.1099487,0.6890011,1002.2095, , , , 
2025-11-24 20:07:45.240,0.7612167,3.4259238,8.970692,1.5507121,-1.6030159,0.46630552,11.08125,16.66875,-51.3375,0.12474154,0.108425945,0.6889357,1002.20996, , , , 
2025-11-24 20:07:45.260,1.1587243,4.24726,8.915657,1.4529766,-1.378835,0.15416257,9.637501,15.4125,-52.275,0.14525223,0.10803171,0.68789005,1002.20996, , , , 
2025-11-24 20:07:45.280,0.9912268,3.9717865,8.348259,1.1573265,-0.9139802,-0.012598725,8.19375,13.8,-52.968754,0.16226812,0.10883462,0.684971,1002.20996, , , , 
2025-11-24 20:07:45.300,0.8572287,4.007679,8.075178,0.83472276,-0.4485146,0.083915144,6.9,12.243751,-53.437504,0.17366923,0.11071558,0.68260163,1002.209, , , , 
2025-11-24 20:07:45.320,1.4003994,4.402794,8.077571,0.449889,-0.10827268,0.06192464,5.71875,10.762501,-53.850002,0.17998578,0.113036424,0.6819577,1002.209, , , , 
2025-11-24 20:07:45.340,1.8840487,4.5894337,8.82473,0.24403349,0.14958122,-0.17874917,4.96875,9.31875,-54.000004,0.18249577,0.11533662,0.6815103,1002.2097, , , , 
2025-11-24 20:07:45.361,1.3501502,4.338187,8.908479,0.2367033,0.43118182,-0.3729986,4.51875,8.0625,-54.093754,0.18164425,0.120413385,0.6795939,1002.2068, , , , 
2025-11-24 20:07:45.380,0.81864446,4.261617,8.661719,0.32222193,0.32061845,-0.38826978,4.51875,7.9875,-54.318752,0.18069239,0.12555297,0.677373,1002.2068, , , , 
2025-11-24 20:07:45.400,0.78035927,4.35733,8.599505,0.33749312,0.15507884,-0.3418454,4.4437504,7.93125,-54.412502,0.18111154,0.12988973,0.6749319,1002.2068, , , , 
2025-11-24 20:07:45.420,0.9553344,4.4171505,8.717052,0.35642937,0.09521582,-0.30458373,4.6687503,7.8375,-54.525,0.1824386,0.13344043,0.6725015,1002.2036, , , , 
2025-11-24 20:07:45.440,0.7396813,4.421936,8.613862,0.37658733,0.17829104,-0.26487863,4.8,7.8187504,-54.9,0.18382812,0.13707487,0.6701782,1002.2036, , , , 
2025-11-24 20:07:45.460,0.40707895,4.338187,8.185547,0.36437038,0.2564795,-0.15675868,5.175,7.70625,-55.143753,0.18474175,0.14134273,0.66834044,1002.2124, , , , 
2025-11-24 20:07:45.480,0.24885355,4.3525443,7.562815,0.23425992,0.19783816,-0.021761434,5.6625004,7.1062503,-55.500004,0.18535672,0.14524929,0.6674844,1002.2124, , , , 
2025-11-24 20:07:45.500,0.1794617,4.35733,7.6013994,-0.04367558,0.10315683,0.05581617,6.0,6.8812504,-55.818752,0.18522087,0.14709494,0.6676515,1002.2112, , , , 
2025-11-24 20:07:45.520,0.4214359,4.2448673,8.23101,-0.26480228,0.035276428,0.08635853,6.3750005,6.58125,-56.1375,0.18349095,0.1462061,0.6687451,1002.2112, , , , 
2025-11-24 20:07:45.540,0.541077,4.2038903,8.692825,-0.30572906,0.035276428,0.080860905,6.3187504,6.4687505,-56.175003,0.1813684,0.14438264,0.6698214,1002.2163, , , , 
2025-11-24 20:07:45.560,0.49800622,4.158427,8.855837,-0.23792501,-0.012980504,0.07353074,6.4687505,6.8437505,-56.2125,0.17946018,0.1425653,0.6707955,1002.2163, , , , 
2025-11-24 20:07:45.581,0.6655038,4.211368,8.970692,-0.15851486,-0.074676074,0.060702946,6.4125004,6.9187503,-56.100002,0.178471,0.14075138,0.6715316,1002.219, , , , 
2025-11-24 20:07:45.600,0.6559325,4.3645086,9.01137,-0.09315421,-0.116213694,0.03749075,6.4687505,7.14375,-56.006252,0.17823552,0.13917813,0.6719611,1002.219, , , , 
2025-11-24 20:07:45.620,0.59611195,4.4075794,9.073584,-0.06383354,-0.13759334,0.0264955,6.6000004,7.425,-55.968754,0.17862907,0.13766779,0.67210984,1002.2134, , , , 
2025-11-24 20:07:45.641,0.5458627,4.362116,8.975478,-0.036956258,-0.090558104,0.02893889,6.6375003,7.3500004,-55.781254,0.17922847,0.13623555,0.672134,1002.2134,37.88739593,127.74013555,148.509033203125,0.0
2025-11-24 20:07:45.660,0.5482555,4.388437,9.049655,-0.035734564,-0.051463883,0.011224318,6.5062504,7.7250004,-55.7625,0.17945822,0.13543844,0.67220306,1002.2178, , , , 
2025-11-24 20:07:45.680,0.47886363,4.3334017,8.874979,-0.022295926,-0.06123744,0.0026724567,6.05625,7.5750003,-55.800003,0.17961955,0.13499814,0.6721994,1002.2178, , , , 
2025-11-24 20:07:45.700,0.47168517,4.3238306,9.150154,-0.09804098,-0.0581832,-0.006490252,5.7562504,7.425,-55.85625,0.1796429,0.13407856,0.67215556,1002.22217, , , , 
2025-11-24 20:07:45.720,0.33290145,4.319045,9.344272,-0.11514471,0.07322531,0.016721943,5.2312503,7.5750003,-56.062504,0.17858742,0.13343877,0.6722075,1002.22217, , , , 
2025-11-24 20:07:45.741,0.33290145,4.28076,9.562018,-0.09071082,0.17706935,0.047264308,5.175,7.4437504,-56.081253,0.17674944,0.13344812,0.6726354,1002.22485, , , , 
2025-11-24 20:07:45.760,0.18903299,4.199105,9.325129,0.02779355,0.25159273,0.10224056,5.30625,7.6875005,-56.11875,0.17465219,0.13452576,0.6733927,1002.22485, , , , 
2025-11-24 20:07:45.781,0.18664017,4.1368914,9.01137,0.10414946,0.18439952,0.16821207,5.2875004,7.6312504,-56.175003,0.17311676,0.13674021,0.67481375,1002.2178, , , , 
2025-11-24 20:07:45.800,0.41665024,4.2759743,8.729017,0.15423894,0.09582666,0.19753273,5.4,7.93125,-56.268753,0.17303728,0.13800651,0.6757999,1002.2178, , , , 
2025-11-24 20:07:45.820,0.6655038,4.5559344,8.889337,0.13652436,-0.02275406,0.14255647,5.7000003,8.00625,-56.23125,0.17469974,0.13913745,0.67724997,1002.22144, , , , 
2025-11-24 20:07:45.840,0.60807604,4.546363,8.709874,0.1395786,0.0077883024,0.10224056,5.7000003,7.9500003,-56.4,0.17644238,0.13986997,0.67785245,1002.22144, , , , 
2025-11-24 20:07:45.860,0.69182485,4.6301117,8.487042,0.06383354,0.11354123,0.06314634,5.4187503,8.118751,-56.475002,0.17760737,0.14090785,0.67830426,1002.219, , , , 
2025-11-24 20:07:45.880,0.7181459,4.5391846,8.341081,-0.046729814,0.15080291,0.024052111,5.49375,7.5750003,-56.49375,0.17764686,0.14207767,0.6788128,1002.219, , , , 
2025-11-24 20:07:45.900,0.5721837,4.4913282,8.680861,-0.09804098,0.06956023,-0.023593975,5.34375,7.4625,-56.7,0.17706542,0.14245921,0.6792396,1002.2168, , , , 
2025-11-24 20:07:45.920,0.53629136,4.3836513,8.9108715,-0.06627693,-0.020310672,-0.050471254,5.2312503,7.36875,-56.68125,0.17662422,0.14219214,0.67925185,1002.2168, , , , 
2025-11-24 20:07:45.940,0.39750767,4.182355,9.078369,0.016798299,-0.0019852535,-0.046195325,5.4,7.1250005,-56.756252,0.17642595,0.14170599,0.67886573,1002.219, , , , 
2025-11-24 20:07:45.960,0.24646074,4.0794635,8.8701935,0.043064732,0.03955236,-0.022983128,5.4750004,7.2187505,-56.49375,0.17619134,0.1419084,0.6785968,1002.219, , , , 
2025-11-24 20:07:45.980,0.15074782,4.045964,8.585149,3.0542363E-4,0.118428014,0.011835165,5.4,7.275,-56.268753,0.17533693,0.14263734,0.6785929,1002.2239, , , , 
2025-11-24 20:07:46.000,0.23688944,4.0651064,8.563613,-0.10048437,0.08971819,0.034436513,5.45625,7.4437504,-56.156254,0.17399247,0.14306657,0.6790138,1002.2239, , , , 
2025-11-24 20:07:46.020,0.3711866,4.1033916,8.817552,-0.14568707,0.047493376,0.045431767,5.7000003,7.5937505,-55.912502,0.17252553,0.14262478,0.67961496,1002.22363, , , , 
2025-11-24 20:07:46.040,0.3999005,4.2161536,8.985049,-0.12491827,0.0010689828,0.046042614,5.925,7.65,-56.006252,0.17134576,0.14165112,0.6802404,1002.22363, , , , 
2025-11-24 20:07:46.061,0.51475596,4.2759743,8.937193,-0.06933116,0.010231691,0.042988375,5.9625,7.5000005,-56.006252,0.1706167,0.14060323,0.680822,1002.22363, , , , 
2025-11-24 20:07:46.080,0.5937191,4.3740797,8.863015,-0.05650337,-0.024586603,0.029549737,6.0,7.1062503,-55.893753,0.17058326,0.14012939,0.6811265,1002.22363, , , , 
2025-11-24 20:07:46.100,0.5697909,4.476971,8.815159,-0.048562355,0.014507622,0.022219568,6.01875,7.3125005,-55.725002,0.17083368,0.13946727,0.68141824,1002.22095, , , , 
2025-11-24 20:07:46.120,0.6655038,4.570291,8.745767,-0.062000997,0.009009997,0.00633754,5.86875,7.4437504,-56.025,0.17102288,0.1392614,0.6816086,1002.22095, , , , 
2025-11-24 20:07:46.140,0.75643104,4.5822554,8.707481,-0.055892523,0.035276428,-0.04924956,6.01875,7.6125,-56.156254,0.17124037,0.13915639,0.6816159,1002.2241, , , , 
2025-11-24 20:07:46.160,0.6966105,4.5128636,8.623434,-0.058946762,0.010231691,-0.11155598,6.0,7.8375,-56.662502,0.17147116,0.13908914,0.68130606,1002.2241, , , , 
2025-11-24 20:07:46.180,0.58893347,4.421936,8.5014,-0.070552856,-0.014813046,-0.1622563,5.9812503,7.8562503,-57.131252,0.17161801,0.13905545,0.680546,1002.2256, , , , 
2025-11-24 20:07:46.200,0.54346985,4.2927237,8.415258,-0.12186403,-0.046577103,-0.21173494,6.3187504,7.7812505,-57.225002,0.17155246,0.13861355,0.67912346,1002.2256, , , , 
2025-11-24 20:07:46.220,0.4884349,4.141677,8.67129,-0.20982604,-0.12293301,-0.25327253,6.5062504,8.15625,-57.506252,0.17107132,0.13737272,0.6777153,1002.2263, , , , 
2025-11-24 20:07:46.240,0.41665024,4.098606,9.131011,-0.21349111,-0.12720895,-0.2697654,7.1625004,8.45625,-57.862503,0.17017682,0.13537574,0.6760369,1002.22754, , , , 
2025-11-24 20:07:46.260,0.31136605,4.0363927,9.296415,-0.18905723,-0.10277505,-0.2538834,7.7250004,8.606251,-58.425003,0.16902566,0.13356707,0.6743216,1002.22754, , , , 
2025-11-24 20:07:46.280,0.22253251,3.9741793,9.370592,-0.16889927,-0.059404895,-0.21417832,8.45625,9.46875,-58.93125,0.16763319,0.1321007,0.6727516,1002.22754, , , , 
2025-11-24 20:07:46.300,0.13160525,3.993322,9.449555,-0.12736166,-0.039857782,-0.1622563,9.46875,9.84375,-59.437504,0.16614689,0.13097583,0.67148006,1002.22095, , , , 
2025-11-24 20:07:46.320,0.13399807,4.0627136,9.334701,-0.062000997,-0.023975754,-0.10911259,10.33125,10.59375,-59.475002,0.16499205,0.1303685,0.6705071,1002.22095, , , , 
2025-11-24 20:07:46.340,0.17706887,4.182355,9.008977,-0.009468133,-0.034971006,-0.08101362,11.19375,11.118751,-59.30625,0.16449057,0.13032089,0.6697767,1002.2263, , , , 
2025-11-24 20:07:46.361,0.63200426,4.302295,9.325129,-0.26113722,0.3676537,-0.1066692,11.53125,11.512501,-59.250004,0.16282086,0.13084596,0.6693172,1002.2263, , , , 
2025-11-24 20:07:46.380,0.30179477,3.950251,9.0951185,-0.18050537,0.08055548,-0.14820682,11.83125,11.962501,-58.987503,0.15987603,0.13140209,0.66912365,1002.2234, , , , 
2025-11-24 20:07:46.400,0.17706887,3.9981074,9.365807,-0.04123219,-0.2249445,-0.18058172,12.243751,12.056251,-58.8375,0.15927814,0.130443,0.6682623,1002.2234, , , , 
2025-11-24 20:07:46.420,0.27517462,3.8521454,9.380164,0.05222744,-0.29580277,-0.1866902,12.337501,12.1125,-58.725002,0.1608653,0.12870893,0.6665548,1002.21704, , , , 
2025-11-24 20:07:46.440,0.24646074,3.8138602,9.2075815,0.018630842,-0.14125843,-0.15798037,12.337501,11.75625,-58.29375,0.16213125,0.12738834,0.66482526,1002.21704, , , , 
2025-11-24 20:07:46.460,0.06699903,3.7444685,8.860622,-0.080326416,0.033443887,-0.13782242,12.39375,11.3625,-58.2,0.1618682,0.12695825,0.6635953,1002.2195, , , , 
2025-11-24 20:07:46.481,0.0047856453,3.6918263,8.776874,-0.14813046,0.024892027,-0.10972344,11.775001,11.475,-58.48125,0.15980907,0.12680295,0.662705,1002.2256, , , , 
2025-11-24 20:07:46.500,0.011964113,3.6293137,8.91805,-0.1719535,-0.13026318,-0.085289545,11.71875,11.400001,-58.593754,0.1584108,0.12575716,0.66217726,1002.2256, , , , 
2025-11-24 20:07:46.520,0.2536392,3.7109687,9.325129,-0.15057385,-0.2713689,-0.05841227,11.887501,11.4375,-59.062504,0.15813799,0.123333745,0.66160566,1002.2256, , , , 
2025-11-24 20:07:46.541,0.6056832,3.7851462,9.763016,-0.13347013,-0.15836215,-0.030924143,11.15625,11.45625,-59.79375,0.15839525,0.12047821,0.6610585,1002.218, , , , 
2025-11-24 20:07:46.560,0.69182485,3.7875392,9.993026,-0.16523418,0.17462596,-0.003436016,10.950001,11.64375,-59.86875,0.15749556,0.11868336,0.6609471,1002.218, , , , 
2025-11-24 20:07:46.580,0.6774679,3.7229328,9.743873,-0.026571855,0.110487,-0.022983128,10.21875,11.45625,-59.775,0.15554301,0.11854276,0.66130424,1002.21875, , , , 
2025-11-24 20:07:46.601,0.62482584,3.8258243,9.423235,0.19883078,-0.12293301,-0.056579728,9.075001,11.475,-60.075,0.15616764,0.11862168,0.66128016,1002.22144, , , , 
2025-11-24 20:07:46.621,0.7923234,3.7588253,8.977871,0.29778802,-0.27992076,-0.08773294,8.175,11.26875,-60.131252,0.15879466,0.118495524,0.6605948,1002.22144, , , , 
2025-11-24 20:07:46.640,0.8066803,3.8545382,8.649755,0.19027892,-0.24510247,-0.11766446,7.4437504,10.875,-60.2625,0.16371718,0.11777717,0.6589026,1002.22144,37.88739593,127.74013555,148.509033203125,0.0
2025-11-24 20:07:46.660,0.7085746,3.8521454,8.668898,0.003970507,-0.084449634,-0.11583191,6.61875,10.44375,-60.393753,0.16576593,0.117087275,0.6576574,1002.218, , , , 
2025-11-24 20:07:46.680,0.5913263,3.7995033,8.738588,-0.13530266,0.07566871,-0.09994988,5.775,9.731251,-60.3375,0.16535829,0.116672665,0.6569074,1002.218, , , , 
2025-11-24 20:07:46.700,0.5554339,3.7229328,8.949157,-0.15912572,0.078112096,-0.09994988,4.9125004,9.1875,-60.018753,0.16368191,0.116305284,0.65657634,1002.21826, , , , 
2025-11-24 20:07:46.720,0.5267201,3.6487553,9.071191,-0.09804098,-0.04352287,-0.1182753,4.2000003,8.925,-59.643753,0.1624468,0.11563008,0.65616196,1002.21826, , , , 
2025-11-24 20:07:46.740,0.5195416,3.6412778,9.19801,-0.049173206,-0.11804623,-0.1390441,3.8625002,8.90625,-59.30625,0.16224156,0.11448892,0.6553599,1002.2136, , , , 
2025-11-24 20:07:46.761,0.42382872,3.5910287,9.382557,-0.024128467,-0.08567133,-0.120107844,3.35625,9.31875,-58.537502,0.16228977,0.113130875,0.65406483,1002.20435, , , , 
2025-11-24 20:07:46.780,0.39032918,3.598207,9.238688,0.009468133,0.0132859275,-0.06940752,3.2250001,9.3,-58.18125,0.16195068,0.11279383,0.65327275,1002.20435, , , , 
2025-11-24 20:07:46.800,0.40468612,3.6317065,9.126225,0.0015271181,0.040774055,-0.030313294,3.05625,9.431251,-57.73125,0.16139473,0.11293293,0.65295696,1002.20435, , , , 
2025-11-24 20:07:46.820,0.39032918,3.6631124,8.989835,0.0076355906,0.032222193,-0.01565296,2.6625001,9.525001,-57.35625,0.16091867,0.1132389,0.65287393,1002.2119, , , , 
2025-11-24 20:07:46.840,0.34486556,3.7253258,8.886943,0.018019995,0.0053449133,-0.016874656,2.4375,9.88125,-57.3375,0.16074525,0.11349224,0.6528075,1002.2119, , , , 
2025-11-24 20:07:46.860,0.40468612,3.7109687,8.776874,0.016187452,-0.04352287,-0.04314109,2.41875,10.087501,-57.468754,0.16090839,0.11368867,0.6526119,1002.2251, , , , 
2025-11-24 20:07:46.880,0.23449662,3.5838501,8.690433,-0.0076355906,-0.09544489,-0.06574243,2.5500002,10.05,-57.3375,0.16129659,0.113522254,0.65216196,1002.2251, , , , 
2025-11-24 20:07:46.900,0.22731815,3.4881372,8.829515,-0.05833591,-0.13270657,-0.044362783,2.60625,10.125,-57.318752,0.16148756,0.11275268,0.65157115,1002.2178, , , , 
2025-11-24 20:07:46.921,0.31136605,3.4761732,8.973084,-0.09926268,-0.12781979,-0.014431266,2.4375,10.200001,-57.037502,0.16126616,0.111097805,0.65109336,1002.2178, , , , 
2025-11-24 20:07:46.940,0.4142574,3.5120654,9.075976,-0.117588095,-0.097888276,0.009391776,2.1750002,9.9375,-56.718754,0.1607795,0.10954721,0.6510077,1002.2151, , , , 
2025-11-24 20:07:46.960,0.42382872,3.6077783,9.152547,-0.11575556,-0.07284354,0.022830416,1.6125001,10.012501,-56.5875,0.16022523,0.10806141,0.65110373,1002.2151, , , , 
2025-11-24 20:07:46.980,0.37357944,3.5838501,9.056833,-0.09071082,-0.062459134,0.046042614,1.35,9.84375,-56.11875,0.1597156,0.10698689,0.6513015,1002.22095, , , , 
2025-11-24 20:07:47.000,0.49322057,3.6245282,8.88455,-0.073607095,-0.10521844,0.06620057,1.2750001,9.65625,-56.006252,0.15956144,0.10597871,0.65164715,1002.2185, , , , 
2025-11-24 20:07:47.020,0.54346985,3.7540395,8.973084,-0.08460235,-0.19195876,0.058870405,1.35,9.975,-55.875004,0.16021878,0.10407194,0.6520521,1002.2185, , , , 
2025-11-24 20:07:47.040,0.6870392,3.7636108,9.176475,-0.104760304,-0.2365506,0.03504736,1.0500001,10.293751,-55.875004,0.16115868,0.10198741,0.6521761,1002.2185, , , , 
2025-11-24 20:07:47.061,0.72293156,3.7444685,9.406485,-0.111479625,-0.2053974,0.005726693,0.7875,10.8,-56.2125,0.16199283,0.09966993,0.65208626,1002.2207, , , , 
2025-11-24 20:07:47.080,0.6678966,3.6487553,9.53809,-0.088878274,-0.16080554,0.013667707,0.71250004,11.212501,-56.250004,0.16242476,0.09767577,0.6519153,1002.2207, , , , 
2025-11-24 20:07:47.100,0.689432,3.7540395,9.518948,-0.051616594,-0.12354386,0.03993414,0.4875,11.3625,-56.343754,0.16273834,0.09618318,0.6519003,1002.2195, , , , 
2025-11-24 20:07:47.120,0.72053874,3.789932,9.399306,-0.024739314,-0.106440134,0.0381016,0.4875,11.400001,-56.550003,0.16324726,0.09515271,0.6520049,1002.2195, , , , 
2025-11-24 20:07:47.140,0.7827521,3.7995033,9.226724,-0.021685077,-0.10460759,0.021608721,0.39375,11.212501,-56.456253,0.1639137,0.09435964,0.6520817,1002.228, , , , 
2025-11-24 20:07:47.160,0.7157531,3.6918263,9.020942,-0.017409148,-0.10155336,0.011224318,0.52500004,11.34375,-56.625004,0.16482268,0.09349975,0.6519877,1002.228, , , , 
2025-11-24 20:07:47.180,0.63918275,3.6774693,8.903693,-0.018630842,-0.11804623,0.030160584,0.63750005,11.26875,-56.60625,0.16549872,0.09286055,0.65190035,1002.22974, , , , 
2025-11-24 20:07:47.200,0.6678966,3.6245282,8.800801,-9.162709E-4,-0.13820419,0.059481252,0.675,11.26875,-56.437504,0.16634451,0.092174836,0.65192455,1002.22974, , , , 
2025-11-24 20:07:47.220,0.71336025,3.5766716,8.635398,0.049173206,-0.16569231,0.09429955,0.65625,11.587501,-56.5125,0.16764812,0.091452606,0.652097,1002.2317, , , , 
2025-11-24 20:07:47.240,0.85483587,3.5671003,8.341081,0.09987353,-0.23166382,0.118733436,0.01875,12.0,-56.5125,0.16964073,0.09067615,0.6524097,1002.22485, , , , 
2025-11-24 20:07:47.260,0.9601201,3.586243,8.082356,0.12186403,-0.37460208,0.10773818,-0.375,12.075001,-56.568752,0.17271663,0.08936905,0.65268624,1002.22485, , , , 
2025-11-24 20:07:47.280,1.0342976,3.6293137,8.022536,0.08521319,-0.5248705,0.08574768,-0.69375,11.7375,-56.362503,0.17680006,0.08708182,0.65261114,1002.22485, , , , 
2025-11-24 20:07:47.300,1.2520444,3.6726837,8.518149,0.014965758,-0.69468606,0.02893889,-1.3125,11.8125,-56.381252,0.18266237,0.0822297,0.651915,1002.2273, , , , 
2025-11-24 20:07:47.320,1.326222,3.5886357,8.863015,-0.030847786,-0.7582142,-0.023593975,-2.1375,11.418751,-56.193752,0.18745369,0.07696445,0.65070814,1002.2273, , , , 
2025-11-24 20:07:47.340,1.2089736,3.6487553,9.049655,-0.0387888,-0.7911999,-0.016263809,-2.90625,11.25,-55.631252,0.1919044,0.07135263,0.64917386,1002.2251, , , , 
2025-11-24 20:07:47.360,1.3022938,3.6990047,9.349057,-0.09743014,-0.794865,-0.006490252,-4.1625004,11.475,-55.48125,0.19601318,0.065642156,0.64762187,1002.2251, , , , 
2025-11-24 20:07:47.380,1.4270196,3.8760736,9.719945,-0.15362808,-0.74233216,0.00633754,-5.0437503,11.26875,-55.10625,0.19944726,0.059700586,0.6461567,1002.22974, , , , 
2025-11-24 20:07:47.400,1.570589,3.9406798,9.801301,-0.17622943,-0.55663455,0.034436513,-6.15,11.137501,-54.562504,0.20196198,0.054418657,0.6448971,1002.22974, , , , 
2025-11-24 20:07:47.420,1.5658033,4.086642,9.9140625,-0.16523418,-0.40514445,0.074752435,-7.0875,11.38125,-54.000004,0.20336531,0.050333124,0.6441647,1002.228, , , , 
2025-11-24 20:07:47.440,1.7524434,4.254439,9.84467,-0.11270132,-0.2793099,0.096742935,-7.6312504,11.681251,-53.4,0.2042719,0.047523446,0.6439038,1002.228, , , , 
2025-11-24 20:07:47.460,1.7907287,4.465007,9.64816,-0.07605048,-0.20356485,0.06681142,-8.38125,11.981251,-52.7625,0.2056073,0.045457136,0.6438209,1002.2175, , , , 
2025-11-24 20:07:47.480,1.7500507,4.4075794,9.504591,-0.04550812,-0.12598725,0.028328042,-8.587501,12.4125,-52.55625,0.20657621,0.0450063,0.643602,1002.2175, , , , 
2025-11-24 20:07:47.500,1.7572291,4.287938,9.459127,-0.006413896,-0.10460759,0.008780929,-8.981251,12.7875,-52.256252,0.20738927,0.04505246,0.6432761,1002.2239, , , , 
2025-11-24 20:07:47.520,1.7333009,4.2014976,9.396914,0.060779303,-0.09849912,0.0020616094,-9.168751,12.76875,-52.4625,0.20837025,0.045408722,0.64287096,1002.2239, , , , 
2025-11-24 20:07:47.541,1.7811574,4.0818563,9.221938,0.092543356,-0.07773031,0.011835165,-9.375,12.750001,-52.0875,0.20963012,0.04606563,0.6424656,1002.21606, , , , 
2025-11-24 20:07:47.560,1.9151554,3.9406798,9.001799,0.07910472,-0.0013744063,0.030160584,-9.76875,12.88125,-51.693752,0.21069482,0.046897132,0.6422693,1002.21606, , , , 
2025-11-24 20:07:47.580,2.0207388,3.8641095,8.956335,0.027182704,0.083609715,0.02893889,-9.618751,12.95625,-51.225002,0.2111173,0.047733996,0.64239854,1002.2197, , , , 
2025-11-24 20:07:47.600,1.9968106,3.7660038,8.915657,-0.006413896,0.13431004,0.03077143,-9.88125,12.750001,-50.98125,0.21063927,0.048881438,0.64284325,1002.2197, , , , 
2025-11-24 20:07:47.620,1.9486549,3.694219,8.956335,-0.019241689,0.13736428,0.050318543,-9.918751,12.6,-51.16875,0.20980416,0.049708948,0.6433656,1002.22217, , , , 
2025-11-24 20:07:47.640,2.032703,3.7636108,8.944371,-0.0076355906,0.10987615,0.07108735,-9.9375,12.20625,-51.35625,0.20906736,0.05037083,0.6440396,1002.22217,37.88739593,127.74013555,148.509033203125,0.0
2025-11-24 20:07:47.661,2.2959132,3.816253,8.872586,0.0015271181,0.14347275,0.044820916,-9.993751,12.0,-51.131252,0.20870364,0.050887708,0.64472145,1002.218, , , , 
2025-11-24 20:07:47.680,2.3198416,3.801896,8.922835,0.019852536,0.23998661,0.025273805,-9.825001,12.13125,-51.093754,0.20822844,0.05179111,0.6453106,1002.218, , , , 
2025-11-24 20:07:47.700,2.14038,3.8497524,8.839087,0.09009997,0.29618457,0.029549737,-9.50625,12.13125,-51.075,0.20750207,0.05357721,0.64594465,1002.22046, , , , 
2025-11-24 20:07:47.720,1.9199411,3.761218,8.472686,0.13591352,0.29740626,0.068033114,-9.225,12.01875,-50.9625,0.20703928,0.056143966,0.6466861,1002.22046, , , , 
2025-11-24 20:07:47.740,1.7739788,3.72054,8.245368,0.17989452,0.2528144,0.13644801,-8.887501,11.868751,-51.2625,0.20682226,0.058932595,0.64769846,1002.22095, , , , 
2025-11-24 20:07:47.760,1.9414765,3.7995033,7.9148593,0.17134266,0.19600561,0.17859647,-8.625,11.6625,-51.80625,0.20744511,0.062086344,0.64938164,1002.22095, , , , 
2025-11-24 20:07:47.780,2.219343,3.9526439,7.8023963,0.07727218,0.18134528,0.18714833,-8.606251,11.493751,-51.91875,0.20833218,0.0636831,0.650894,1002.218, , , , 
2025-11-24 20:07:47.800,2.2935205,4.098606,7.953144,-0.024739314,0.23326729,0.18226156,-8.45625,11.34375,-52.068752,0.2086564,0.06468003,0.6525408,1002.218, , , , 
2025-11-24 20:07:47.820,2.3198416,4.26401,7.8957167,-0.10720369,0.3187859,0.15171918,-8.38125,11.15625,-52.0875,0.20825222,0.06572728,0.65418273,1002.2175, , , , 
2025-11-24 20:07:47.840,2.379662,4.4171505,7.7569327,-0.19699824,0.3792598,0.10957073,-8.3625,11.137501,-51.975002,0.20699497,0.06700354,0.65579295,1002.2175, , , , 
2025-11-24 20:07:47.860,2.652743,4.4674,7.6516485,-0.3246653,0.35543674,0.054594472,-8.15625,11.137501,-51.7125,0.20459782,0.06813487,0.6575395,1002.2197, , , , 
2025-11-24 20:07:47.880,2.0877378,4.8649077,8.053643,-0.2855711,0.27663746,-0.32840675,-7.70625,11.55,-51.825,0.2013112,0.06855858,0.65769804,1002.2197, , , , 
2025-11-24 20:07:47.900,1.4772689,4.4147577,7.8430743,-0.25747213,0.1416402,-0.095063105,-7.1625004,11.681251,-51.73125,0.19826639,0.06879672,0.6564734,1002.22705, , , , 
2025-11-24 20:07:47.920,3.165106,4.872086,7.917252,-0.23303823,0.04382829,-0.12438377,-6.7500005,11.94375,-51.35625,0.1962861,0.06808015,0.65630543,1002.22705, , , , 
2025-11-24 20:07:47.940,1.6615162,4.5822554,8.745767,-0.11697725,0.005955761,-0.16164546,-6.6000004,12.3,-51.43125,0.19522491,0.067371055,0.65520823,1002.23267, , , , 
2025-11-24 20:07:47.960,2.5881367,4.6636114,8.451151,0.055892523,-0.028251685,-0.07368345,-6.76875,12.281251,-51.35625,0.19513267,0.06732714,0.6542263,1002.23267, , , , 
2025-11-24 20:07:47.980,2.1332014,4.658826,7.8670025,0.229984,-0.22983128,-0.14759597,-6.8812504,12.525001,-51.225002,0.19702643,0.06763806,0.6533405,1002.23584, , , , 
2025-11-24 20:07:48.001,1.3621143,4.1727834,7.2397842,0.48592898,-0.51815116,0.17676392,-7.2000003,12.712501,-51.506252,0.20338005,0.06728796,0.6516912,1002.23584, , , , 
2025-11-24 20:07:48.021,1.5729818,4.28076,6.631708,0.7626428,-0.84984124,0.37834352,-7.3125005,12.975,-51.206253,0.2123357,0.066089906,0.65166354,1002.23047, , , , 
2025-11-24 20:07:48.040,1.8912272,4.05075,5.192724,0.9282588,-1.2511679,0.49990213,-7.275,13.06875,-50.49375,0.2254285,0.06337715,0.65195554,1002.23047, , , , 
2025-11-24 20:07:48.061,2.4131618,3.4546378,3.4163525,1.0430981,-1.8528525,0.6080221,-7.36875,12.712501,-50.381252,0.24265593,0.057899047,0.6518946,1002.22974, , , , 
2025-11-24 20:07:48.080,2.7101707,3.1627133,2.164308,1.1823713,-2.6885679,0.70155805,-7.6687503,12.50625,-49.893753,0.26477915,0.04828169,0.6507456,1002.22974, , , , 
2025-11-24 20:07:48.100,3.0595229,2.9111679,0.8428718,1.1457204,-3.7215106,0.81212145,-8.625,11.8125,-49.95,0.2936018,0.032612536,0.64740306,1002.2329, , , , 
2025-11-24 20:07:48.120,3.4809587,2.0087745,0.1794617,0.72171605,-4.115507,1.0442433,-10.012501,11.043751,-50.006252,0.32576165,0.0092123635,0.64166766,1002.2329, , , , 
2025-11-24 20:07:48.140,3.844967,1.3692927,0.6128617,0.2947338,-4.0159388,1.3087403,-12.056251,10.762501,-49.406254,0.36171237,-0.026078623,0.6344595,1002.2307, , , , 
2025-11-24 20:07:48.160,2.9662027,0.8596215,0.2321038,0.15973656,-4.4190984,1.4724473,-14.700001,9.675,-48.412502,0.3888444,-0.057719123,0.6283649,1002.2307, , , , 
2025-11-24 20:07:48.180,3.9047875,-0.6678966,-0.9816555,-0.24586602,-4.579751,1.9482974,-17.15625,9.431251,-47.25,0.40893954,-0.08493314,0.6233213,1002.2268, , , , 
2025-11-24 20:07:48.200,5.293223,-1.1730813,-0.7181459,-1.3282874,-3.9023213,2.4284232,-20.1,9.618751,-45.61875,0.43271387,-0.136649,0.6179299,1002.2268, , , , 
2025-11-24 20:07:48.220,6.538388,-2.9590242,1.6423737,-2.3161037,-2.9292417,2.777828,-22.893751,10.012501,-43.987503,0.4378831,-0.18056372,0.6170127,1002.2263, , , , 
2025-11-24 20:07:48.241,8.712267,-3.9837506,3.897609,-2.5952609,-2.4276597,2.8792286,-25.500002,11.606251,-42.28125,0.4329068,-0.22444993,0.61845154,1002.2263, , , , 
2025-11-24 20:07:48.260,10.34477,-4.6325045,5.846264,-2.4700372,-2.5162325,2.853573,-27.956251,13.556251,-40.143753,0.42471325,-0.26711178,0.61973536,1002.23364, , , , 
2025-11-24 20:07:48.280,10.826027,-5.0587263,7.089036,-2.11147,-2.95673,2.9201553,-29.643751,16.2,-38.30625,0.41833538,-0.3099882,0.6189447,1002.23364, , , , 
2025-11-24 20:07:48.300,11.52533,-5.927919,6.5575304,-1.6911306,-3.1051657,3.033162,-30.91875,19.518751,-35.9625,0.4144021,-0.35173532,0.6171776,1002.2378, , , , 
2025-11-24 20:07:48.320,12.384652,-6.43759,5.0419765,-1.369825,-3.1937385,3.1681592,-31.368752,22.85625,-33.84375,0.4119557,-0.40083134,0.6156862,1002.2378, , , , 
2025-11-24 20:07:48.341,12.810873,-7.172785,3.9406798,-1.2555965,-3.1570878,3.319115,-31.800001,25.968752,-31.181252,0.4099755,-0.43847972,0.61459666,1002.24316, , , , 
2025-11-24 20:07:48.360,12.882658,-7.606185,3.3182468,-1.1541959,-3.2029014,3.5103102,-31.800001,28.987501,-28.406252,0.40692,-0.47506285,0.6134027,1002.24316, , , , 
2025-11-24 20:07:48.380,13.203595,-8.367402,2.9853454,-1.0363023,-3.2096205,3.8334484,-31.48125,31.500002,-25.706251,0.40273836,-0.510953,0.61222255,1002.2446, , , , 
2025-11-24 20:07:48.400,13.552947,-9.585947,2.070988,-1.3062968,-2.7533176,4.2934165,-31.2,34.237503,-22.612501,0.39510664,-0.545908,0.61226934,1002.2446, , , , 
2025-11-24 20:07:48.420,14.077274,-10.6154585,2.0638096,-2.1774414,-1.6726525,4.72162,-29.775002,36.862503,-19.95,0.37346864,-0.5894406,0.6131354,1002.25366, , , , 
2025-11-24 20:07:48.440,14.060525,-10.81167,2.7101707,-2.8182201,-0.7783721,4.781483,-28.237501,39.412502,-17.23125,0.35208455,-0.6154218,0.61262506,1002.25366, , , , 
2025-11-24 20:07:48.460,13.153047,-10.129416,4.2185464,-3.4125745,0.29251948,4.4021473,-25.7625,42.300003,-14.55,0.3057658,-0.6563802,0.60794836,1002.25806, , , , 
2025-11-24 20:07:48.480,12.178869,-9.430413,5.2405806,-3.2458134,0.5338041,3.8646016,-22.44375,44.60625,-11.962501,0.2657878,-0.6849601,0.6010367,1002.25806, , , , 
2025-11-24 20:07:48.500,11.419746,-8.745767,5.580661,-2.518294,0.4207974,3.273836,-18.900002,46.78125,-9.1125,0.22945225,-0.70766085,0.59402955,1002.26465, , , , 
2025-11-24 20:07:48.520,10.660922,-8.115856,4.9725847,-1.44557,0.18073443,2.7161324,-14.587501,49.050003,-6.2625003,0.19992265,-0.72345734,0.590036,1002.26465, , , , 
2025-11-24 20:07:48.540,10.2347,-7.744969,3.8330028,-0.69361705,0.042606596,2.345959,-10.743751,50.250004,-3.35625,0.1772792,-0.7331154,0.5901603,1002.2661, , , , 
2025-11-24 20:07:48.560,10.009775,-7.402496,2.5064816,-0.3203894,-0.051463883,2.1022308,-7.1625004,51.393753,-1.2375001,0.1557933,-0.739888,0.59397835,1002.2661, , , , 
2025-11-24 20:07:48.580,9.97149,-6.8279195,1.8361923,-0.35337514,-0.07711947,2.021599,-4.2000003,51.80625,0.3375,0.14115296,-0.7440902,0.5972715,1002.2754, , , , 
2025-11-24 20:07:48.601,10.560424,-5.736194,1.7739788,-0.46882528,-0.1021642,1.9825047,-1.8750001,51.91875,1.1437501,0.12696263,-0.74862456,0.599372,1002.2754, , , , 
2025-11-24 20:07:48.620,11.889038,-4.503292,1.7955143,-0.5195256,-0.18035266,1.7955855,0.63750005,52.500004,1.575,0.11358306,-0.75337553,0.60022134,1002.2771, , , , 
2025-11-24 20:07:48.640,12.880265,-3.7875392,1.975275,-0.45905173,-0.34161633,1.5353646,2.5500002,52.781254,2.025,0.102617584,-0.75787896,0.60008353,1002.2771,37.88739593,127.74013555,148.509033203125,0.0
2025-11-24 20:07:48.660,14.877076,-2.9111679,2.097309,-0.26541314,-0.6464291,1.0845593,4.5375004,53.081253,2.4750001,0.095769525,-0.76166844,0.5996032,1002.28125, , , , 
2025-11-24 20:07:48.680,16.497614,-1.9031913,2.5112674,-0.046118967,-0.84984124,0.51700586,6.3187504,52.66875,3.4687502,0.09463762,-0.76424164,0.5991787,1002.28125, , , , 
2025-11-24 20:07:48.700,16.691732,-1.2017952,2.3916261,0.09681929,-0.7404996,-0.33207184,7.4437504,51.956253,3.9,0.10218062,-0.7650885,0.5985378,1002.2803, , , , 
2025-11-24 20:07:48.720,16.330118,-2.0111675,2.5208387,0.046729814,-0.38193226,-1.2043617,8.4375,51.375004,4.1625004,0.11396244,-0.7638891,0.59677213,1002.2803, , , , 
2025-11-24 20:07:48.740,16.208084,-3.411567,2.4179473,-0.021685077,0.13186665,-2.011291,8.625,51.318752,4.125,0.12942219,-0.760984,0.59317666,1002.27686, , , , 
2025-11-24 20:07:48.760,16.98605,-4.3788652,1.9271195,-0.05467083,0.7451573,-2.6979597,8.0625,51.525,3.6375,0.14665364,-0.75573653,0.5881752,1002.27686, , , , 
2025-11-24 20:07:48.780,17.704494,-4.587041,1.8816559,-0.095597595,1.3486744,-3.6594331,6.675,51.9,3.2062502,0.16548732,-0.7475405,0.5813168,1002.27515, , , , 
2025-11-24 20:07:48.800,16.703697,-6.3753767,1.9295124,-0.064444385,1.4574052,-4.5873103,4.51875,52.443752,3.0187502,0.18793418,-0.7359749,0.571388,1002.27515, , , , 
2025-11-24 20:07:48.820,15.07568,-8.79123,2.2743778,0.15912572,1.4091482,-5.018645,-0.3375,52.331253,2.6625001,0.22145271,-0.71698403,0.5553783,1002.271, , , , 
2025-11-24 20:07:48.840,13.837993,-10.155738,2.312663,0.5983249,1.4641246,-4.8317256,-2.30625,52.143753,2.625,0.24841827,-0.6977947,0.54387563,1002.271, , , , 
2025-11-24 20:07:48.860,12.090335,-10.366306,1.50359,1.3057624,1.5710227,-4.102908,-6.80625,51.61875,2.3812501,0.2726066,-0.6750205,0.53741956,1002.2776, , , , 
2025-11-24 20:07:48.880,11.968001,-10.182058,0.35443684,1.7162517,1.4372473,-3.472514,-11.55,50.79375,1.8937501,0.2939317,-0.6506061,0.5360314,1002.2776, , , , 
2025-11-24 20:07:48.900,11.855539,-9.674481,-0.6152545,1.743129,1.2203965,-3.1170008,-15.7875,49.687504,0.84375006,0.3140889,-0.62653816,0.53669345,1002.2727, , , , 
2025-11-24 20:07:48.921,10.818849,-9.030513,-0.9170493,1.5696484,1.0035456,-2.9679542,-19.6875,48.2625,-0.84375006,0.33343416,-0.60388976,0.5364945,1002.2727, , , , 
2025-11-24 20:07:48.940,9.626625,-8.819944,-0.7827521,1.443203,0.73171866,-2.744384,-22.743752,46.800003,-2.68125,0.35190535,-0.5830376,0.534847,1002.2742, , , , 
2025-11-24 20:07:48.960,8.745767,-8.470293,-0.61046886,1.3888376,0.5173113,-2.4230783,-25.312502,44.850002,-4.9125004,0.36920288,-0.56452733,0.53262305,1002.2742, , , , 
2025-11-24 20:07:48.980,7.9818583,-8.096714,-0.4429713,1.4963467,0.54052347,-2.120098,-27.750002,43.068752,-6.80625,0.38880056,-0.54312587,0.53094316,1002.2832, , , , 
2025-11-24 20:07:49.000,7.2756763,-7.9890366,-1.0630114,1.6728816,0.66880137,-1.9037819,-29.41875,41.325,-8.45625,0.4029925,-0.52528685,0.531845,1002.2832, , , , 
2025-11-24 20:07:49.020,6.6628146,-8.027322,-1.907977,1.6502802,0.6443675,-1.6820443,-31.1625,39.45,-10.1625,0.416246,-0.50738126,0.5342912,1002.27783, , , , 
2025-11-24 20:07:49.040,6.3825555,-8.010572,-2.4107687,1.5000118,0.558238,-1.5354409,-32.8125,37.66875,-11.75625,0.42541468,-0.4950226,0.5361815,1002.27783, , , , 
2025-11-24 20:07:49.060,5.6069818,-8.012965,-2.882454,1.0504283,0.37620556,-1.3002647,-34.03125,36.131252,-13.462501,0.43871245,-0.47774816,0.5380179,1002.27515, , , , 
2025-11-24 20:07:49.080,4.99412,-7.9363947,-2.9183464,0.64719266,0.27785915,-1.075473,-35.362503,34.987503,-14.94375,0.44687736,-0.46744654,0.5380859,1002.27515, , , , 
2025-11-24 20:07:49.100,4.692325,-7.795218,-2.6479573,0.17622943,0.20394664,-0.7682168,-36.16875,33.581253,-16.125,0.4521724,-0.4608186,0.53715485,1002.2761, , , , 
2025-11-24 20:07:49.121,4.3501515,-7.426424,-2.1714866,-0.12980504,0.2656422,-0.48234028,-36.5625,32.287502,-16.96875,0.45412183,-0.45703414,0.53549874,1002.2754, , , , 
2025-11-24 20:07:49.140,3.9526439,-6.995417,-1.8696918,-0.38208497,0.32367268,-0.17569494,-36.956253,31.706251,-16.931252,0.45206952,-0.456653,0.5347646,1002.2754, , , , 
2025-11-24 20:07:49.160,3.7181473,-6.5982084,-1.5203397,-0.59282726,0.32184014,0.15599512,-37.3875,31.0125,-17.2875,0.4472142,-0.45868102,0.53473425,1002.2754, , , , 
2025-11-24 20:07:49.180,3.7348971,-6.1504517,-1.16351,-0.7443174,0.29374117,0.5231143,-37.48125,30.862501,-17.00625,0.43991953,-0.46302906,0.5355213,1002.28, , , , 
2025-11-24 20:07:49.200,3.9550366,-5.9039907,-0.83778703,-0.82006246,0.1428619,0.83960956,-37.275,30.956251,-17.025002,0.43094343,-0.469635,0.5370589,1002.28, , , , 
2025-11-24 20:07:49.220,4.3669014,-5.7673006,-0.6008976,-0.83899873,-0.08322794,1.1743538,-37.2,31.35,-16.725,0.42107928,-0.47875872,0.5391247,1002.2771, , , , 
2025-11-24 20:07:49.240,5.1352963,-5.791229,-0.18185452,-0.8170082,-0.39353836,1.5701829,-36.6375,32.11875,-16.5,0.40811017,-0.49384132,0.5425672,1002.2771, , , , 
2025-11-24 20:07:49.261,6.1624155,-5.8821564,0.16271193,-0.749815,-0.6720847,1.901262,-35.90625,33.787502,-15.88125,0.39759475,-0.508641,0.5460388,1002.2766, , , , 
2025-11-24 20:07:49.280,7.069894,-6.0834527,0.48125646,-0.64719266,-0.8412894,2.2164593,-35.90625,34.350002,-15.712501,0.38695368,-0.52501494,0.55042857,1002.2766, , , , 
2025-11-24 20:07:49.300,8.106285,-6.7704916,0.7683952,-0.54945713,-0.8602257,2.5945737,-34.818752,35.71875,-14.94375,0.3752928,-0.54211247,0.556491,1002.27637, , , , 
2025-11-24 20:07:49.320,9.631411,-7.012167,1.5059828,-0.49203748,-0.64032066,2.9629147,-33.525,37.03125,-13.9875,0.3613659,-0.5591995,0.56477565,1002.27637, , , , 
2025-11-24 20:07:49.341,10.538888,-6.0140605,2.2360928,-0.40163207,-0.3825431,3.0038414,-31.9125,38.5125,-13.06875,0.34504646,-0.57467353,0.5747956,1002.27563, , , , 
2025-11-24 20:07:49.360,10.981859,-5.3629136,2.6694927,-0.23364908,-0.18340689,2.8407452,-29.718752,40.237503,-12.093751,0.32827753,-0.58736277,0.58531654,1002.27563, , , , 
2025-11-24 20:07:49.380,11.240284,-5.547161,2.652743,-0.019241689,-0.058794048,2.722241,-27.6,42.24375,-11.45625,0.3081882,-0.59933406,0.59885055,1002.2742, , , , 
2025-11-24 20:07:49.400,11.735898,-5.8247285,2.1044874,0.20982604,-0.0801737,2.7680542,-25.331251,43.875,-10.856251,0.29272008,-0.6067308,0.61050504,1002.2742, , , , 
2025-11-24 20:07:49.420,12.355938,-5.5950174,1.2735798,0.2776301,-0.09972081,2.8273065,-22.931252,45.225002,-10.5375,0.2815748,-0.6115968,0.6196419,1002.2744, , , , 
2025-11-24 20:07:49.440,13.406985,-5.0395837,0.622433,0.14263284,-0.11438115,2.75767,-20.643751,46.29375,-10.51875,0.26331404,-0.6192926,0.63407016,1002.2744, , , , 
2025-11-24 20:07:49.460,14.153845,-4.587041,0.16271193,-0.19699824,-0.19073705,2.549371,-18.0375,47.0625,-10.725,0.24946517,-0.62624085,0.64272785,1002.2727, , , , 
2025-11-24 20:07:49.480,14.333606,-4.26401,-0.0047856453,-0.80356956,-0.13820419,2.309308,-15.637501,47.850002,-10.725,0.2359749,-0.6351612,0.6473777,1002.2727, , , , 
2025-11-24 20:07:49.500,14.987145,-3.9813578,0.5051847,-1.3203464,-0.028862532,2.0704668,-13.312501,48.843754,-10.5375,0.22138588,-0.64630187,0.64778715,1002.26953, , , , 
2025-11-24 20:07:49.520,15.463616,-4.0005,1.0917253,-1.6190506,-0.03802524,1.7955855,-10.89375,49.7625,-10.106251,0.20272712,-0.6623021,0.6429554,1002.26953, , , , 
2025-11-24 20:07:49.540,16.356438,-3.818646,1.6543378,-1.6618099,-0.2170035,1.557355,-8.94375,50.643753,-9.0375,0.18905169,-0.6756217,0.63641673,1002.2822, , , , 
2025-11-24 20:07:49.562,16.90948,-2.6694927,2.0470598,-1.417471,-0.43507597,1.305686,-6.76875,51.468754,-7.74375,0.17815775,-0.6879165,0.6293325,1002.2822, , , , 
2025-11-24 20:07:49.580,17.278273,-1.3980067,1.8720846,-1.2128372,-0.5700732,0.7754706,-4.7625003,51.787502,-6.1875005,0.1720156,-0.6982537,0.6222365,1002.2849, , , , 
2025-11-24 20:07:49.600,16.270296,-0.4668995,1.8098712,-1.2812521,-0.3208475,-0.11766446,-3.1875002,51.99375,-4.89375,0.17146368,-0.7064622,0.6135174,1002.2849, , , , 
2025-11-24 20:07:49.620,13.9935255,-0.79710907,2.0685952,-1.5133741,0.37620556,-1.1292275,-1.85625,51.862503,-3.7875001,0.17446065,-0.7124544,0.60186195,1002.2893, , , , 
2025-11-24 20:07:49.640,11.834003,-2.0231316,2.5953152,-1.5555226,1.0438616,-1.7260253,-1.7625,52.0875,-2.4,0.1778318,-0.71574193,0.5879181,1002.2893,37.88739593,127.74013555,148.509033203125,0.0
2025-11-24 20:07:49.661,10.330414,-3.5168512,3.0284162,-1.1651912,1.4329714,-1.970975,-2.34375,52.162502,-1.2375001,0.1805903,-0.71501726,0.57075804,1002.292, , , , 
2025-11-24 20:07:49.680,9.904491,-4.0962133,3.167499,-0.46638188,1.3676107,-1.9184421,-3.525,51.99375,0.45000002,0.18300238,-0.7101984,0.560486,1002.292, , , , 
2025-11-24 20:07:49.700,10.127024,-3.9717865,2.8609185,0.3051182,0.9791118,-1.815209,-5.55,51.881252,1.40625,0.18821256,-0.7021606,0.55477107,1002.291, , , , 
2025-11-24 20:07:49.720,10.40489,-3.670291,2.5064816,0.90382487,0.44706383,-1.9257723,-7.3500004,51.281254,2.04375,0.19871216,-0.6921624,0.55239785,1002.291, , , , 
2025-11-24 20:07:49.740,10.316056,-3.4354951,2.248057,1.259338,-0.056961507,-2.1970649,-9.225,50.737503,2.1000001,0.21561976,-0.68107754,0.5510674,1002.28955, , , , 
2025-11-24 20:07:49.760,10.045668,-3.4307094,2.408376,1.4456464,-0.45950985,-2.476222,-11.15625,50.250004,1.5,0.23783533,-0.6695412,0.5491384,1002.28955, , , , 
2025-11-24 20:07:49.780,9.863813,-3.4689946,2.530709,1.5568206,-0.59145284,-2.6778016,-12.806251,49.818752,0.63750005,0.26338467,-0.6572646,0.5463463,1002.2937, , , , 
2025-11-24 20:07:49.801,9.933205,-3.7683966,2.5040889,1.6142403,-0.62077355,-2.8347895,-16.10625,49.0875,-1.0875001,0.29757893,-0.640235,0.5418608,1002.29346, , , , 
2025-11-24 20:07:49.822,10.138988,-4.156034,2.0374885,1.5323867,-0.55296946,-2.9025934,-17.362501,48.768753,-1.725,0.3252977,-0.6254762,0.5373637,1002.29346, , , , 
2025-11-24 20:07:49.840,10.4718895,-4.4195433,1.5418751,1.2477319,-0.36910444,-2.9105344,-19.96875,47.756252,-3.0937502,0.35147527,-0.61037666,0.53170204,1002.29346, , , , 
2025-11-24 20:07:49.860,10.651351,-4.7306104,1.1228321,0.87144995,-0.30679804,-2.8940415,-22.5375,46.425003,-4.2375,0.37505847,-0.5960761,0.52401227,1002.29175, , , , 
2025-11-24 20:07:49.880,10.90499,-5.235795,0.9912268,0.5134171,0.109265305,-2.8347895,-24.993752,44.625,-5.3625,0.39519975,-0.5821745,0.5150286,1002.29175, , , , 
2025-11-24 20:07:49.900,10.680065,-5.5950174,1.1850454,0.2483094,0.38170317,-2.7785914,-27.243752,42.9,-6.3375,0.41135988,-0.56802094,0.5056278,1002.2776, , , , 
2025-11-24 20:07:49.920,10.632208,-6.0810595,1.5227325,0.12980504,0.514257,-2.7468274,-29.5125,41.23125,-7.0687504,0.4245535,-0.55389297,0.49571413,1002.2776, , , , 
2025-11-24 20:07:49.941,10.989038,-6.8925257,1.5251254,0.23548162,0.50448346,-2.6594763,-31.968752,39.112503,-7.5750003,0.4391317,-0.5361582,0.48325446,1002.2739, , , , 
2025-11-24 20:07:49.961,10.900205,-7.1799636,1.3166506,0.44500223,0.5338041,-2.5140946,-33.9375,37.518753,-7.9125004,0.44762382,-0.52536476,0.47655728,1002.2739, , , , 
2025-11-24 20:07:49.980,9.899706,-6.8255267,0.6655038,0.7070557,0.65780616,-2.2996871,-35.943752,35.737503,-8.400001,0.4613832,-0.50618845,0.4683705,1002.2788, , , , 
2025-11-24 20:07:50.001,8.589934,-6.3179493,0.20338993,0.7864658,0.6779641,-2.1536946,-38.30625,32.662502,-9.243751,0.4721031,-0.49006984,0.46386194,1002.28, , , , 
2025-11-24 20:07:50.020,7.878967,-6.593423,-0.19621146,0.7266028,0.64986515,-1.9984632,-38.925003,31.875002,-9.58125,0.48228842,-0.47429606,0.4599126,1002.28, , , , 
2025-11-24 20:07:50.040,7.5942206,-7.2565336,-0.4645067,0.6765133,0.69262445,-1.6960938,-40.237503,29.79375,-10.35,0.49092335,-0.45974904,0.45665246,1002.28, , , , 
2025-11-24 20:07:50.061,7.3689966,-7.450352,-0.68225354,0.74798244,0.7671478,-1.2049726,-40.987503,27.975,-10.89375,0.497188,-0.44688728,0.45561904,1002.2798, , , , 
2025-11-24 20:07:50.080,7.3378897,-7.6085777,-1.1539388,0.9258154,0.7756997,-0.6863633,-41.49375,26.475,-11.4375,0.50236285,-0.4332692,0.45922235,1002.2798, , , , 
2025-11-24 20:07:50.100,7.301997,-7.5293155,-1.9175483,1.0143882,0.5490753,-0.1738624,-42.075,25.125002,-12.562501,0.5049254,-0.4268226,0.4637026,1002.2815, , , , 
2025-11-24 20:07:50.120,7.268498,-6.8374906,-2.585744,0.8561024,0.11170869,0.38628453,-42.46875,24.075,-13.6125,0.50865495,-0.42158848,0.4726481,1002.2815, , , , 
2025-11-24 20:07:50.140,6.995417,-6.059524,-2.8393831,0.48287475,-0.16752486,0.85793495,-42.862503,23.41875,-14.343751,0.5098641,-0.42318904,0.47988537,1002.2793, , , , 
2025-11-24 20:07:50.160,7.0603223,-5.142475,-2.3246272,-0.015576605,-0.33184278,1.3014101,-42.956253,22.800001,-15.281251,0.50794286,-0.42986324,0.4866201,1002.2793, , , , 
2025-11-24 20:07:50.181,7.3235326,-4.3357944,-1.4222339,-0.2935121,-0.27442312,1.5677395,-42.956253,22.66875,-15.450001,0.5026212,-0.4401957,0.49294645,1002.27246, , , , 
2025-11-24 20:07:50.201,7.5149584,-3.801896,-0.84765744,-0.35704023,-0.041690327,1.7033476,-42.393753,23.04375,-15.6,0.49433306,-0.451507,0.4998778,1002.27246, , , , 
2025-11-24 20:07:50.220,7.7880397,-3.6846478,-0.57936215,-0.26052636,0.13308835,1.7326683,-41.475002,24.35625,-15.618751,0.481815,-0.46435177,0.51009107,1002.2688, , , , 
2025-11-24 20:07:50.240,7.8646097,-3.8904305,-0.7396813,-0.09681929,0.2308239,1.7290032,-41.04375,25.125002,-15.562501,0.47164664,-0.4730844,0.5192681,1002.2654, , , , 
2025-11-24 20:07:50.261,7.6181493,-4.031607,-1.1012967,0.05833591,0.26625305,1.749772,-39.825,27.7875,-15.468751,0.4617854,-0.48053178,0.5293331,1002.2654, , , , 
2025-11-24 20:07:50.280,7.376175,-4.0794635,-1.462912,0.11697725,0.1428619,1.8090242,-39.28125,28.593752,-15.356251,0.45248902,-0.48763308,0.5397296,1002.2654, , , , 
2025-11-24 20:07:50.300,7.1273212,-4.2038903,-1.7548363,0.05650337,-0.019699825,1.893932,-38.175003,30.187502,-15.31875,0.44368678,-0.495567,0.5497259,1002.2715, , , , 
2025-11-24 20:07:50.320,7.242177,-4.362116,-1.9199411,-0.2043284,-0.25548688,2.013658,-37.125,31.275002,-15.50625,0.4347915,-0.5054827,0.55850506,1002.2715, , , , 
2025-11-24 20:07:50.340,7.361818,-4.321438,-1.570589,-0.4883724,-0.40514445,2.1291082,-35.9625,32.643753,-15.431251,0.42497778,-0.51788974,0.5655309,1002.2771, , , , 
2025-11-24 20:07:50.360,7.8167534,-4.4841495,-0.97926265,-0.78768754,-0.56152135,2.225011,-34.36875,33.80625,-15.4875,0.41096365,-0.53658694,0.5717686,1002.2771, , , , 
2025-11-24 20:07:50.380,8.223832,-4.7425747,-0.34486556,-0.98010445,-0.6384881,2.3038104,-33.09375,35.081253,-15.093751,0.3984383,-0.55348957,0.5748969,1002.27344, , , , 
2025-11-24 20:07:50.400,8.848659,-5.003691,0.2440679,-1.0729532,-0.6134434,2.3984919,-31.63125,36.956253,-14.681251,0.38457403,-0.5711509,0.5772173,1002.27344, , , , 
2025-11-24 20:07:50.420,9.7654085,-5.0922256,0.6415756,-1.0851701,-0.49554983,2.4265907,-30.206251,38.362503,-14.306251,0.36942053,-0.5885055,0.57941395,1002.2722, , , , 
2025-11-24 20:07:50.440,10.443175,-5.1352963,0.87637126,-0.99904066,-0.37582377,2.3789446,-28.95,40.143753,-13.106251,0.3535332,-0.60461,0.58172417,1002.2722, , , , 
2025-11-24 20:07:50.460,10.703993,-5.508876,0.61046886,-0.8909207,-0.26403874,2.3080864,-27.000002,41.79375,-12.225,0.3376582,-0.6190016,0.5843155,1002.2739, , , , 
2025-11-24 20:07:50.480,10.610673,-5.8749776,0.6583253,-0.8683194,-0.1937913,2.3068647,-25.25625,43.237503,-10.78125,0.32170755,-0.63199645,0.5871874,1002.2739, , , , 
2025-11-24 20:07:50.500,10.577173,-5.8677993,0.93619186,-0.88603395,-0.18890451,2.4192605,-23.175001,44.60625,-9.6,0.3008543,-0.647726,0.5907102,1002.27686, , , , 
2025-11-24 20:07:50.520,10.778171,-5.7840505,1.2281163,-0.8554916,-0.13453911,2.529824,-20.85,45.6375,-8.681251,0.28304717,-0.65996563,0.593734,1002.27686, , , , 
2025-11-24 20:07:50.540,11.283355,-6.033203,1.3669,-0.8023479,-0.14919944,2.513331,-18.88125,46.66875,-7.7250004,0.26482412,-0.6714832,0.5968497,1002.2822, , , , 
2025-11-24 20:07:50.560,11.874681,-6.224629,1.311865,-0.7009472,-0.19501299,2.4632416,-16.706251,47.8125,-7.0312505,0.24728565,-0.6821585,0.5996857,1002.2822, , , , 
2025-11-24 20:07:50.580,12.37508,-6.2676997,1.0749756,-0.5751127,-0.1369825,2.4931731,-14.475,49.068752,-6.3375,0.23019384,-0.69166195,0.6028586,1002.28296, , , , 
2025-11-24 20:07:50.600,13.409378,-5.8630137,0.7612167,-0.43278527,-0.13270657,2.51272,-12.31875,49.893753,-5.2125,0.21301515,-0.6999018,0.6066948,1002.28296, , , , 
2025-11-24 20:07:50.620,14.496318,-5.0276194,0.43579283,-0.29412296,-0.15225367,2.4046001,-9.58125,50.79375,-4.6875,0.19670269,-0.7068584,0.6108575,1002.2805, , , , 
2025-11-24 20:07:50.640,15.259928,-4.479364,0.086141616,-0.2391467,-0.15530792,2.1504877,-7.1625004,51.300003,-3.91875,0.17887329,-0.71376276,0.61572313,1002.2805,37.88740958,127.74012255,148.1689453125,1.31
2025-11-24 20:07:50.660,16.198511,-4.0363927,-0.05503492,-0.2855711,-0.17852011,1.8749957,-4.74375,51.54375,-3.0,0.16689146,-0.7185202,0.61842936,1002.2776, , , , 
2025-11-24 20:07:50.680,17.211275,-3.9000018,-0.062213387,-0.31489176,-0.23899399,1.4926053,-2.5687501,51.693752,-3.0375001,0.15744407,-0.7229121,0.6196123,1002.2776, , , , 
2025-11-24 20:07:50.700,17.938992,-3.5431721,0.009571291,-0.30939415,-0.3324536,1.0430217,-0.75,51.768753,-2.4375,0.15150355,-0.72678065,0.61933583,1002.27075, , , , 
2025-11-24 20:07:50.720,17.781065,-2.626422,0.2656033,-0.22326468,-0.33123192,0.52372515,0.99375004,51.843754,-2.30625,0.14932859,-0.72973275,0.6181278,1002.27075, , , , 
2025-11-24 20:07:50.740,16.545471,-1.5490535,0.22731815,-0.20860434,-0.04718795,-0.07124006,2.1375,51.956253,-2.25,0.15058596,-0.73115486,0.6164436,1002.2656, , , , 
2025-11-24 20:07:50.760,14.465211,-1.2520444,0.28265217,-0.41384903,0.46905434,-0.8384642,2.9625,52.2,-2.15625,0.15447733,-0.7310188,0.61331725,1002.2656, , , , 
2025-11-24 20:07:50.780,12.178869,-1.9103698,0.6583253,-0.7192727,1.1910758,-1.6569996,3.0937502,52.162502,-2.025,0.16109239,-0.72922736,0.6055088,1002.25977, , , , 
2025-11-24 20:07:50.800,10.488639,-3.030809,1.096511,-0.6563554,1.8251352,-2.140867,2.8312502,52.36875,-1.8375001,0.16569681,-0.7252314,0.5975119,1002.25977, , , , 
2025-11-24 20:07:50.820,9.432806,-4.2038903,1.2161521,-0.2586938,2.1030707,-2.38093,2.11875,52.218754,-1.5937501,0.16944125,-0.71747655,0.5905201,1002.2654, , , , 
2025-11-24 20:07:50.840,8.8701935,-5.006084,0.933799,0.3399365,1.7744349,-2.4310193,0.54375005,52.10625,-1.10625,0.17453352,-0.70637596,0.58559746,1002.2654, , , , 
2025-11-24 20:07:50.860,9.020942,-5.386842,1.0103694,0.7308788,0.93085486,-2.3381705,-1.2,52.068752,-0.54375005,0.18337043,-0.6941668,0.5823457,1002.27, , , , 
2025-11-24 20:07:50.880,10.045668,-5.073083,1.8361923,1.0699754,-0.12781979,-2.3833733,-3.2625,51.9,-0.31875002,0.19836137,-0.68340003,0.579278,1002.27, , , , 
2025-11-24 20:07:50.900,10.443175,-4.74736,2.4921248,1.4743562,-0.92069954,-2.6814668,-5.775,51.43125,-0.45000002,0.22102423,-0.6732758,0.57604957,1002.2661, , , , 
2025-11-24 20:07:50.920,10.332807,-4.709075,2.9039893,1.703424,-1.3660072,-3.0149894,-7.9125004,51.187504,-1.03125,0.2586902,-0.6594003,0.57107735,1002.2661, , , , 
2025-11-24 20:07:50.940,10.179666,-4.939085,2.5522444,1.7290795,-1.4142641,-3.272156,-10.725,50.831253,-2.1000001,0.293362,-0.64667404,0.565677,1002.2615, , , , 
2025-11-24 20:07:50.960,10.213165,-5.2310095,1.9414765,1.5384952,-1.1314418,-3.3876061,-13.312501,49.7625,-3.35625,0.32785177,-0.6322777,0.5590003,1002.2615, , , , 
2025-11-24 20:07:50.980,10.332807,-5.3533425,1.3860425,1.0980743,-0.7044596,-3.36867,-15.95625,48.80625,-4.70625,0.35916913,-0.61705583,0.5508673,1002.2678, , , , 
2025-11-24 20:07:51.000,10.349556,-5.262116,1.0486546,0.60809845,-0.23593976,-3.288038,-19.143751,47.4375,-5.7375,0.3857103,-0.6018697,0.54122245,1002.2678, , , , 
2025-11-24 20:07:51.020,10.51496,-5.2645087,0.8282157,0.09681929,0.29496288,-3.1835833,-22.06875,45.693752,-6.8437505,0.40645954,-0.5869223,0.5304785,1002.26685, , , , 
2025-11-24 20:07:51.040,10.706386,-5.4729834,0.7516454,-0.4199575,0.8398386,-3.1347153,-25.181252,44.081253,-7.51875,0.42130116,-0.57211083,0.5188432,1002.26685, , , , 
2025-11-24 20:07:51.060,10.708778,-5.8968124,1.0486546,-0.6801784,1.1813022,-3.1371589,-28.181252,42.35625,-7.9875,0.43299836,-0.5533315,0.5030458,1002.2693, , , , 
2025-11-24 20:07:51.080,10.526924,-6.5718875,1.3836497,-0.69361705,1.3663889,-3.0950103,-30.675001,40.4625,-8.400001,0.43894592,-0.53758717,0.49007842,1002.2693, , , , 
2025-11-24 20:07:51.100,10.371092,-7.0842505,1.2664014,-0.4535541,1.6162255,-3.0174327,-32.831253,38.625,-8.55,0.4432703,-0.52031,0.47825897,1002.2744, , , , 
2025-11-24 20:07:51.120,9.832706,-7.1105714,0.70378894,-0.0015271181,1.7689373,-2.8531148,-34.912502,36.45,-8.94375,0.44711906,-0.5006475,0.46894377,1002.2744, , , , 
2025-11-24 20:07:51.140,9.075976,-7.0603223,-0.0047856453,0.36742464,1.5783529,-2.631988,-36.412502,34.36875,-9.5625,0.45197812,-0.47976995,0.46205282,1002.2761, , , , 
2025-11-24 20:07:51.160,7.993822,-6.8255267,-0.5602196,0.5531222,1.1385429,-2.4059746,-38.0625,31.987501,-10.425,0.45881957,-0.4598985,0.45623752,1002.2761, , , , 
2025-11-24 20:07:51.180,6.8614187,-6.739385,-0.689432,0.55800897,0.4867689,-2.0283947,-39.412502,29.531252,-11.606251,0.46968144,-0.4398792,0.44852376,1002.2688, , , , 
2025-11-24 20:07:51.200,7.1081786,-7.3713894,-0.6152545,0.49448085,0.09765921,-1.5384952,-40.55625,27.487501,-12.88125,0.47848842,-0.4294651,0.44215497,1002.2688, , , , 
2025-11-24 20:07:51.220,7.2613196,-7.41446,-0.84017986,0.46332765,0.18501036,-0.8806127,-41.60625,25.275002,-14.043751,0.4846654,-0.4228686,0.43847585,1002.27246, , , , 
2025-11-24 20:07:51.240,7.7330046,-7.3570323,-1.1228321,0.44927815,0.23326729,-0.26671118,-42.28125,23.41875,-14.64375,0.48761854,-0.41871685,0.43911052,1002.27246, , , , 
2025-11-24 20:07:51.260,8.3219385,-7.0148587,-1.6088741,0.38025242,0.03466558,0.35085538,-42.99375,22.1625,-15.056251,0.4885473,-0.41789323,0.44280288,1002.2766, , , , 
2025-11-24 20:07:51.280,8.712267,-6.356234,-1.8816559,0.22815146,-0.18462859,0.7742489,-43.425003,21.2625,-15.3,0.48797864,-0.42095983,0.44816244,1002.2766, , , , 
2025-11-24 20:07:51.300,8.551649,-5.2477593,-1.6399808,-0.07910472,-0.32145837,1.0589037,-43.4625,20.75625,-15.468751,0.48565608,-0.42756444,0.45392966,1002.2788, , , , 
2025-11-24 20:07:51.320,8.211868,-4.1871405,-0.66071814,-0.3814741,-0.3141282,1.2207782,-43.275,20.925001,-15.69375,0.47941533,-0.43923017,0.46040845,1002.2788, , , , 
2025-11-24 20:07:51.340,7.780861,-3.6990047,0.19621146,-0.50242186,-0.20112146,1.2910256,-43.0875,21.4125,-15.806251,0.47208118,-0.44939572,0.46524876,1002.27563, , , , 
2025-11-24 20:07:51.360,7.469495,-3.885645,0.7085746,-0.44866732,-0.06734591,1.4083084,-42.7125,21.993752,-15.6,0.46330896,-0.45924577,0.47074574,1002.27563, , , , 
2025-11-24 20:07:51.380,7.2756763,-4.199105,0.7636095,-0.2483094,0.057266932,1.6233265,-42.581253,23.2875,-15.243751,0.45360687,-0.46846142,0.4781678,1002.28076, , , , 
2025-11-24 20:07:51.400,7.1153574,-4.5822554,0.40707895,0.024128467,0.07627955,1.9360803,-42.018753,24.54375,-14.94375,0.4435696,-0.47721258,0.4882073,1002.28076, , , , 
2025-11-24 20:07:51.420,6.899704,-4.7138605,0.09810573,0.2159345,0.015729317,2.2665489,-41.23125,25.81875,-14.75625,0.43341166,-0.48615342,0.5006822,1002.2776, , , , 
2025-11-24 20:07:51.440,6.9595246,-4.7569313,-0.08853444,0.32222193,-0.09910997,2.6086233,-40.36875,27.35625,-14.625001,0.42281154,-0.49592325,0.51520723,1002.2776, , , , 
2025-11-24 20:07:51.460,7.091429,-4.520042,-0.1363909,0.36070532,-0.2121167,2.913436,-39.09375,28.687502,-14.512501,0.40860954,-0.50960743,0.5350739,1002.27905, , , , 
2025-11-24 20:07:51.480,7.474281,-4.5942197,-0.16271193,0.27640837,-0.29946786,3.0875275,-37.912502,30.581251,-14.55,0.39628026,-0.5215547,0.55129373,1002.27905, , , , 
2025-11-24 20:07:51.500,7.9316087,-4.821837,0.033499517,0.114533864,-0.3538333,3.1877065,-36.393753,32.5125,-14.75625,0.38279673,-0.53445184,0.5667457,1002.2754, , , , 
2025-11-24 20:07:51.520,8.640183,-5.0850472,0.47886363,-0.060779303,-0.3245126,3.1797655,-34.66875,34.425003,-14.793751,0.3680215,-0.54786575,0.58093023,1002.2754, , , , 
2025-11-24 20:07:51.541,9.691231,-5.2286167,1.4150555,-0.18966807,-0.15042114,2.985516,-32.71875,36.393753,-14.625001,0.35221803,-0.5605975,0.59363735,1002.27466, , , , 
2025-11-24 20:07:51.560,10.960324,-5.654838,2.8513472,-0.19699824,0.10132429,2.6165643,-30.73125,38.15625,-14.55,0.33611867,-0.571109,0.60487103,1002.27466, , , , 
2025-11-24 20:07:51.581,11.163714,-6.5144596,2.501696,-0.049784053,1.026147,2.5237155,-28.518751,39.91875,-14.08125,0.31920773,-0.5781313,0.6163382,1002.2788, , , , 
2025-11-24 20:07:51.600,9.906884,-6.5694947,1.9920249,0.03451287,2.1684315,2.7521722,-26.156252,41.71875,-14.212501,0.28979135,-0.57947445,0.6360032,1002.2788, , , , 
2025-11-24 20:07:51.620,8.738588,-5.9973106,1.8553349,-0.17867282,2.4677465,2.9916244,-23.90625,43.55625,-14.400001,0.25856277,-0.57757163,0.6541482,1002.2825, , , , 
2025-11-24 20:07:51.641,8.827123,-5.5926247,1.3286148,-0.7113316,1.9405854,2.9268746,-19.95,45.393753,-14.981251,0.22642575,-0.57885134,0.6684922,1002.2803,37.88742039,127.74011886,147.92840576171875,0.94
2025-11-24 20:07:51.660,9.964312,-5.685945,1.7261224,-1.1004413,1.4097592,2.7314036,-18.5625,46.0875,-15.356251,0.1965906,-0.58449596,0.6772894,1002.2803, , , , 
2025-11-24 20:07:51.680,10.962717,-5.9614186,2.1882362,-1.2708677,0.7292753,2.4479704,-15.431251,47.175003,-15.337501,0.17052872,-0.5929571,0.68175614,1002.2803, , , , 
2025-11-24 20:07:51.700,11.458032,-6.346663,2.1619153,-1.3924264,0.21555273,2.2543318,-12.3,48.05625,-15.4125,0.14914198,-0.6034546,0.6831262,1002.27734, , , , 
2025-11-24 20:07:51.720,12.116655,-6.2054863,2.5184457,-1.4871076,-0.20600824,2.153542,-9.225,48.937504,-14.56875,0.13129236,-0.61582625,0.6820867,1002.27734, , , , 
2025-11-24 20:07:51.740,13.277773,-5.494519,3.2967114,-1.3741009,-0.69468606,2.1040633,-6.5437503,49.800003,-13.556251,0.113382615,-0.6325795,0.67900777,1002.27686, , , , 
2025-11-24 20:07:51.760,14.886647,-4.929514,3.6511483,-1.1829057,-0.9817843,1.9641794,-4.3125,50.437504,-12.468751,0.10322199,-0.64548296,0.6764434,1002.27686, , , , 
2025-11-24 20:07:51.780,16.026228,-4.048357,3.8497524,-0.94467527,-1.1082296,1.7204514,-2.23125,50.925003,-10.78125,0.09679788,-0.65685695,0.674098,1002.2739, , , , 
2025-11-24 20:07:51.800,16.627127,-3.19382,3.7588253,-0.70583403,-1.1515998,1.429688,-0.52500004,51.24375,-9.46875,0.09363885,-0.6662469,0.67213756,1002.2739, , , , 
2025-11-24 20:07:51.820,17.100904,-2.6407788,3.2177482,-0.54579204,-1.1680927,1.0295831,1.3312501,51.375004,-8.45625,0.09352571,-0.67384887,0.67028725,1002.27466, , , , 
2025-11-24 20:07:51.840,17.967705,-2.5402803,2.951846,-0.5427378,-1.2933164,0.60741127,2.7562501,51.24375,-7.5750003,0.09661261,-0.68073475,0.66747516,1002.27466, , , , 
2025-11-24 20:07:51.860,18.877577,-2.3174486,2.7053852,-0.5891622,-1.1876398,0.014889402,4.05,51.525,-7.0875,0.103652254,-0.6873333,0.6630209,1002.26953, , , , 
2025-11-24 20:07:51.881,18.398712,-2.4921248,1.934298,-0.7748597,-0.5285356,-0.783488,5.11875,51.6375,-6.7312503,0.11363978,-0.69268,0.6565862,1002.26953, , , , 
2025-11-24 20:07:51.900,15.719648,-2.9877381,1.4126626,-1.1590827,0.62970716,-1.6765467,5.30625,51.675003,-6.4687505,0.12559198,-0.69699466,0.64446867,1002.26904, , , , 
2025-11-24 20:07:51.920,12.815659,-3.9909291,1.6423737,-1.4822209,1.4482425,-2.31618,5.3625,51.956253,-6.1875005,0.13185091,-0.6986203,0.63096184,1002.26904, , , , 
2025-11-24 20:07:51.940,10.124631,-5.0826545,2.2504497,-1.4944378,1.894161,-2.7040682,4.40625,51.787502,-5.5687504,0.13562502,-0.69853014,0.6148731,1002.2737, , , , 
2025-11-24 20:07:51.960,8.566006,-5.5950174,2.8992038,-1.0454651,1.8575102,-2.788976,2.4562502,51.656254,-4.4625,0.13865781,-0.6955983,0.59883106,1002.2737, , , , 
2025-11-24 20:07:51.980,7.7904325,-5.860621,3.2679975,-0.3594836,1.4549618,-2.7144525,0.88125,51.750004,-3.075,0.14368856,-0.68947846,0.58534557,1002.27344, , , , 
2025-11-24 20:07:52.000,7.579864,-6.1648083,3.5359936,0.40224293,0.9253572,-2.6216037,-1.8750001,51.750004,-1.5937501,0.15283076,-0.6806564,0.57569456,1002.27344, , , , 
2025-11-24 20:07:52.020,7.8717885,-5.9207406,3.8066816,1.327142,0.09765921,-2.5531888,-4.33125,51.6375,-0.61875004,0.17244571,-0.66671264,0.5691311,1002.2837, , , , 
2025-11-24 20:07:52.040,8.417651,-5.7003016,3.4809587,1.9966307,-0.64703995,-2.6643631,-7.0125003,51.468754,-0.50625,0.19663951,-0.6539844,0.5674901,1002.2837, , , , 
2025-11-24 20:07:52.060,8.33151,-4.9079785,2.9590242,2.2421913,-1.3281347,-2.8824356,-10.012501,51.225002,-0.7875,0.22839053,-0.6408483,0.56619215,1002.27026, , , , 
2025-11-24 20:07:52.080,8.784052,-4.388437,2.7149563,2.0015173,-1.7172444,-3.0070484,-12.50625,50.381252,-1.8000001,0.26464295,-0.6289402,0.5624606,1002.27026, , , , 
2025-11-24 20:07:52.100,9.645767,-4.0555353,2.774777,1.5091745,-1.4961176,-2.996053,-15.1125,49.443752,-3.2062502,0.30021137,-0.6180681,0.5556962,1002.27466, , , , 
2025-11-24 20:07:52.120,10.567602,-4.112963,2.6718855,1.123119,-0.8932114,-2.9386334,-17.38125,48.468754,-4.6875,0.33115944,-0.6067903,0.54724926,1002.27466, , , , 
2025-11-24 20:07:52.140,11.192428,-4.12732,2.14038,0.7522584,-0.19867808,-2.828681,-20.1,46.96875,-6.3375,0.35595834,-0.5940319,0.5386606,1002.2803, , , , 
2025-11-24 20:07:52.160,11.7717905,-3.8593237,1.9920249,0.33932567,0.3768164,-2.7853107,-22.85625,45.787502,-7.2562504,0.37865388,-0.5767267,0.527654,1002.2803, , , , 
2025-11-24 20:07:52.180,12.403794,-3.9526439,2.082952,0.12003148,0.5936672,-2.8097446,-25.612501,44.15625,-7.93125,0.3924659,-0.56248367,0.5177816,1002.27954, , , , 
2025-11-24 20:07:52.200,12.451651,-4.4434714,1.9630119,0.003970507,0.79341424,-2.905037,-28.10625,42.24375,-8.512501,0.40432316,-0.54762363,0.5069914,1002.27954, , , , 
2025-11-24 20:07:52.220,11.6186495,-4.963013,1.9510478,-0.07177455,0.9479586,-2.9911664,-30.35625,40.36875,-8.7375,0.41473386,-0.5316652,0.4956286,1002.2771, , , , 
2025-11-24 20:07:52.240,10.897812,-5.7170515,2.0087745,-0.13102673,0.9956047,-3.0156002,-32.381252,38.175003,-9.450001,0.42412418,-0.5151104,0.4836493,1002.2771, , , , 
2025-11-24 20:07:52.260,10.397712,-6.68435,1.9630119,-0.10414946,1.0896752,-2.9294708,-34.537502,36.225002,-10.087501,0.43232903,-0.49827152,0.4714769,1002.27124, , , , 
2025-11-24 20:07:52.280,9.859028,-7.11775,1.7644076,0.12186403,1.2894222,-2.6582546,-36.412502,34.162502,-10.6875,0.43888357,-0.48088062,0.46079835,1002.27124, , , , 
2025-11-24 20:07:52.300,8.898908,-7.0675006,1.1970096,0.5396836,1.442134,-2.317402,-37.875,32.1375,-11.493751,0.4457348,-0.4574968,0.452264,1002.2715, , , , 
2025-11-24 20:07:52.321,7.7090764,-6.8422766,0.49800622,0.8475506,1.3028609,-2.0449638,-39.35625,30.018751,-12.1125,0.45202664,-0.43808883,0.44882196,1002.2715, , , , 
2025-11-24 20:07:52.340,6.686743,-6.439983,0.20817557,1.0852466,0.9326874,-1.7156409,-40.29375,27.712502,-13.200001,0.45984858,-0.42031416,0.4468575,1002.27295, , , , 
2025-11-24 20:07:52.360,6.8542404,-6.6125655,-0.21296121,1.4108281,0.31206658,-1.2636139,-41.15625,25.7625,-14.156251,0.46972474,-0.40588513,0.445921,1002.27295, , , , 
2025-11-24 20:07:52.380,6.9930243,-6.2676997,-1.0319048,1.6105752,-0.066124216,-0.74989134,-42.037502,23.625,-15.3,0.4816098,-0.39545068,0.4464403,1002.2759, , , , 
2025-11-24 20:07:52.400,7.7353973,-6.0810595,-1.7907287,1.578811,-0.3232909,-0.31008133,-42.675003,21.91875,-16.275002,0.49379802,-0.38858885,0.44908223,1002.2759, , , , 
2025-11-24 20:07:52.420,8.290832,-6.090631,-2.5546372,1.279496,-0.39414918,0.07291989,-43.162502,20.362501,-17.0625,0.50460184,-0.38520074,0.45294276,1002.281, , , , 
2025-11-24 20:07:52.440,8.453544,-5.8271213,-2.7221348,0.7186618,-0.370937,0.46386215,-43.55625,19.21875,-17.90625,0.512911,-0.38573447,0.45896634,1002.281, , , , 
2025-11-24 20:07:52.460,8.0345,-5.089833,-2.0901306,0.2623589,-0.45401222,0.7559235,-43.5,18.487501,-18.300001,0.51505524,-0.39038423,0.4635999,1002.2722, , , , 
2025-11-24 20:07:52.480,7.6755767,-4.536792,-1.096511,-0.0051922016,-0.6562027,0.98010445,-43.443752,18.112501,-18.69375,0.51464605,-0.39862674,0.46734068,1002.2722, , , , 
2025-11-24 20:07:52.500,7.3785677,-4.1871405,-0.35682967,-0.12308572,-0.7985301,1.2439904,-43.29375,18.487501,-18.54375,0.5129598,-0.4097517,0.47043332,1002.27637, , , , 
2025-11-24 20:07:52.520,7.3378897,-4.141677,-0.069391854,-0.20066333,-0.6885776,1.5310887,-43.237503,18.862501,-17.94375,0.5095869,-0.42248142,0.47438043,1002.27637, , , , 
2025-11-24 20:07:52.540,7.522137,-4.211368,0.06460621,-0.273965,-0.44423866,1.8157434,-43.3125,19.706251,-17.0625,0.50355345,-0.43580547,0.48036933,1002.27344, , , , 
2025-11-24 20:07:52.560,7.953144,-4.386044,0.02632105,-0.26419145,-0.26526043,2.053974,-43.03125,20.775002,-16.35,0.49486226,-0.4492064,0.48852608,1002.27344, , , , 
2025-11-24 20:07:52.580,8.065607,-4.4147577,-0.050249275,-0.14202198,-0.2365506,2.2622728,-42.5625,22.2,-15.750001,0.4820471,-0.46596506,0.50093454,1002.2671, , , , 
2025-11-24 20:07:52.600,8.324331,-4.2568316,-0.11724831,0.0070247436,-0.3605526,2.3758905,-42.0,23.737501,-15.525001,0.4718815,-0.4794858,0.5117466,1002.2671, , , , 
2025-11-24 20:07:52.621,8.441579,-4.0794635,-0.22013968,0.12125318,-0.45645562,2.4284232,-40.93125,25.2,-15.525001,0.46250233,-0.4928794,0.5227059,1002.26807, , , , 
2025-11-24 20:07:52.640,8.803194,-3.571886,-0.28265217,0.12613995,-0.47539186,2.4149847,-39.9375,27.4125,-15.13125,0.45348862,-0.5059085,0.5335028,1002.26807,37.88743095,127.74011403,147.79052734375,0.86
2025-11-24 20:07:52.660,9.188439,-3.246462,-0.0071784677,0.08765658,-0.43874106,2.3099189,-39.112503,29.250002,-14.887501,0.444502,-0.5182308,0.5436652,1002.2676, , , , 
2025-11-24 20:07:52.680,9.645767,-3.0116663,-0.14596218,-0.048562355,-0.15958385,2.1529312,-37.875,31.275002,-14.38125,0.4352307,-0.52931005,0.55306315,1002.2676, , , , 
2025-11-24 20:07:52.700,9.581161,-3.112464,-0.09092726,-0.33443886,0.402472,2.0564172,-37.03125,33.318752,-14.062501,0.42366195,-0.53840375,0.5624362,1002.2656, , , , 
2025-11-24 20:07:52.721,9.511769,-3.3900316,0.3065804,-0.69422793,0.9326874,2.2244003,-34.8375,35.831253,-14.19375,0.40301052,-0.5484414,0.5746622,1002.2705, , , , 
2025-11-24 20:07:52.740,9.751051,-3.6364923,0.4214359,-0.9471187,1.1251043,2.413763,-34.0875,36.61875,-14.025001,0.38166508,-0.55712855,0.5846836,1002.2705, , , , 
2025-11-24 20:07:52.760,9.952348,-3.5790644,0.7899306,-1.2531532,1.1977952,2.5261588,-32.4,38.025,-13.931251,0.35705099,-0.56711817,0.59379745,1002.2705, , , , 
2025-11-24 20:07:52.780,10.452746,-3.6655052,1.3477573,-1.470004,1.0493592,2.4876754,-30.31875,39.487503,-13.968751,0.3309302,-0.5783834,0.60089093,1002.27563, , , , 
2025-11-24 20:07:52.800,10.51496,-3.9957147,1.8290138,-1.6025578,0.7854732,2.349013,-28.10625,40.893753,-13.593751,0.3055058,-0.5906206,0.60537386,1002.27563, , , , 
2025-11-24 20:07:52.820,10.699207,-4.261617,2.3700907,-1.6483713,0.51670045,2.214016,-25.9125,42.1875,-13.293751,0.28172204,-0.60365593,0.6073569,1002.2754, , , , 
2025-11-24 20:07:52.840,10.816456,-4.9773703,2.4418755,-1.6624209,0.29435202,2.0967333,-23.400002,43.93125,-12.731251,0.25976416,-0.6169703,0.60758644,1002.2754, , , , 
2025-11-24 20:07:52.860,11.429317,-5.465805,2.5905297,-1.6770811,0.0071774554,2.0167122,-21.0375,45.45,-11.7375,0.23470587,-0.634232,0.60573375,1002.2771, , , , 
2025-11-24 20:07:52.880,11.759826,-5.5136614,2.8178477,-1.5860649,-0.21089502,2.0258749,-19.03125,46.85625,-10.462501,0.2163721,-0.64824724,0.6032821,1002.2771, , , , 
2025-11-24 20:07:52.900,12.42533,-5.0682974,3.1794631,-1.3869287,-0.48944137,2.0466437,-16.95,47.8875,-9.39375,0.1996715,-0.66198206,0.60085374,1002.2781, , , , 
2025-11-24 20:07:52.920,13.674981,-4.1201415,3.2440693,-1.0387458,-0.750884,1.9996085,-15.075001,48.825,-8.1,0.18564987,-0.674664,0.5991866,1002.2781, , , , 
2025-11-24 20:07:52.940,14.941682,-3.5288153,2.8034909,-0.78035736,-0.8412894,1.8658329,-13.387501,49.65,-6.5625005,0.17468221,-0.685571,0.5985481,1002.2859, , , , 
2025-11-24 20:07:52.960,16.021442,-2.6240292,2.2767708,-0.70155805,-0.7466081,1.6874655,-11.2875,50.100002,-5.1937504,0.1661421,-0.6948342,0.59831274,1002.2859, , , , 
2025-11-24 20:07:52.980,16.85205,-1.9151554,1.9247267,-0.72538114,-0.5248705,1.4516785,-9.375,50.86875,-3.54375,0.15860906,-0.7027264,0.5976426,1002.2771, , , , 
2025-11-24 20:07:53.000,17.201702,-1.0989038,1.9486549,-0.7547018,-0.39964682,1.1230427,-7.5750003,51.15,-2.25,0.15022513,-0.7112568,0.59511477,1002.2771, , , , 
2025-11-24 20:07:53.020,17.644375,-0.5195416,2.2145574,-0.63558656,-0.5364766,0.7522584,-5.7375,51.225002,-1.1812501,0.14590454,-0.71724,0.5918273,1002.2688, , , , 
2025-11-24 20:07:53.040,18.173489,-0.2727818,2.4705894,-0.40896225,-0.74538636,0.24029204,-4.5,51.393753,-0.61875004,0.14620002,-0.7221147,0.5879197,1002.27515, , , , 
2025-11-24 20:07:53.060,17.702103,-0.3999005,2.5064816,-0.09376506,-0.61955184,-0.515326,-3.73125,51.393753,-0.1875,0.1522855,-0.72471136,0.5838681,1002.27515, , , , 
2025-11-24 20:07:53.080,15.681363,-0.8859426,2.204986,0.14141114,-0.17913096,-1.1658783,-3.3375,51.54375,0.39375,0.16249567,-0.7237184,0.5802228,1002.27515, , , , 
2025-11-24 20:07:53.100,13.663017,-1.7404794,2.1475582,0.33382803,0.10682192,-1.7101432,-3.3000002,51.412502,0.45000002,0.17494042,-0.71925074,0.5767263,1002.2825, , , , 
2025-11-24 20:07:53.120,12.229118,-3.0643084,2.2624137,0.5763344,0.018783553,-2.1628575,-3.7125,51.506252,0.46875003,0.19404641,-0.71050227,0.5719316,1002.2825, , , , 
2025-11-24 20:07:53.140,11.539686,-4.072285,2.4658036,0.8897754,-0.19806722,-2.4108615,-4.6125,51.525,0.50625,0.21306728,-0.7016205,0.5682465,1002.28906, , , , 
2025-11-24 20:07:53.162,10.926525,-4.6731825,2.8106692,1.2972105,-0.45279053,-2.5360851,-7.7250004,51.075,-0.43125,0.23526478,-0.6909396,0.56552696,1002.28687, , , , 
2025-11-24 20:07:53.180,10.675279,-4.9462633,3.045166,1.6124077,-0.60305893,-2.5562432,-8.85,51.206253,-0.61875004,0.259994,-0.6784402,0.564236,1002.28687, , , , 
2025-11-24 20:07:53.200,10.450354,-5.0180483,2.8633113,1.9453194,-0.6726955,-2.6154952,-11.418751,50.5875,-1.2,0.28658137,-0.6639021,0.56437725,1002.28687, , , , 
2025-11-24 20:07:53.220,10.105488,-4.9989057,2.3078775,2.091312,-0.7514948,-2.6918511,-14.062501,49.500004,-2.68125,0.31457895,-0.64741844,0.5651517,1002.28467, , , , 
2025-11-24 20:07:53.240,9.873384,-4.9773703,1.6304095,1.9361567,-0.86633414,-2.7327778,-16.06875,48.581253,-4.125,0.34357864,-0.63035566,0.56501085,1002.28467, , , , 
2025-11-24 20:07:53.260,10.172487,-4.651647,1.2065809,1.399222,-0.79608667,-2.71262,-18.6,47.475002,-5.3625,0.37858364,-0.6103639,0.56146705,1002.2825, , , , 
2025-11-24 20:07:53.280,10.558031,-4.273581,1.6519449,0.76875126,-0.5841227,-2.616106,-21.1875,46.48125,-7.0312505,0.40267736,-0.5966395,0.55532587,1002.2825, , , , 
2025-11-24 20:07:53.300,11.132607,-4.0627136,2.3844478,0.26541314,-0.21822518,-2.5458586,-23.737501,45.46875,-7.9500003,0.4218256,-0.5846331,0.54703057,1002.2788, , , , 
2025-11-24 20:07:53.320,11.383854,-4.100999,2.8345976,-0.008857286,0.20639002,-2.4896607,-26.437502,43.66875,-8.512501,0.4361934,-0.57290107,0.5381575,1002.2788, , , , 
2025-11-24 20:07:53.340,11.783754,-4.141677,3.1028929,-0.03939965,0.41896486,-2.4578967,-28.3875,42.16875,-8.962501,0.4472687,-0.5607312,0.5295131,1002.27344, , , , 
2025-11-24 20:07:53.360,12.107084,-4.1297126,2.638386,0.05467083,0.4672218,-2.5470803,-30.35625,40.2,-9.150001,0.45757574,-0.5478043,0.5210123,1002.27344, , , , 
2025-11-24 20:07:53.380,11.613864,-4.395615,2.2504497,0.08704574,0.46783265,-2.7278912,-32.0625,38.456253,-9.243751,0.46851003,-0.53349966,0.51213884,1002.2678, , , , 
2025-11-24 20:07:53.400,11.003395,-5.185546,2.1188445,0.06688777,0.55212957,-2.8586125,-33.6375,36.825,-9.806251,0.48275548,-0.5143192,0.49967146,1002.2678, , , , 
2025-11-24 20:07:53.420,10.450354,-6.0714884,1.4461622,0.14813046,0.98888534,-2.879992,-35.475002,34.7625,-10.481251,0.49264583,-0.49693176,0.4905303,1002.2727, , , , 
2025-11-24 20:07:53.440,9.767801,-7.089036,0.5769694,0.14141114,1.5038296,-2.8347895,-36.956253,32.756252,-11.15625,0.49985442,-0.4767582,0.48377886,1002.2742, , , , 
2025-11-24 20:07:53.460,8.831908,-7.522137,0.13160525,0.18966807,1.8288003,-2.7150633,-38.79375,30.150002,-11.8125,0.5041159,-0.4547335,0.47915518,1002.2742, , , , 
2025-11-24 20:07:53.480,7.266105,-7.7186475,-0.11485548,0.3155026,1.7457252,-2.53242,-40.36875,28.0125,-12.900001,0.5072525,-0.43215886,0.47571066,1002.2742, , , , 
2025-11-24 20:07:53.500,6.5982084,-8.2094755,-0.0071784677,0.5085303,1.294309,-2.2587605,-41.49375,25.725,-14.043751,0.5110468,-0.41120657,0.47233775,1002.27734, , , , 
2025-11-24 20:07:53.520,6.3945193,-8.73141,-0.34486556,0.821895,0.8264,-1.8213174,-42.206253,23.38125,-15.281251,0.5167146,-0.39357623,0.46908554,1002.27734, , , , 
2025-11-24 20:07:53.540,6.4423757,-8.855837,-1.0749756,1.0406547,0.4440096,-1.2214655,-42.787502,21.6375,-16.78125,0.5257021,-0.37652504,0.4675968,1002.27, , , , 
2025-11-24 20:07:53.561,6.3131633,-8.5349,-1.7691933,0.98995435,0.19478393,-0.7260683,-43.21875,19.48125,-17.362501,0.53121424,-0.36908203,0.4681691,1002.27, , , , 
2025-11-24 20:07:53.580,5.9327044,-7.6851482,-2.5064816,0.64352757,0.037108973,-0.17752749,-43.48125,17.625,-18.4125,0.53835946,-0.36208528,0.47092643,1002.2627, , , , 
2025-11-24 20:07:53.600,5.7338014,-6.8662047,-3.0188448,-0.06566608,0.06284091,0.40827504,-44.006252,16.5,-18.993752,0.53928435,-0.3624978,0.47452608,1002.2627, , , , 
2025-11-24 20:07:53.620,5.992525,-5.5926247,-2.2983062,-0.8951967,0.2192178,1.0283613,-43.8375,15.7875,-19.650002,0.53336024,-0.36864614,0.47918397,1002.261, , , , 
2025-11-24 20:07:53.640,6.5431733,-4.6779685,-1.0295119,-1.2311627,0.22471544,1.4571761,-43.4625,15.918751,-20.1,0.5216324,-0.3795734,0.4845352,1002.26,37.88743913,127.74010744,147.4783935546875,0.82
2025-11-24 20:07:53.660,7.4192457,-4.060321,-0.043070808,-1.1089932,0.17035003,1.7619889,-43.55625,16.368752,-19.931252,0.50729996,-0.39330158,0.49060532,1002.26, , , , 
2025-11-24 20:07:53.680,8.788837,-3.844967,0.03589234,-0.60932016,0.09765921,1.9385238,-42.956253,17.268751,-19.743752,0.49014497,-0.41065452,0.5003648,1002.26, , , , 
2025-11-24 20:07:53.700,9.370592,-3.9670007,-0.663111,-0.18905723,-0.020921519,1.8969861,-42.43125,18.393751,-19.743752,0.47937852,-0.42264935,0.5097995,1002.25977, , , , 
2025-11-24 20:07:53.720,8.839087,-4.28076,-1.2807583,0.033291176,-0.29030517,1.8352906,-41.925003,20.025002,-19.462502,0.47175395,-0.43351838,0.51917475,1002.25977, , , , 
2025-11-24 20:07:53.740,8.082356,-4.453043,-1.625624,0.044897273,-0.6299362,1.9373021,-41.04375,22.0125,-18.975,0.46625257,-0.44546208,0.52760464,1002.261, , , , 
2025-11-24 20:07:53.760,7.6947193,-4.3812585,-1.5777674,-0.10414946,-0.9023741,2.2042422,-40.537502,23.681252,-18.862501,0.46102688,-0.45986474,0.53521454,1002.261, , , , 
2025-11-24 20:07:53.780,8.001,-4.132106,-1.2544373,-0.3014531,-0.962848,2.4339209,-39.768753,25.331251,-18.50625,0.45447463,-0.47664046,0.5423774,1002.2632, , , , 
2025-11-24 20:07:53.800,8.678469,-3.8760736,-0.86201435,-0.49448085,-0.86633414,2.5640314,-38.8125,27.056252,-18.225,0.44577736,-0.49475807,0.5492255,1002.2632, , , , 
2025-11-24 20:07:53.820,9.21476,-3.7444685,-0.14596218,-0.6655181,-0.6500942,2.6147318,-37.893753,28.781252,-17.75625,0.43151286,-0.517377,0.5575203,1002.2639, , , , 
2025-11-24 20:07:53.840,10.237094,-2.9063823,0.811466,-0.6966713,-0.6452074,2.628781,-36.581253,30.54375,-17.15625,0.4181552,-0.5350694,0.56364626,1002.26465, , , , 
2025-11-24 20:07:53.860,10.847563,-3.7444685,0.6008976,-0.63558656,-0.7576033,2.4546897,-35.15625,32.568752,-16.21875,0.40589482,-0.5520588,0.5687934,1002.26465, , , , 
2025-11-24 20:07:53.880,11.35514,-3.0140593,1.3166506,-0.75164753,-0.6232169,2.341072,-33.956253,34.575,-15.20625,0.39391232,-0.56800205,0.5727928,1002.26465, , , , 
2025-11-24 20:07:53.900,11.621042,-3.1627133,1.1539388,-0.7907418,-0.40147936,2.2433367,-32.625,36.393753,-14.45625,0.3810879,-0.5826557,0.57634217,1002.25977, , , , 
2025-11-24 20:07:53.920,11.688042,-3.5288153,0.8644072,-0.9581139,-0.1913479,2.1956904,-31.0125,38.287502,-13.218751,0.3670943,-0.5962175,0.5796235,1002.25977, , , , 
2025-11-24 20:07:53.940,11.901003,-3.816253,0.622433,-1.1682454,-0.116213694,2.1724782,-29.868752,39.9,-12.375001,0.35154697,-0.6098162,0.581875,1002.2671, , , , 
2025-11-24 20:07:53.960,11.872289,-3.7277186,0.770788,-1.3679924,-0.1565296,2.0735211,-27.900002,41.4375,-11.306251,0.33098656,-0.6276606,0.58220917,1002.2671, , , , 
2025-11-24 20:07:53.980,11.72154,-4.043571,0.94337034,-1.5133741,-0.21822518,1.9922783,-25.837502,42.787502,-10.106251,0.31468663,-0.6423914,0.5803509,1002.2666, , , , 
2025-11-24 20:07:54.000,11.817254,-4.453043,1.2113664,-1.5683503,-0.22372282,2.046033,-23.98125,44.04375,-9.3,0.29790884,-0.6574128,0.5774393,1002.2666, , , , 
2025-11-24 20:07:54.020,12.296118,-4.5966125,1.4102699,-1.4571761,-0.24632415,2.157207,-21.9375,45.15,-7.8187504,0.28029898,-0.67212737,0.5746545,1002.27637, , , , 
2025-11-24 20:07:54.040,12.987942,-4.1608195,1.4270196,-1.1053281,-0.35444412,2.2524993,-20.25,45.84375,-6.4687505,0.26277265,-0.6857409,0.57299715,1002.27637, , , , 
2025-11-24 20:07:54.060,13.485949,-3.2536407,1.489233,-0.67834586,-0.5315898,2.2518885,-18.525002,46.875,-5.26875,0.24675134,-0.6973964,0.5731793,1002.2905, , , , 
2025-11-24 20:07:54.080,14.503496,-2.6336005,1.2664014,-0.25747213,-0.76187927,2.1162803,-16.893751,48.0,-3.7875001,0.23376116,-0.7068263,0.57515377,1002.291, , , , 
2025-11-24 20:07:54.100,15.492331,-2.1427727,0.6655038,0.092543356,-0.8602257,1.8462858,-14.38125,48.975002,-2.8125,0.22297424,-0.7152438,0.57942504,1002.291, , , , 
2025-11-24 20:07:54.120,16.021442,-1.3812568,0.03589234,0.2287623,-0.75027317,1.5543009,-12.337501,50.1375,-2.04375,0.21769889,-0.71948636,0.5835115,1002.291, , , , 
2025-11-24 20:07:54.140,16.119549,-1.0989038,-0.22492532,0.21410197,-0.6476508,1.1377031,-10.575001,50.68125,-1.5187501,0.21468535,-0.7221568,0.5868969,1002.2854, , , , 
2025-11-24 20:07:54.160,16.06212,-1.2137593,-0.27756742,0.13591352,-0.6574244,0.75775605,-8.71875,50.98125,-1.5562501,0.21414723,-0.7241641,0.5886169,1002.2854, , , , 
2025-11-24 20:07:54.180,16.531115,-1.2783655,-0.11724831,0.12552911,-0.7081247,0.44675842,-7.7625003,51.468754,-1.4625001,0.21579151,-0.7258643,0.5889604,1002.2754, , , , 
2025-11-24 20:07:54.200,17.194525,-1.082154,-0.019142581,0.18661384,-0.69835114,0.15355173,-6.6937504,51.43125,-1.5,0.21955545,-0.72682923,0.5887168,1002.2754, , , , 
2025-11-24 20:07:54.220,17.194525,-0.9194421,-0.11485548,0.17867282,-0.44240612,-0.35955995,-5.5875,51.80625,-1.6500001,0.22583187,-0.7263323,0.58801436,1002.27075, , , , 
2025-11-24 20:07:54.241,15.516258,-1.0989038,0.0,-0.008857286,0.1300341,-1.1054045,-5.175,51.975002,-1.9312501,0.23666893,-0.72278655,0.5854719,1002.27075, , , , 
2025-11-24 20:07:54.260,14.050954,-2.1762722,0.6439684,-0.26907822,0.5967214,-1.7015914,-5.1000004,51.581253,-2.1937501,0.24615674,-0.71816534,0.5810835,1002.26904, , , , 
2025-11-24 20:07:54.280,12.636197,-3.3493536,1.3094722,-0.2831277,0.99255043,-2.1671333,-5.5875,51.281254,-2.68125,0.25569946,-0.71171594,0.575136,1002.26904, , , , 
2025-11-24 20:07:54.300,11.668899,-4.4817567,1.7715861,0.13835691,1.1788589,-2.3870385,-6.9,51.05625,-2.775,0.26525533,-0.702383,0.5699226,1002.2678, , , , 
2025-11-24 20:07:54.320,11.044073,-5.1664033,1.7404794,0.77363807,1.0304229,-2.4139156,-8.45625,50.68125,-2.71875,0.27593338,-0.689757,0.56735915,1002.2678, , , , 
2025-11-24 20:07:54.340,10.928918,-5.293223,1.4700904,1.4248776,0.55090785,-2.4621725,-10.6125,50.550003,-2.90625,0.2898734,-0.6743007,0.56768453,1002.27515, , , , 
2025-11-24 20:07:54.360,10.775778,-5.063512,1.2472588,1.8940083,-0.19806722,-2.6099975,-13.06875,50.193752,-2.98125,0.30955148,-0.6572778,0.569173,1002.27515, , , , 
2025-11-24 20:07:54.380,10.914561,-4.610969,1.0725827,2.1029181,-0.90054154,-2.8219616,-15.468751,49.068752,-4.14375,0.34317994,-0.6355381,0.5695256,1002.27515, , , , 
2025-11-24 20:07:54.400,10.821241,-4.56072,0.81625164,1.9850246,-1.0416473,-3.0864584,-18.018751,47.850002,-5.08125,0.3744692,-0.6175452,0.56735766,1002.28516, , , , 
2025-11-24 20:07:54.420,10.021739,-4.8601217,0.622433,1.6289005,-0.8864921,-3.3136938,-20.362501,46.21875,-6.6562505,0.40595728,-0.5988106,0.5624674,1002.28516, , , , 
2025-11-24 20:07:54.440,8.961121,-5.2070813,0.5697909,1.1096804,-0.5664081,-3.3063636,-23.025002,44.8875,-8.26875,0.43468893,-0.58019733,0.55511665,1002.28516, , , , 
2025-11-24 20:07:54.460,8.455936,-5.101797,0.6152545,0.6923954,-0.15714046,-3.029039,-25.44375,43.331253,-9.20625,0.4583237,-0.5626315,0.54675615,1002.2837, , , , 
2025-11-24 20:07:54.480,8.582756,-4.927121,0.41904306,0.3814741,0.24853848,-2.7040682,-28.181252,41.550003,-10.51875,0.47590742,-0.54637694,0.539007,1002.2837, , , , 
2025-11-24 20:07:54.500,8.585149,-4.7377887,0.18185452,0.111479625,0.5851153,-2.4872174,-30.91875,39.6375,-11.306251,0.4883203,-0.53110176,0.532205,1002.2776, , , , 
2025-11-24 20:07:54.520,8.489435,-4.74736,0.02871387,-0.15973656,0.7494332,-2.332673,-32.8125,37.4625,-11.587501,0.4987506,-0.51329905,0.5240068,1002.2776, , , , 
2025-11-24 20:07:54.540,8.384151,-4.881657,0.2009971,-0.33688226,0.7561526,-2.2398243,-34.66875,35.550003,-12.0375,0.5044889,-0.50043076,0.51682824,1002.2749, , , , 
2025-11-24 20:07:54.560,8.709874,-5.3075795,0.4142574,-0.3283304,0.62176615,-2.176296,-36.112503,33.7125,-12.3,0.50932837,-0.48873568,0.50887907,1002.2749, , , , 
2025-11-24 20:07:54.580,8.68804,-6.1360946,0.38554356,-0.19760908,0.44462046,-2.093221,-37.40625,32.175003,-12.243751,0.5145708,-0.47771516,0.50056094,1002.26807, , , , 
2025-11-24 20:07:54.600,8.211868,-6.4256263,0.3592225,-0.046118967,0.29618457,-1.9056144,-38.8125,30.35625,-12.900001,0.52032244,-0.46744052,0.49255687,1002.26807, , , , 
2025-11-24 20:07:54.620,7.493423,-6.2318077,0.31615168,0.10781454,0.18867545,-1.6478368,-39.99375,28.575,-13.425,0.5262501,-0.4581453,0.48563573,1002.272, , , , 
2025-11-24 20:07:54.640,6.806384,-6.104988,0.23688944,0.13408098,0.14958122,-1.3570735,-41.04375,26.925001,-13.63125,0.5319484,-0.44992357,0.48010573,1002.272,37.88744975,127.74009682,147.53460693359375,1.22
2025-11-24 20:07:54.660,6.792027,-6.2940207,0.40468612,0.1927223,0.1789019,-0.96185535,-41.60625,25.1625,-13.875001,0.53711087,-0.44181657,0.4755738,1002.27, , , , 
2025-11-24 20:07:54.680,6.9619174,-6.5455666,0.1698904,0.39857784,0.26625305,-0.5489226,-42.16875,23.681252,-14.062501,0.5397014,-0.43676463,0.4748671,1002.27, , , , 
2025-11-24 20:07:54.700,7.416853,-6.2437716,-0.5913263,0.60932016,0.37742725,-0.1518719,-42.73125,22.7625,-14.26875,0.541135,-0.43241158,0.47782996,1002.2637, , , , 
2025-11-24 20:07:54.720,7.7904325,-6.1504517,-1.6088741,0.6930062,0.34871742,0.15477343,-42.9375,21.88125,-14.250001,0.5420908,-0.42866865,0.48334265,1002.2637, , , , 
2025-11-24 20:07:54.740,8.2094755,-6.0954165,-2.5112674,0.5121954,0.24609509,0.42537877,-43.3125,21.112501,-14.793751,0.5424175,-0.42665926,0.48987556,1002.2654, , , , 
2025-11-24 20:07:54.760,8.513364,-5.858228,-2.9303105,0.13224843,0.09399412,0.6765133,-43.125,20.8125,-15.168751,0.54114944,-0.4277525,0.4960923,1002.2654, , , , 
2025-11-24 20:07:54.780,8.1687975,-5.250152,-2.7149563,-0.32161108,-0.12843063,0.9575031,-43.068752,20.550001,-15.375001,0.5376369,-0.43295458,0.5009639,1002.26733, , , , 
2025-11-24 20:07:54.800,8.190332,-4.5678983,-1.6806588,-0.749815,-0.45584476,1.2274976,-42.84375,20.79375,-16.2,0.53032213,-0.44601113,0.5042036,1002.26733, , , , 
2025-11-24 20:07:54.820,8.491829,-4.196712,-0.61764735,-0.9116895,-0.6250495,1.3924264,-42.5625,21.54375,-16.25625,0.5228528,-0.46040535,0.5048022,1002.2656, , , , 
2025-11-24 20:07:54.840,8.891729,-4.05075,0.15314065,-0.8756496,-0.60794574,1.5127633,-42.225002,22.3125,-15.675,0.51435167,-0.47595507,0.50519663,1002.2656, , , , 
2025-11-24 20:07:54.860,9.209974,-4.057928,0.56500524,-0.69422793,-0.4277458,1.5823998,-41.775,23.60625,-15.225,0.50513947,-0.49076664,0.5067626,1002.26636, , , , 
2025-11-24 20:07:54.880,9.18126,-4.2281175,0.55782676,-0.51097375,-0.18768282,1.5958384,-41.193752,24.900002,-14.2875,0.49537715,-0.5036356,0.5101889,1002.26636, , , , 
2025-11-24 20:07:54.900,8.855837,-4.319045,0.2727818,-0.37414396,4.5813544E-4,1.6318785,-40.575,26.175001,-13.481251,0.48514155,-0.51449245,0.51547784,1002.2617, , , , 
2025-11-24 20:07:54.920,8.446364,-4.342973,-0.09332009,-0.33016294,0.12514733,1.7021259,-40.3125,27.806252,-13.05,0.47433305,-0.5241098,0.52213436,1002.2617, , , , 
2025-11-24 20:07:54.940,8.077571,-4.1105704,-0.3065804,-0.37780902,0.20700087,1.8029157,-39.300003,28.987501,-12.50625,0.459616,-0.53567606,0.5313682,1002.2617, , , , 
2025-11-24 20:07:54.960,7.821539,-4.086642,-0.39032918,-0.4627168,0.24548425,1.9189767,-38.625,30.45,-12.187501,0.44657516,-0.54526526,0.5389143,1002.2617, , , , 
2025-11-24 20:07:54.980,7.845467,-4.072285,-0.39032918,-0.5647283,0.30229303,2.06558,-37.518753,32.025,-12.075001,0.4320575,-0.5554902,0.5464966,1002.2632, , , , 
2025-11-24 20:07:55.000,8.307581,-3.9622152,-0.35682967,-0.6807893,0.38109234,2.1840844,-36.15,33.600002,-12.50625,0.41587746,-0.56621426,0.554092,1002.2632, , , , 
2025-11-24 20:07:55.020,8.779266,-3.7037904,-0.2632105,-0.7510367,0.39453098,2.1908038,-34.96875,35.081253,-12.656251,0.39856762,-0.5771277,0.5612526,1002.26294, , , , 
2025-11-24 20:07:55.040,9.02812,-3.679862,-0.23688944,-0.8090672,0.37009707,2.1608722,-33.506252,36.487503,-12.431251,0.38100246,-0.5880091,0.56756467,1002.26294, , , , 
2025-11-24 20:07:55.060,9.389735,-3.8521454,-0.20338993,-0.88481224,0.30412558,2.1431577,-31.931252,38.025,-12.243751,0.36335608,-0.59897536,0.5729062,1002.2693, , , , 
2025-11-24 20:07:55.080,9.746265,-3.9741793,-0.05742774,-0.9202414,0.14530529,2.1480443,-30.393751,39.46875,-11.400001,0.34584,-0.61035335,0.5771143,1002.2693, , , , 
2025-11-24 20:07:55.100,10.373485,-3.993322,0.08135597,-0.93917763,-0.019088976,2.1602614,-28.743752,41.04375,-10.78125,0.3246855,-0.6251808,0.58103544,1002.2688, , , , 
2025-11-24 20:07:55.120,10.7590275,-3.7923248,0.45972106,-0.93734515,-0.22555535,2.1627047,-26.812502,42.525,-10.125,0.30872026,-0.6374946,0.58305246,1002.2688, , , , 
2025-11-24 20:07:55.140,11.441281,-3.667898,0.9290134,-0.9074136,-0.40392274,2.1260538,-25.0125,43.818752,-9.20625,0.2938407,-0.6500059,0.58427006,1002.26904, , , , 
2025-11-24 20:07:55.160,12.138191,-3.5742788,1.1443675,-0.8622109,-0.43324342,1.9715096,-23.19375,45.318752,-8.64375,0.28025544,-0.6618791,0.5848899,1002.26904, , , , 
2025-11-24 20:07:55.180,12.489936,-3.909573,1.1970096,-0.83472276,-0.3605526,1.7974181,-21.28125,46.631252,-7.9125004,0.26790807,-0.6725794,0.58494663,1002.27246, , , , 
2025-11-24 20:07:55.200,13.109976,-3.9670007,1.096511,-0.77608144,-0.26037365,1.7308357,-19.556252,47.625,-7.2375,0.25604504,-0.68212324,0.5848007,1002.27246, , , , 
2025-11-24 20:07:55.220,13.543376,-3.3397822,0.63200426,-0.70888823,-0.046577103,1.7522154,-17.5125,48.525,-6.58125,0.24073012,-0.6923664,0.58540994,1002.27295, , , , 
2025-11-24 20:07:55.240,14.204094,-2.8537402,0.08853444,-0.85121566,0.15752223,1.6935741,-15.525001,48.843754,-5.4,0.22756383,-0.6996443,0.5859375,1002.27295, , , , 
2025-11-24 20:07:55.260,15.011074,-2.6288147,-0.30179477,-1.1725214,0.4220191,1.493827,-13.837501,49.256252,-4.275,0.21358433,-0.7070926,0.5845299,1002.2705, , , , 
2025-11-24 20:07:55.280,15.384354,-2.2911277,0.059820566,-1.4131951,0.6437566,1.157861,-11.962501,49.893753,-3.2625,0.19902222,-0.71464646,0.5804386,1002.2705, , , , 
2025-11-24 20:07:55.300,15.18575,-2.0135603,0.59611195,-1.3832636,0.6523085,0.9000834,-10.462501,50.287502,-2.325,0.18499793,-0.72165596,0.5746041,1002.27686, , , , 
2025-11-24 20:07:55.320,15.233606,-1.8050855,1.0319048,-1.2207782,0.5912238,0.67040485,-9.09375,50.737503,-1.3312501,0.1727783,-0.7276314,0.56833243,1002.27686, , , , 
2025-11-24 20:07:55.340,15.454045,-1.5610176,1.4509479,-0.9037485,0.4531723,0.39056048,-7.8750005,50.925003,-0.1875,0.16319871,-0.7320423,0.5625498,1002.28687, , , , 
2025-11-24 20:07:55.360,15.89911,-1.3884354,1.7117655,-0.43339613,0.1428619,-0.05841227,-7.0312505,51.2625,0.95625,0.15752083,-0.73483217,0.5566869,1002.28687, , , , 
2025-11-24 20:07:55.380,16.133905,-1.3166506,1.7548363,0.030236939,-0.07711947,-0.5745782,-6.6375003,51.131252,1.9312501,0.1599208,-0.7345294,0.55329347,1002.27954, , , , 
2025-11-24 20:07:55.400,15.2216425,-1.934298,1.5777674,0.39002597,-0.072232686,-1.2196329,-6.2250004,51.45,2.4,0.16874684,-0.73130363,0.5508031,1002.28076, , , , 
2025-11-24 20:07:55.420,12.9353,-3.260819,1.7955143,0.71805096,0.004123219,-1.883013,-6.5062504,51.562504,2.625,0.18267992,-0.7250585,0.5484576,1002.28076, , , , 
2025-11-24 20:07:55.440,10.945967,-4.4171505,1.9680966,1.0766946,-0.14248012,-2.2343266,-7.2562504,51.112503,2.4375,0.20052622,-0.71622497,0.5464479,1002.28076, , , , 
2025-11-24 20:07:55.460,9.868599,-5.171189,1.9630119,1.4462572,-0.51082104,-2.2838051,-8.26875,51.206253,2.25,0.22182597,-0.70575106,0.5454914,1002.2771, , , , 
2025-11-24 20:07:55.480,9.983455,-5.2238307,1.8625133,1.647226,-0.74538636,-2.204395,-10.1625,50.550003,1.6125001,0.25199795,-0.6917341,0.5460492,1002.2771, , , , 
2025-11-24 20:07:55.500,10.541281,-4.4315076,1.9175483,1.6478368,-0.7435538,-2.2422676,-11.981251,50.006252,0.50625,0.27702895,-0.67971426,0.5468372,1002.27783, , , , 
2025-11-24 20:07:55.520,11.113464,-3.4666018,2.0590239,1.5244457,-0.71362233,-2.4255219,-14.175,49.55625,-0.82500005,0.30252796,-0.667031,0.54631495,1002.27783, , , , 
2025-11-24 20:07:55.540,11.982359,-2.8920252,2.1308086,1.3228661,-0.5010475,-2.7144525,-16.48125,48.768753,-2.325,0.32829413,-0.65340096,0.5436746,1002.28125, , , , 
2025-11-24 20:07:55.560,11.285748,-3.0690942,2.1906292,1.163435,-0.097888276,-3.0577486,-18.5625,47.8125,-3.5062501,0.35337812,-0.63764656,0.53925383,1002.2776, , , , 
2025-11-24 20:07:55.580,10.7279215,-3.409174,2.0638096,0.983235,0.14530529,-3.1896918,-20.925001,46.8375,-4.4625,0.37711504,-0.62021476,0.53349286,1002.2776, , , , 
2025-11-24 20:07:55.600,10.275378,-3.5671003,1.5753746,0.7192727,0.45378315,-3.1066165,-23.1375,45.318752,-5.1375003,0.39836252,-0.6019906,0.52693766,1002.2776, , , , 
2025-11-24 20:07:55.620,10.306485,-3.6460636,1.2999009,0.28007346,0.8874847,-2.9141996,-27.112501,42.693752,-6.4125004,0.41877827,-0.5795399,0.5182791,1002.27246, , , , 
2025-11-24 20:07:55.640,10.699207,-3.6655052,1.5370895,0.054059982,1.1513708,-2.7993603,-28.35,42.05625,-6.8437505,0.4297875,-0.56202567,0.51097417,1002.27246,37.88746388,127.74008413,147.547607421875,1.55
2025-11-24 20:07:55.660,11.008181,-3.9335012,1.6423737,0.06139015,1.1996276,-2.776148,-30.54375,40.050003,-7.89375,0.43853685,-0.5444948,0.50333345,1002.2683, , , , 
2025-11-24 20:07:55.680,10.814063,-4.108177,1.6710875,0.22021043,1.0841775,-2.7975278,-32.831253,38.34375,-8.71875,0.4473362,-0.52649844,0.49542022,1002.2683, , , , 
2025-11-24 20:07:55.700,10.419247,-4.613362,1.3405789,0.3955236,0.88687384,-2.8121881,-34.65,36.525,-9.5625,0.4575061,-0.5082467,0.48715004,1002.2717, , , , 
2025-11-24 20:07:55.720,10.076775,-5.2286167,0.9098708,0.49814594,0.83617353,-2.7712612,-36.28125,34.575,-10.481251,0.4684744,-0.48979712,0.47882298,1002.2717, , , , 
2025-11-24 20:07:55.740,9.571589,-6.026025,0.21535404,0.5115846,0.8019661,-2.6497028,-37.8375,32.68125,-11.0625,0.4793317,-0.47133398,0.4708541,1002.26514, , , , 
2025-11-24 20:07:55.760,8.796016,-6.454639,-0.35682967,0.4242334,0.7439356,-2.3546634,-39.24375,30.300001,-12.3,0.4890982,-0.4538911,0.4634398,1002.26514, , , , 
2025-11-24 20:07:55.780,7.953144,-6.224629,-0.19860429,0.37536564,0.53930175,-2.0064042,-40.3875,27.91875,-12.937501,0.49910843,-0.4352678,0.455152,1002.2683, , , , 
2025-11-24 20:07:55.800,7.184749,-5.7984076,0.21296121,0.43461782,0.23326729,-1.663108,-41.5125,25.500002,-13.762501,0.50649685,-0.4238337,0.44900268,1002.2683, , , , 
2025-11-24 20:07:55.821,6.969096,-5.480162,0.6726823,0.7070557,-0.13514996,-1.2837719,-42.84375,22.181252,-14.531251,0.5144341,-0.415197,0.44361743,1002.26465, , , , 
2025-11-24 20:07:55.840,7.5053873,-5.776872,0.17706887,1.0180533,-0.30985227,-0.9013815,-43.331253,21.225,-14.625001,0.5237754,-0.40880162,0.43975914,1002.26465, , , , 
2025-11-24 20:07:55.860,7.835896,-5.6261244,-0.57457656,1.2666682,-0.27747735,-0.4866162,-43.912502,19.5375,-15.000001,0.53332925,-0.40363342,0.43912634,1002.26465, , , , 
2025-11-24 20:07:55.880,8.032107,-5.688338,-1.4988043,1.3582952,-0.30191126,-0.13537902,-44.11875,18.1875,-15.525001,0.542649,-0.39945623,0.44156098,1002.26465, , , , 
2025-11-24 20:07:55.900,8.017751,-5.4370914,-2.396412,1.2941563,-0.31962582,0.28793812,-44.193752,17.19375,-15.618751,0.552776,-0.39668778,0.4475899,1002.2573, , , , 
2025-11-24 20:07:55.921,7.821539,-5.020441,-2.7293134,1.1005177,-0.52303797,0.6153523,-44.25,16.25625,-15.806251,0.55927145,-0.3974707,0.4535598,1002.2573, , , , 
2025-11-24 20:07:55.940,7.5532436,-4.5559344,-2.8250263,0.7742489,-0.786924,0.9544488,-44.475002,15.975,-15.843751,0.5643285,-0.40229243,0.4588546,1002.2661, , , , 
2025-11-24 20:07:55.960,7.5460653,-4.12732,-2.6671,0.31061584,-0.7985301,1.3185138,-44.662502,15.750001,-15.50625,0.566417,-0.41126204,0.46369964,1002.2661, , , , 
2025-11-24 20:07:55.980,7.5580297,-3.8425741,-2.0063818,-0.2519745,-0.60550237,1.657534,-44.925003,15.825001,-15.50625,0.5639774,-0.42349386,0.46867818,1002.2683, , , , 
2025-11-24 20:07:56.000,7.6013994,-3.9071803,-1.1467602,-0.61176354,-0.3892624,1.9226418,-44.90625,16.3125,-15.093751,0.55678695,-0.43810356,0.47411096,1002.2683, , , , 
2025-11-24 20:07:56.020,7.878967,-3.9047875,-0.2970091,-0.69422793,-0.24998924,2.1266646,-44.68125,17.175001,-14.625001,0.54590076,-0.45420706,0.48031136,1002.2688, , , , 
2025-11-24 20:07:56.040,8.429615,-4.0627136,0.069391854,-0.5311317,-0.15103199,2.24578,-44.475002,18.487501,-14.156251,0.53003865,-0.4743604,0.48957747,1002.2688, , , , 
2025-11-24 20:07:56.060,8.623434,-3.9550366,0.021535404,-0.28007346,-0.100331664,2.2726572,-43.893753,20.175001,-13.481251,0.5173183,-0.48913845,0.49835834,1002.2705, , , , 
2025-11-24 20:07:56.080,8.396115,-3.73729,-0.09571291,-0.0045813546,-0.12720895,2.28915,-43.350002,22.331251,-13.181251,0.5055054,-0.5023235,0.50819373,1002.2705, , , , 
2025-11-24 20:07:56.100,8.2094755,-3.3613176,-0.34965122,0.21165858,-0.19684553,2.3508456,-42.318752,24.562502,-12.993751,0.49484393,-0.5143643,0.5188121,1002.26953, , , , 
2025-11-24 20:07:56.121,8.712267,-2.9183464,-0.7851449,0.33321717,-0.20234315,2.4724042,-40.93125,26.7,-12.806251,0.48466393,-0.525731,0.530156,1002.26953, , , , 
2025-11-24 20:07:56.140,9.104691,-2.7149563,-1.0773684,0.3387148,-0.07284354,2.5481493,-39.975002,28.593752,-12.76875,0.47391704,-0.53648114,0.5421564,1002.27026, , , , 
2025-11-24 20:07:56.160,9.480662,-3.1292138,-1.4533406,0.17439689,0.031611346,2.6409981,-38.53125,30.2625,-12.731251,0.46189705,-0.5468079,0.5544619,1002.27026, , , , 
2025-11-24 20:07:56.180,10.062417,-3.7995033,-1.7021942,-0.28007346,0.27297238,2.7588916,-37.6875,32.0625,-12.750001,0.44351888,-0.5609614,0.56882805,1002.26465, , , , 
2025-11-24 20:07:56.200,10.519746,-3.8258243,-1.934298,-0.81639737,0.69690037,2.7863798,-36.581253,33.581253,-12.6,0.42426258,-0.5734657,0.5789823,1002.26465, , , , 
2025-11-24 20:07:56.220,10.483853,-3.4929228,-1.7572291,-1.4064758,1.0475267,2.6629887,-34.893753,35.30625,-12.76875,0.40065736,-0.5869365,0.58680797,1002.26685, , , , 
2025-11-24 20:07:56.240,10.464711,-3.6149569,-1.16351,-1.8793479,1.0224819,2.4418619,-32.60625,37.2,-12.562501,0.3746649,-0.6017972,0.59066087,1002.26685, , , , 
2025-11-24 20:07:56.260,10.390533,-3.9311085,-0.11006984,-2.0809276,0.64986515,2.2341738,-30.000002,39.018753,-12.187501,0.34896347,-0.6182022,0.5902293,1002.2666, , , , 
2025-11-24 20:07:56.280,10.60828,-4.213761,0.72053874,-1.9935764,0.28213507,2.1468227,-27.4125,41.11875,-11.681251,0.3252489,-0.6352657,0.58711237,1002.2666, , , , 
2025-11-24 20:07:56.300,11.091929,-4.165605,1.474876,-1.7051802,0.031611346,2.0753536,-24.900002,43.256252,-10.44375,0.3039089,-0.6516422,0.58337885,1002.26953, , , , 
2025-11-24 20:07:56.321,11.977572,-4.436293,1.6591234,-1.3270657,-0.17913096,1.9153116,-21.88125,45.61875,-8.2875,0.2812613,-0.66932774,0.57971334,1002.272, , , , 
2025-11-24 20:07:56.340,12.238689,-4.88405,1.6160526,-1.0143119,-0.2677038,1.7742059,-20.775002,46.256252,-7.5000005,0.2664875,-0.6810241,0.5778032,1002.272, , , , 
2025-11-24 20:07:56.360,12.166905,-5.0156555,1.6208383,-0.69789296,-0.33184278,1.7558805,-19.125,47.100002,-5.9812503,0.2535509,-0.69065917,0.57740843,1002.272, , , , 
2025-11-24 20:07:56.380,12.556935,-4.5966125,1.5107684,-0.33321717,-0.46745086,1.7906988,-17.23125,47.775,-4.6875,0.2421279,-0.69858664,0.57883507,1002.26904, , , , 
2025-11-24 20:07:56.400,13.749458,-3.8425741,0.8955139,0.020463383,-0.58473355,1.7461069,-15.637501,48.525,-3.825,0.23269418,-0.704671,0.5821614,1002.27466, , , , 
2025-11-24 20:07:56.420,14.869598,-3.0810583,0.15553348,0.14690876,-0.60000473,1.541473,-14.156251,49.10625,-3.05625,0.2257336,-0.7091203,0.586285,1002.27466, , , , 
2025-11-24 20:07:56.440,15.497116,-2.4179473,-0.36400816,0.104760304,-0.49188477,1.2879715,-12.243751,49.65,-2.7,0.22088543,-0.712406,0.5899258,1002.27466, , , , 
2025-11-24 20:07:56.460,16.06212,-1.8170497,-0.67028946,-0.09498675,-0.28236416,0.96055734,-10.875,50.156254,-2.5875,0.21631292,-0.71580577,0.59249324,1002.2683, , , , 
2025-11-24 20:07:56.480,16.296618,-1.7261224,-0.43100718,-0.281906,-0.13026318,0.59947026,-9.50625,50.41875,-2.49375,0.21352704,-0.7183301,0.5922663,1002.2683, , , , 
2025-11-24 20:07:56.500,16.686947,-1.907977,0.076570325,-0.31733516,-0.14492351,0.23174018,-8.26875,50.643753,-2.4562502,0.21224052,-0.72059876,0.59018385,1002.26904, , , , 
2025-11-24 20:07:56.520,16.86641,-1.3501502,0.8811569,-0.042453885,-0.2622062,-0.13049224,-7.70625,50.79375,-2.4375,0.21372724,-0.72180676,0.5876217,1002.2698, , , , 
2025-11-24 20:07:56.540,16.653448,-0.57936215,1.2592229,0.32527617,-0.21639264,-0.68819577,-7.0687504,50.7,-2.4,0.21907136,-0.7203312,0.5861925,1002.2698, , , , 
2025-11-24 20:07:56.560,15.080465,-0.7253244,1.3357933,0.56533915,-0.059404895,-1.4682478,-6.8625,50.79375,-2.4750001,0.2296726,-0.7151211,0.5853056,1002.2698, , , , 
2025-11-24 20:07:56.580,13.349558,-1.6854445,1.041476,0.64719266,0.13614258,-2.0235078,-7.1250005,50.812504,-2.5500002,0.24462679,-0.7066952,0.5839289,1002.26855, , , , 
2025-11-24 20:07:56.600,11.889038,-3.0236306,0.8572287,0.6331432,0.34383065,-2.3015199,-8.00625,50.756252,-2.5500002,0.2652467,-0.6934887,0.5813537,1002.26855, , , , 
2025-11-24 20:07:56.620,11.326426,-3.8401814,1.1276177,0.59649235,0.3835357,-2.3754323,-9.65625,50.531254,-2.86875,0.28139403,-0.6819918,0.57863134,1002.261, , , , 
2025-11-24 20:07:56.640,11.235498,-4.100999,1.9534405,0.68201095,0.28091338,-2.4273543,-11.56875,50.100002,-3.5625002,0.29752487,-0.6701403,0.5753623,1002.261,37.88747729,127.74007409,147.5240478515625,1.5
2025-11-24 20:07:56.660,11.666506,-3.8928235,2.4921248,0.9649096,0.10315683,-2.528755,-13.556251,49.500004,-4.36875,0.31487134,-0.6572607,0.57225823,1002.272, , , , 
2025-11-24 20:07:56.680,12.152548,-3.3493536,2.312663,1.3088166,-0.097277425,-2.7663746,-15.7875,48.787502,-5.25,0.33479655,-0.6424546,0.5695122,1002.272, , , , 
2025-11-24 20:07:56.700,12.40858,-3.2440693,1.4653047,1.4786321,-0.2713689,-3.0919561,-18.112501,47.737503,-6.0937505,0.35877904,-0.6253219,0.5662199,1002.26855, , , , 
2025-11-24 20:07:56.720,11.711969,-3.8377883,0.18664017,1.2275739,-0.25915194,-3.4590752,-20.56875,46.575,-6.9187503,0.38571072,-0.60646254,0.56085026,1002.26855, , , , 
2025-11-24 20:07:56.740,10.749456,-4.642076,-0.09092726,0.52196896,-0.06490252,-3.584299,-23.2875,45.16875,-7.5750003,0.41781256,-0.58338106,0.5493916,1002.26807, , , , 
2025-11-24 20:07:56.760,10.055239,-4.9845486,0.20817557,-0.10109522,0.2552578,-3.4810658,-25.875002,43.331253,-8.75625,0.43354934,-0.570856,0.5401716,1002.26807, , , , 
2025-11-24 20:07:56.780,9.734302,-5.250152,1.2687942,-0.7009472,0.75493085,-3.179918,-28.63125,41.362503,-9.58125,0.4510475,-0.5524553,0.5231841,1002.2705, , , , 
2025-11-24 20:07:56.802,9.772587,-5.0922256,2.2648067,-0.78096825,1.214288,-2.8952632,-31.181252,39.206253,-10.275001,0.4578466,-0.53848714,0.5103616,1002.2705, , , , 
2025-11-24 20:07:56.820,9.779765,-4.9438705,2.7005994,-0.48165306,1.3474526,-2.7627094,-33.487503,36.787502,-10.837501,0.4616758,-0.5233504,0.4995462,1002.2693, , , , 
2025-11-24 20:07:56.840,9.535697,-4.927121,2.248057,-0.15423894,1.274151,-2.6784124,-35.475002,34.6875,-11.19375,0.46591637,-0.5066849,0.49050027,1002.2693, , , , 
2025-11-24 20:07:56.860,9.174082,-4.8768716,1.879263,0.060168456,1.1214392,-2.620993,-37.0125,32.68125,-11.71875,0.4715436,-0.48927897,0.48237333,1002.2615, , , , 
2025-11-24 20:07:56.880,8.68804,-5.003691,1.4413766,0.21349111,0.930244,-2.5537996,-38.4,30.468752,-12.075001,0.48032993,-0.46755078,0.4723065,1002.2615, , , , 
2025-11-24 20:07:56.901,8.2812605,-5.439484,1.0175478,0.28496024,0.8300651,-2.3894818,-39.75,28.500002,-12.7875,0.4878867,-0.45088,0.4644412,1002.25854, , , , 
2025-11-24 20:07:56.920,7.6181493,-5.602196,0.6056832,0.32955208,0.8007444,-2.0700088,-40.93125,26.362501,-13.275001,0.49462822,-0.43535358,0.45778278,1002.25854, , , , 
2025-11-24 20:07:56.940,6.890133,-5.2453666,0.23688944,0.33016294,0.72499937,-1.6246246,-42.037502,24.375002,-14.025001,0.50001025,-0.42163175,0.4529687,1002.2556, , , , 
2025-11-24 20:07:56.960,6.3825555,-4.7449675,0.2440679,0.33749312,0.5997757,-1.2556729,-42.7125,22.518751,-14.962501,0.50415987,-0.4102205,0.4497705,1002.2556, , , , 
2025-11-24 20:07:56.980,6.3753767,-4.5535417,0.26799613,0.39246938,0.4519506,-0.9129876,-43.068752,20.737501,-15.731251,0.507551,-0.40116426,0.44795546,1002.25684, , , , 
2025-11-24 20:07:57.000,6.5814586,-4.733003,0.050249275,0.53724015,0.32184014,-0.59107107,-43.425003,18.975,-16.40625,0.5107774,-0.39424106,0.44753242,1002.25684, , , , 
2025-11-24 20:07:57.020,6.4495544,-4.5631127,-0.5602196,0.6997255,0.21494187,-0.10911259,-43.4625,17.56875,-17.025002,0.51468146,-0.38824144,0.45014393,1002.2549, , , , 
2025-11-24 20:07:57.040,7.1656065,-4.8529434,-1.4605191,0.7308788,0.006566608,0.2732778,-43.55625,16.425001,-17.268751,0.51764953,-0.38623723,0.45465246,1002.2549, , , , 
2025-11-24 20:07:57.060,7.603792,-5.037191,-2.3054845,0.62336963,-0.20722993,0.68628687,-43.6875,15.7875,-17.5125,0.52001435,-0.3876151,0.46039242,1002.25635, , , , 
2025-11-24 20:07:57.080,8.333902,-4.8601217,-2.8992038,0.27701923,-0.51509696,1.1089932,-43.48125,15.712501,-17.925001,0.52093005,-0.39325777,0.4666244,1002.25635, , , , 
2025-11-24 20:07:57.100,8.027322,-4.4075794,-2.5402803,-0.13530266,-0.81196874,1.4199145,-43.59375,15.937501,-17.85,0.519831,-0.4036667,0.4719799,1002.25684, , , , 
2025-11-24 20:07:57.120,7.656434,-4.100999,-1.3764713,-0.52624494,-1.1332744,1.7448852,-43.40625,16.800001,-17.75625,0.5164584,-0.41900268,0.4757279,1002.25684, , , , 
2025-11-24 20:07:57.140,7.8406816,-3.9454653,-0.17228323,-0.7278245,-1.3311889,2.113837,-43.237503,17.925001,-17.362501,0.5106152,-0.43885803,0.47829854,1002.2544, , , , 
2025-11-24 20:07:57.160,8.874979,-3.8928235,0.8955139,-0.5934381,-1.4558017,2.5029466,-43.237503,19.29375,-16.59375,0.5006023,-0.46737945,0.48212275,1002.2544, , , , 
2025-11-24 20:07:57.180,9.93799,-3.694219,1.3286148,-0.1927223,-1.3812784,2.7246842,-42.46875,21.31875,-15.58125,0.4919589,-0.49030504,0.48729733,1002.24634, , , , 
2025-11-24 20:07:57.200,10.677672,-3.4139597,1.1563315,0.36742464,-1.0886825,2.7430096,-42.24375,23.175001,-14.2875,0.48376307,-0.5098434,0.49583337,1002.24634, , , , 
2025-11-24 20:07:57.220,11.017752,-3.1100712,0.14356937,0.9300913,-0.68185824,2.5072227,-41.49375,25.2,-13.106251,0.47691527,-0.52401686,0.50768524,1002.2505, , , , 
2025-11-24 20:07:57.240,10.598709,-2.9662027,-0.8811569,1.2257414,-0.3965926,2.1834736,-40.36875,27.150002,-11.8125,0.47184804,-0.5326162,0.521574,1002.2505, , , , 
2025-11-24 20:07:57.260,9.686445,-3.2392836,-1.6160526,1.2807176,-0.26464957,1.9635686,-39.54375,28.406252,-11.418751,0.46829498,-0.537419,0.53581166,1002.25024, , , , 
2025-11-24 20:07:57.280,8.817552,-3.610171,-2.1690936,1.1011286,-0.069178455,1.9556274,-38.456253,30.056252,-11.4375,0.46455932,-0.54080975,0.54978156,1002.2512, , , , 
2025-11-24 20:07:57.300,7.953144,-4.072285,-2.3365912,0.68689775,0.19661646,2.1120043,-37.29375,31.44375,-11.83125,0.45616505,-0.54570293,0.5668495,1002.2512, , , , 
2025-11-24 20:07:57.320,7.876574,-4.5248275,-2.2671995,0.22815146,0.36215606,2.282431,-36.05625,32.8125,-12.69375,0.44512454,-0.5517672,0.5795161,1002.2512, , , , 
2025-11-24 20:07:57.340,8.398508,-4.2281175,-2.3078775,-0.18233791,0.31451,2.341072,-34.55625,34.29375,-13.125001,0.4310609,-0.56044304,0.5900781,1002.2471, , , , 
2025-11-24 20:07:57.360,8.7984085,-4.01725,-1.934298,-0.4315636,-0.13453911,2.193858,-33.037502,35.71875,-13.743751,0.41692585,-0.5714898,0.5971042,1002.2471, , , , 
2025-11-24 20:07:57.380,9.294023,-4.2520456,-1.5059828,-0.5091412,-0.74111044,2.045422,-31.612501,37.2,-14.043751,0.4056595,-0.5845243,0.60010964,1002.249, , , , 
2025-11-24 20:07:57.400,9.830314,-4.5655055,-1.1587243,-0.5121954,-1.1503781,2.0099928,-30.187502,38.79375,-13.9125,0.39769965,-0.59892803,0.6001711,1002.249, , , , 
2025-11-24 20:07:57.420,10.457532,-4.517649,-0.9194421,-0.5714476,-1.2303991,2.0038843,-28.81875,40.331253,-13.575001,0.39134488,-0.6137006,0.5989145,1002.2549, , , , 
2025-11-24 20:07:57.442,11.237891,-4.3812585,-0.8596215,-0.84266376,-0.8443436,1.9818939,-26.5125,41.943752,-12.3,0.38238236,-0.63169765,0.59665,1002.2617, , , , 
2025-11-24 20:07:57.460,11.273784,-4.124927,-0.61764735,-1.0870028,-0.37704548,1.9440213,-25.518751,42.6375,-11.85,0.37205175,-0.64550465,0.59452635,1002.2617, , , , 
2025-11-24 20:07:57.480,11.0608225,-4.048357,-0.09571291,-1.3368392,0.16301987,1.8878235,-23.625,43.893753,-10.725,0.35798064,-0.6587154,0.5922764,1002.2617, , , , 
2025-11-24 20:07:57.500,11.359925,-4.167998,0.38315073,-1.3863178,0.59855396,1.7925313,-21.806252,45.075,-9.46875,0.34070262,-0.6710246,0.5901282,1002.26294, , , , 
2025-11-24 20:07:57.520,11.462817,-4.465007,0.392722,-1.2305518,0.8190698,1.6550907,-19.800001,45.975002,-8.25,0.32207415,-0.6815427,0.5886279,1002.26294, , , , 
2025-11-24 20:07:57.541,11.477174,-4.7715874,0.22492532,-0.91718715,0.7634827,1.5933951,-17.475,47.325,-6.5625005,0.29914933,-0.69188863,0.5882616,1002.26953, , , , 
2025-11-24 20:07:57.560,11.810075,-4.5678983,-0.11724831,-0.6300889,0.53502584,1.6117204,-16.743752,47.850002,-6.0937505,0.28653154,-0.69699776,0.58892244,1002.26953, , , , 
2025-11-24 20:07:57.580,12.767802,-3.9430726,-0.9385847,-0.40529716,0.23265645,1.5671287,-15.468751,48.206253,-5.3625,0.2686699,-0.7042688,0.5910054,1002.2693, , , , 
2025-11-24 20:07:57.600,13.6199465,-3.4259238,-1.4198412,-0.3399365,-0.0025961008,1.3741009,-14.19375,49.031254,-4.78125,0.25766242,-0.7094779,0.59222937,1002.2693, , , , 
2025-11-24 20:07:57.620,13.890635,-2.8298118,-1.7141583,-0.3399365,-0.13820419,1.1786298,-12.750001,49.162502,-4.5,0.24955967,-0.7143454,0.5924258,1002.27246, , , , 
2025-11-24 20:07:57.642,13.979169,-2.1020947,-1.867299,-0.449889,-0.18829367,1.0363023,-11.231251,49.593754,-4.3500004,0.24322596,-0.7191818,0.59157234,1002.27246,37.8874899,127.74006636,147.7327880859375,1.46
2025-11-24 20:07:57.660,14.359927,-1.4916258,-1.6806588,-0.7583669,-0.1369825,0.7675296,-9.95625,50.1375,-3.9750001,0.23797925,-0.724596,0.58878636,1002.2739, , , , 
2025-11-24 20:07:57.680,14.711672,-1.4318053,-1.0079765,-1.0155336,-0.03802524,0.4516452,-8.85,50.193752,-3.6750002,0.23363136,-0.73058814,0.5834392,1002.2739, , , , 
2025-11-24 20:07:57.700,15.386747,-1.6160526,-0.24885355,-1.0876136,0.04382829,0.18837002,-8.025001,50.5875,-2.9250002,0.23021208,-0.73659384,0.5761577,1002.27954, , , , 
2025-11-24 20:07:57.720,16.54308,-1.6399808,0.4956134,-0.83105767,0.14591613,-0.13721156,-7.51875,50.662502,-1.8937501,0.22756074,-0.7421969,0.5670883,1002.27954, , , , 
2025-11-24 20:07:57.740,17.024334,-1.4724833,0.80907315,-0.4382829,0.2320456,-0.68025476,-6.9,50.68125,-1.1625,0.2288653,-0.74325925,0.56136656,1002.27563, , , , 
2025-11-24 20:07:57.760,16.119549,-1.7668004,0.8955139,-0.09498675,0.40858045,-1.443203,-6.6562505,50.86875,-0.3,0.23532392,-0.74027747,0.5567619,1002.27563, , , , 
2025-11-24 20:07:57.781,13.936098,-2.7317061,0.9553344,0.13347013,0.6633038,-2.1384234,-7.0125003,50.60625,0.3,0.2464814,-0.7334029,0.5525528,1002.27295, , , , 
2025-11-24 20:07:57.800,12.418151,-3.8617167,0.83060855,0.2507528,0.87893283,-2.4560642,-7.9875,50.531254,0.7875,0.2599373,-0.7236137,0.5485484,1002.27295, , , , 
2025-11-24 20:07:57.820,11.843575,-4.7979083,0.8500503,0.36864632,0.9595647,-2.5709033,-9.4875,50.081253,0.99375004,0.2738771,-0.7118696,0.54478794,1002.27734, , , , 
2025-11-24 20:07:57.841,12.138191,-5.1089754,1.1874382,0.5995466,0.9119186,-2.628934,-11.606251,49.631252,0.61875004,0.29171598,-0.6952433,0.5406823,1002.27734, , , , 
2025-11-24 20:07:57.860,12.243475,-5.286044,1.3094722,0.8989381,0.7873058,-2.7217827,-13.89375,49.331253,0.45000002,0.30743575,-0.68006784,0.53827137,1002.27686, , , , 
2025-11-24 20:07:57.880,11.968001,-5.3676996,1.4437693,1.1988641,0.5728984,-2.8598342,-16.125,48.375004,-0.46875003,0.32556504,-0.6632288,0.53635854,1002.27686, , , , 
2025-11-24 20:07:57.900,11.178071,-5.1999025,1.3405789,1.4639719,0.34321982,-2.9832253,-18.45,47.625,-1.5375,0.346497,-0.6448253,0.5346089,1002.27563, , , , 
2025-11-24 20:07:57.920,10.241879,-5.111368,0.9026923,1.4920708,0.13186665,-3.0394232,-20.831251,46.6875,-2.3812501,0.36962622,-0.6255809,0.53239524,1002.27563, , , , 
2025-11-24 20:07:57.940,9.41127,-5.0132627,0.52193445,1.2208546,0.1428619,-2.9978857,-23.00625,45.225002,-3.9,0.39288223,-0.60655856,0.52886593,1002.2754, , , , 
2025-11-24 20:07:57.960,8.932407,-4.9725847,0.20817557,0.74248487,0.45133978,-2.8696077,-25.425001,43.85625,-5.025,0.41334715,-0.5884116,0.52388644,1002.2754, , , , 
2025-11-24 20:07:57.980,8.848659,-4.761717,0.15553348,0.22265382,0.99255043,-2.6753583,-27.7875,41.86875,-6.3562503,0.4283662,-0.57103926,0.5181403,1002.2749, , , , 
2025-11-24 20:07:58.000,9.109476,-4.735396,0.29222345,-0.088878274,1.2839246,-2.5611298,-29.98125,39.862503,-7.3500004,0.4395646,-0.55012727,0.51050454,1002.2749, , , , 
2025-11-24 20:07:58.020,9.19801,-4.8792644,0.41665024,-0.21532366,1.385936,-2.540972,-32.1375,38.11875,-8.231251,0.44504094,-0.5337742,0.5037333,1002.2742, , , , 
2025-11-24 20:07:58.040,8.7673025,-5.020441,0.7540382,-0.17806198,1.2991958,-2.5837312,-34.21875,36.28125,-9.450001,0.4498437,-0.5174089,0.49610153,1002.2742, , , , 
2025-11-24 20:07:58.060,8.197512,-5.3533425,1.0127622,-0.010689827,1.0695171,-2.5501347,-35.8125,34.518753,-10.1625,0.45545965,-0.50113356,0.4878106,1002.2715, , , , 
2025-11-24 20:07:58.080,8.247761,-6.059524,0.99601245,0.1927223,0.88443047,-2.4181917,-37.143753,32.86875,-11.25,0.46214548,-0.4853077,0.47955972,1002.2715, , , , 
2025-11-24 20:07:58.100,8.336295,-6.748956,0.6128617,0.44927815,0.7799756,-2.1946216,-38.287502,30.69375,-12.39375,0.46954685,-0.47001353,0.47237343,1002.2678, , , , 
2025-11-24 20:07:58.120,7.699505,-6.2198434,0.05742774,0.6606313,0.6675797,-1.8036029,-39.1875,28.44375,-12.918751,0.47911328,-0.45184618,0.46637452,1002.2678, , , , 
2025-11-24 20:07:58.140,7.153642,-5.2740803,-0.21774685,0.68995196,0.4776062,-1.5006226,-40.03125,26.737501,-13.837501,0.4866784,-0.4390541,0.46347392,1002.2715, , , , 
2025-11-24 20:07:58.160,7.4862447,-4.517649,-0.23449662,0.62336963,0.2693073,-1.3161467,-40.96875,24.4125,-14.681251,0.49417716,-0.42848203,0.46071917,1002.2715, , , , 
2025-11-24 20:07:58.181,7.998608,-4.520042,-0.2105684,0.5775561,0.22899136,-1.2055835,-41.68125,23.0625,-15.337501,0.50122714,-0.4194266,0.45772296,1002.2705, , , , 
2025-11-24 20:07:58.200,7.7569327,-4.6779685,-0.5602196,0.5598415,0.4556157,-0.91115505,-42.112503,21.75,-15.95625,0.50666606,-0.41095644,0.45606613,1002.2705, , , , 
2025-11-24 20:07:58.220,7.3546395,-4.570291,-0.8979067,0.59649235,0.67979664,-0.39315656,-42.693752,20.38125,-16.237501,0.50932336,-0.40301934,0.45789754,1002.2671, , , , 
2025-11-24 20:07:58.240,7.1392856,-4.2927237,-1.3860425,0.61481774,0.5649574,0.118122585,-43.0125,19.66875,-16.78125,0.51015455,-0.39691576,0.4629609,1002.2671, , , , 
2025-11-24 20:07:58.260,7.6683984,-4.26401,-2.0231316,0.50242186,0.20944425,0.661853,-43.21875,18.5625,-17.025002,0.50988823,-0.39462554,0.47187683,1002.25977, , , , 
2025-11-24 20:07:58.281,8.202297,-4.223332,-2.3102703,0.25563958,-0.13514996,1.025918,-43.125,17.868752,-17.737501,0.5090942,-0.39681366,0.47742572,1002.25977, , , , 
2025-11-24 20:07:58.300,8.118249,-3.7875392,-2.1714866,-0.05833591,-0.44546035,1.3099619,-42.9375,17.71875,-18.73125,0.5061123,-0.4062583,0.48564225,1002.2615, , , , 
2025-11-24 20:07:58.321,7.998608,-3.3493536,-1.4844474,-0.42728767,-0.7252284,1.4987137,-42.825,18.075,-18.825,0.50211257,-0.41837794,0.49046662,1002.2578, , , , 
2025-11-24 20:07:58.340,7.838289,-3.4402807,-0.55064833,-0.64047337,-0.7985301,1.6764703,-42.6375,18.7875,-18.900002,0.4963868,-0.43340406,0.49387348,1002.2578, , , , 
2025-11-24 20:07:58.360,7.9818583,-3.610171,0.14117654,-0.6728483,-0.7545491,1.8841584,-42.600002,19.743752,-18.393751,0.48863077,-0.4500223,0.4973402,1002.2578, , , , 
2025-11-24 20:07:58.380,8.652147,-3.9119658,0.541077,-0.5036436,-0.7044596,2.0545847,-42.15,21.243752,-17.475,0.47953513,-0.46692446,0.50196916,1002.2639, , , , 
2025-11-24 20:07:58.400,9.284451,-3.8425741,0.7013961,-0.12003148,-0.6659762,2.0918465,-41.53125,22.48125,-16.706251,0.4684437,-0.48645124,0.50989586,1002.2639, , , , 
2025-11-24 20:07:58.420,9.372986,-3.4857445,0.4334,0.2751867,-0.7105681,2.0442004,-40.8375,24.337502,-16.10625,0.46160272,-0.49959406,0.51776165,1002.2656, , , , 
2025-11-24 20:07:58.441,9.037691,-3.0957143,-0.050249275,0.5781669,-0.82357484,2.0148797,-40.0875,26.343752,-15.76875,0.457153,-0.51077825,0.5264726,1002.2595, , , , 
2025-11-24 20:07:58.460,8.7673025,-2.8896325,-0.57936215,0.6911737,-0.902985,2.0790186,-39.15,28.050001,-15.20625,0.4542676,-0.52106065,0.535629,1002.2595, , , , 
2025-11-24 20:07:58.480,8.894122,-2.7795627,-0.94337034,0.5903839,-0.82662904,2.2555535,-38.0625,29.925001,-14.962501,0.45092463,-0.5313736,0.5451694,1002.2615, , , , 
2025-11-24 20:07:58.500,9.133404,-2.748456,-1.2017952,0.33749312,-0.5816793,2.425369,-37.125,31.518751,-14.400001,0.4452229,-0.54211944,0.55504906,1002.2615, , , , 
2025-11-24 20:07:58.520,9.847063,-2.6742785,-1.4102699,-0.022295926,-0.22311196,2.4803452,-35.925003,32.8875,-14.043751,0.43592367,-0.55324537,0.56491387,1002.2615, , , , 
2025-11-24 20:07:58.540,9.894919,-2.6886353,-1.1730813,-0.36864632,0.109265305,2.4125412,-34.800003,34.2,-13.762501,0.4195075,-0.56721616,0.5759814,1002.27026, , , , 
2025-11-24 20:07:58.560,9.803694,-3.0885358,-1.0103694,-0.61970454,0.15935478,2.3593976,-33.600002,35.60625,-13.25625,0.4040526,-0.5787789,0.58314025,1002.26807, , , , 
2025-11-24 20:07:58.580,10.08156,-3.3924243,-0.83778703,-0.81639737,0.14652699,2.3044212,-32.0625,37.36875,-13.087501,0.3918504,-0.58804226,0.5872404,1002.26807, , , , 
2025-11-24 20:07:58.600,9.973883,-3.6077783,-0.38793638,-0.961779,0.1300341,2.221957,-30.50625,39.0,-12.58125,0.3708529,-0.6040132,0.5919596,1002.26807, , , , 
2025-11-24 20:07:58.621,9.969097,-3.92393,0.021535404,-1.0039275,0.03955236,2.2127943,-27.937502,41.381252,-11.7375,0.35396355,-0.6170318,0.5943484,1002.27124, , , , 
2025-11-24 20:07:58.640,10.167702,-3.7588253,0.3807579,-0.92757154,0.066506,2.2744899,-26.8875,42.05625,-11.512501,0.33688375,-0.6298346,0.5964599,1002.27124,37.88750053,127.74005922,147.821044921875,1.19
2025-11-24 20:07:58.660,10.909776,-3.5886357,0.60329044,-0.72843534,0.043217443,2.2830417,-24.768751,43.068752,-10.78125,0.3195684,-0.6415563,0.59921,1002.272, , , , 
2025-11-24 20:07:58.680,12.186048,-3.9358943,0.5626124,-0.4627168,-0.12598725,2.1877494,-22.6875,44.30625,-10.1625,0.3035537,-0.651788,0.6025352,1002.272, , , , 
2025-11-24 20:07:58.700,13.349558,-4.331009,0.3687938,-0.15790401,-0.33123192,1.9922783,-20.400002,45.46875,-9.525001,0.2875146,-0.6621398,0.6072158,1002.2837, , , , 
2025-11-24 20:07:58.720,13.8691,-4.2855453,0.031106694,-0.016187452,-0.40575528,1.8389556,-18.16875,46.40625,-9.075001,0.2778481,-0.668535,0.61130434,1002.2837, , , , 
2025-11-24 20:07:58.740,14.108381,-4.314259,-0.1698904,-0.09132166,-0.33428615,1.6483713,-16.25625,47.34375,-8.587501,0.26974225,-0.67395675,0.61496586,1002.2881, , , , 
2025-11-24 20:07:58.760,13.991133,-4.6755753,-0.22731815,-0.4187358,-0.119267926,1.4021999,-14.3625,48.187504,-8.1,0.26199654,-0.6792552,0.61711353,1002.2881, , , , 
2025-11-24 20:07:58.780,13.181761,-4.970192,0.11006984,-0.813954,0.23021306,1.2372711,-12.843751,48.825,-8.043751,0.2532861,-0.68521285,0.61697775,1002.2844, , , , 
2025-11-24 20:07:58.800,12.351152,-5.1735816,0.8330014,-1.0662339,0.57045496,1.1780189,-11.587501,49.162502,-7.33125,0.24189392,-0.691806,0.61511236,1002.2844, , , , 
2025-11-24 20:07:58.820,11.362318,-5.52084,1.8074784,-1.0363023,0.8593857,1.1486983,-10.481251,49.575,-6.9,0.22438279,-0.6997366,0.61214364,1002.28735, , , , 
2025-11-24 20:07:58.840,10.6154585,-5.0515475,2.1140587,-0.5036436,1.1519816,1.1370921,-9.375,49.8375,-6.1312504,0.20867024,-0.7031221,0.6123407,1002.28735, , , , 
2025-11-24 20:07:58.860,10.560424,-4.4171505,1.1395818,0.2159345,0.9870528,1.061958,-8.4375,50.268753,-5.11875,0.19403046,-0.702259,0.6166706,1002.2905, , , , 
2025-11-24 20:07:58.880,11.539686,-3.3780673,-0.43579283,0.67040485,0.35177165,0.7669187,-7.3500004,50.531254,-4.8562503,0.18459792,-0.6989862,0.6231235,1002.2905, , , , 
2025-11-24 20:07:58.900,12.181262,-2.5450659,-1.0079765,0.82800347,-0.33917293,0.30382016,-6.1125,50.625004,-4.65,0.18258554,-0.6952961,0.62891734,1002.2915, , , , 
2025-11-24 20:07:58.920,12.87548,-2.1044874,-1.1467602,0.7834116,-1.0172133,-0.28442577,-5.0625,50.8875,-4.9500003,0.18898961,-0.692236,0.63229746,1002.2915, , , , 
2025-11-24 20:07:58.940,13.433307,-1.907977,-1.0654043,0.5323534,-1.2175713,-0.8745042,-4.33125,50.943752,-5.5875,0.2028737,-0.689992,0.63232464,1002.2908, , , , 
2025-11-24 20:07:58.962,13.488341,-2.5136602,-0.69182485,0.07116371,-0.96101546,-1.4939033,-4.0687504,51.318752,-5.9625,0.22495238,-0.68767285,0.62734586,1002.2908, , , , 
