Time,Accel_X,Accel_Y,Accel_Z,Gyro_X,Gyro_Y,Gyro_Z,Mag_X,Mag_Y,Mag_Z,Orient_X,Orient_Y,Orient_Z,Pressure,Lat,Lng,Alt,Speed
2025-11-24 20:19:06.318,-1.9199411,1.6016957,8.190332,-0.68567604,1.2436087,-0.31191388,-23.34375,-4.275,-50.7,0.10054195,0.11847149,1.0027338E-4,1002.2781,37.88738263,127.74018689,150.9854736328125,0.0
2025-11-24 20:19:06.338,-3.7396827,1.1730813,8.67129,-0.937956,-0.40514445,0.08025006,-22.59375,-4.3500004,-53.04375,0.08009581,0.13202389,1.3567215E-4,1002.26685, , , , 
2025-11-24 20:19:06.357,-4.551149,0.24885355,8.992228,-0.63619745,-0.79303247,0.53227705,-21.6,-3.8625002,-54.225002,0.07240452,0.1265732,0.0021726652,1002.26416, , , , 
2025-11-24 20:19:06.377,-3.6487553,0.42861435,9.557233,-0.54212695,-0.8638907,0.99965155,-21.45,-2.9250002,-54.7125,0.067495264,0.11857438,0.007913307,1002.26416, , , , 
2025-11-24 20:19:06.397,-1.5658033,-0.7468598,9.645767,-0.6374191,-0.41369632,0.83472276,-22.06875,-2.3812501,-54.675003,0.06312383,0.11089804,0.017544707,1002.27124, , , , 
2025-11-24 20:19:06.418,-0.37357944,-1.3214363,9.176475,-0.95200545,0.22532628,0.20425205,-23.362501,-2.0062501,-54.075,0.05409717,0.10828954,0.026531862,1002.27124, , , , 
2025-11-24 20:19:06.437,-1.7931215,-0.52911294,9.35145,-1.1205993,0.26503137,0.00633754,-25.593752,-2.60625,-53.250004,0.04343554,0.11059259,0.028976692,1002.27783, , , , 
2025-11-24 20:19:06.457,-3.3086755,0.08853444,9.794122,-0.8677085,-0.24204823,0.18592663,-27.35625,-2.9437501,-53.062504,0.033261284,0.11094041,0.030644614,1002.27783, , , , 
2025-11-24 20:19:06.477,-3.2105699,0.5482555,9.935597,-0.22204298,-0.68979925,0.4259896,-28.66875,-2.15625,-53.156254,0.027482068,0.10672725,0.033698145,1002.281, , , , 
2025-11-24 20:19:06.498,-3.3349965,3.2201412,9.042477,-0.019852536,-0.2261662,0.7504259,-29.362501,-0.71250004,-54.24375,0.027606156,0.100952715,0.038084295,1002.281, , , , 
2025-11-24 20:19:06.518,-3.1698918,4.9103713,9.025727,-0.6465818,-0.5505261,1.1584718,-29.475,2.4,-55.706253,0.0273625,0.0986162,0.045514435,1002.28076, , , , 
2025-11-24 20:19:06.537,-2.8226335,4.388437,8.4248295,-1.157861,-0.90665007,1.5237585,-29.56875,5.34375,-57.487503,0.022291606,0.09161701,0.05737037,1002.28076, , , , 
2025-11-24 20:19:06.557,-0.39511484,2.2695923,10.162916,-1.1645803,-1.7123575,1.5964493,-29.737501,8.175,-59.437504,0.010975558,0.07614755,0.07722479,1002.28564, , , , 
2025-11-24 20:19:06.577,0.46929234,1.8625133,9.46152,-1.0442433,-0.9732324,1.3435585,-30.50625,11.26875,-61.55625,0.0030043111,0.061434202,0.092731416,1002.28564, , , , 
2025-11-24 20:19:06.597,-0.3281158,2.2360928,8.355437,-1.0918895,-0.27442312,1.2598724,-31.7625,13.650001,-63.468754,-0.0052247187,0.05394063,0.10616021,1002.2749, , , , 
2025-11-24 20:19:06.617,-0.14356937,0.8859426,9.032906,-1.2934691,-0.24571331,1.2922474,-33.768753,15.7875,-64.875,-0.014875305,0.051074855,0.11903116,1002.2749, , , , 
2025-11-24 20:19:06.637,0.47886363,-1.5394822,10.20838,-1.4327422,-0.9860602,1.134038,-36.65625,17.23125,-65.49375,-0.026406363,0.045205798,0.13193631,1002.2744, , , , 
2025-11-24 20:19:06.657,1.89362,-2.1188445,11.97518,-1.3319525,-2.003121,0.640397,-40.4625,18.150002,-65.0625,-0.03814261,0.030890746,0.14317821,1002.2744, , , , 
2025-11-24 20:19:06.677,1.9055841,-1.0199406,13.53859,-0.8835906,-2.4404876,0.11995513,-44.850002,18.50625,-63.43125,-0.046913225,0.007393356,0.14991094,1002.2739, , , , 
2025-11-24 20:19:06.697,1.3884354,0.7899306,14.453247,-0.05222744,-1.8412464,0.09552124,-49.312504,18.6375,-60.318752,-0.050043505,-0.01628727,0.15251844,1002.2739, , , , 
2025-11-24 20:19:06.717,2.341377,0.83060855,13.167404,1.1499963,-0.27075803,0.014278554,-52.987503,18.581251,-56.625004,-0.04177456,-0.030762365,0.1548176,1002.2715, , , , 
2025-11-24 20:19:06.737,2.9566314,0.20817557,11.340783,1.9422653,1.3376791,-0.2538834,-54.750004,18.50625,-53.49375,-0.027460147,-0.024757631,0.15501197,1002.2715, , , , 
2025-11-24 20:19:06.757,2.288735,-0.09332009,10.124631,2.519516,2.533718,-0.3149681,-54.112503,18.09375,-51.881252,-0.008947229,-0.0040214392,0.15247948,1002.2649, , , , 
2025-11-24 20:19:06.777,1.0223335,0.124426775,9.890134,2.950774,3.223441,-0.16286714,-50.9625,17.325,-51.956253,0.012769913,0.027267404,0.14956781,1002.2649, , , , 
2025-11-24 20:19:06.797,-0.7157531,0.38315073,9.456735,1.9349351,0.45622656,-0.5452575,-45.1875,16.331251,-53.625004,0.035253506,0.054561492,0.14723186,1002.26074, , , , 
2025-11-24 20:19:06.818,-0.72771716,1.1060823,6.6053867,0.81578654,-0.004428643,-0.8665632,-38.831253,14.26875,-55.162502,0.04926127,0.057391927,0.14101776,1002.26074, , , , 
2025-11-24 20:19:06.838,-0.98644114,0.5458627,7.5197444,0.35704023,0.0071774554,-0.9545252,-33.43125,11.981251,-56.100002,0.055547677,0.05927358,0.13223748,1002.261, , , , 
2025-11-24 20:19:06.857,-1.4557334,0.34965122,8.803194,0.37964156,-0.20356485,-0.84457266,-28.95,9.75,-56.4,0.059043266,0.059487857,0.120813064,1002.261, , , , 
2025-11-24 20:19:06.878,-1.745265,0.12203395,8.989835,0.36375955,-0.22738789,-0.7217924,-26.56875,7.6875005,-55.85625,0.06235231,0.05856542,0.11257422,1002.27344, , , , 
2025-11-24 20:19:06.897,-1.9848464,0.21296121,8.65454,0.13285927,-0.10949437,-0.44202435,-25.143751,6.2250004,-54.6375,0.06469402,0.05751139,0.105723366,1002.27344, , , , 
2025-11-24 20:19:06.917,-1.8505492,0.4142574,8.652147,-0.14018944,-0.030695075,-0.22456272,-24.018751,5.2125,-53.381252,0.06473917,0.057208702,0.10140555,1002.28076, , , , 
2025-11-24 20:19:06.938,-1.4557334,0.6200402,9.083155,-0.21165858,0.012064233,-0.13049224,-23.306252,4.74375,-52.256252,0.06274171,0.057230726,0.099286646,1002.28076, , , , 
2025-11-24 20:19:06.957,-0.89312106,0.68464637,9.581161,-0.0503949,-0.10521844,-0.15248275,-22.725,4.40625,-51.3375,0.060856257,0.05708509,0.098132156,1002.2837, , , , 
2025-11-24 20:19:06.977,-0.5482555,0.77796644,9.983455,0.23303823,-0.40147936,-0.3485647,-21.975,4.3125,-50.79375,0.061443813,0.05471256,0.09587209,1002.2837, , , , 
2025-11-24 20:19:06.997,-0.85244304,0.73489565,10.062417,0.48409647,-0.58778775,-0.45851722,-21.337502,4.3875003,-50.49375,0.064882465,0.05044924,0.09191803,1002.2854, , , , 
2025-11-24 20:19:07.017,-1.1778669,0.5769694,9.502198,0.5164714,-0.50593424,-0.40720606,-21.018751,4.3125,-49.95,0.06997533,0.0457192,0.08697911,1002.2854, , , , 
2025-11-24 20:19:07.037,-1.2592229,0.6343971,9.01137,0.32405448,-0.30679804,-0.34245625,-21.0,4.14375,-49.575,0.07417018,0.04241868,0.08262453,1002.27734, , , , 
2025-11-24 20:19:07.057,-1.311865,0.91465646,9.23151,0.15301724,-0.1809635,-0.29725355,-21.300001,3.7875001,-49.162502,0.076365456,0.04058356,0.07900789,1002.27734, , , , 
2025-11-24 20:19:07.077,-1.2735798,1.0749756,9.631411,0.118198946,-0.1357608,-0.2398339,-21.4125,3.3750002,-48.506252,0.077531524,0.03945463,0.07596411,1002.28345, , , , 
2025-11-24 20:19:07.097,-1.2975081,1.2329018,9.7247305,0.11331217,-0.09605573,-0.16286714,-21.768751,2.7375002,-48.24375,0.07855254,0.03869183,0.073555656,1002.28345, , , , 
2025-11-24 20:19:07.117,-1.244866,1.3908281,9.657731,0.08704574,-0.114992,-0.10972344,-21.7875,2.23125,-47.98125,0.07948955,0.03808664,0.0718908,1002.28613, , , , 
2025-11-24 20:19:07.137,-1.0103694,1.5777674,9.693624,0.0723854,-0.18157434,-0.09139802,-21.768751,2.1000001,-47.737503,0.08046049,0.03673074,0.07046834,1002.28613, , , , 
2025-11-24 20:19:07.159,-0.8138588,1.7715861,9.68166,0.038177952,-0.20661908,-0.11766446,-21.862501,1.8750001,-47.9625,0.081123404,0.03507587,0.069371924,1002.28955, , , , 
2025-11-24 20:19:07.177,-0.75643104,1.8816559,9.882956,0.011911522,-0.25793025,-0.1427092,-21.862501,2.0062501,-48.375004,0.08145445,0.03312413,0.068008155,1002.28955, , , , 
2025-11-24 20:19:07.197,-0.8644072,1.907977,10.426426,0.14935215,-0.3672719,-0.10544751,-21.993752,2.0062501,-48.0,0.08213888,0.030465243,0.06646998,1002.29517, , , , 
2025-11-24 20:19:07.218,-0.7851449,1.7979071,10.6561365,0.32771957,-0.47905695,-0.028480753,-22.35,1.6500001,-48.16875,0.084363334,0.026850168,0.065188736,1002.29517, , , , 
2025-11-24 20:19:07.237,-0.6942177,1.7955143,10.565209,0.441948,-0.5725166,0.08574768,-22.650002,1.48125,-47.775,0.0882057,0.02230912,0.06452088,1002.2888, , , , 
2025-11-24 20:19:07.257,-0.7540382,1.9199411,10.222736,0.49997848,-0.6048915,0.18837002,-22.931252,1.125,-47.25,0.09300363,0.017029967,0.0648262,1002.2888, , , , 
2025-11-24 20:19:07.277,-0.5721837,2.1547368,9.808479,0.52929914,-0.75638163,0.28060797,-23.38125,0.88125,-47.268753,0.09964705,0.009479904,0.06649297,1002.2825, , , , 
2025-11-24 20:19:07.297,-0.0741775,2.288735,9.511769,0.57328016,-0.9512419,0.26900187,-23.737501,0.71250004,-46.875,0.10550063,0.00164358,0.06840395,1002.2825, , , , 
2025-11-24 20:19:07.317,0.51475596,2.4418755,9.190832,0.5726693,-1.1021211,0.1712663,-24.468752,0.45000002,-46.612503,0.111766875,-0.007975479,0.0698382,1002.2766,37.88738263,127.74018689,150.9854736328125,0.0
2025-11-24 20:19:07.339,1.0223335,2.612065,8.95155,0.5091412,-1.2010784,0.01305686,-25.275002,0.112500004,-46.143753,0.1179181,-0.018666424,0.07008669,1002.2766, , , , 
2025-11-24 20:19:07.357,1.3477573,2.5088747,8.944371,0.4315636,-1.3696723,-0.08040277,-26.493752,-0.39375,-45.7125,0.12345519,-0.030216148,0.06886868,1002.2783, , , , 
2025-11-24 20:19:07.378,1.3740784,2.6694927,9.064013,0.40651885,-2.1204035,-0.07368345,-27.88125,-0.975,-45.225002,0.13024607,-0.051154267,0.06656001,1002.2783, , , , 
2025-11-24 20:19:07.397,1.9920249,3.3254254,8.5349,0.2367033,-1.7911569,-0.32596338,-29.56875,-1.5,-44.643753,0.1350829,-0.070013754,0.06293394,1002.27734, , , , 
2025-11-24 20:19:07.417,2.5259235,2.9733813,8.164012,0.035734564,-1.5480397,-0.48844874,-31.781252,-2.1375,-44.325,0.13805722,-0.08536459,0.057301626,1002.27734, , , , 
2025-11-24 20:19:07.437,2.5689943,2.7508488,8.446364,-0.096208446,-1.3091984,-0.5305972,-33.787502,-2.6437502,-43.987503,0.13908288,-0.09871349,0.05049585,1002.272, , , , 
2025-11-24 20:19:07.459,2.4394827,2.652743,8.987442,-0.1603474,-1.011105,-0.463404,-35.7,-3.1125002,-44.1375,0.13909893,-0.109453246,0.043719158,1002.272, , , , 
2025-11-24 20:19:07.477,2.2959132,2.7101707,9.23151,-0.3723114,-0.31840414,-0.39804333,-37.256252,-3.5625002,-44.23125,0.13795684,-0.11749172,0.037804004,1002.27637, , , , 
2025-11-24 20:19:07.497,2.5546372,2.585744,9.449555,-0.48409647,0.5454103,-0.30397287,-38.23125,-3.6000001,-43.987503,0.13436097,-0.11731959,0.033147994,1002.27637, , , , 
2025-11-24 20:19:07.517,2.7149563,2.3700907,9.875777,-0.5891622,0.91130775,-0.35833827,-38.737503,-3.525,-43.256252,0.12949169,-0.11055776,0.030243564,1002.28174, , , , 
2025-11-24 20:19:07.537,2.300699,2.3437698,10.251451,-0.5231907,0.7176692,-0.4127037,-38.90625,-3.4687502,-42.375,0.12278787,-0.099662185,0.02652368,1002.28174, , , , 
2025-11-24 20:19:07.557,1.9438694,2.3078775,10.505388,-0.24647687,-0.0025961008,-0.43958095,-38.53125,-3.3375,-42.018753,0.119069025,-0.09520937,0.02288505,1002.2825, , , , 
2025-11-24 20:19:07.577,1.8457636,2.2145574,10.586744,0.12675081,-0.78509146,-0.44691113,-38.1375,-3.5625002,-41.79375,0.118713625,-0.09802902,0.018439958,1002.2825, , , , 
2025-11-24 20:19:07.597,1.8074784,2.271985,10.11506,0.43522868,-1.2475028,-0.41575792,-37.575,-3.80625,-41.90625,0.121769525,-0.10702917,0.013426249,1002.2866, , , , 
2025-11-24 20:19:07.617,1.785943,2.4035904,9.456735,0.46821442,-1.1399937,-0.35955995,-37.7625,-4.18125,-41.0625,0.12669833,-0.118258454,0.0085008,1002.2866, , , , 
2025-11-24 20:19:07.637,1.879263,2.4155545,8.752945,0.2959555,-0.5438068,-0.23372543,-38.325,-4.89375,-40.237503,0.13074374,-0.12619808,0.004411982,1002.2893, , , , 
2025-11-24 20:19:07.657,2.0350957,2.6096723,8.56122,0.03451287,-0.11865708,-0.12743801,-39.05625,-5.4750004,-39.28125,0.13313945,-0.1298775,0.0018678264,1002.2893, , , , 
2025-11-24 20:19:07.678,2.1284158,2.6623142,8.56122,-0.21288027,0.2796917,-0.0510821,-39.9,-6.1125,-38.268753,0.13282977,-0.12959069,2.446973E-4,1002.2905, , , , 
2025-11-24 20:19:07.698,2.2241287,2.6551359,8.882157,-0.40590802,0.59855396,8.39915E-4,-40.256252,-6.3187504,-37.912502,0.13001147,-0.12545253,-5.7072804E-5,1002.2905, , , , 
2025-11-24 20:19:07.719,2.271985,2.5208387,9.387342,-0.47493374,0.7695912,0.0264955,-40.40625,-6.4500003,-37.65,0.12577547,-0.118954316,2.5618763E-4,1002.2898, , , , 
2025-11-24 20:19:07.737,2.2289143,2.3724837,9.731909,-0.4266768,0.7891383,0.042377528,-40.2,-6.3375,-37.3875,0.12135513,-0.11147298,9.1756426E-4,1002.2898, , , , 
2025-11-24 20:19:07.758,2.1571295,2.2983062,9.815658,-0.29839888,0.67307734,0.04359922,-39.80625,-6.0750003,-37.875,0.11764055,-0.104375415,0.0018057252,1002.2871, , , , 
2025-11-24 20:19:07.777,2.1355941,2.2624137,9.755837,-0.14629792,0.5105919,0.00633754,-39.300003,-5.7375,-38.41875,0.11517226,-0.0985079,0.0026610554,1002.2871, , , , 
2025-11-24 20:19:07.798,2.0518453,2.1954148,9.442377,0.016798299,0.3755947,-0.033367533,-38.625,-5.45625,-38.456253,0.114242665,-0.09404971,0.0031306387,1002.28735, , , , 
2025-11-24 20:19:07.818,1.8960128,2.2289143,9.040084,0.055281676,0.24792764,-0.05596888,-37.96875,-5.1000004,-38.9625,0.11465778,-0.09005921,0.0032681176,1002.28735, , , , 
2025-11-24 20:19:07.837,1.785943,2.3078775,8.697611,0.030847786,0.1660741,-0.06452074,-37.48125,-4.7250004,-39.075,0.11540675,-0.08831806,0.0030498658,1002.2886, , , , 
2025-11-24 20:19:07.857,1.7093726,2.3341985,8.499007,-0.035123717,0.051158458,-0.059023116,-36.881252,-4.6687503,-39.05625,0.11589728,-0.08745545,0.0026685677,1002.2886, , , , 
2025-11-24 20:19:07.877,1.8002999,2.3437698,8.544471,-0.09743014,-0.057572354,-0.06696413,-36.73125,-4.4625,-39.5625,0.11592126,-0.08759976,0.00211367,1002.28564, , , , 
2025-11-24 20:19:07.897,1.9582262,2.248057,8.874979,-0.12552911,-0.069178455,-0.07673769,-36.6375,-4.55625,-39.675003,0.115371555,-0.08859046,0.0013501359,1002.28564, , , , 
2025-11-24 20:19:07.917,1.8840487,2.300699,9.255438,-0.14568707,-0.06795676,-0.10361496,-36.6375,-4.875,-39.862503,0.11442737,-0.08963834,4.3736043E-4,1002.27954, , , , 
2025-11-24 20:19:07.937,1.730908,2.2815564,9.571589,-0.16706672,0.005955761,-0.09200887,-36.768753,-5.2125,-39.9375,0.11322105,-0.09023054,-7.4798E-4,1002.27954, , , , 
2025-11-24 20:19:07.959,1.6663018,2.1954148,9.84467,-0.15668233,0.13736428,-0.060855657,-36.5625,-5.49375,-39.825,0.11136133,-0.089269616,-0.0019716294,1002.2798, , , , 
2025-11-24 20:19:07.977,1.611267,2.1427727,9.9140625,-0.1279725,0.19722731,-0.046195325,-36.61875,-5.5125003,-39.99375,0.10991781,-0.0873482,-0.0025246418,1002.2798, , , , 
2025-11-24 20:19:07.998,1.5370895,2.1092732,9.906884,-0.09743014,0.19356222,-0.054747187,-36.675003,-5.4375,-39.881252,0.108977444,-0.08568225,-0.0028052942,1002.27954, , , , 
2025-11-24 20:19:08.017,1.4413766,2.1140587,9.87817,-0.029626092,0.12636903,-0.07062922,-36.6375,-5.1375003,-40.0875,0.107943065,-0.08313543,-0.0033547087,1002.27954, , , , 
2025-11-24 20:19:08.037,1.2496517,2.111666,9.77498,0.03268033,0.11354123,-0.054747187,-36.675003,-4.9125004,-40.237503,0.10779587,-0.081504464,-0.0039432836,1002.281, , , , 
2025-11-24 20:19:08.057,1.1228321,2.0733807,9.585947,0.086434886,0.11903886,-0.0046577104,-36.206253,-4.70625,-40.237503,0.10821996,-0.07973356,-0.0043548914,1002.281, , , , 
2025-11-24 20:19:08.077,1.1084751,2.0614166,9.262916,0.08093726,0.108654454,0.040544987,-36.05625,-4.74375,-40.18125,0.10896907,-0.07796612,-0.0042421473,1002.2761, , , , 
2025-11-24 20:19:08.097,1.16351,2.0662024,8.975478,0.014354911,0.08788565,0.07597413,-35.86875,-4.55625,-40.18125,0.10956748,-0.07617716,-0.0035096956,1002.2761, , , , 
2025-11-24 20:19:08.117,1.2376875,2.1762722,9.0544405,-0.05467083,0.07627955,0.09735378,-35.756252,-4.6125,-40.068752,0.109368145,-0.07518858,-0.0026746236,1002.2771, , , , 
2025-11-24 20:19:08.137,1.3429717,2.2002003,9.152547,-0.067498624,0.053601846,0.10101887,-35.79375,-4.78125,-39.91875,0.10895662,-0.07440404,-0.0017315024,1002.2771, , , , 
2025-11-24 20:19:08.157,1.4413766,2.2743778,9.193225,-0.06566608,0.009009997,0.08635853,-35.8125,-4.55625,-39.91875,0.10855053,-0.07413064,-8.0091716E-4,1002.28076, , , , 
2025-11-24 20:19:08.177,1.5634105,2.3365912,9.188439,-0.09926268,-0.08628218,0.053372778,-35.86875,-4.93125,-39.99375,0.10818105,-0.074583635,-6.521366E-5,1002.28076, , , , 
2025-11-24 20:19:08.198,1.637588,2.3844478,9.284451,-0.1291942,-0.1357608,0.0075592347,-35.662502,-4.875,-39.99375,0.10764179,-0.0758225,2.3499285E-4,1002.28, , , , 
2025-11-24 20:19:08.221,1.7165512,2.396412,9.456735,-0.15973656,-0.18401773,-0.051692948,-35.8875,-4.8187504,-40.0125,0.10664695,-0.07804241,-8.77707E-5,1002.28, , , , 
2025-11-24 20:19:08.238,1.7476579,2.3509483,9.645767,-0.15301724,-0.19501299,-0.08956548,-35.71875,-4.9875,-39.9,0.10571022,-0.08007262,-9.322174E-4,1002.2761, , , , 
2025-11-24 20:19:08.259,1.7476579,2.3030918,9.909277,-0.092543356,-0.17241164,-0.13049224,-35.79375,-4.78125,-39.693752,0.10491996,-0.08195405,-0.0022143316,1002.2761, , , , 
2025-11-24 20:19:08.277,1.625624,2.204986,9.978668,-0.003970507,-0.15347537,-0.13293563,-35.9625,-4.7625003,-39.600002,0.1047089,-0.083450414,-0.0037442194,1002.2739, , , , 
2025-11-24 20:19:08.297,1.4940187,2.1571295,9.789336,0.06810947,-0.106440134,-0.09994988,-36.506252,-4.70625,-39.393753,0.10514797,-0.0843862,-0.005150117,1002.2739, , , , 
2025-11-24 20:19:08.317,1.4437693,2.152344,9.523733,0.05833591,-0.119267926,-0.06513159,-36.525,-4.59375,-39.3375,0.10591045,-0.08500228,-0.0061749713,1002.2788,37.88739003,127.7401594,149.8907470703125,0.0
2025-11-24 20:19:08.338,1.4772689,2.1499512,9.389735,0.006413896,-0.13881505,-0.044362783,-36.600002,-4.36875,-39.16875,0.10646786,-0.08581407,-0.0068931514,1002.2788, , , , 
2025-11-24 20:19:08.357,1.5251254,2.085345,9.456735,-0.0070247436,-0.16447063,-0.040697698,-36.73125,-4.40625,-38.8125,0.10659616,-0.08716336,-0.0076454594,1002.28296, , , , 
2025-11-24 20:19:08.377,1.5131612,2.0255244,9.530911,0.020463383,-0.18035266,-0.035200074,-36.600002,-4.1625004,-38.568752,0.10661306,-0.08850978,-0.008236943,1002.28296, , , , 
2025-11-24 20:19:08.397,1.393221,1.9920249,9.471091,0.041843038,-0.15530792,0.0026724567,-37.03125,-4.51875,-38.11875,0.1067554,-0.089715004,-0.008706885,1002.28564, , , , 
2025-11-24 20:19:08.417,1.3238292,1.9944177,9.35145,0.040621344,-0.12720895,0.055205323,-37.59375,-4.59375,-37.875,0.1069662,-0.090499505,-0.008728984,1002.28564, , , , 
2025-11-24 20:19:08.437,1.326222,2.0781665,9.257831,-0.009468133,-0.12720895,0.096132085,-38.175003,-4.6312504,-37.912502,0.10706891,-0.09109301,-0.00827604,1002.2844, , , , 
2025-11-24 20:19:08.457,1.4724833,2.056631,9.308379,-0.086434886,-0.11987878,0.12850699,-38.8125,-4.7250004,-37.7625,0.10669167,-0.09177454,-0.007520367,1002.2844, , , , 
2025-11-24 20:19:08.477,1.6160526,2.0470598,9.585947,-0.10964708,-0.1241547,0.1492758,-39.318752,-4.6312504,-37.706253,0.10560405,-0.09262138,-0.00651611,1002.2883, , , , 
2025-11-24 20:19:08.497,1.9151554,1.975275,9.930812,-0.051005747,-0.15103199,0.15904936,-39.91875,-4.8375,-37.40625,0.10420281,-0.09410581,-0.0049778777,1002.2883, , , , 
2025-11-24 20:19:08.517,2.152344,1.89362,10.00499,-0.0045813546,-0.10949437,0.13278292,-40.631252,-4.70625,-37.21875,0.10347193,-0.09570064,-0.0036662926,1002.28784, , , , 
2025-11-24 20:19:08.537,2.1044874,1.89362,9.897313,0.02107423,-0.027640838,0.12239852,-41.0625,-5.0062504,-36.956253,0.10300648,-0.09679724,-0.0024868576,1002.28784, , , , 
2025-11-24 20:19:08.557,1.9920249,1.9390837,9.64816,0.055892523,-0.026419144,0.12850699,-41.456253,-4.4625,-36.7125,0.10290512,-0.09727796,-0.0012766195,1002.28467, , , , 
2025-11-24 20:19:08.579,2.0015962,1.9944177,9.289237,0.05955761,-0.074676074,0.13522631,-41.775,-4.3125,-36.35625,0.103270814,-0.09796063,2.305354E-5,1002.28467, , , , 
2025-11-24 20:19:08.597,1.9920249,2.1547368,8.863015,-0.029015245,-0.050242186,0.1156792,-41.756252,-4.2000003,-35.79375,0.10358135,-0.09899167,0.0012663106,1002.28296, , , , 
2025-11-24 20:19:08.617,1.9872392,2.2289143,8.635398,-0.16462334,-0.0038177953,0.11079242,-41.79375,-3.73125,-35.25,0.10328785,-0.09973354,0.0022780672,1002.28296, , , , 
2025-11-24 20:19:08.637,2.2791636,2.0685952,8.815159,-0.31428093,0.03955236,0.10101887,-41.775,-3.825,-34.987503,0.10126351,-0.100163534,0.0034023284,1002.2798, , , , 
2025-11-24 20:19:08.657,2.8465617,1.625624,8.999406,-0.43522868,-0.10521844,0.03749075,-41.643753,-3.525,-34.7625,0.09789243,-0.100985326,0.004061557,1002.2798, , , , 
2025-11-24 20:19:08.678,2.5232315,2.1308086,9.736694,-0.41323817,0.052380152,-0.10605835,-41.79375,-3.0375001,-34.95,0.093650304,-0.103160426,0.0036626535,1002.2837, , , , 
2025-11-24 20:19:08.697,2.4634109,1.8050855,10.08156,-0.3087833,0.12270394,-0.13354649,-42.018753,-2.60625,-35.1375,0.0905616,-0.10275603,0.0022648699,1002.2837, , , , 
2025-11-24 20:19:08.717,2.152344,1.625624,10.060024,-0.17012095,0.18928629,-0.123162076,-42.1875,-2.15625,-35.193752,0.08810403,-0.101713516,7.9677824E-4,1002.2749, , , , 
2025-11-24 20:19:08.737,2.0135603,1.5897316,9.77498,-0.15851486,0.16301987,-0.09261972,-42.3375,-1.9125,-35.268753,0.08637498,-0.099951625,-3.5375817E-4,1002.2749, , , , 
2025-11-24 20:19:08.757,1.9776679,1.5490535,9.7654085,-0.16645588,0.14835952,-0.07673769,-41.925003,-1.7437501,-35.04375,0.08469,-0.098413266,-0.001221798,1002.27563, , , , 
2025-11-24 20:19:08.777,1.9558334,1.4533406,9.902099,-0.15607147,0.1312558,-0.059633963,-41.5875,-1.5937501,-35.04375,0.08292708,-0.09705452,-0.0019568217,1002.27563, , , , 
2025-11-24 20:19:08.797,1.7548363,1.3549358,10.253843,-0.12430742,0.34871742,-0.003436016,-41.11875,-1.3875,-35.100002,0.08069502,-0.094849676,-0.0026324114,1002.2788, , , , 
2025-11-24 20:19:08.817,1.7117655,1.3429717,10.414461,-0.05833591,0.58328277,0.07902836,-40.818752,-0.95625,-35.193752,0.07910008,-0.09000072,-0.0023149438,1002.2788, , , , 
2025-11-24 20:19:08.837,1.6040884,1.5083755,10.287343,0.040010497,0.70850646,0.15171918,-40.78125,-0.6,-35.60625,0.078384295,-0.083621085,-0.0010038739,1002.27905, , , , 
2025-11-24 20:19:08.857,1.7787645,1.6208383,10.050453,0.09009997,0.6852943,0.14866495,-40.575,-0.28125,-35.8125,0.07863955,-0.07696972,0.001010499,1002.27905, , , , 
2025-11-24 20:19:08.877,1.8170497,1.7380866,10.031311,0.13285927,0.6248204,0.07353074,-40.331253,-0.09375,-36.506252,0.07956734,-0.07113705,0.0029939578,1002.28345, , , , 
2025-11-24 20:19:08.897,1.6663018,1.8074784,10.04806,0.18600298,0.53624755,-0.015042114,-39.84375,0.15,-37.237503,0.08114248,-0.06602862,0.004245542,1002.28345, , , , 
2025-11-24 20:19:08.917,1.5945172,1.8146569,10.079167,0.25686127,0.48860145,-0.08956548,-39.487503,-0.01875,-37.818752,0.08336644,-0.06159981,0.0046252934,1002.28687, , , , 
2025-11-24 20:19:08.937,1.3238292,1.8266209,9.921241,0.29962057,0.47394112,-0.13721156,-39.206253,-0.16875,-38.643753,0.086885035,-0.05638516,0.004134703,1002.28687, , , , 
2025-11-24 20:19:08.957,1.1994023,1.8266209,9.686445,0.27885178,0.4947099,-0.12927055,-38.79375,-0.41250002,-38.9625,0.089842156,-0.05195162,0.0034097328,1002.2883, , , , 
2025-11-24 20:19:08.977,1.189831,1.8481563,9.562018,0.23059484,0.49409908,-0.11155598,-38.53125,-0.95625,-39.375,0.092448205,-0.047393687,0.0027967358,1002.2883, , , , 
2025-11-24 20:19:08.997,1.2783655,1.8505492,9.617053,0.22143213,0.5331933,-0.12194038,-38.25,-1.35,-39.75,0.09465932,-0.043026753,0.002310658,1002.28735, , , , 
2025-11-24 20:19:09.018,1.096511,1.8840487,9.617053,0.24525517,0.58694786,-0.14087665,-37.800003,-1.6125001,-40.143753,0.09685098,-0.038391847,0.0017566317,1002.28735, , , , 
2025-11-24 20:19:09.037,0.83778703,1.8481563,9.38495,0.2599155,0.62665296,-0.12682717,-37.518753,-1.6500001,-40.518753,0.09922897,-0.03310571,0.0011090704,1002.2849, , , , 
2025-11-24 20:19:09.057,0.52911294,1.785943,9.164511,0.23181653,0.6620821,-0.08406785,-37.068752,-1.7625,-41.287502,0.10212546,-0.025721638,5.3350953E-4,1002.2849, , , , 
2025-11-24 20:19:09.077,0.37836507,1.7548363,9.140582,0.16951011,0.70789564,-0.04314109,-36.412502,-1.9875001,-41.9625,0.10387619,-0.019269722,5.416608E-4,1002.28394, , , , 
2025-11-24 20:19:09.097,0.18903299,1.7644076,9.19801,0.10903624,0.76531523,-0.019318044,-35.86875,-2.30625,-42.84375,0.10494737,-0.012294509,9.1659394E-4,1002.28394, , , , 
2025-11-24 20:19:09.117,-0.07178468,1.7907287,9.205189,0.043064732,0.8239566,0.010002624,-35.25,-2.7,-43.85625,0.10559052,-0.0046748123,0.0015643983,1002.27295, , , , 
2025-11-24 20:19:09.137,-0.09810573,1.8601205,9.449555,0.033291176,0.80563116,0.028328042,-34.725002,-2.775,-44.5125,0.1058725,0.0032258045,0.0025036875,1002.27295, , , , 
2025-11-24 20:19:09.157,0.031106694,1.934298,9.619446,0.092543356,0.726221,0.009391776,-34.0125,-2.625,-45.300003,0.10627577,0.010728683,0.0035912753,1002.27, , , , 
2025-11-24 20:19:09.177,0.03589234,2.0111675,9.823135,0.1835596,0.5600706,-0.08345701,-33.412502,-2.5687501,-45.75,0.107359976,0.017178813,0.0043711956,1002.27, , , , 
2025-11-24 20:19:09.197,-0.4884349,2.2408783,9.559626,0.26296973,0.4067479,-0.12194038,-32.60625,-2.53125,-46.36875,0.10998197,0.02325021,0.003956291,1002.2705, , , , 
2025-11-24 20:19:09.217,-0.7109674,2.2695923,9.420842,0.25808296,0.32917032,-0.12438377,-32.0625,-2.8125,-46.818752,0.11247775,0.026931819,0.0031553006,1002.2705, , , , 
2025-11-24 20:19:09.237,-0.8330014,2.3461626,9.3155575,0.21471281,0.3108449,-0.06879667,-31.575,-3.2812502,-47.175003,0.11477111,0.030133484,0.002349104,1002.2766, , , , 
2025-11-24 20:19:09.257,-0.6750751,2.4035904,9.226724,0.18172707,0.2735832,-0.016874656,-31.1625,-3.80625,-47.568752,0.116719656,0.033106875,0.0020933964,1002.2766, , , , 
2025-11-24 20:19:09.277,-0.6367899,2.4801607,9.099904,0.13591352,0.20516832,-0.026648212,-30.750002,-4.36875,-48.093754,0.11835636,0.03554089,0.0021717136,1002.2732, , , , 
2025-11-24 20:19:09.297,-0.85483587,2.4634109,9.037691,0.06139015,0.17096087,-0.05413634,-30.4125,-4.3875003,-48.525,0.119468406,0.037455652,0.0020683354,1002.2732, , , , 
2025-11-24 20:19:09.318,-0.9170493,2.4179473,9.174082,-0.016187452,0.12392564,-0.049860407,-30.243752,-4.3500004,-48.881252,0.11985804,0.03905928,0.0017269868,1002.2698,37.88739003,127.7401594,149.8907470703125,0.0
2025-11-24 20:19:09.338,-0.9385847,2.4035904,9.47827,-0.013133216,0.096437514,-0.016874656,-29.831251,-4.2562504,-49.237503,0.119664505,0.040543,0.0013487166,1002.2698, , , , 
2025-11-24 20:19:09.358,-0.8353942,2.4227328,9.674481,0.028404398,0.046271678,0.0020616094,-29.681252,-3.8812501,-49.350002,0.119690984,0.041230075,0.0013358227,1002.27246, , , , 
2025-11-24 20:19:09.377,-0.6511469,2.4346972,9.703195,0.08582404,0.038330667,0.012446013,-29.343752,-3.9375002,-49.48125,0.12022882,0.04159609,0.0014417652,1002.27246, , , , 
2025-11-24 20:19:09.397,-0.55304116,2.461018,9.657731,0.12125318,0.020616096,-0.014431266,-29.212502,-3.99375,-49.725002,0.12124311,0.04184193,0.0015370063,1002.2676, , , , 
2025-11-24 20:19:09.418,-0.68464637,2.461018,9.542876,0.13713521,0.012064233,-0.046195325,-29.062502,-3.9562502,-49.74375,0.12247899,0.041994203,0.0013067327,1002.2676, , , , 
2025-11-24 20:19:09.437,-0.78035927,2.5378876,9.573982,0.1163664,0.00167983,-0.059633963,-29.025002,-4.05,-49.65,0.12372719,0.04207873,8.1895746E-4,1002.26514, , , , 
2025-11-24 20:19:09.457,-0.8668,2.5785656,9.571589,0.11025793,0.048104223,-0.052303795,-29.156252,-4.03125,-49.65,0.12484933,0.042287264,2.0964607E-4,1002.26514, , , , 
2025-11-24 20:19:09.477,-0.9098708,2.7149563,9.593125,0.11697725,0.032222193,-0.03153499,-29.343752,-4.0875,-49.48125,0.12645711,0.042983703,-3.4981908E-4,1002.26587, , , , 
2025-11-24 20:19:09.498,-0.8258229,2.6982067,9.547662,0.1524064,0.014507622,-0.02481567,-29.643751,-4.14375,-49.575,0.12802447,0.043339465,-6.2501425E-4,1002.26587, , , , 
2025-11-24 20:19:09.518,-0.81864446,2.7317061,9.439984,0.15423894,-0.029473381,-0.054747187,-29.98125,-4.6875,-49.631252,0.12980694,0.0432244,-9.327406E-4,1002.2671, , , , 
2025-11-24 20:19:09.538,-0.9696914,2.6551359,9.375379,0.15057385,0.009009997,-0.07368345,-29.79375,-5.025,-49.65,0.13148932,0.043130547,-0.0015924403,1002.2671, , , , 
2025-11-24 20:19:09.558,-1.1060823,2.6862426,9.193225,0.120642334,0.0047340663,-0.066353284,-29.75625,-5.3625,-49.706253,0.13303708,0.043552384,-0.002363581,1002.2661, , , , 
2025-11-24 20:19:09.577,-1.1132607,2.6144578,9.159725,0.08704574,0.03466558,-0.03581092,-29.531252,-5.7562504,-49.74375,0.13429844,0.044183373,-0.0030642184,1002.2661, , , , 
2025-11-24 20:19:09.597,-1.1060823,2.6742785,9.186047,0.05222744,0.005955761,-0.019928891,-29.400002,-5.6625004,-49.575,0.1351345,0.044896122,-0.0034394984,1002.2676, , , , 
2025-11-24 20:19:09.617,-1.1204392,2.5905297,9.195618,0.033902023,-0.0062611843,8.39915E-4,-29.38125,-5.7937503,-49.537502,0.13580355,0.04543731,-0.0037141289,1002.2676, , , , 
2025-11-24 20:19:09.637,-1.2017952,2.6862426,9.224331,0.005803049,-0.044133715,0.03321482,-29.325,-5.68125,-49.3875,0.13610637,0.045668416,-0.0037240204,1002.2688, , , , 
2025-11-24 20:19:09.658,-0.9720842,2.6766713,9.370592,-0.016798299,-0.0581832,0.058870405,-29.306252,-5.64375,-49.48125,0.13620856,0.045590397,-0.0034507643,1002.2688, , , , 
2025-11-24 20:19:09.677,-0.90029955,2.748456,9.585947,-0.032069482,-0.068567604,0.039323293,-29.118752,-5.68125,-49.66875,0.13606142,0.04497402,-0.0030113915,1002.27295, , , , 
2025-11-24 20:19:09.697,-0.9194421,2.7173493,9.731909,0.00335966,0.005955761,0.040544987,-29.19375,-5.83125,-49.500004,0.13590461,0.04455043,-0.0027135601,1002.27295, , , , 
2025-11-24 20:19:09.717,-0.9553344,2.8345976,9.557233,0.06261184,0.011453386,0.04176668,-29.250002,-6.15,-49.66875,0.13621236,0.044703126,-0.002313896,1002.26855, , , , 
2025-11-24 20:19:09.739,-0.87637126,2.8704898,9.368199,0.09498675,-0.050853033,0.030160584,-29.2875,-6.1875005,-49.518753,0.13754065,0.0446238,-0.0018422772,1002.26855, , , , 
2025-11-24 20:19:09.758,-0.9720842,2.9135606,9.289237,0.060779303,-0.07711947,0.00633754,-29.475,-6.15,-49.050003,0.13870645,0.044009257,-0.0017126536,1002.27246, , , , 
2025-11-24 20:19:09.777,-1.0175478,2.856133,9.313165,0.028404398,-0.050242186,0.023441264,-29.587502,-6.05625,-49.125004,0.13948372,0.043590568,-0.0017663311,1002.27246, , , , 
2025-11-24 20:19:09.797,-1.0031909,2.8633113,9.270094,0.025961008,-0.066124216,0.042377528,-29.643751,-6.1312504,-49.2,0.13986835,0.043409903,-0.0016740735,1002.272, , , , 
2025-11-24 20:19:09.817,-0.9529416,2.9111679,9.186047,0.020463383,-0.1137703,0.042988375,-29.625002,-6.1875005,-48.975002,0.14056346,0.042698443,-0.0013229981,1002.272, , , , 
2025-11-24 20:19:09.837,-0.9912268,2.935096,9.133404,-0.0021379655,-0.15469708,0.042988375,-29.643751,-6.4875,-49.050003,0.1410789,0.04164461,-0.0010893898,1002.27124, , , , 
2025-11-24 20:19:09.857,-1.0295119,2.9279177,9.0951185,0.0076355906,-0.20722993,0.068033114,-29.56875,-6.7125,-49.162502,0.14151052,0.040305357,-8.850976E-4,1002.27124, , , , 
2025-11-24 20:19:09.877,-0.97926265,2.9805596,8.891729,0.02535016,-0.27075803,0.08574768,-29.493752,-6.4687505,-49.125004,0.14212212,0.03855586,-5.4121204E-4,1002.26196, , , , 
2025-11-24 20:19:09.898,-0.8787641,3.054737,8.625827,-3.0542363E-4,-0.3257343,0.06620057,-29.643751,-6.43125,-49.031254,0.14322014,0.035500158,-5.5784025E-5,1002.26196, , , , 
2025-11-24 20:19:09.917,-0.79950184,3.126821,8.558827,-0.0827698,-0.35077903,0.025884653,-30.0375,-6.2625003,-48.937504,0.14379486,0.032630235,4.0606206E-5,1002.2639, , , , 
2025-11-24 20:19:09.938,-0.7899306,3.05713,8.712267,-0.17561859,-0.33306447,-0.02725906,-30.2625,-6.1125,-48.581253,0.14350429,0.029759524,-2.9235578E-4,1002.2639, , , , 
2025-11-24 20:19:09.959,-0.85244304,2.9590242,8.956335,-0.25258535,-0.3281777,-0.063299045,-30.73125,-6.0937505,-48.131252,0.1422031,0.02716926,-0.0010779764,1002.26294, , , , 
2025-11-24 20:19:09.979,-0.8668,2.896811,9.212367,-0.2715216,-0.31473905,-0.07673769,-31.181252,-6.0375004,-47.737503,0.14020775,0.02476927,-0.0021296563,1002.26294, , , , 
2025-11-24 20:19:09.997,-0.6870392,2.7915268,9.396914,-0.2403684,-0.25915194,-0.0846787,-31.2,-5.68125,-47.53125,0.13800733,0.02267136,-0.003278071,1002.2688, , , , 
2025-11-24 20:19:10.018,-0.62482584,2.7628129,9.3562355,-0.19577655,-0.23410721,-0.10728005,-31.593752,-5.4187503,-47.04375,0.136047,0.020842178,-0.004445876,1002.2688, , , , 
2025-11-24 20:19:10.037,-0.5913263,2.7580273,9.224331,-0.18905723,-0.24143738,-0.1182753,-31.66875,-5.25,-46.10625,0.13447529,0.019126363,-0.0057756477,1002.271, , , , 
2025-11-24 20:19:10.057,-0.62721866,2.8489544,9.150154,-0.21898875,-0.2261662,-0.110945135,-31.85625,-5.1000004,-45.6375,0.13259077,0.017000284,-0.007569313,1002.271, , , , 
2025-11-24 20:19:10.077,-0.6415756,2.9063823,9.176475,-0.24647687,-0.19012621,-0.08040277,-32.287502,-5.30625,-45.0,0.1309785,0.015666677,-0.008860632,1002.27246, , , , 
2025-11-24 20:19:10.097,-0.68464637,3.0092735,9.1669035,-0.24647687,-0.19012621,-0.049860407,-32.4,-5.15625,-44.98125,0.12941013,0.014570725,-0.009825619,1002.27246, , , , 
2025-11-24 20:19:10.118,-0.5985048,3.1004999,9.253045,-0.28618193,-0.2970245,-0.0046577104,-32.550003,-4.93125,-45.15,0.1279637,0.013113782,-0.010482475,1002.2776, , , , 
2025-11-24 20:19:10.138,-0.4334,3.1244283,9.703195,-0.3008423,-0.35749835,0.011835165,-32.568752,-4.9125004,-45.09375,0.12624674,0.0106099695,-0.010862228,1002.2776, , , , 
2025-11-24 20:19:10.158,-0.5315057,3.2368908,10.225129,-0.22570807,-0.41125292,0.010002624,-32.643753,-4.3875003,-45.131252,0.12454623,0.007428045,-0.011171348,1002.27515, , , , 
2025-11-24 20:19:10.177,-0.6152545,3.2249267,10.2825575,-0.06139015,-0.39231664,0.031993125,-32.53125,-4.1625004,-44.625,0.12386929,0.0033946196,-0.011654756,1002.27515, , , , 
2025-11-24 20:19:10.197,-0.68225354,3.1507492,9.949955,0.07116371,-0.36360684,0.08025006,-32.5875,-3.8812501,-44.0625,0.124473,0.0013140722,-0.011807978,1002.2827, , , , 
2025-11-24 20:19:10.218,-0.4334,3.1698918,9.645767,0.15973656,-0.37032616,0.13522631,-32.475002,-3.1875002,-43.331253,0.12685998,-0.0019182635,-0.011441623,1002.2827, , , , 
2025-11-24 20:19:10.237,0.23928227,3.1292138,9.013762,0.21654536,-0.2713689,0.11079242,-32.362503,-3.2625,-42.84375,0.12974541,-0.0049244035,-0.010632858,1002.2776, , , , 
2025-11-24 20:19:10.257,0.62961143,2.9614172,8.530113,0.2275406,-0.14553437,0.081471756,-32.79375,-3.16875,-41.90625,0.13293421,-0.0076699913,-0.009914897,1002.2776, , , , 
2025-11-24 20:19:10.277,0.811466,2.868097,8.132606,0.3087833,-0.08383878,0.068033114,-32.925003,-3.075,-41.625,0.13622452,-0.009758583,-0.009262689,1002.2788, , , , 
2025-11-24 20:19:10.297,1.0869397,3.0068808,7.5676007,0.3888043,-0.35261157,0.07353074,-33.24375,-3.3000002,-41.60625,0.14037822,-0.012406898,-0.008602982,1002.2788, , , , 
2025-11-24 20:19:10.317,1.4916258,3.0810583,7.0722866,0.37170056,-0.6244386,0.06986566,-33.16875,-3.3937502,-41.381252,0.14571285,-0.018758316,-0.008165191,1002.2815,37.88739803,127.74013902,148.2213134765625,0.0
2025-11-24 20:19:10.337,1.934298,3.141178,6.9858456,0.3271087,-0.7551599,0.06436803,-32.86875,-3.525,-41.325,0.14922799,-0.025812672,-0.008307646,1002.2815, , , , 
2025-11-24 20:19:10.357,2.3198416,3.0933216,6.995417,0.40774053,-0.83090496,0.04176668,-33.05625,-3.7875001,-40.875,0.15260929,-0.033772208,-0.008706617,1002.2803, , , , 
2025-11-24 20:19:10.377,2.5184457,2.990131,6.483353,0.6111527,-1.0233219,0.03077143,-33.16875,-3.9750001,-40.2,0.15717527,-0.042668853,-0.009368478,1002.2803, , , , 
2025-11-24 20:19:10.397,2.8633113,2.8633113,5.441877,0.7834116,-1.4099882,0.03749075,-33.7125,-3.9,-39.318752,0.16362612,-0.05406236,-0.0103066005,1002.2761, , , , 
2025-11-24 20:19:10.417,3.0933216,2.5570302,4.338187,0.8977164,-1.9230999,0.041155834,-34.0875,-4.1062503,-38.568752,0.17146777,-0.0695987,-0.011693859,1002.2761, , , , 
2025-11-24 20:19:10.437,2.8130622,1.9127626,3.5288153,1.0162208,-2.486301,0.13644801,-34.725002,-4.4625,-37.4625,0.18019272,-0.09020762,-0.0137023665,1002.272, , , , 
2025-11-24 20:19:10.458,2.7005994,1.1946167,3.1220353,1.2300173,-3.272538,0.43576315,-35.456253,-4.8,-36.16875,0.19229221,-0.124420606,-0.015785083,1002.272, , , , 
2025-11-24 20:19:10.477,2.6144578,0.40947178,2.9111679,1.5146722,-3.9884508,0.81578654,-36.35625,-5.175,-34.5,0.20333412,-0.1599108,-0.015542282,1002.2759, , , , 
2025-11-24 20:19:10.498,2.2097716,-0.29461628,2.14038,1.8243717,-4.69459,1.3722683,-37.912502,-5.49375,-32.34375,0.21589614,-0.2022833,-0.012419893,1002.2759, , , , 
2025-11-24 20:19:10.517,2.3581266,-0.77796644,0.29461628,1.686931,-5.154558,1.9727312,-39.412502,-5.5687504,-29.906252,0.22820668,-0.25064024,-0.0051954915,1002.2766, , , , 
2025-11-24 20:19:10.538,4.6372905,-0.88354975,-0.72293156,1.0351571,-5.5034285,2.446138,-41.550003,-5.55,-26.643751,0.23557638,-0.30360532,0.0064737764,1002.2766, , , , 
2025-11-24 20:19:10.557,7.5604224,-0.98644114,-0.45972106,-0.28862533,-5.3378887,2.752783,-43.66875,-5.2875004,-22.59375,0.23269758,-0.35929492,0.019845707,1002.27344, , , , 
2025-11-24 20:19:10.578,8.922835,-1.6208383,0.3185445,-1.3814311,-3.87972,2.7998185,-45.91875,-4.125,-18.150002,0.2181303,-0.40972358,0.03180352,1002.27344, , , , 
2025-11-24 20:19:10.597,9.152547,-3.2847474,2.8298118,-1.890954,-2.9225223,2.8902237,-47.71875,-2.23125,-13.106251,0.19447172,-0.44795147,0.042999588,1002.27124, , , , 
2025-11-24 20:19:10.617,9.471091,-3.7707894,4.347759,-1.7540479,-2.9622273,3.1919823,-48.750004,0.28125,-8.34375,0.15843883,-0.48696813,0.057925142,1002.27124, , , , 
2025-11-24 20:19:10.637,10.972288,-4.4458647,2.5666013,-2.0363357,-2.5058482,3.5054233,-49.537502,3.3187501,-4.14375,0.12795313,-0.5166125,0.07326799,1002.2842, , , , 
2025-11-24 20:19:10.657,12.28176,-5.523233,2.3198416,-3.1926696,-0.9671239,3.6019373,-49.125004,6.2812505,-0.71250004,0.091176644,-0.53862065,0.089619555,1002.2842, , , , 
2025-11-24 20:19:10.677,12.214762,-6.7968125,4.115356,-4.034417,-0.055739813,3.5720057,-48.656254,9.1875,2.1375,0.044852484,-0.5498027,0.10220295,1002.2859, , , , 
2025-11-24 20:19:10.697,13.186846,-7.0555367,5.9973106,-4.223169,-0.09239065,3.415629,-48.093754,12.281251,4.4437504,-0.0077595403,-0.5549125,0.11003063,1002.2859, , , , 
2025-11-24 20:19:10.717,11.5061865,-10.51496,7.062715,-3.7491515,-1.3012574,3.2109187,-46.95,15.375001,6.2250004,-0.07132916,-0.56402975,0.11553046,1002.29395, , , , 
2025-11-24 20:19:10.738,12.133406,-9.691231,7.7736826,-3.1963346,-1.6414993,3.4932065,-46.2,18.243752,8.212501,-0.106440425,-0.57273644,0.12088804,1002.29395, , , , 
2025-11-24 20:19:10.757,13.155439,-10.569995,7.5269227,-2.454766,-2.1130733,3.5255814,-44.7,21.0,10.012501,-0.15817386,-0.58797675,0.1363509,1002.3076, , , , 
2025-11-24 20:19:10.777,12.039786,-10.663315,6.215058,-2.135293,-1.9212674,3.563454,-42.75,23.475,12.3,-0.19340731,-0.5996024,0.15314463,1002.3076, , , , 
2025-11-24 20:19:10.797,10.203594,-11.123036,4.965406,-2.1285737,-1.5407095,3.9391248,-40.5,25.575,14.906251,-0.22767274,-0.60743624,0.17183381,1002.30566, , , , 
2025-11-24 20:19:10.817,10.198809,-11.82204,4.625326,-2.211038,-1.4160967,4.419251,-37.78125,27.843752,17.41875,-0.2645663,-0.6113487,0.19236638,1002.30566, , , , 
2025-11-24 20:19:10.838,11.094322,-12.506686,4.831408,-2.1658354,-1.3611205,4.6336584,-35.23125,29.6625,20.212502,-0.30364066,-0.6121407,0.21456228,1002.3103, , , , 
2025-11-24 20:19:10.857,11.419746,-12.588041,4.8242297,-1.8805697,-1.4228159,4.6367126,-32.23125,31.425001,22.5375,-0.3510047,-0.60978,0.24307333,1002.3103, , , , 
2025-11-24 20:19:10.877,11.688042,-12.892229,4.493721,-1.5805672,-1.4893984,4.570741,-29.118752,33.24375,25.06875,-0.37695205,-0.6071127,0.2608192,1002.3142, , , , 
2025-11-24 20:19:10.897,11.996716,-12.636197,4.057928,-1.165802,-1.4160967,4.4333005,-25.575,34.2,27.4125,-0.41499862,-0.6006941,0.29161248,1002.3142, , , , 
2025-11-24 20:19:10.917,12.691232,-11.44846,3.7875392,-0.72965705,-1.1619842,4.1834636,-21.50625,35.5125,29.456251,-0.4407817,-0.5931659,0.31636152,1002.3198, , , , 
2025-11-24 20:19:10.937,13.328022,-10.00499,3.775575,-0.273965,-0.95185274,3.802906,-17.53125,36.506252,31.556252,-0.46221623,-0.58352816,0.34002826,1002.3198, , , , 
2025-11-24 20:19:10.957,13.473985,-8.333902,3.3684962,0.19333316,-0.7105681,3.304989,-13.668751,37.0875,32.8125,-0.47846326,-0.57251006,0.36233005,1002.3247, , , , 
2025-11-24 20:19:10.977,13.217953,-6.7465634,2.6216364,0.51036286,-0.486998,2.7136889,-10.06875,38.23125,33.7125,-0.4896583,-0.5608951,0.38255963,1002.3247, , , , 
2025-11-24 20:19:10.997,12.928122,-5.4035916,1.9776679,0.6722374,-0.35872006,1.9208091,-6.7125,38.4,34.162502,-0.49761006,-0.54771274,0.40313575,1002.323, , , , 
2025-11-24 20:19:11.017,12.623934,-4.723432,1.6064813,0.7394306,-0.37521294,1.1554176,-3.7687502,38.8875,33.80625,-0.49920362,-0.54008865,0.41522178,1002.323, , , , 
2025-11-24 20:19:11.037,12.413365,-4.5296135,1.3046865,0.78035736,-0.47539186,0.39544725,-1.3312501,39.506252,33.15,-0.4963509,-0.53614587,0.4237303,1002.31714, , , , 
2025-11-24 20:19:11.057,12.121441,-4.793123,1.0654043,0.80356956,-0.6281037,-0.42003384,0.58125,39.6375,32.7,-0.4889713,-0.5362365,0.4290561,1002.31714, , , , 
2025-11-24 20:19:11.078,11.633006,-5.358128,0.8668,0.7675296,-0.69102097,-1.0785272,1.6875001,40.875,31.893751,-0.47737724,-0.54025745,0.43136862,1002.3208, , , , 
2025-11-24 20:19:11.097,11.05843,-6.04756,0.6655038,0.6563554,-0.73378026,-1.6734924,2.11875,41.30625,31.181252,-0.46245855,-0.54764026,0.43032104,1002.3208, , , , 
2025-11-24 20:19:11.117,10.263414,-6.906883,0.68464637,0.4834856,-0.7545491,-2.1347585,2.30625,41.8125,30.69375,-0.44506094,-0.55802107,0.42578498,1002.3203, , , , 
2025-11-24 20:19:11.137,9.190832,-7.64447,0.89312106,0.2483094,-0.71301144,-2.4591184,1.8937501,42.45,29.98125,-0.4262711,-0.5705335,0.4181338,1002.3203, , , , 
2025-11-24 20:19:11.157,8.403294,-8.12782,1.3334004,0.05955761,-0.7191199,-2.56846,0.95625,42.65625,29.400002,-0.402641,-0.58767116,0.40498033,1002.3186, , , , 
2025-11-24 20:19:11.177,7.845467,-8.396115,1.7787645,-0.035734564,-0.727061,-2.5641842,-0.075,43.050003,28.95,-0.38414103,-0.6016512,0.39301074,1002.3186, , , , 
2025-11-24 20:19:11.197,7.606185,-8.556435,2.3557339,-0.0021379655,-0.7459972,-2.4957693,-1.7625,42.881252,28.518751,-0.36593404,-0.615126,0.38091525,1002.31104, , , , 
2025-11-24 20:19:11.217,7.7090764,-8.680861,2.6096723,0.11331217,-0.7075138,-2.4798872,-3.3000002,43.0125,28.368752,-0.347461,-0.62757164,0.36944124,1002.31104, , , , 
2025-11-24 20:19:11.237,7.8263245,-8.851051,2.707778,0.3319955,-0.5853444,-2.5623515,-4.8375,42.73125,28.48125,-0.32801738,-0.63861996,0.3584758,1002.31006, , , , 
2025-11-24 20:19:11.257,7.8311105,-9.035298,2.5331018,0.55800897,-0.44423866,-2.6814668,-6.58125,42.600002,28.63125,-0.3071516,-0.64807326,0.34769964,1002.31006, , , , 
2025-11-24 20:19:11.278,7.859824,-9.236296,2.1284158,0.7033906,-0.34039465,-2.788976,-8.925,42.28125,29.025002,-0.27910075,-0.6577623,0.3342403,1002.3147, , , , 
2025-11-24 20:19:11.298,7.7425756,-9.375379,1.6974086,0.7589777,-0.2261662,-2.932525,-9.95625,42.05625,28.893751,-0.25531524,-0.6642134,0.32296005,1002.3147, , , , 
2025-11-24 20:19:11.317,7.4623165,-9.490233,1.3597214,0.7327113,-0.16691402,-3.052862,-11.793751,41.850002,28.556252,-0.2369729,-0.66846013,0.31376874,1002.3157,37.88739803,127.74013902,148.2213134765625,0.0
2025-11-24 20:19:11.337,7.022037,-9.576375,1.1395818,0.63619745,-0.10949437,-3.1725879,-13.81875,41.23125,27.993752,-0.21221568,-0.6737126,0.30021313,1002.3157, , , , 
2025-11-24 20:19:11.357,7.096215,-10.06481,1.1443675,0.52685577,-0.11560284,-3.2538307,-16.0125,40.8375,27.300001,-0.18141416,-0.6797636,0.28112277,1002.31274, , , , 
2025-11-24 20:19:11.377,7.5942206,-10.96511,1.0199406,0.50608695,-0.07773031,-3.2984226,-18.150002,39.9375,26.75625,-0.15695232,-0.6840508,0.26481473,1002.31274, , , , 
2025-11-24 20:19:11.398,7.5942206,-11.582757,0.907478,0.5360185,-0.09422319,-3.2874272,-20.5125,39.09375,26.362501,-0.12634736,-0.6883991,0.24374114,1002.3164, , , , 
2025-11-24 20:19:11.418,6.8111696,-11.424532,0.9026923,0.6135961,0.07261447,-3.0540836,-22.66875,38.006252,26.1,-0.10246232,-0.6906227,0.22787122,1002.3164, , , , 
2025-11-24 20:19:11.437,5.8677993,-10.424033,0.5386842,0.733933,0.34871742,-2.6698606,-25.181252,36.65625,25.7625,-0.080447085,-0.6901945,0.21437702,1002.31836, , , , 
2025-11-24 20:19:11.458,5.441877,-9.9140625,-0.09332009,0.72965705,0.53502584,-2.2386024,-27.468752,35.11875,25.406252,-0.06563775,-0.68733895,0.20377949,1002.31836, , , , 
2025-11-24 20:19:11.478,5.6931233,-9.664909,-0.9409775,0.5195256,0.6248204,-1.7797798,-29.625002,33.412502,24.900002,-0.04543001,-0.6832907,0.19548272,1002.32227, , , , 
2025-11-24 20:19:11.498,6.2772713,-9.545269,-1.0797613,0.22631891,0.70423055,-1.3527976,-31.556252,32.0625,24.281252,-0.03444153,-0.67890275,0.18847905,1002.32227, , , , 
2025-11-24 20:19:11.517,6.710671,-9.492626,-0.948156,0.060168456,0.6009973,-1.0901333,-33.09375,30.956251,23.71875,-0.027424902,-0.67453873,0.18198663,1002.32056, , , , 
2025-11-24 20:19:11.538,6.3945193,-8.949157,-0.7372885,-0.005803049,0.410413,-0.8146412,-34.3875,30.2625,22.95,-0.022111025,-0.67060375,0.17480238,1002.32056, , , , 
2025-11-24 20:19:11.558,6.0547385,-8.242975,-0.83778703,0.0045813546,0.22654797,-0.51166093,-35.475002,29.23125,22.462502,-0.019738484,-0.6686217,0.17079511,1002.32544, , , , 
2025-11-24 20:19:11.577,5.8944197,-7.6923265,-1.3022938,-0.060779303,-0.0361927,-0.20135053,-36.3375,28.48125,22.06875,-0.018963765,-0.66824377,0.16885766,1002.32544, , , , 
2025-11-24 20:19:11.597,5.688338,-7.077072,-1.5466608,-0.2635806,-0.26037365,0.09307785,-36.73125,27.806252,21.4125,-0.02029191,-0.6698383,0.16842893,1002.32544, , , , 
2025-11-24 20:19:11.617,5.669195,-6.4737816,-1.2113664,-0.589773,-0.41003123,0.34780115,-37.331253,27.225,21.6375,-0.02449653,-0.67313826,0.16845497,1002.32544, , , , 
2025-11-24 20:19:11.637,5.7577295,-6.0379887,-0.581755,-0.7730272,-0.38865158,0.47180316,-37.162502,26.962502,21.7875,-0.031518284,-0.6772471,0.1680094,1002.3291, , , , 
2025-11-24 20:19:11.657,5.7744794,-5.915955,0.038285162,-0.81212145,-0.3208475,0.5377747,-37.162502,26.737501,22.050001,-0.04027398,-0.68103445,0.16714391,1002.3291, , , , 
2025-11-24 20:19:11.677,5.7744794,-5.8151574,0.5554339,-0.72843534,-0.26709297,0.5939726,-37.03125,26.906252,22.85625,-0.049670305,-0.684167,0.16645248,1002.32935, , , , 
2025-11-24 20:19:11.698,5.791229,-5.762515,0.8500503,-0.53724015,-0.20112146,0.6447493,-36.80625,26.812502,23.325,-0.060988057,-0.68692666,0.16701029,1002.32935, , , , 
2025-11-24 20:19:11.717,5.764908,-5.846264,0.8500503,-0.28984702,-0.106440134,0.6814001,-36.581253,26.94375,23.962502,-0.06702742,-0.6878707,0.16850585,1002.3308, , , , 
2025-11-24 20:19:11.737,5.5663037,-5.8223357,0.6798607,-0.098651834,0.009009997,0.73759806,-35.9625,27.16875,24.50625,-0.07570348,-0.68808985,0.17304984,1002.3308, , , , 
2025-11-24 20:19:11.757,5.386842,-5.7314086,0.31615168,0.005803049,0.12575819,0.85365903,-35.53125,27.018751,25.143751,-0.08205922,-0.68703085,0.17849337,1002.33105, , , , 
2025-11-24 20:19:11.778,5.3342,-5.6261244,-0.10049855,-0.011300675,0.25342527,1.0185878,-34.85625,27.45,25.425001,-0.08892663,-0.6850011,0.18521796,1002.33105, , , , 
2025-11-24 20:19:11.797,5.4586267,-5.587839,-0.33050862,-0.14018944,0.36276692,1.1688563,-34.425003,28.275002,25.462502,-0.09717816,-0.6822239,0.1925647,1002.32324, , , , 
2025-11-24 20:19:11.817,5.750551,-5.64766,-0.40947178,-0.3478775,0.4531723,1.2891932,-34.18125,28.987501,25.44375,-0.10743887,-0.67887473,0.19977535,1002.32324, , , , 
2025-11-24 20:19:11.838,6.1241302,-5.846264,-0.40468612,-0.589773,0.50875944,1.3734901,-33.54375,29.643751,25.25625,-0.11994894,-0.6752125,0.20615302,1002.3296, , , , 
2025-11-24 20:19:11.857,6.593423,-6.148059,-0.17228323,-0.86282176,0.526474,1.4412941,-33.05625,30.4125,25.0125,-0.13865022,-0.6705916,0.21236108,1002.3296, , , , 
2025-11-24 20:19:11.877,6.8255267,-6.387341,0.16271193,-1.0485194,0.50142926,1.5029896,-32.1375,30.956251,24.675001,-0.15574561,-0.6670765,0.21594223,1002.323, , , , 
2025-11-24 20:19:11.898,6.9738817,-6.669993,0.6583253,-1.1450332,0.43790114,1.5970602,-31.425001,31.44375,24.806252,-0.17422897,-0.6637081,0.21883672,1002.323, , , , 
2025-11-24 20:19:11.918,7.1560354,-6.890133,1.0007981,-1.1230427,0.3792598,1.7045692,-31.0125,32.15625,24.956251,-0.19355978,-0.660293,0.22196093,1002.323, , , , 
2025-11-24 20:19:11.937,7.3809605,-7.105786,1.3884354,-0.9709417,0.2577012,1.8664438,-30.206251,32.5125,25.406252,-0.21312647,-0.6566394,0.22623809,1002.323, , , , 
2025-11-24 20:19:11.957,7.467102,-7.089036,1.5490535,-0.74492824,0.1660741,2.06558,-29.38125,32.86875,26.025002,-0.23227252,-0.65263504,0.23264368,1002.3281, , , , 
2025-11-24 20:19:11.978,7.701898,-6.914061,1.5777674,-0.44744563,0.038330667,2.289761,-28.63125,33.393753,26.400002,-0.25074568,-0.64788955,0.2419048,1002.3281, , , , 
2025-11-24 20:19:11.998,8.582756,-7.1799636,1.3357933,-0.18844637,-0.12354386,2.4113195,-27.50625,34.125,26.79375,-0.2722391,-0.6412476,0.25749737,1002.3323, , , , 
2025-11-24 20:19:12.017,9.430413,-7.5723863,1.0295119,0.03268033,-0.2518218,2.4192605,-26.268751,34.93125,27.35625,-0.28738558,-0.6358603,0.27247915,1002.3323, , , , 
2025-11-24 20:19:12.037,10.024133,-7.9100733,0.7396813,0.1963874,-0.31962582,2.3722253,-25.181252,35.71875,28.087502,-0.30044454,-0.6305096,0.28865698,1002.32935, , , , 
2025-11-24 20:19:12.058,10.4001045,-8.036893,0.32333016,0.2855711,-0.31596074,2.3154166,-23.34375,36.75,28.66875,-0.3118436,-0.625035,0.30529276,1002.32935, , , , 
2025-11-24 20:19:12.077,10.479068,-7.744969,0.062213387,0.26052636,-0.26464957,2.277544,-21.675001,37.612503,28.706251,-0.32236326,-0.61933273,0.32168514,1002.32715, , , , 
2025-11-24 20:19:12.099,10.802098,-7.4527454,-0.16510476,0.16340165,-0.21639264,2.2390606,-19.44375,38.737503,28.9125,-0.33282992,-0.6134058,0.3372109,1002.32715, , , , 
2025-11-24 20:19:12.117,11.587543,-7.483852,-0.2656033,0.026571855,-0.2053974,2.0753536,-17.456251,39.693752,28.312502,-0.3433973,-0.6077579,0.35119447,1002.33057, , , , 
2025-11-24 20:19:12.137,11.563615,-6.9738817,-0.23449662,-0.12736166,-0.09849912,1.8389556,-15.356251,40.725002,27.975,-0.35593402,-0.6017568,0.36540112,1002.33057, , , , 
2025-11-24 20:19:12.157,12.25544,-6.9858456,-0.0071784677,-0.20371756,-0.07650862,1.5860649,-13.200001,41.41875,27.806252,-0.3655217,-0.59761626,0.37391576,1002.32715, , , , 
2025-11-24 20:19:12.177,12.696018,-6.820741,0.15074782,-0.11025793,-0.075286925,1.2708677,-11.625,42.15,27.431252,-0.3733662,-0.5943273,0.38035247,1002.32715, , , , 
2025-11-24 20:19:12.197,12.942478,-6.4351974,0.02871387,0.083380654,-0.158973,0.92512816,-9.69375,42.91875,27.656252,-0.37855175,-0.59162927,0.38563582,1002.3367, , , , 
2025-11-24 20:19:12.218,13.189239,-6.282057,-0.29940194,0.17134266,-0.28908345,0.53899634,-8.4375,43.068752,27.750002,-0.38056567,-0.5901404,0.39009824,1002.3367, , , , 
2025-11-24 20:19:12.237,12.9688,-5.951847,-0.36161533,0.15423894,-0.38193226,0.11384666,-7.51875,43.74375,27.975,-0.3794034,-0.59075737,0.3929618,1002.3367, , , , 
2025-11-24 20:19:12.257,12.813266,-5.5950174,-0.15074782,0.06566608,-0.43507597,-0.4053735,-6.7500005,43.66875,28.06875,-0.3743502,-0.5946505,0.39327252,1002.3367, , , , 
2025-11-24 20:19:12.277,12.446865,-5.6333027,0.18185452,-0.016187452,-0.4240807,-1.0168316,-6.6562505,43.95,27.993752,-0.3672753,-0.6003235,0.38983932,1002.343, , , , 
2025-11-24 20:19:12.297,11.685649,-6.0451674,0.6511469,-0.070552856,-0.46317494,-1.6496694,-6.6000004,44.0625,27.956251,-0.35697812,-0.60826856,0.38242108,1002.343, , , , 
2025-11-24 20:19:12.317,10.933704,-6.9595246,1.244866,-0.08521319,-0.57740337,-2.2459326,-6.675,43.537502,27.7875,-0.34330568,-0.6183389,0.37161168,1002.3386,37.8874089,127.74016185,147.529541015625,1.51
2025-11-24 20:19:12.337,10.495817,-7.6396847,1.556232,-0.06688777,-0.6568135,-2.547691,-7.3125005,43.537502,27.69375,-0.33091506,-0.62700415,0.36187562,1002.3386, , , , 
2025-11-24 20:19:12.357,10.052846,-8.582756,1.9486549,-0.014965758,-0.7313369,-2.8598342,-8.418751,42.956253,27.91875,-0.3069684,-0.64256555,0.34379545,1002.3386, , , , 
2025-11-24 20:19:12.377,9.866206,-9.092726,2.0350957,0.037567105,-0.6488725,-3.048586,-10.106251,42.525,28.181252,-0.2857367,-0.65503424,0.3283472,1002.3386, , , , 
2025-11-24 20:19:12.397,9.332308,-9.128618,2.0733807,0.07543964,-0.4912739,-3.1750314,-11.75625,42.075,28.575,-0.257644,-0.66919416,0.3077504,1002.33594, , , , 
2025-11-24 20:19:12.417,8.676076,-8.908479,2.0279171,0.09376506,-0.3697153,-3.2519982,-14.043751,41.30625,28.706251,-0.23462407,-0.6788696,0.29019862,1002.33594, , , , 
2025-11-24 20:19:12.437,7.9363947,-8.518149,1.9704895,0.088878274,-0.2518218,-3.2752104,-17.118752,39.6375,28.800001,-0.20568842,-0.6891995,0.2673149,1002.32837, , , , 
2025-11-24 20:19:12.457,7.361818,-8.094321,1.852942,0.0839915,-0.11682454,-3.215958,-18.243752,39.075,28.837502,-0.18857732,-0.69433326,0.25338373,1002.32837, , , , 
2025-11-24 20:19:12.477,7.045965,-7.8430743,1.7620147,0.07177455,0.09582666,-3.1121142,-20.60625,37.65,28.875002,-0.16657172,-0.69952935,0.23483947,1002.3291, , , , 
2025-11-24 20:19:12.497,6.619744,-7.6396847,1.6591234,0.06566608,0.31512082,-2.9777277,-22.40625,36.206253,29.00625,-0.14586538,-0.70255613,0.21645351,1002.3291, , , , 
2025-11-24 20:19:12.517,6.3346987,-7.3785677,1.6567305,0.09009997,0.5533513,-2.7578228,-24.618752,34.875,29.156252,-0.12671462,-0.7033971,0.19858852,1002.3347, , , , 
2025-11-24 20:19:12.537,6.5982084,-7.2493553,1.489233,0.15973656,0.7414922,-2.5641842,-26.75625,33.24375,29.175001,-0.10502117,-0.70141137,0.17781785,1002.3347, , , , 
2025-11-24 20:19:12.557,6.7465634,-7.144071,1.1706885,0.22082129,0.8746569,-2.4414039,-28.725,31.875002,28.987501,-0.088875756,-0.69776577,0.1625647,1002.33765, , , , 
2025-11-24 20:19:12.577,6.5455666,-7.0555367,0.9409775,0.2678565,0.93879586,-2.372378,-31.087502,30.000002,28.85625,-0.07325122,-0.6929302,0.14806654,1002.33765, , , , 
2025-11-24 20:19:12.597,6.210272,-6.9882383,0.811466,0.3191677,0.88320875,-2.2899137,-32.850002,28.25625,28.125002,-0.05793736,-0.6874635,0.13420223,1002.33203, , , , 
2025-11-24 20:19:12.617,6.1767726,-7.3881392,0.6942177,0.361927,0.7146149,-2.2214987,-34.40625,26.456251,27.562502,-0.0428025,-0.68224955,0.12108974,1002.33203, , , , 
2025-11-24 20:19:12.637,6.1863437,-7.912466,0.52911294,0.4107948,0.55212957,-2.148808,-36.075,24.6,26.737501,-0.027748203,-0.6778962,0.1088085,1002.3259, , , , 
2025-11-24 20:19:12.657,5.6596236,-7.998608,0.2416751,0.45966256,0.4831038,-1.8982842,-37.443752,23.00625,25.931252,-0.009530313,-0.6732675,0.09524694,1002.3259, , , , 
2025-11-24 20:19:12.677,4.7688956,-7.498209,-0.11724831,0.44927815,0.47210857,-1.4719129,-38.831253,21.243752,25.406252,0.003045776,-0.669596,0.087079026,1002.32886, , , , 
2025-11-24 20:19:12.697,4.80748,-7.153642,-0.44536412,0.36620292,0.35788015,-1.0125557,-40.10625,19.837502,24.91875,0.012533774,-0.6662653,0.081899285,1002.32886, , , , 
2025-11-24 20:19:12.717,5.209474,-7.196713,-0.7588239,0.19944163,0.24181916,-0.60206634,-41.1375,18.525002,24.712502,0.018719781,-0.6639718,0.079077676,1002.323, , , , 
2025-11-24 20:19:12.737,5.5280185,-7.426424,-0.9936196,0.019852536,0.20577917,-0.32779592,-42.0,17.38125,24.300001,0.021645658,-0.6624589,0.07773816,1002.323, , , , 
2025-11-24 20:19:12.757,6.0858455,-7.9746795,-0.9314062,-0.16889927,0.10804361,0.029549737,-42.54375,16.63125,24.0375,0.021120127,-0.6615822,0.077379934,1002.3218, , , , 
2025-11-24 20:19:12.777,6.4761744,-8.262117,-0.9314062,-0.2599155,-0.014202199,0.40399912,-42.7125,16.087502,24.018751,0.017346475,-0.66162014,0.07845111,1002.3218, , , , 
2025-11-24 20:19:12.797,7.103393,-8.4248295,-1.0773684,-0.38025242,-0.23166382,0.8487723,-42.862503,15.975,24.093752,0.00826822,-0.6633406,0.08281659,1002.3286, , , , 
2025-11-24 20:19:12.817,7.5460653,-8.05125,-1.0199406,-0.54090524,-0.38681903,1.2311627,-42.43125,16.1625,24.225,-0.0025602966,-0.66635424,0.08859852,1002.3286, , , , 
2025-11-24 20:19:12.837,7.792825,-7.2876406,-0.7923234,-0.68262184,-0.38315395,1.4797775,-42.206253,16.63125,24.525002,-0.0127300555,-0.6690438,0.09384195,1002.3247, , , , 
2025-11-24 20:19:12.858,7.917252,-6.519245,-0.3376871,-0.8842014,-0.27320144,1.6685293,-41.850002,16.893751,24.618752,-0.032714803,-0.6729137,0.10315917,1002.3247, , , , 
2025-11-24 20:19:12.877,7.919645,-6.1528444,0.2009971,-0.96849835,-0.1241547,1.6758595,-41.30625,17.34375,24.862501,-0.05053116,-0.6750018,0.11009704,1002.3235, , , , 
2025-11-24 20:19:12.897,7.5846496,-5.8821564,0.8138588,-0.8945858,0.09521582,1.621494,-40.8375,18.018751,25.331251,-0.06871353,-0.6754863,0.11627586,1002.3235, , , , 
2025-11-24 20:19:12.918,7.2565336,-5.918348,1.2855439,-0.6215371,0.22654797,1.5799564,-40.143753,18.618752,25.9125,-0.08599925,-0.6740832,0.12238723,1002.3257, , , , 
2025-11-24 20:19:12.938,7.196713,-6.305985,1.230509,-0.09071082,0.20639002,1.6288242,-39.581253,19.85625,26.175001,-0.1045734,-0.67046744,0.13242035,1002.3257, , , , 
2025-11-24 20:19:12.957,7.196713,-6.5144596,0.5721837,0.3851392,-0.0062611843,1.7772601,-38.8125,21.075,26.775002,-0.116265394,-0.6673161,0.14454134,1002.3279, , , , 
2025-11-24 20:19:12.977,7.333104,-6.3370914,-0.27756742,0.70644486,-0.27564484,1.9702878,-38.025,22.125,26.925001,-0.12560748,-0.6650499,0.1608643,1002.3279, , , , 
2025-11-24 20:19:12.999,7.5436726,-5.927919,-0.9696914,0.8286143,-0.5132644,2.1388817,-37.29375,23.643751,26.79375,-0.13368563,-0.6639289,0.18041466,1002.3281, , , , 
2025-11-24 20:19:13.017,7.84786,-5.6117673,-1.4916258,0.71316415,-0.65986776,2.2512777,-36.600002,24.73125,26.831251,-0.141576,-0.66383016,0.20147312,1002.3281, , , , 
2025-11-24 20:19:13.037,8.060822,-5.4346986,-1.6639091,0.44255883,-0.5896203,2.2946477,-35.71875,26.23125,26.362501,-0.15043218,-0.66418564,0.22222236,1002.32324, , , , 
2025-11-24 20:19:13.057,8.132606,-5.5447683,-1.5993029,0.05283829,-0.3813214,2.273268,-34.537502,28.10625,26.156252,-0.161281,-0.66412556,0.24103478,1002.32324, , , , 
2025-11-24 20:19:13.077,8.032107,-5.762515,-1.244866,-0.38819343,-0.14370182,2.2421148,-32.9625,29.8875,26.00625,-0.17490672,-0.66328156,0.25662994,1002.3269, , , , 
2025-11-24 20:19:13.097,8.091928,-6.2605214,-0.58654064,-0.8286143,0.05054761,2.2042422,-31.275002,31.931252,25.987501,-0.19630535,-0.6612441,0.2711272,1002.3269, , , , 
2025-11-24 20:19:13.117,8.159226,-6.5575304,0.06699903,-1.0680665,0.14774868,2.1926363,-29.643751,33.206253,26.156252,-0.21622051,-0.65906256,0.27937633,1002.32153, , , , 
2025-11-24 20:19:13.138,8.396115,-6.7585278,0.61764735,-1.1041064,0.102545984,2.181641,-28.031252,34.256252,26.75625,-0.23731774,-0.6564354,0.2859791,1002.32153, , , , 
2025-11-24 20:19:13.157,8.692825,-6.942775,0.7181459,-0.973996,-0.114992,2.1443794,-26.625002,34.93125,27.2625,-0.25786406,-0.65395856,0.292406,1002.3357, , , , 
2025-11-24 20:19:13.177,8.750552,-6.859026,0.90508515,-0.78768754,-0.2622062,2.1089501,-25.06875,35.643753,28.125002,-0.27659088,-0.6519142,0.29968783,1002.3357, , , , 
2025-11-24 20:19:13.197,8.621041,-6.524031,1.0869397,-0.55739814,-0.37154785,2.1126153,-23.4375,36.300003,28.95,-0.29327473,-0.6498735,0.30827817,1002.34033, , , , 
2025-11-24 20:19:13.217,9.219545,-6.6628146,1.0893325,-0.2892362,-0.42224815,2.0686343,-22.06875,37.03125,29.775002,-0.31131187,-0.64670175,0.32121423,1002.34033, , , , 
2025-11-24 20:19:13.237,10.08156,-7.0555367,0.8883354,-0.06566608,-0.3049655,1.933637,-20.4375,37.818752,30.50625,-0.32311767,-0.6434774,0.33256853,1002.3391, , , , 
2025-11-24 20:19:13.257,10.53171,-7.2613196,0.39511484,0.06139015,0.07505786,1.7632107,-18.768751,38.081253,30.843752,-0.33298898,-0.63880074,0.3435982,1002.3391, , , , 
2025-11-24 20:19:13.277,10.6681,-7.632506,-0.05503492,0.02779355,0.5020401,1.6117204,-17.118752,38.53125,30.806252,-0.34248918,-0.6322059,0.3526566,1002.33984, , , , 
2025-11-24 20:19:13.297,10.445568,-7.7258263,-0.09571291,-0.06933116,0.9210813,1.597671,-15.50625,39.0,30.825,-0.3530859,-0.623766,0.35922942,1002.33984, , , , 
2025-11-24 20:19:13.317,10.7997055,-7.740183,-0.02871387,-0.101706065,1.1128874,1.6581448,-14.08125,39.35625,30.768751,-0.3654619,-0.61337245,0.36414543,1002.3401,37.88742137,127.74015558,146.7528076171875,1.2
2025-11-24 20:19:13.337,11.044073,-7.510173,-0.009571291,-0.09498675,1.142208,1.6331002,-13.200001,39.9375,30.69375,-0.37868443,-0.60189086,0.36818922,1002.3401, , , , 
2025-11-24 20:19:13.357,11.398211,-6.969096,0.0741775,-0.060779303,0.9339091,1.4669497,-12.6,40.631252,30.937502,-0.39432973,-0.58776927,0.372398,1002.3418, , , , 
2025-11-24 20:19:13.377,11.932109,-6.914061,0.33290145,0.018630842,0.5771743,1.1529742,-12.093751,40.987503,30.6375,-0.40417713,-0.5786534,0.37526459,1002.3418, , , , 
2025-11-24 20:19:13.397,12.008679,-6.5647087,0.6750751,0.1927223,0.23326729,0.8102889,-11.625,41.381252,30.375002,-0.41000578,-0.5723921,0.37808162,1002.34424, , , , 
2025-11-24 20:19:13.418,12.279367,-6.483353,0.8452646,0.43461782,-0.12476555,0.40399912,-11.1,41.643753,30.16875,-0.41147786,-0.56865686,0.38131574,1002.34424, , , , 
2025-11-24 20:19:13.437,12.444472,-6.4642105,1.0342976,0.645971,-0.44240612,-0.022372281,-10.668751,41.737503,29.925001,-0.4083044,-0.5675433,0.3847046,1002.3386, , , , 
2025-11-24 20:19:13.457,12.418151,-6.2748785,1.1659029,0.8609892,-0.74111044,-0.45912808,-10.40625,41.925003,29.962502,-0.4003115,-0.5691445,0.38801393,1002.3386, , , , 
2025-11-24 20:19:13.477,12.245868,-6.1695943,1.1324034,1.0253835,-0.99155784,-0.96307707,-10.51875,42.2625,29.625002,-0.38744184,-0.5733594,0.3909381,1002.333, , , , 
2025-11-24 20:19:13.497,11.656935,-6.265307,0.9553344,1.0809705,-1.1717577,-1.6075209,-10.40625,42.54375,29.531252,-0.36472473,-0.5825078,0.3924362,1002.333, , , , 
2025-11-24 20:19:13.517,10.943574,-6.600601,0.8955139,1.0461522,-1.2157388,-2.1384234,-10.59375,42.881252,29.19375,-0.34219366,-0.59250003,0.3905732,1002.3325, , , , 
2025-11-24 20:19:13.537,10.390533,-7.225427,0.75643104,0.959412,-1.1998568,-2.5513563,-11.26875,43.350002,28.650002,-0.3170376,-0.6039302,0.38559923,1002.3325, , , , 
2025-11-24 20:19:13.557,10.191629,-8.305188,0.45732823,0.7406523,-1.0868499,-2.8824356,-12.3,43.0125,28.612501,-0.29052424,-0.6161171,0.37757397,1002.32764, , , , 
2025-11-24 20:19:13.577,9.75823,-9.238688,0.39750767,0.46699274,-0.902985,-3.0730197,-14.025001,42.693752,28.44375,-0.26417536,-0.628437,0.3662662,1002.32764, , , , 
2025-11-24 20:19:13.597,9.205189,-9.851849,0.37357944,0.18600298,-0.72461754,-3.1432674,-16.06875,42.037502,29.118752,-0.23918399,-0.64021456,0.3517865,1002.323, , , , 
2025-11-24 20:19:13.617,8.412866,-9.906884,0.6511469,-0.10048437,-0.6305471,-3.0730197,-18.150002,40.893753,30.6375,-0.21644758,-0.65126795,0.33486181,1002.323, , , , 
2025-11-24 20:19:13.637,7.6755767,-9.420842,1.2400804,-0.27885178,-0.56946236,-2.888544,-20.081251,40.03125,33.018753,-0.19164357,-0.6641033,0.3119672,1002.323, , , , 
2025-11-24 20:19:13.657,7.184749,-8.786445,1.6016957,-0.3271087,-0.5089885,-2.6814668,-21.862501,39.318752,36.16875,-0.17416647,-0.673121,0.29387623,1002.323, , , , 
2025-11-24 20:19:13.677,6.849455,-8.161619,1.7644076,-0.3307738,-0.45034716,-2.5519671,-22.275002,39.487503,39.675003,-0.16208537,-0.679084,0.28080207,1002.3203, , , , 
2025-11-24 20:19:13.697,6.6891356,-7.780861,1.8170497,-0.34421244,-0.38987327,-2.512262,-22.06875,40.631252,42.28125,-0.14295152,-0.6878096,0.2595292,1002.3203, , , , 
2025-11-24 20:19:13.717,6.5048885,-7.7162547,1.9510478,-0.34604496,-0.27869907,-2.5825095,-21.056252,42.75,43.21875,-0.12778568,-0.69384384,0.2421934,1002.3203, , , , 
2025-11-24 20:19:13.737,6.222236,-7.7353973,2.056631,-0.2959555,-0.18890451,-2.620993,-19.893751,44.550003,42.15,-0.112406984,-0.69876724,0.22428945,1002.3203, , , , 
2025-11-24 20:19:13.757,6.0403814,-7.845467,1.8625133,-0.26052636,-0.047798797,-2.5812879,-20.04375,45.412502,39.225002,-0.096874304,-0.7025278,0.20647645,1002.3218, , , , 
2025-11-24 20:19:13.777,5.7816577,-7.811968,1.611267,-0.29656634,0.14347275,-2.515927,-21.075,44.90625,36.075,-0.07813508,-0.7052551,0.18462847,1002.3218, , , , 
2025-11-24 20:19:13.797,5.616553,-7.7258263,1.5299109,-0.33260635,0.338333,-2.4139156,-22.85625,43.4625,33.43125,-0.06445197,-0.7056186,0.1672326,1002.32227, , , , 
2025-11-24 20:19:13.817,5.580661,-7.579864,1.3621143,-0.33504972,0.54418856,-2.2868595,-25.2,41.475002,31.368752,-0.05212836,-0.70428014,0.1502288,1002.32227, , , , 
2025-11-24 20:19:13.838,5.5136614,-7.426424,1.2089736,-0.31183752,0.7170583,-2.1830153,-27.656252,39.15,30.393751,-0.043661755,-0.7021188,0.13788974,1002.32104, , , , 
2025-11-24 20:19:13.857,5.5710893,-7.711469,0.9314062,-0.2287623,0.87526774,-2.0425205,-29.737501,36.9375,29.362501,-0.030651184,-0.6966081,0.11841082,1002.32104, , , , 
2025-11-24 20:19:13.878,5.178367,-7.850253,0.6008976,-0.14813046,0.9479586,-1.8714069,-32.100002,34.59375,28.312502,-0.020935737,-0.6909834,0.10417098,1002.32764, , , , 
2025-11-24 20:19:13.898,4.3669014,-7.687541,0.27038896,-0.080326416,0.96139723,-1.4890165,-34.03125,32.287502,27.712502,-0.010455125,-0.68304974,0.08924883,1002.32764, , , , 
2025-11-24 20:19:13.917,4.084249,-7.493423,0.086141616,-0.024128467,0.87648946,-1.014999,-35.775,30.393751,26.868752,-0.004663267,-0.6766451,0.08077688,1002.3259, , , , 
2025-11-24 20:19:13.937,4.2281175,-7.606185,-0.086141616,0.058946762,0.7298861,-0.5055525,-37.237503,28.63125,26.04375,-0.0016047339,-0.6709759,0.07610321,1002.3259, , , , 
2025-11-24 20:19:13.957,4.4147577,-7.6755767,-0.4334,0.12308572,0.5808394,0.058870405,-38.362503,27.16875,25.462502,-0.0013731259,-0.6662569,0.075730585,1002.3218, , , , 
2025-11-24 20:19:13.977,5.4227343,-8.044071,-0.70378894,0.13652436,0.31389913,0.68323267,-39.3375,26.062502,24.712502,-0.004361524,-0.6628969,0.0797443,1002.3218, , , , 
2025-11-24 20:19:13.997,6.533602,-8.400901,-1.1108679,0.10292777,0.07017108,1.14992,-39.91875,25.25625,23.85,-0.0105227195,-0.6613267,0.087621674,1002.32104, , , , 
2025-11-24 20:19:14.017,7.4862447,-8.544471,-1.6136597,-0.05833591,-0.1925696,1.4895511,-40.331253,25.2,23.493752,-0.019553354,-0.661535,0.09834328,1002.32104, , , , 
2025-11-24 20:19:14.037,7.77129,-8.233403,-1.9462621,-0.3930802,-0.45462307,1.7290032,-40.275,25.406252,23.1,-0.03146011,-0.6637687,0.1101004,1002.32007, , , , 
2025-11-24 20:19:14.057,7.785647,-7.630113,-1.6280167,-0.9068028,-0.698962,1.9440213,-39.9,26.175001,22.66875,-0.051339764,-0.6692963,0.12371137,1002.32007, , , , 
2025-11-24 20:19:14.077,7.9340014,-7.3953176,-0.7827521,-1.2867497,-0.8364026,2.1223888,-39.15,27.31875,23.04375,-0.07159678,-0.67517436,0.13270216,1002.32666, , , , 
2025-11-24 20:19:14.097,8.506186,-7.5293155,0.124426775,-1.5011572,-0.87855107,2.2751007,-38.04375,28.125002,23.53125,-0.095025085,-0.6814224,0.14056414,1002.32666, , , , 
2025-11-24 20:19:14.117,8.9348,-7.3785677,1.2807583,-1.4981029,-0.6061132,2.281209,-36.5625,29.19375,24.31875,-0.120048866,-0.68653655,0.14790133,1002.3274, , , , 
2025-11-24 20:19:14.137,9.250652,-6.96431,2.3054845,-1.2342169,-0.07650862,2.0551956,-34.74375,30.000002,26.1,-0.14429915,-0.68854225,0.15457039,1002.3274, , , , 
2025-11-24 20:19:14.157,9.131011,-6.873383,2.585744,-0.74859333,0.6443675,1.6868547,-32.775,30.843752,27.300001,-0.16513361,-0.68575114,0.16040199,1002.3345, , , , 
2025-11-24 20:19:14.177,7.8311105,-7.251748,1.718944,-0.2599155,1.0591328,1.4987137,-31.0125,31.687502,28.518751,-0.18147452,-0.67807394,0.16596788,1002.3345, , , , 
2025-11-24 20:19:14.197,6.890133,-7.120143,1.0654043,-0.022906773,1.0218711,1.7118994,-30.150002,32.362503,29.268751,-0.19868335,-0.6654277,0.17524639,1002.3291, , , , 
2025-11-24 20:19:14.217,6.849455,-6.533602,0.58654064,0.11942064,0.8031878,2.0625257,-29.493752,33.487503,29.250002,-0.21270226,-0.6549699,0.18628758,1002.3291, , , , 
2025-11-24 20:19:14.237,7.402496,-6.033203,0.059820566,0.15729317,0.5099811,2.2390606,-28.85625,34.21875,28.7625,-0.22708435,-0.6453633,0.20022796,1002.3362, , , , 
2025-11-24 20:19:14.258,8.027322,-5.671588,-0.30179477,0.014965758,0.23509984,2.2121832,-28.500002,35.15625,28.2,-0.24120034,-0.6374599,0.21511404,1002.3362, , , , 
2025-11-24 20:19:14.277,8.18794,-5.4299126,-0.35204405,-0.22509721,0.124536484,2.0716884,-27.225,36.28125,27.4125,-0.25507742,-0.6313742,0.228882,1002.3342, , , , 
2025-11-24 20:19:14.297,8.173583,-5.358128,-0.09092726,-0.4987568,0.06284091,1.949519,-25.837502,37.21875,26.906252,-0.26929358,-0.62663174,0.24031763,1002.3342, , , , 
2025-11-24 20:19:14.318,8.302795,-5.482555,0.48364928,-0.7192727,0.10071344,1.8163543,-24.656252,38.11875,27.056252,-0.28809956,-0.62193084,0.251313,1002.33105,37.88741867,127.74017222,147.112060546875,1.76
2025-11-24 20:19:14.337,8.23101,-5.52084,0.8234301,-0.7272137,0.24243,1.6917415,-22.81875,39.05625,27.13125,-0.2994649,-0.61897635,0.25633687,1002.33105, , , , 
2025-11-24 20:19:14.357,7.704291,-5.8343,0.6798607,-0.55800897,0.39819607,1.5262018,-21.35625,39.600002,28.10625,-0.3172661,-0.6125456,0.262951,1002.3235, , , , 
2025-11-24 20:19:14.377,7.402496,-6.25095,0.41665024,-0.37170056,0.21799612,1.5152066,-20.0625,40.068752,28.706251,-0.33013433,-0.6067798,0.2682273,1002.3235, , , , 
2025-11-24 20:19:14.397,7.3977103,-6.5048885,0.2536392,-0.13896775,-0.27442312,1.7015151,-18.712502,40.725002,29.19375,-0.3415669,-0.60197186,0.27555233,1002.32666, , , , 
2025-11-24 20:19:14.417,7.9914293,-6.6245294,0.15792629,0.043064732,-0.78020465,1.9971651,-17.493752,41.30625,29.5125,-0.35172248,-0.5987187,0.28684762,1002.32666, , , , 
2025-11-24 20:19:14.437,9.320343,-6.698707,0.040677983,0.118198946,-1.154654,2.193247,-16.06875,41.831253,29.56875,-0.36077112,-0.59709394,0.30231538,1002.33105, , , , 
2025-11-24 20:19:14.457,10.49821,-6.928418,-0.031106694,0.07177455,-1.3305781,2.2109616,-14.437501,42.46875,29.7,-0.37059537,-0.5968898,0.32443792,1002.33105, , , , 
2025-11-24 20:19:14.477,11.252249,-7.0603223,0.0071784677,-0.08765658,-1.3134743,2.1077285,-12.075001,43.050003,29.868752,-0.37776864,-0.5977443,0.34159723,1002.33325, , , , 
2025-11-24 20:19:14.497,11.82204,-7.022037,0.08853444,-0.32955208,-1.042869,1.937913,-9.88125,43.575,30.206251,-0.38504958,-0.59901446,0.35638714,1002.33325, , , , 
2025-11-24 20:19:14.517,12.25544,-6.792027,0.22971097,-0.589773,-0.5609105,1.7100669,-7.55625,44.11875,30.35625,-0.39338285,-0.59969646,0.3671892,1002.33105, , , , 
2025-11-24 20:19:14.537,12.940085,-6.9523463,0.4022933,-0.85121566,0.059099473,1.3154596,-5.11875,44.30625,30.69375,-0.40310493,-0.59926724,0.3728844,1002.33105, , , , 
2025-11-24 20:19:14.557,12.743875,-6.535995,0.7683952,-0.9807153,0.6290963,0.85121566,-3.54375,44.325,30.993752,-0.4134959,-0.59789175,0.37272012,1002.3281, , , , 
2025-11-24 20:19:14.577,12.5138645,-6.3011994,1.3142579,-0.90130514,0.93818504,0.3691808,-1.8937501,44.100002,31.237501,-0.4236211,-0.59543616,0.36718798,1002.3281, , , , 
2025-11-24 20:19:14.597,12.355938,-6.4737816,1.8026928,-0.5842754,0.89970165,-0.14576343,-0.76875,43.6875,31.743752,-0.43121433,-0.59277517,0.3584163,1002.3323, , , , 
2025-11-24 20:19:14.617,12.126227,-6.725028,2.0255244,-0.00335966,0.5881696,-0.5990121,-0.31875002,43.125,32.11875,-0.4336321,-0.59066653,0.34712702,1002.3323, , , , 
2025-11-24 20:19:14.637,12.353545,-7.225427,1.8385851,0.61298525,0.13064496,-0.8964947,-0.61875004,42.45,32.5875,-0.42868194,-0.59042597,0.34082738,1002.32886, , , , 
2025-11-24 20:19:14.657,12.509079,-7.4718876,1.2209377,1.147553,-0.37643462,-1.1689326,-1.575,42.075,32.9625,-0.41720343,-0.5920721,0.33818376,1002.32886, , , , 
2025-11-24 20:19:14.677,12.494721,-7.493423,0.43818563,1.4731345,-0.9127585,-1.559264,-2.4562502,41.8875,32.86875,-0.39971313,-0.5964181,0.3383468,1002.31885, , , , 
2025-11-24 20:19:14.697,12.250653,-7.606185,0.09332009,1.4902382,-1.2933164,-2.0216753,-3.7687502,42.225002,32.362503,-0.37711224,-0.60425353,0.33910596,1002.31885, , , , 
2025-11-24 20:19:14.717,11.652149,-7.764111,0.086141616,1.3118708,-1.4197618,-2.4914932,-4.8187504,42.80625,31.35,-0.35049316,-0.61566126,0.33815166,1002.31323, , , , 
2025-11-24 20:19:14.737,10.909776,-8.180761,0.20817557,0.9642987,-1.2603306,-2.908702,-5.8500004,43.068752,30.075,-0.3217887,-0.62908685,0.33377296,1002.31323, , , , 
2025-11-24 20:19:14.757,10.467104,-9.126225,0.6870392,0.6306998,-1.0049964,-3.1518192,-7.2375,43.518753,28.968752,-0.2861425,-0.64621466,0.32215926,1002.30835, , , , 
2025-11-24 20:19:14.777,10.012168,-9.875777,1.0199406,0.38697174,-0.6134434,-3.2898707,-8.493751,43.48125,28.1625,-0.25907508,-0.6585312,0.30848658,1002.30835, , , , 
2025-11-24 20:19:14.797,9.308379,-10.366306,1.2735798,0.2171562,-0.28664008,-3.3143046,-10.275001,43.03125,27.768751,-0.23394543,-0.66836816,0.29185364,1002.30005, , , , 
2025-11-24 20:19:14.817,8.508578,-10.330414,1.6591234,0.14202198,-0.07650862,-3.1958,-12.262501,42.6375,27.525002,-0.21087816,-0.67591184,0.2736946,1002.30005, , , , 
2025-11-24 20:19:14.837,8.259725,-9.894919,1.759622,0.13774605,0.00167983,-3.047975,-14.812501,41.756252,27.093752,-0.1947475,-0.68024427,0.2600676,1002.30054, , , , 
2025-11-24 20:19:14.857,8.743374,-8.724232,1.5849459,0.0021379655,0.08910734,-2.8995392,-17.493752,40.912502,26.6625,-0.16981381,-0.685727,0.23815748,1002.30054, , , , 
2025-11-24 20:19:14.877,9.075976,-7.9627156,1.4796617,-0.2623589,0.21433103,-3.0711873,-19.95,40.050003,26.400002,-0.15102863,-0.68937844,0.21941787,1002.2991, , , , 
2025-11-24 20:19:14.897,8.846265,-7.8239317,1.759622,-0.5677825,0.5533513,-3.3454578,-22.368752,38.4,26.23125,-0.12818947,-0.6926941,0.19106299,1002.2991, , , , 
2025-11-24 20:19:14.917,8.1687975,-8.060822,2.3030918,-0.6606313,0.94612604,-3.4749572,-24.975,36.881252,26.41875,-0.110791005,-0.69251704,0.16457863,1002.30396, , , , 
2025-11-24 20:19:14.937,7.132107,-8.096714,2.5618157,-0.5531222,1.2692642,-3.421203,-27.243752,34.818752,26.437502,-0.09415851,-0.68896365,0.13700046,1002.30396, , , , 
2025-11-24 20:19:14.957,6.4088764,-7.8143606,2.8992038,-0.20677179,1.3871578,-3.2385595,-29.643751,32.41875,26.306252,-0.07781879,-0.68249583,0.1106588,1002.3013, , , , 
2025-11-24 20:19:14.978,5.911169,-7.591828,2.8250263,0.2776301,1.2668209,-3.0553052,-32.23125,29.906252,26.325,-0.060494352,-0.6745701,0.08742888,1002.3013, , , , 
2025-11-24 20:19:14.997,5.3365927,-7.4718876,2.312663,0.74920416,1.0255362,-2.8598342,-34.237503,27.206251,25.800001,-0.04095918,-0.6666908,0.06851076,1002.3096, , , , 
2025-11-24 20:19:15.017,4.6301117,-7.213463,1.59691,1.1322818,0.66880137,-2.5770118,-36.787502,24.656252,25.125002,-0.013842363,-0.6585363,0.05109222,1002.3096, , , , 
2025-11-24 20:19:15.037,4.685147,-6.7968125,0.95054877,1.3106492,0.3212293,-2.2929678,-38.831253,22.143751,24.093752,0.008580802,-0.6541596,0.041632984,1002.3093, , , , 
2025-11-24 20:19:15.057,5.5543394,-6.451947,0.4668995,1.3503542,-0.009315421,-2.140867,-40.3125,20.38125,22.743752,0.030770918,-0.65206146,0.034800064,1002.3093, , , , 
2025-11-24 20:19:15.077,6.279664,-6.107381,-0.23688944,1.23918,-0.2145601,-2.096886,-41.775,18.393751,21.84375,0.052596696,-0.65174603,0.028762972,1002.30835, , , , 
2025-11-24 20:19:15.097,6.7298136,-5.494519,-0.85244304,0.99361944,-0.31229568,-2.0846689,-42.393753,16.987501,21.337502,0.07344047,-0.6523058,0.02212444,1002.30835, , , , 
2025-11-24 20:19:15.117,6.5072813,-4.8194437,-1.407877,0.67895675,-0.42896748,-2.0590134,-42.91875,15.993751,21.075,0.09246662,-0.65340894,0.013925423,1002.31714, , , , 
2025-11-24 20:19:15.137,5.549554,-4.76411,-1.7428722,0.29106873,-0.5621322,-1.8897324,-43.331253,14.700001,21.431252,0.108901896,-0.6553277,0.0039375625,1002.31714, , , , 
2025-11-24 20:19:15.157,4.304688,-4.963013,-1.8266209,-0.21288027,-0.42163733,-1.2483428,-43.800003,13.368751,21.581251,0.12250985,-0.65844053,-0.009131696,1002.3159, , , , 
2025-11-24 20:19:15.177,4.386044,-4.886443,-1.5059828,-0.6056551,-0.058794048,-0.36933354,-44.0625,11.6625,21.75,0.12459212,-0.659751,-0.016753808,1002.3159, , , , 
2025-11-24 20:19:15.198,5.6620164,-4.8912287,-0.9984053,-0.81089973,0.18195613,0.41132927,-44.475002,10.03125,22.237501,0.11868464,-0.6596499,-0.020110302,1002.3179, , , , 
2025-11-24 20:19:15.217,7.1273212,-4.9319067,-0.83778703,-0.83105767,0.1672958,0.97216344,-44.71875,8.7375,22.21875,0.10745283,-0.6591723,-0.019477405,1002.3179, , , , 
2025-11-24 20:19:15.237,7.850253,-5.1400824,-0.81625164,-0.777914,-0.14675605,1.2788087,-44.5125,7.9875,22.35,0.093553394,-0.65996295,-0.015885882,1002.3213, , , , 
2025-11-24 20:19:15.257,7.687541,-5.0563335,-0.7827521,-0.74004143,-0.57190573,1.5830107,-44.550003,7.89375,22.612501,0.078085795,-0.6634423,-0.0101197455,1002.3213, , , , 
2025-11-24 20:19:15.277,7.6923265,-5.07069,-0.62721866,-0.7510367,-0.9280297,1.9690661,-44.34375,8.231251,22.612501,0.060706973,-0.6699102,-0.0021534502,1002.3196, , , , 
2025-11-24 20:19:15.297,8.197512,-5.063512,-0.325723,-0.76875126,-1.083185,2.413763,-43.96875,9.0375,22.81875,0.035227105,-0.680476,0.011336715,1002.3196, , , , 
2025-11-24 20:19:15.317,8.822337,-5.2022953,-0.083748795,-0.72538114,-1.0642487,2.7393446,-43.875,10.368751,23.1375,0.012116834,-0.6889657,0.024925815,1002.32446,37.88742752,127.7401761,147.433837890625,1.18
2025-11-24 20:19:15.337,9.4686985,-5.465805,0.0,-0.641695,-1.0355388,2.933594,-42.975002,11.475,23.85,-0.006239291,-0.6947273,0.0366959,1002.32446, , , , 
2025-11-24 20:19:15.357,10.49821,-5.7026944,-0.0526421,-0.37597647,-0.970789,3.0881383,-41.831253,13.2375,24.618752,-0.037249614,-0.7029344,0.05905275,1002.3213, , , , 
2025-11-24 20:19:15.377,10.440783,-5.8510494,-0.2321038,-0.19577655,-0.94513345,3.0875275,-40.6875,15.01875,25.81875,-0.060804177,-0.70814013,0.07871418,1002.3213, , , , 
2025-11-24 20:19:15.397,10.2347,-5.858228,-0.3472584,-0.0839915,-0.8852704,3.126011,-39.24375,16.96875,27.225,-0.08308879,-0.7123022,0.09943783,1002.323, , , , 
2025-11-24 20:19:15.417,9.856635,-5.6237316,-0.34486556,-0.029626092,-0.72583926,3.2115295,-38.081253,19.35,28.031252,-0.104826465,-0.7149766,0.121015176,1002.323, , , , 
2025-11-24 20:19:15.437,9.74148,-5.1568317,-0.3592225,-0.026571855,-0.47111595,3.3056,-36.43125,21.2625,29.212502,-0.13231415,-0.71545815,0.14869769,1002.3154, , , , 
2025-11-24 20:19:15.457,9.93799,-4.927121,-0.39032918,-0.06627693,-0.16569231,3.2836094,-34.575,23.400002,29.85,-0.15465432,-0.7130996,0.17045546,1002.3154, , , , 
2025-11-24 20:19:15.477,10.414461,-4.9342995,-0.5482555,-0.16340165,0.15507884,3.1504447,-32.4,25.500002,30.16875,-0.17698659,-0.70833987,0.1906067,1002.3176, , , , 
2025-11-24 20:19:15.497,10.7351,-5.183153,-0.74207413,-0.32588702,0.50387263,2.912825,-30.225,27.393751,30.206251,-0.19905326,-0.7014892,0.20799012,1002.3176, , , , 
2025-11-24 20:19:15.517,10.4718895,-5.52084,-0.83778703,-0.61603945,0.9558996,2.586022,-28.462502,29.343752,30.150002,-0.22091664,-0.6928146,0.22153291,1002.3269, , , , 
2025-11-24 20:19:15.537,9.530911,-5.604589,-0.8234301,-0.9856021,1.3737191,2.2958694,-26.75625,31.087502,30.000002,-0.24322473,-0.6824223,0.23035374,1002.3269, , , , 
2025-11-24 20:19:15.557,8.659326,-5.7601223,-0.4884349,-1.385707,1.6418811,2.0075495,-25.48125,32.193752,29.906252,-0.2668258,-0.67072374,0.23375103,1002.3281, , , , 
2025-11-24 20:19:15.577,7.9722867,-6.114559,0.09092726,-1.6514256,1.6999116,1.7314465,-24.35625,33.1875,30.31875,-0.29151532,-0.65863335,0.23208277,1002.3281, , , , 
2025-11-24 20:19:15.597,7.309176,-6.6364937,0.7109674,-1.674027,1.5374262,1.6410412,-23.38125,33.9,30.2625,-0.32234493,-0.6438412,0.22606301,1002.32886, , , , 
2025-11-24 20:19:15.617,6.9906316,-6.775277,1.1228321,-1.5249802,1.1819131,1.7125103,-22.837502,34.331253,30.581251,-0.34615442,-0.6327196,0.22156683,1002.32886, , , , 
2025-11-24 20:19:15.638,7.3570323,-6.8422766,1.434198,-1.1853491,0.5997757,1.8731631,-22.40625,34.48125,30.937502,-0.36842194,-0.6228191,0.22005749,1002.33545, , , , 
2025-11-24 20:19:15.657,8.166405,-7.251748,1.3980067,-0.79440683,0.040163208,1.9672335,-22.125,34.537502,31.406252,-0.38798657,-0.614697,0.2229891,1002.33545, , , , 
2025-11-24 20:19:15.678,9.346664,-7.878967,1.0845468,-0.48898324,-0.3605526,2.053974,-21.5625,34.706253,32.081253,-0.4041604,-0.60857785,0.23063271,1002.334, , , , 
2025-11-24 20:19:15.697,10.493424,-8.173583,0.64875406,-0.19944163,-0.5725166,2.2427256,-20.75625,34.36875,32.5125,-0.41759673,-0.6035951,0.24245049,1002.334, , , , 
2025-11-24 20:19:15.717,11.563615,-7.6851482,-0.086141616,-0.11392301,-0.45462307,2.4076545,-19.3875,34.875,32.7,-0.43284872,-0.5965833,0.26077345,1002.34204, , , , 
2025-11-24 20:19:15.737,12.629019,-7.1081786,-0.8330014,-0.28801447,-0.25365433,2.356954,-17.681252,35.4375,32.943752,-0.44534594,-0.58983725,0.2750272,1002.34204, , , , 
2025-11-24 20:19:15.757,13.629518,-7.0603223,-1.2735798,-0.7162184,0.07872294,1.9880024,-15.975,35.71875,33.1875,-0.45854706,-0.58345926,0.28526655,1002.344, , , , 
2025-11-24 20:19:15.777,13.114761,-6.363413,-0.96729857,-1.2507098,0.7091173,1.473669,-14.00625,36.7125,33.393753,-0.47268543,-0.57795346,0.2881029,1002.344, , , , 
2025-11-24 20:19:15.797,12.42533,-6.14088,0.3281158,-1.6691401,1.4042615,0.9068028,-12.525001,37.0875,34.18125,-0.48850468,-0.57210445,0.282161,1002.3369, , , , 
2025-11-24 20:19:15.817,12.013465,-6.332306,1.7165512,-1.6208832,1.854456,0.40399912,-11.475,37.162502,34.706253,-0.50449765,-0.565309,0.26893914,1002.3369, , , , 
2025-11-24 20:19:15.837,11.589935,-6.363413,2.5331018,-1.221389,2.0199955,0.044820916,-11.325001,36.600002,35.287502,-0.5179436,-0.55719215,0.25171348,1002.33325, , , , 
2025-11-24 20:19:15.857,11.163714,-6.4594245,2.8058836,-0.2519745,1.6327183,-0.34245625,-11.83125,35.71875,35.86875,-0.52755636,-0.5462373,0.23090859,1002.33325, , , , 
2025-11-24 20:19:15.877,10.955539,-6.483353,2.2791636,0.6105418,0.8856522,-0.58313006,-13.05,34.425003,36.3375,-0.5273093,-0.539421,0.21964751,1002.33813, , , , 
2025-11-24 20:19:15.897,10.8714905,-6.7633133,1.5107684,1.3283638,-0.12476555,-0.8757259,-14.19375,33.600002,36.43125,-0.5192816,-0.5371132,0.21509479,1002.33813, , , , 
2025-11-24 20:19:15.917,10.579566,-7.1799636,0.7109674,1.7736714,-1.2481136,-1.223298,-15.4125,33.525,36.46875,-0.50384986,-0.54146194,0.21693864,1002.3384, , , , 
2025-11-24 20:19:15.937,10.107881,-7.440781,0.34486556,1.8298693,-2.006175,-1.4108281,-16.331251,33.600002,36.05625,-0.48284554,-0.552506,0.2234271,1002.3384, , , , 
2025-11-24 20:19:15.957,9.873384,-7.5580297,0.4764708,1.5635399,-2.3714619,-1.3863943,-16.44375,34.350002,35.23125,-0.45924795,-0.5683557,0.23263015,1002.33325, , , , 
2025-11-24 20:19:15.977,10.325628,-7.52453,1.0486546,1.1218973,-2.255401,-1.3558519,-16.48125,34.893753,34.48125,-0.43637493,-0.5860583,0.24195287,1002.33325, , , , 
2025-11-24 20:19:15.997,10.92174,-7.5149584,1.9390837,0.64413846,-1.6818153,-1.5910281,-15.8625,35.287502,33.975002,-0.41074064,-0.60727435,0.24852085,1002.3296, , , , 
2025-11-24 20:19:16.017,11.036895,-7.5846496,2.7771697,0.3399365,-0.99155784,-2.0119019,-15.31875,35.98125,33.24375,-0.39187753,-0.6220236,0.2466429,1002.3296, , , , 
2025-11-24 20:19:16.037,10.51496,-8.048857,3.5671003,0.25563958,-0.29030517,-2.523868,-15.20625,36.131252,33.0,-0.37309992,-0.63409686,0.23779657,1002.3262, , , , 
2025-11-24 20:19:16.057,9.406485,-8.815159,4.007679,0.46638188,0.2839676,-2.9581807,-15.637501,35.98125,33.075,-0.35298204,-0.64298785,0.22364797,1002.3262, , , , 
2025-11-24 20:19:16.077,8.228618,-9.267701,3.828217,0.7895201,0.53624755,-3.1237202,-16.59375,35.925003,32.625,-0.33079535,-0.6487954,0.2073884,1002.3286, , , , 
2025-11-24 20:19:16.097,7.172785,-9.301201,3.4307094,1.1267841,0.58022857,-3.1267743,-18.09375,34.85625,32.8875,-0.30655137,-0.65225875,0.19165502,1002.3286, , , , 
2025-11-24 20:19:16.117,6.3921266,-9.15494,2.9039893,1.3980004,0.47333026,-3.0516403,-20.212502,34.18125,32.34375,-0.2805562,-0.65437293,0.17788178,1002.32837, , , , 
2025-11-24 20:19:16.137,5.9135623,-8.896515,2.32702,1.5641508,0.31939676,-2.9099236,-22.275002,33.45,31.462502,-0.24643442,-0.65646094,0.16391912,1002.32837, , , , 
2025-11-24 20:19:16.157,5.8079786,-8.709874,1.9510478,1.627068,0.2112768,-2.7785914,-24.806252,32.30625,30.375002,-0.21882507,-0.6579343,0.15484461,1002.32886, , , , 
2025-11-24 20:19:16.177,5.9207406,-8.6090765,1.625624,1.6496694,0.10560022,-2.6912403,-27.31875,31.63125,28.968752,-0.19133146,-0.6593173,0.14697768,1002.32886, , , , 
2025-11-24 20:19:16.197,5.7338014,-8.39133,1.2544373,1.6203487,0.055434387,-2.6264906,-29.1375,30.337502,27.843752,-0.16402009,-0.66065425,0.1397749,1002.32837, , , , 
2025-11-24 20:19:16.219,5.5591254,-8.2812605,1.0941181,1.562929,0.0071774554,-2.5061536,-31.85625,29.156252,26.493752,-0.1307955,-0.6619534,0.13117623,1002.32837, , , , 
2025-11-24 20:19:16.237,5.374878,-8.207083,0.8979067,1.5055094,-0.003206948,-2.372378,-32.53125,28.781252,25.987501,-0.11161956,-0.66249657,0.12640297,1002.3259, , , , 
2025-11-24 20:19:16.257,5.6093745,-8.494222,0.55782676,1.3564627,0.09216158,-2.2221096,-33.91875,27.768751,25.518751,-0.087364614,-0.66272056,0.12057109,1002.3259, , , , 
2025-11-24 20:19:16.278,5.494519,-8.963513,0.30897322,1.2006966,0.26686388,-2.1054378,-35.8125,26.41875,24.656252,-0.059750315,-0.6614443,0.1132696,1002.3274, , , , 
2025-11-24 20:19:16.297,4.9438705,-9.071191,0.1268196,1.0565367,0.38109234,-1.8714069,-36.1875,25.9125,24.225,-0.040327985,-0.6589387,0.107433796,1002.3274, , , , 
2025-11-24 20:19:16.317,4.179962,-8.7266245,-0.1363909,0.9050466,0.47333026,-1.4322077,-37.331253,24.750002,23.53125,-0.024229126,-0.65549695,0.102892846,1002.32764,37.88742752,127.7401761,147.433837890625,1.18
2025-11-24 20:19:16.338,3.696612,-8.075178,-0.22731815,0.7638645,0.4580591,-0.9172635,-38.60625,23.831251,22.44375,-0.015047452,-0.6525634,0.10111292,1002.32764, , , , 
2025-11-24 20:19:16.357,4.4554358,-8.024929,-0.3065804,0.57328016,0.31267744,-0.20135053,-39.54375,22.95,21.7875,-0.0058242767,-0.6483738,0.102120444,1002.32666, , , , 
2025-11-24 20:19:16.377,4.8433723,-7.6133633,-0.20578274,0.49814594,0.27541575,0.33924928,-40.21875,22.35,21.09375,-0.0033700895,-0.64584196,0.106411114,1002.32666, , , , 
2025-11-24 20:19:16.397,6.0116677,-7.7976108,0.023928227,0.53846186,0.14591613,0.8102889,-40.78125,22.0125,20.400002,-0.004544112,-0.6437778,0.11400436,1002.33325, , , , 
2025-11-24 20:19:16.418,7.4120674,-8.17119,-0.050249275,0.71377504,0.031611346,1.2446012,-40.6875,22.181252,20.118752,-0.008899231,-0.6422382,0.12844847,1002.33325, , , , 
2025-11-24 20:19:16.438,8.503793,-7.996215,-0.53629136,0.8554916,0.015729317,1.5341429,-40.518753,23.00625,19.518751,-0.013416942,-0.64128554,0.14398406,1002.3325, , , , 
2025-11-24 20:19:16.459,8.937193,-7.4383883,-1.4054842,0.8176191,0.08910734,1.6147747,-40.3125,23.8125,18.825,-0.018221583,-0.639952,0.16161293,1002.3325, , , , 
2025-11-24 20:19:16.477,8.52772,-6.715457,-2.2360928,0.4810422,0.20028155,1.5371971,-39.80625,25.181252,18.431252,-0.023691678,-0.63818944,0.17853391,1002.3347, , , , 
2025-11-24 20:19:16.497,7.6133633,-6.1767726,-2.5354948,-0.1847813,0.32733777,1.4364073,-38.90625,26.475,17.75625,-0.03154511,-0.63639337,0.19218807,1002.3347, , , , 
2025-11-24 20:19:16.517,6.954739,-6.06431,-1.9366908,-0.79562855,0.35299337,1.4339639,-38.15625,27.54375,17.268751,-0.043519456,-0.6349541,0.20148543,1002.3313, , , , 
2025-11-24 20:19:16.537,6.6556363,-6.1887364,-0.9840483,-1.2391037,0.20883341,1.5103198,-37.36875,28.518751,17.118752,-0.06450565,-0.6344909,0.20814295,1002.3313, , , , 
2025-11-24 20:19:16.557,6.6939216,-6.524031,-0.062213387,-1.3869287,0.02183779,1.5848432,-36.506252,29.587502,17.00625,-0.07917927,-0.63518924,0.21076664,1002.3335, , , , 
2025-11-24 20:19:16.577,6.7728844,-6.8374906,0.5841478,-1.3991456,-0.21944688,1.6605883,-35.86875,30.393751,17.475,-0.10478638,-0.63784176,0.21487921,1002.3335, , , , 
2025-11-24 20:19:16.597,6.739385,-6.969096,0.89312106,-1.3350067,-0.38620818,1.6923523,-34.8375,31.087502,18.31875,-0.12499315,-0.6409479,0.21876298,1002.3325, , , , 
2025-11-24 20:19:16.617,6.5742803,-6.9930243,1.0271192,-1.277587,-0.4986041,1.7167863,-33.975002,32.0625,19.10625,-0.14444092,-0.6444878,0.22332303,1002.3325, , , , 
2025-11-24 20:19:16.637,6.413662,-6.937989,1.0677971,-1.277587,-0.5621322,1.7766492,-32.98125,32.643753,20.25,-0.16342355,-0.6481957,0.22844316,1002.33154, , , , 
2025-11-24 20:19:16.657,6.404091,-6.8255267,1.1778669,-1.3288982,-0.5395308,1.8566703,-31.725,33.16875,21.525002,-0.18259095,-0.6517333,0.23390837,1002.33154, , , , 
2025-11-24 20:19:16.677,6.401698,-6.6556363,1.393221,-1.3967023,-0.38071054,1.965401,-30.468752,33.693752,22.556252,-0.20247401,-0.6545546,0.23944882,1002.32837, , , , 
2025-11-24 20:19:16.698,6.535995,-6.387341,1.7213368,-1.4388508,-0.13026318,2.0716884,-28.931252,34.2,24.018751,-0.22886121,-0.6557674,0.24621856,1002.32837, , , , 
2025-11-24 20:19:16.717,6.7848487,-6.1360946,1.9657038,-1.4351857,0.15630054,2.1168911,-27.45,34.59375,25.218752,-0.25116926,-0.65420264,0.251196,1002.3237, , , , 
2025-11-24 20:19:16.737,7.1799636,-6.059524,2.2289143,-1.3612732,0.3792598,2.0466437,-25.931252,35.006252,26.025002,-0.27367738,-0.65042293,0.2553487,1002.3237, , , , 
2025-11-24 20:19:16.762,7.606185,-6.2868423,2.4969103,-1.110215,0.5796177,1.8328472,-23.79375,35.775,27.525002,-0.3001921,-0.6434281,0.25936073,1002.3269, , , , 
2025-11-24 20:19:16.777,7.778468,-6.492924,2.5354948,-0.9068028,0.61504686,1.7094561,-23.362501,35.775,27.937502,-0.31449246,-0.6383159,0.26145566,1002.3269, , , , 
2025-11-24 20:19:16.797,7.9340014,-6.8135624,2.4346972,-0.5867188,0.59488887,1.5848432,-21.993752,36.206253,28.612501,-0.33117035,-0.63087475,0.2646547,1002.323, , , , 
2025-11-24 20:19:16.817,7.811968,-7.045965,2.0374885,-0.28984702,0.56617904,1.5213151,-21.056252,36.43125,29.400002,-0.34500507,-0.6229483,0.2690603,1002.323, , , , 
2025-11-24 20:19:16.838,7.8000035,-7.1799636,1.5921243,-0.11942064,0.542356,1.5390297,-20.41875,36.73125,29.625002,-0.35673875,-0.6145763,0.27495164,1002.3362, , , , 
2025-11-24 20:19:16.858,8.503793,-7.6923265,1.055833,0.042453885,0.43667942,1.5512466,-19.40625,37.143753,29.85,-0.3697949,-0.6038029,0.28388208,1002.3362, , , , 
2025-11-24 20:19:16.877,9.392128,-8.659326,0.85483587,0.1963874,0.24426255,1.5823998,-18.7875,37.55625,30.000002,-0.3789541,-0.5955717,0.29214716,1002.3357, , , , 
2025-11-24 20:19:16.897,10.325628,-9.188439,0.5075775,0.42301172,-0.025808297,1.7760384,-17.8875,37.96875,29.681252,-0.3867828,-0.5877637,0.30245712,1002.3357, , , , 
2025-11-24 20:19:16.917,10.993824,-8.570791,-0.19381863,0.52563405,-0.18218519,2.0631366,-16.81875,38.381252,29.38125,-0.39378628,-0.5800828,0.31584582,1002.33325, , , , 
2025-11-24 20:19:16.937,12.085549,-7.620542,-0.96490574,0.4046863,-0.2677038,2.253721,-15.731251,38.71875,29.1,-0.40121156,-0.5722068,0.33149716,1002.33325, , , , 
2025-11-24 20:19:16.960,13.5170555,-6.7369924,-1.1108679,0.15423894,-0.43507597,2.0973442,-14.231251,39.54375,28.650002,-0.40939954,-0.56534594,0.34671003,1002.3386, , , , 
2025-11-24 20:19:16.977,14.434104,-5.8749776,-0.6678966,-0.108425386,-0.6018373,1.5842323,-12.656251,40.425003,28.425001,-0.41827476,-0.5609027,0.36175627,1002.3386, , , , 
2025-11-24 20:19:16.997,15.121143,-6.0164533,0.13160525,-0.25319618,-0.64276403,0.9342909,-10.81875,41.5125,28.3875,-0.42260876,-0.56131095,0.36929184,1002.3391, , , , 
2025-11-24 20:19:17.017,14.91536,-6.0547385,1.1467602,-0.22021043,-0.57312745,0.24578966,-9.4875,42.112503,28.462502,-0.4234671,-0.56453186,0.37238777,1002.3391, , , , 
2025-11-24 20:19:17.037,14.3671055,-6.4232335,2.1068804,0.033902023,-0.65559185,-0.42919657,-8.00625,42.3375,28.48125,-0.42031047,-0.56948847,0.37212816,1002.33716, , , , 
2025-11-24 20:19:17.058,13.859528,-6.9475603,2.4059832,0.36375955,-0.8131904,-0.9520818,-6.7875004,42.525,28.706251,-0.41223443,-0.5760391,0.3704563,1002.33716, , , , 
2025-11-24 20:19:17.077,13.239488,-7.4359956,2.260021,0.609931,-0.9775083,-1.430986,-6.3562503,42.3375,28.612501,-0.3990196,-0.58418965,0.36832604,1002.3379, , , , 
2025-11-24 20:19:17.097,12.497114,-7.7904325,2.1595225,0.70155805,-1.1161706,-1.8787371,-6.15,42.73125,28.368752,-0.3813946,-0.5941364,0.3652944,1002.3379, , , , 
2025-11-24 20:19:17.117,11.630613,-8.0201435,2.4011974,0.70216894,-1.226734,-2.2031734,-6.5625005,42.7125,28.462502,-0.36046886,-0.6058853,0.36067435,1002.33545, , , , 
2025-11-24 20:19:17.137,10.455139,-8.005786,3.0260234,0.7467608,-1.3653964,-2.5257008,-7.2187505,42.91875,28.031252,-0.3309943,-0.62220603,0.3529318,1002.33545, , , , 
2025-11-24 20:19:17.157,9.842278,-8.130213,3.464209,0.8903862,-1.6054593,-2.744384,-8.38125,42.75,27.656252,-0.30486846,-0.63585436,0.3459973,1002.3374, , , , 
2025-11-24 20:19:17.177,9.550055,-8.367402,3.6317065,0.987511,-1.8088714,-2.881214,-9.31875,42.600002,27.300001,-0.27610642,-0.65012527,0.33927944,1002.3374, , , , 
2025-11-24 20:19:17.197,9.279665,-8.666505,3.5934215,0.9923977,-1.8559067,-3.029039,-10.425,42.61875,26.812502,-0.24516837,-0.6647574,0.33255562,1002.3325, , , , 
2025-11-24 20:19:17.217,8.736196,-8.788837,3.2823544,0.8438855,-1.7166336,-3.108449,-11.90625,42.09375,26.456251,-0.21320467,-0.6789502,0.32485765,1002.3325, , , , 
2025-11-24 20:19:17.237,8.072785,-8.56122,3.1866415,0.51402795,-1.3519577,-3.1053948,-13.125001,42.206253,26.212502,-0.1749144,-0.6948547,0.31243452,1002.3262, , , , 
2025-11-24 20:19:17.257,7.620542,-8.144869,3.3230324,0.22448637,-0.9078717,-3.0382016,-14.85,41.775,25.875002,-0.14757234,-0.70505524,0.29964778,1002.3262, , , , 
2025-11-24 20:19:17.277,7.2637124,-7.6516485,3.545565,0.02351762,-0.4460712,-2.9465744,-16.40625,41.23125,25.9125,-0.123663366,-0.71231127,0.28469488,1002.32153, , , , 
2025-11-24 20:19:17.297,7.225427,-7.457531,3.626921,-0.06994201,0.049936764,-2.8598342,-18.337502,40.74375,25.968752,-0.10273736,-0.71641105,0.26836577,1002.32153, , , , 
2025-11-24 20:19:17.317,6.930811,-7.4216385,3.519244,-0.0503949,0.42568418,-2.8011928,-20.41875,39.300003,25.875002,-0.08390995,-0.7173584,0.25136095,1002.3218,37.88743203,127.74019571,147.3780517578125,0.81
2025-11-24 20:19:17.337,6.7202425,-7.433603,3.423531,0.05650337,0.6596387,-2.7278912,-22.087502,37.95,26.2875,-0.06642562,-0.7155045,0.2344307,1002.3218, , , , 
2025-11-24 20:19:17.357,6.562316,-7.383353,3.1028929,0.23059484,0.73416203,-2.6350424,-24.393751,36.375,25.968752,-0.049435128,-0.7116611,0.21842538,1002.32495, , , , 
2025-11-24 20:19:17.378,6.5168524,-7.534101,2.501696,0.38636088,0.6590278,-2.5531888,-26.268751,35.081253,25.575,-0.027886508,-0.70562524,0.20046097,1002.32495, , , , 
2025-11-24 20:19:17.397,6.0044894,-7.4216385,2.03031,0.4150707,0.58328277,-2.4670594,-28.25625,33.600002,25.368752,-0.010333253,-0.7007526,0.18740875,1002.3213, , , , 
2025-11-24 20:19:17.417,5.683552,-7.4216385,1.8649062,0.36803547,0.49532077,-2.3662696,-30.50625,32.100002,24.7875,0.0066793417,-0.69617486,0.17495106,1002.3213, , , , 
2025-11-24 20:19:17.437,5.346164,-7.402496,1.8314066,0.33138463,0.43667942,-2.2483761,-32.4,30.562502,24.243752,0.022737408,-0.6918356,0.16282514,1002.32446, , , , 
2025-11-24 20:19:17.457,5.1400824,-7.632506,1.6806588,0.28251687,0.46905434,-2.0345795,-34.350002,28.781252,23.85,0.037526287,-0.6875805,0.15142117,1002.32446, , , , 
2025-11-24 20:19:17.477,4.8361936,-7.996215,1.3812568,0.21654536,0.6510868,-1.7736714,-35.625,27.6375,23.25,0.050362498,-0.68263334,0.14126073,1002.3237, , , , 
2025-11-24 20:19:17.498,4.112963,-7.7162547,1.2496517,0.15362808,0.8111288,-1.3931135,-36.84375,26.062502,22.6875,0.06041136,-0.67650414,0.13278322,1002.3237, , , , 
2025-11-24 20:19:17.517,3.72054,-6.942775,1.1276177,0.13530266,0.87587863,-0.83663166,-38.268753,24.750002,22.237501,0.067067765,-0.66967547,0.1267812,1002.3225, , , , 
2025-11-24 20:19:17.537,4.005286,-6.602994,0.8330014,0.16706672,0.88137627,-0.39071319,-39.112503,23.550001,21.768751,0.07088524,-0.6611569,0.12378522,1002.3225, , , , 
2025-11-24 20:19:17.557,4.196712,-6.725028,0.5051847,0.2055501,0.89481485,0.04909685,-40.2,22.40625,21.28125,0.07106383,-0.65458286,0.12500316,1002.3274, , , , 
2025-11-24 20:19:17.578,4.8098726,-6.727421,0.2321038,0.25930467,0.8318976,0.63367766,-41.0625,21.806252,20.56875,0.06839919,-0.64833283,0.12983903,1002.3274, , , , 
2025-11-24 20:19:17.597,5.7433724,-6.672386,-0.05503492,0.35215345,0.650476,1.0900569,-41.381252,21.5625,19.837502,0.06312257,-0.64310956,0.13846545,1002.3269, , , , 
2025-11-24 20:19:17.617,6.899704,-6.550352,-0.39032918,0.41812494,0.3597127,1.4755015,-41.71875,21.618752,18.65625,0.056080025,-0.6395585,0.15057915,1002.3269, , , , 
2025-11-24 20:19:17.637,7.9651084,-6.509674,-0.7253244,0.39857784,-0.09483404,1.713732,-41.68125,22.2,17.8125,0.047910344,-0.63849586,0.16523823,1002.3286, , , , 
2025-11-24 20:19:17.657,8.987442,-6.4570317,-0.6583253,0.23853585,-0.7111789,1.7876445,-41.1375,23.1,17.325,0.03699236,-0.642436,0.18446665,1002.3286, , , , 
2025-11-24 20:19:17.677,8.970692,-5.7984076,-0.031106694,0.06872032,-1.0031639,1.7290032,-40.29375,24.487501,16.96875,0.028079446,-0.64930695,0.19858271,1002.3335, , , , 
2025-11-24 20:19:17.698,8.676076,-5.276473,0.79950184,-0.033291176,-1.042869,1.6532581,-39.54375,25.687502,16.95,0.019078497,-0.6572002,0.21104428,1002.3335, , , , 
2025-11-24 20:19:17.717,8.611469,-5.374878,1.338186,-0.027182704,-0.774707,1.5475816,-38.30625,27.16875,17.38125,0.010109721,-0.6643242,0.2223991,1002.3386, , , , 
2025-11-24 20:19:17.738,8.329117,-5.640481,1.3740784,0.05833591,-0.38559732,1.4645063,-37.36875,28.44375,17.98125,0.0013452048,-0.6687156,0.23329167,1002.3386, , , , 
2025-11-24 20:19:17.757,7.663613,-6.0308104,0.84765744,0.20127417,-0.026419144,1.457787,-36.412502,29.493752,18.525002,-0.0072420114,-0.6698713,0.2443356,1002.3379, , , , 
2025-11-24 20:19:17.777,7.392925,-6.282057,0.124426775,0.2959555,0.02367033,1.6007253,-35.04375,31.087502,19.087502,-0.016018702,-0.66912824,0.25629655,1002.3379, , , , 
2025-11-24 20:19:17.797,7.373782,-6.3753767,-0.6774679,0.3014531,-0.16141638,1.8633896,-33.99375,32.30625,18.975,-0.027940022,-0.6682291,0.2733249,1002.3362, , , , 
2025-11-24 20:19:17.817,7.538887,-6.090631,-0.9720842,0.19883078,-0.4185831,2.1425467,-32.850002,33.61875,18.712502,-0.038826812,-0.6689957,0.28849784,1002.3362, , , , 
2025-11-24 20:19:17.837,7.8335032,-5.738587,-0.96729857,0.09009997,-0.58900946,2.341683,-31.593752,34.59375,18.50625,-0.04809847,-0.67064893,0.300498,1002.32764, , , , 
2025-11-24 20:19:17.857,8.9013,-5.2046885,-0.5099703,-0.117588095,-0.7857023,2.5481493,-30.4125,35.68125,18.35625,-0.06548273,-0.67490584,0.32079023,1002.32764, , , , 
2025-11-24 20:19:17.877,9.763016,-5.030012,-0.06699903,-0.20738265,-0.838846,2.5499818,-29.04375,36.787502,18.956251,-0.08038729,-0.67890126,0.33641788,1002.3296, , , , 
2025-11-24 20:19:17.898,10.536495,-5.020441,0.32093734,-0.2367033,-0.8797728,2.4754586,-27.000002,38.006252,19.25625,-0.0952256,-0.6829016,0.35104656,1002.3296, , , , 
2025-11-24 20:19:17.917,11.247463,-5.0539403,0.7253244,-0.19944163,-0.8632799,2.3465698,-25.050001,39.318752,19.725,-0.1092061,-0.6867084,0.3646854,1002.32715, , , , 
2025-11-24 20:19:17.938,11.522937,-4.9103713,0.9409775,-0.09681929,-0.7582142,2.1541529,-22.743752,40.40625,20.5125,-0.12183219,-0.6896973,0.37753224,1002.32715, , , , 
2025-11-24 20:19:17.957,11.513365,-4.8768716,1.1108679,0.019852536,-0.73622364,1.9666227,-20.400002,41.5125,20.868752,-0.13532248,-0.6921058,0.39246696,1002.32666, , , , 
2025-11-24 20:19:17.977,11.340783,-4.915157,1.1874382,0.14141114,-0.66353285,1.8499509,-18.375,42.506252,21.31875,-0.14410038,-0.69324803,0.4039961,1002.32666, , , , 
2025-11-24 20:19:17.997,10.989038,-4.927121,1.1300105,0.29900974,-0.46989426,1.7839794,-16.125,43.350002,21.825,-0.15186065,-0.69310343,0.41571447,1002.3264, , , , 
2025-11-24 20:19:18.018,10.878669,-5.077869,0.9290134,0.441948,-0.32756683,1.713732,-14.00625,44.30625,21.88125,-0.15907063,-0.6913607,0.42766827,1002.3264, , , , 
2025-11-24 20:19:18.037,10.797313,-5.1640105,0.6678966,0.5971032,-0.24388076,1.6147747,-11.868751,44.7,21.806252,-0.16546638,-0.6883046,0.43975952,1002.323, , , , 
2025-11-24 20:19:18.057,10.823634,-5.374878,0.31615168,0.73759806,-0.27747735,1.4877185,-10.087501,45.112503,21.45,-0.17057642,-0.68438286,0.45195663,1002.323, , , , 
2025-11-24 20:19:18.077,10.723136,-5.29083,0.12921242,0.8414421,-0.42713493,1.3704358,-8.137501,45.693752,20.831251,-0.17391317,-0.68036854,0.46420014,1002.3252, , , , 
2025-11-24 20:19:18.098,10.754242,-5.113761,-0.009571291,0.89832723,-0.6971294,1.2720894,-6.675,46.18125,20.60625,-0.17530747,-0.67625284,0.47967383,1002.3252, , , , 
2025-11-24 20:19:18.117,11.005788,-5.2310095,0.22971097,0.8646543,-0.99888796,1.1688563,-5.4,46.893753,19.893751,-0.1741516,-0.6744823,0.49194184,1002.32837, , , , 
2025-11-24 20:19:18.137,11.268998,-5.293223,0.55782676,0.79562855,-1.1815313,1.0265288,-3.7687502,47.381252,19.3875,-0.17100489,-0.6742958,0.5037264,1002.32837, , , , 
2025-11-24 20:19:18.157,11.49871,-5.4107704,0.8644072,0.6814001,-1.2914838,0.7974611,-2.6625001,47.850002,18.825,-0.16620283,-0.6752786,0.5143884,1002.3225, , , , 
2025-11-24 20:19:18.178,11.853146,-5.8343,1.2233306,0.5439595,-1.4252594,0.50051296,-1.3312501,48.093754,17.868752,-0.1598009,-0.6775425,0.52323633,1002.3225, , , , 
2025-11-24 20:19:18.197,11.97518,-6.305985,1.7093726,0.41445985,-1.5376552,0.16027105,-0.16875,48.375004,17.306252,-0.15122485,-0.6813715,0.5298189,1002.3262, , , , 
2025-11-24 20:19:18.217,12.073585,-7.201499,2.2408783,0.26419145,-1.7135793,-0.15675868,0.69375,48.581253,16.556252,-0.1375442,-0.6881547,0.5349051,1002.3262, , , , 
2025-11-24 20:19:18.237,12.049357,-7.7473617,3.0188448,0.2043284,-1.9279866,-0.32413083,1.3687501,48.750004,15.8625,-0.12445838,-0.69515014,0.5370478,1002.3247, , , , 
2025-11-24 20:19:18.257,12.209976,-7.4383883,3.9598224,0.26968905,-2.1130733,-0.41087115,1.9875001,49.031254,15.450001,-0.10961067,-0.7028253,0.5387782,1002.3247, , , , 
2025-11-24 20:19:18.277,12.25544,-6.4570317,5.030012,0.5005893,-2.2053113,-0.6778114,2.5687501,49.2,15.000001,-0.09247716,-0.71011543,0.54086566,1002.324, , , , 
2025-11-24 20:19:18.297,11.929716,-5.915955,5.6356955,0.7785248,-2.1491134,-1.1768736,3.0,49.65,14.56875,-0.07167148,-0.71610475,0.5431153,1002.324, , , , 
2025-11-24 20:19:18.317,10.81167,-5.9805613,5.494519,1.0076689,-1.8956118,-1.799327,3.15,50.006252,14.1,-0.04631237,-0.7200357,0.5448018,1002.32275,37.88743947,127.74020669,147.4874267578125,1.31
2025-11-24 20:19:18.337,9.617053,-6.567102,4.989334,1.0681428,-1.5700302,-2.2306614,2.9250002,50.1375,13.106251,-0.017607125,-0.721527,0.54506147,1002.32275, , , , 
2025-11-24 20:19:18.357,8.305188,-7.5676007,4.6636114,0.987511,-1.0917368,-2.5519671,2.11875,50.1375,12.01875,0.018905448,-0.72054994,0.5426731,1002.32227, , , , 
2025-11-24 20:19:18.377,7.196713,-7.8981094,4.749753,1.0418763,-0.81868804,-2.5586865,0.95625,50.343754,10.81875,0.04648623,-0.71759564,0.53939414,1002.32227, , , , 
2025-11-24 20:19:18.397,6.3370914,-7.689934,4.778766,1.1915339,-0.80708194,-2.3021307,-0.7875,50.475002,9.65625,0.07206519,-0.7129642,0.5367961,1002.32007, , , , 
2025-11-24 20:19:18.417,6.643672,-7.0435724,4.7018967,1.3747882,-0.8968765,-1.9728075,-2.7562501,50.381252,8.868751,0.09608153,-0.70751756,0.53612334,1002.32007, , , , 
2025-11-24 20:19:18.437,7.467102,-6.439983,4.220939,1.4804647,-0.91336936,-1.7797798,-4.8187504,50.531254,7.8750005,0.11938344,-0.7013252,0.5373579,1002.32104, , , , 
2025-11-24 20:19:18.457,8.125427,-6.116952,3.7851462,1.3876159,-0.79975176,-1.8023812,-6.95625,50.325,7.1250005,0.14232618,-0.6945828,0.53901464,1002.32104, , , , 
2025-11-24 20:19:18.478,8.475079,-6.210272,3.464209,1.1719868,-0.634823,-1.9306592,-8.925,50.4,6.01875,0.16462618,-0.6875025,0.53943753,1002.3208, , , , 
2025-11-24 20:19:18.497,8.381759,-6.4737816,3.3182468,0.8757259,-0.4356868,-2.0663435,-10.81875,50.4,4.6125,0.19088426,-0.678573,0.5369967,1002.3208, , , , 
2025-11-24 20:19:18.517,8.214261,-6.8422766,3.2727833,0.6050442,-0.24693501,-2.1109354,-12.4125,50.193752,3.3375,0.20990835,-0.671545,0.5327808,1002.3203, , , , 
2025-11-24 20:19:18.537,8.058429,-7.0555367,3.3900316,0.37597647,-0.05635066,-2.1146004,-14.231251,49.706253,1.9687501,0.2266393,-0.6646763,0.52698344,1002.3203, , , , 
2025-11-24 20:19:18.557,7.838289,-7.053144,3.5288153,0.18844637,0.09216158,-2.1225414,-15.900001,48.862503,1.40625,0.24120222,-0.6578185,0.52004,1002.3274, , , , 
2025-11-24 20:19:18.577,7.728219,-7.218249,3.7133617,0.098651834,0.16790664,-2.1579707,-17.962502,47.9625,0.84375006,0.25431734,-0.65093887,0.5121078,1002.3274, , , , 
2025-11-24 20:19:18.597,7.6013994,-7.5436726,3.8952162,0.10048437,0.2619771,-2.201341,-19.987501,47.100002,0.61875004,0.26661575,-0.6436972,0.50356853,1002.3345, , , , 
2025-11-24 20:19:18.617,7.3402824,-8.029715,3.761218,0.18050537,0.4476747,-2.212336,-21.825,46.162502,0.6,0.27838278,-0.63551944,0.49507666,1002.3345, , , , 
2025-11-24 20:19:18.637,7.0818577,-8.611469,3.5503507,0.317946,0.6895702,-2.1677442,-23.71875,45.05625,0.26250002,0.29186147,-0.62314665,0.4857718,1002.3357, , , , 
2025-11-24 20:19:18.657,6.7130637,-9.329915,3.1052856,0.5366293,0.8563315,-2.0461855,-25.48125,43.875,0.45000002,0.30154523,-0.61127937,0.48019224,1002.3357, , , , 
2025-11-24 20:19:18.677,6.1241302,-9.480662,2.6240292,0.7864658,0.9168054,-1.7657304,-27.225,42.5625,0.16875,0.31038713,-0.59823316,0.47708392,1002.34204, , , , 
2025-11-24 20:19:18.697,5.8008003,-9.2075815,1.9728823,1.0937984,0.85999656,-1.3521868,-28.987501,41.53125,-0.4875,0.31848392,-0.5849158,0.47695714,1002.34204, , , , 
2025-11-24 20:19:18.717,6.0284176,-9.274879,1.1252248,1.2941563,0.710339,-1.0033929,-30.581251,40.10625,-1.125,0.32628798,-0.57193977,0.47982845,1002.3345, , , , 
2025-11-24 20:19:18.737,6.262914,-9.420842,0.16271193,1.3613495,0.58939123,-0.7059104,-31.725,38.98125,-2.625,0.33401084,-0.56009036,0.48489004,1002.3345, , , , 
2025-11-24 20:19:18.758,6.3538413,-9.600304,-0.8282157,1.2184112,0.48737976,-0.42369893,-32.850002,37.96875,-3.91875,0.34092915,-0.5496977,0.4913217,1002.32983, , , , 
2025-11-24 20:19:18.777,6.3011994,-9.827921,-1.7404794,0.80418044,0.4647784,-0.052303795,-33.46875,36.956253,-5.3625,0.3465631,-0.54021794,0.49976423,1002.32983, , , , 
2025-11-24 20:19:18.797,5.7409797,-8.903693,-2.2384856,0.22204298,0.6278746,0.3716242,-33.84375,36.28125,-6.9187503,0.34604415,-0.53598744,0.5065891,1002.3274, , , , 
2025-11-24 20:19:18.819,5.142475,-7.455138,-1.8601205,-0.4266768,0.75493085,0.8078455,-33.9,35.775,-8.025001,0.33923122,-0.53520757,0.51304907,1002.3274, , , , 
2025-11-24 20:19:18.837,5.2238307,-6.3921266,-0.80189466,-0.8322794,0.76287186,1.1413682,-33.825,35.550003,-8.7375,0.33013532,-0.53704864,0.51732844,1002.32666, , , , 
2025-11-24 20:19:18.858,6.0882382,-5.5543394,0.9625129,-0.87809294,0.6559736,1.4510677,-33.881252,35.550003,-9.28125,0.3103335,-0.54334843,0.52383256,1002.32666, , , , 
2025-11-24 20:19:18.877,6.942775,-5.278866,1.7380866,-0.5347968,0.44828552,1.5066547,-33.1875,36.24375,-9.50625,0.29405755,-0.5490219,0.52966154,1002.3286, , , , 
2025-11-24 20:19:18.897,7.172785,-5.2405806,1.7620147,9.162709E-4,0.15141377,1.3930372,-32.41875,37.068752,-9.50625,0.27840245,-0.5547263,0.53837264,1002.3286, , , , 
2025-11-24 20:19:18.917,6.808777,-5.499305,1.1754742,0.38941512,-0.04902049,1.2836955,-31.2,37.987503,-9.431251,0.27083927,-0.55757517,0.5465757,1002.333, , , , 
2025-11-24 20:19:18.938,6.3275204,-5.8968124,0.47886363,0.57999945,-0.23105298,1.2403253,-29.681252,39.09375,-9.168751,0.2665648,-0.5595461,0.55557084,1002.333, , , , 
2025-11-24 20:19:18.957,5.8223357,-6.1528444,-0.06460621,0.5781669,-0.37032616,1.3050752,-28.593752,39.99375,-9.243751,0.26388606,-0.5617691,0.56478477,1002.3325, , , , 
2025-11-24 20:19:18.978,5.5543394,-6.2365932,-0.29222345,0.441948,-0.42713493,1.4614521,-27.393751,40.631252,-9.13125,0.26095703,-0.5650932,0.573963,1002.3325, , , , 
2025-11-24 20:19:18.997,5.5926247,-6.0523458,-0.3376871,0.2562504,-0.42346987,1.6483713,-26.625002,41.381252,-9.58125,0.2564563,-0.5696064,0.5830083,1002.33496, , , , 
2025-11-24 20:19:19.017,5.8797636,-5.9494543,-0.30179477,0.049173206,-0.47844613,1.7601564,-25.9125,42.0,-9.58125,0.25036147,-0.57534367,0.59160626,1002.33496, , , , 
2025-11-24 20:19:19.037,6.346663,-6.059524,-0.1268196,-0.20249587,-0.590842,1.8371232,-24.993752,42.54375,-9.46875,0.24306998,-0.5826247,0.5990935,1002.3301, , , , 
2025-11-24 20:19:19.057,6.9451675,-6.2030935,0.16510476,-0.39124766,-0.6409315,1.8982079,-24.0375,43.331253,-9.58125,0.23489171,-0.59155697,0.6051308,1002.3301, , , , 
2025-11-24 20:19:19.077,7.481459,-6.468996,0.61764735,-0.61237437,-0.57984674,2.0038843,-22.5375,44.2125,-9.337501,0.2228089,-0.60431725,0.61112225,1002.3352, , , , 
2025-11-24 20:19:19.097,8.029715,-6.7537417,1.1539388,-0.7437065,-0.49432814,2.1437685,-21.09375,45.05625,-9.13125,0.21098098,-0.6151784,0.6151629,1002.3352, , , , 
2025-11-24 20:19:19.118,8.9348,-6.897311,1.852942,-0.7290462,-0.38437563,2.298313,-19.29375,46.03125,-8.587501,0.19725426,-0.6259835,0.6191717,1002.3303, , , , 
2025-11-24 20:19:19.137,9.47827,-6.799206,2.3461626,-0.5555656,-0.31840414,2.3710036,-17.306252,47.04375,-7.9500003,0.18241072,-0.63572675,0.6238183,1002.3303, , , , 
2025-11-24 20:19:19.157,9.97149,-6.6125655,2.6455646,-0.26724568,-0.37521294,2.4003243,-15.50625,48.05625,-7.0875,0.16768517,-0.64371574,0.6295853,1002.3352, , , , 
2025-11-24 20:19:19.177,10.660922,-6.6484575,2.5642085,0.06688777,-0.49554983,2.381388,-13.275001,48.956253,-6.1125,0.1545043,-0.6497688,0.6367199,1002.3352, , , , 
2025-11-24 20:19:19.197,11.527722,-6.9355965,2.1762722,0.39002597,-0.62260604,2.2989237,-11.19375,49.65,-5.7937503,0.1412693,-0.6545409,0.6474879,1002.3396, , , , 
2025-11-24 20:19:19.217,11.944074,-6.8662047,1.7476579,0.56839335,-0.6824691,2.2152376,-9.01875,50.250004,-5.34375,0.13327412,-0.65651184,0.65698373,1002.3396, , , , 
2025-11-24 20:19:19.237,12.243475,-6.3825555,1.4222339,0.6227588,-0.6445966,2.1266646,-6.7500005,50.4,-5.3812504,0.12668468,-0.6573303,0.6666531,1002.3347, , , , 
2025-11-24 20:19:19.257,12.5042925,-5.7433724,1.2161521,0.54884624,-0.48027867,1.9690661,-4.65,50.5875,-5.9437504,0.12062845,-0.6574312,0.6758172,1002.3347, , , , 
2025-11-24 20:19:19.277,13.023834,-5.468198,1.0869397,0.38025242,-0.2701472,1.7674866,-2.71875,50.943752,-6.2250004,0.11449749,-0.6572186,0.6837918,1002.3386, , , , 
2025-11-24 20:19:19.298,13.569697,-5.752944,0.91226363,0.1408003,-0.008093726,1.4822209,-0.84375006,50.812504,-7.0875,0.10808645,-0.6572105,0.68991005,1002.3386, , , , 
2025-11-24 20:19:19.317,13.112369,-5.6668024,1.0247263,-0.1615691,0.27541575,1.1865708,0.975,50.9625,-7.2937503,0.099289306,-0.65802526,0.6943391,1002.3357,37.88745142,127.7402193,147.90521240234375,1.67
2025-11-24 20:19:19.337,12.985549,-5.4634123,1.5394822,-0.2727433,0.30229303,1.0472976,2.625,50.531254,-7.55625,0.093440525,-0.65912473,0.69540936,1002.3357, , , , 
2025-11-24 20:19:19.358,12.9018,-4.9869413,2.2695923,-0.19577655,0.11293039,0.83838785,4.33125,50.081253,-7.7812505,0.084920496,-0.66115135,0.6960436,1002.3342, , , , 
2025-11-24 20:19:19.377,13.459627,-4.922335,2.5737798,-0.042453885,-0.21272756,0.6630747,5.71875,50.100002,-7.2187505,0.08106848,-0.6623184,0.69659245,1002.3342, , , , 
2025-11-24 20:19:19.397,14.247165,-5.221438,2.6359932,0.13774605,-0.50593424,0.29099235,6.6937504,50.006252,-7.1625004,0.08134411,-0.6629806,0.6973023,1002.3384, , , , 
2025-11-24 20:19:19.417,14.220844,-5.262116,2.7388847,0.35276428,-0.735002,-0.19340952,7.6312504,50.062504,-7.18125,0.086291425,-0.6627079,0.69797677,1002.3384, , , , 
2025-11-24 20:19:19.437,13.440485,-5.2477593,2.530709,0.57205844,-0.9433009,-0.77432525,8.26875,50.1375,-7.1250005,0.09661855,-0.6610083,0.6985828,1002.3342, , , , 
2025-11-24 20:19:19.458,12.183655,-5.4634123,1.9968106,0.6374191,-1.0422581,-1.3973894,8.38125,50.11875,-7.70625,0.11686786,-0.65698284,0.6985684,1002.3342, , , , 
2025-11-24 20:19:19.477,11.26182,-6.090631,1.7763717,0.5286883,-1.0624161,-1.8628551,8.231251,50.025,-8.3625,0.13711531,-0.6532004,0.69675803,1002.334, , , , 
2025-11-24 20:19:19.497,10.476675,-6.799206,1.8601205,0.31428093,-1.0917368,-2.1714094,7.3875003,50.30625,-8.925,0.15930754,-0.6497214,0.6926744,1002.334, , , , 
2025-11-24 20:19:19.517,10.074382,-7.096215,2.382055,0.06322269,-1.1198357,-2.372378,5.625,50.475002,-9.712501,0.18233825,-0.6471552,0.68611133,1002.33276, , , , 
2025-11-24 20:19:19.537,9.77498,-7.129714,3.19382,-0.21043688,-1.1344961,-2.6191604,3.6937501,50.550003,-10.425,0.20570377,-0.64533156,0.677206,1002.33276, , , , 
2025-11-24 20:19:19.557,9.693624,-7.093822,4.240082,-0.40529716,-1.0691354,-2.8848789,1.29375,50.756252,-10.96875,0.22959247,-0.64396584,0.6658348,1002.3325, , , , 
2025-11-24 20:19:19.577,9.284451,-7.373782,4.9773703,-0.46699274,-0.7044596,-3.1585386,-1.0875001,50.60625,-11.475,0.25343886,-0.6417558,0.65278035,1002.3325, , , , 
2025-11-24 20:19:19.597,8.242975,-7.699505,5.317151,-0.35765108,-0.097277425,-3.2868164,-3.3000002,50.662502,-11.08125,0.28049657,-0.63531244,0.6365038,1002.32666, , , , 
2025-11-24 20:19:19.617,7.3713894,-7.7162547,5.1400824,-0.13591352,0.38658994,-3.1512084,-6.3375,50.23125,-10.668751,0.29819483,-0.62666655,0.6253976,1002.32666, , , , 
2025-11-24 20:19:19.637,7.1105714,-7.7234335,4.5678983,0.13285927,0.7170583,-2.9062586,-9.4125,49.406254,-10.387501,0.31229615,-0.61534613,0.6169789,1002.3286, , , , 
2025-11-24 20:19:19.657,7.093822,-7.4072814,3.696612,0.39979953,0.8887064,-2.64787,-12.637501,48.675003,-9.7875,0.32391518,-0.60205805,0.6110738,1002.3286, , , , 
2025-11-24 20:19:19.677,7.345068,-7.1225357,2.949453,0.5549547,0.87587863,-2.4835522,-16.21875,47.23125,-10.03125,0.3343128,-0.5875976,0.60687816,1002.3313, , , , 
2025-11-24 20:19:19.698,7.493423,-6.983453,2.271985,0.60809845,0.7848624,-2.416359,-18.956251,46.21875,-10.462501,0.3445983,-0.57279986,0.60326415,1002.3313, , , , 
2025-11-24 20:19:19.717,7.3139615,-6.820741,1.8744774,0.59649235,0.6791858,-2.3980336,-21.300001,45.09375,-10.743751,0.35521704,-0.5581396,0.5992985,1002.3257, , , , 
2025-11-24 20:19:19.738,7.0148587,-6.7561345,1.59691,0.5244124,0.54418856,-2.3473332,-23.38125,43.5,-11.418751,0.36609346,-0.5439999,0.5945361,1002.3257, , , , 
2025-11-24 20:19:19.757,6.5407805,-6.6556363,1.3214363,0.4046863,0.550297,-2.2752533,-25.1625,42.2625,-12.0,0.37926325,-0.52745545,0.5875683,1002.32153, , , , 
2025-11-24 20:19:19.777,6.43759,-7.0579295,1.2664014,0.29412296,0.6040516,-2.2019517,-27.000002,40.85625,-12.88125,0.38836673,-0.51492524,0.58152896,1002.32153, , , , 
2025-11-24 20:19:19.797,6.018846,-7.443174,0.9553344,0.20616095,0.70850646,-2.0278602,-28.687502,39.393753,-13.556251,0.39578617,-0.5028404,0.5755358,1002.3262, , , , 
2025-11-24 20:19:19.817,5.6668024,-7.550851,0.8210373,0.17134266,0.7213343,-1.7412964,-30.4125,38.006252,-14.175,0.40121317,-0.4915631,0.57020736,1002.3262, , , , 
2025-11-24 20:19:19.837,5.3533425,-7.433603,0.65353966,0.16889927,0.66574717,-1.4700803,-31.725,36.393753,-14.85,0.40409,-0.4840069,0.5669525,1002.32886, , , , 
2025-11-24 20:19:19.857,5.1664033,-7.1392856,0.55304116,0.15729317,0.4140781,-0.9447516,-32.5875,34.96875,-15.31875,0.40726748,-0.47404528,0.56317437,1002.32886, , , , 
2025-11-24 20:19:19.877,5.9135623,-7.620542,0.66071814,0.25502872,0.10560022,-0.49333552,-33.15,33.768753,-15.937501,0.40958542,-0.46862936,0.56110495,1002.32275, , , , 
2025-11-24 20:19:19.897,6.009275,-7.4527454,0.3472584,0.37536564,-0.04291202,-0.019318044,-33.487503,32.8875,-16.78125,0.4110578,-0.46684816,0.56156605,1002.32275, , , , 
2025-11-24 20:19:19.917,6.9738817,-7.740183,-0.0023928226,0.4266768,-0.24693501,0.38017607,-33.862503,32.5875,-17.306252,0.41212064,-0.4673444,0.56408495,1002.32104, , , , 
2025-11-24 20:19:19.937,7.5173516,-7.6420774,-0.5554339,0.41201648,-0.34161633,0.69422793,-33.9,32.193752,-17.38125,0.4126898,-0.46989408,0.568052,1002.32104, , , , 
2025-11-24 20:19:19.957,7.699505,-7.1751776,-1.1706885,0.17806198,-0.46989426,0.9165763,-34.18125,32.100002,-17.5125,0.41238603,-0.47430795,0.5726977,1002.3176, , , , 
2025-11-24 20:19:19.977,7.5942206,-6.8303123,-1.3166506,-0.16951011,-0.5780142,1.0424109,-34.21875,32.34375,-17.268751,0.41094646,-0.48122346,0.57647616,1002.3176, , , , 
2025-11-24 20:19:19.997,7.21107,-6.2940207,-0.83060855,-0.5238015,-0.5853444,1.2103938,-33.91875,32.71875,-17.0625,0.40761593,-0.4908442,0.5788498,1002.32153, , , , 
2025-11-24 20:19:20.017,7.093822,-5.750551,-0.12921242,-0.77241635,-0.47844613,1.4773341,-33.65625,33.43125,-16.800001,0.39944968,-0.5058416,0.5809917,1002.32153, , , , 
2025-11-24 20:19:20.037,7.495816,-5.5256257,0.5195416,-0.80051535,-0.37704548,1.6795245,-32.943752,34.3125,-16.368752,0.3924694,-0.51571876,0.58254564,1002.32666, , , , 
2025-11-24 20:19:20.057,7.852646,-5.3147583,0.933799,-0.6343649,-0.29519194,1.7943639,-31.9125,35.175003,-15.6,0.37887332,-0.5318526,0.5864209,1002.32666, , , , 
2025-11-24 20:19:20.077,7.969894,-5.329115,1.0007981,-0.3826958,-0.29580277,1.8041373,-30.975,36.075,-15.01875,0.3680472,-0.5432458,0.59089804,1002.32495, , , , 
2025-11-24 20:19:20.097,7.7473617,-5.425127,0.92662054,-0.12003148,-0.30679804,1.7705408,-30.000002,37.36875,-14.418751,0.35837328,-0.5529648,0.59637225,1002.32495, , , , 
2025-11-24 20:19:20.117,7.4886374,-5.556732,0.67028946,0.06994201,-0.32634515,1.7583238,-28.875002,38.737503,-13.743751,0.3498291,-0.56113493,0.6027151,1002.33154, , , , 
2025-11-24 20:19:20.138,7.309176,-5.6596236,0.27996024,0.13896775,-0.34344888,1.7699299,-27.956251,40.237503,-13.51875,0.34213817,-0.5682406,0.60966855,1002.33154, , , , 
2025-11-24 20:19:20.157,7.285248,-5.6907306,0.05742774,0.08826743,-0.33001024,1.8322364,-26.5125,41.49375,-12.975,0.33268136,-0.5767746,0.6184566,1002.32666, , , , 
2025-11-24 20:19:20.177,7.349854,-5.532804,-0.13399807,-0.05283829,-0.20600824,1.8908777,-25.06875,42.28125,-12.562501,0.3241109,-0.5838035,0.62529176,1002.32666, , , , 
2025-11-24 20:19:20.197,7.4120674,-5.441877,-0.15074782,-0.2562504,-0.06429167,1.8927102,-23.7,43.0875,-12.243751,0.31393746,-0.59114796,0.631515,1002.3237, , , , 
2025-11-24 20:19:20.217,7.433603,-5.465805,-0.050249275,-0.4810422,0.08544226,1.8530052,-22.125,43.7625,-12.056251,0.30219242,-0.5989635,0.6366147,1002.3237, , , , 
2025-11-24 20:19:20.237,7.390532,-5.752944,0.0741775,-0.7290462,0.27480492,1.8145218,-20.71875,44.53125,-11.925,0.28882447,-0.6071989,0.6405195,1002.3262, , , , 
2025-11-24 20:19:20.257,7.242177,-5.966204,0.36400816,-0.9068028,0.3713188,1.793753,-18.900002,45.35625,-11.793751,0.27376938,-0.61589557,0.6432357,1002.3262, , , , 
2025-11-24 20:19:20.277,7.2086773,-6.2700925,0.62482584,-1.017977,0.36582115,1.7998614,-17.15625,46.050003,-11.306251,0.25754797,-0.6250844,0.64484054,1002.3274, , , , 
2025-11-24 20:19:20.297,7.2158556,-6.586244,0.948156,-1.0753967,0.28457847,1.8542268,-15.262501,47.04375,-10.725,0.23661943,-0.637231,0.645623,1002.3274, , , , 
2025-11-24 20:19:20.317,7.390532,-6.792027,1.2687942,-1.0295831,0.16118732,1.9464648,-13.44375,47.8875,-9.9375,0.2197155,-0.6472252,0.6458108,1002.32666,37.88746527,127.74021979,148.5938720703125,1.49
2025-11-24 20:19:20.337,7.5197444,-6.7968125,1.4724833,-0.94162107,0.0413849,2.030151,-11.85,48.61875,-9.13125,0.2072184,-0.6546302,0.6460677,1002.32666, , , , 
2025-11-24 20:19:20.357,7.7066836,-6.658029,1.6519449,-0.6911737,-0.17363334,2.2305088,-10.012501,49.18125,-8.38125,0.18711983,-0.6662656,0.6473977,1002.3208, , , , 
2025-11-24 20:19:20.377,8.3530445,-6.7034926,1.5921243,-0.4963134,-0.2970245,2.3673387,-8.043751,49.66875,-7.2187505,0.1716593,-0.67456937,0.6497403,1002.3208, , , , 
2025-11-24 20:19:20.397,9.363414,-7.0097737,1.3357933,-0.3203894,-0.3605526,2.3960483,-5.8875003,50.04375,-6.39375,0.15692039,-0.6817634,0.6530915,1002.3157, , , , 
2025-11-24 20:19:20.417,10.426426,-7.4192457,1.0342976,-0.19944163,-0.33917293,2.313584,-3.99375,50.60625,-5.5125003,0.14320457,-0.68763477,0.65704477,1002.3157, , , , 
2025-11-24 20:19:20.437,11.089537,-7.6779695,0.68225354,-0.13530266,-0.2506001,2.1804192,-2.025,50.98125,-5.08125,0.1273734,-0.69320846,0.66213846,1002.3218, , , , 
2025-11-24 20:19:20.457,11.688042,-8.024929,0.5315057,-0.17073181,-0.2677038,2.1065068,0.15,51.112503,-5.11875,0.11531525,-0.6969589,0.66572165,1002.3218, , , , 
2025-11-24 20:19:20.478,12.269796,-8.063214,0.33290145,-0.31122667,-0.31351736,2.069245,2.30625,51.000004,-4.9125004,0.10375287,-0.7009407,0.66835463,1002.32275, , , , 
