Time,Accel_X,Accel_Y,Accel_Z,Gyro_X,Gyro_Y,Gyro_Z,Mag_X,Mag_Y,Mag_Z,Orient_X,Orient_Y,Orient_Z,Pressure,Lat,Lng,Alt,Speed
2025-11-24 20:13:29.782,-2.9662027,2.8752756,10.06481,-0.07543964,0.47455198,-0.25510508,1.5375,-37.331253,-34.875,0.13493748,0.11965522,0.027765727,1002.26904,37.88751183,127.7400149,145.392822265625,0.0
2025-11-24 20:13:29.802,-2.9398818,2.4011974,7.3307114,-1.737555,1.0145409,-0.2838149,2.23125,-36.7125,-35.100002,0.11752303,0.13977368,0.024504518,1002.26587, , , , 
2025-11-24 20:13:29.822,-4.35733,3.0140593,8.079964,-2.26296,1.0976162,-0.26243526,3.1875002,-36.45,-35.775,0.099277414,0.1507734,0.025235802,1002.26587, , , , 
2025-11-24 20:13:29.842,-4.2161536,2.951846,8.23101,-2.7565246,1.5447564,-0.46096063,3.9750001,-35.23125,-36.768753,0.07592363,0.163732,0.026805542,1002.2737, , , , 
2025-11-24 20:13:29.862,-3.2536407,1.9534405,8.472686,-3.4015794,1.7536662,-0.91787434,4.65,-34.125,-37.893753,0.04608249,0.17916034,0.027000697,1002.2737, , , , 
2025-11-24 20:13:29.882,-4.211368,1.6040884,9.447163,-3.7876348,1.5191008,-0.7486697,5.9437504,-32.0625,-39.206253,0.010925441,0.19525988,0.024987662,1002.2759, , , , 
2025-11-24 20:13:29.902,-4.100999,0.07178468,9.571589,-4.251268,0.20089239,-0.32290915,7.18125,-29.587502,-40.78125,-0.026987182,0.20473997,0.02564062,1002.2759, , , , 
2025-11-24 20:13:29.922,-3.054737,-1.7021942,8.422437,-4.6575575,0.02611372,-0.1982963,8.587501,-26.85,-42.24375,-0.06858072,0.20388758,0.030829532,1002.2761, , , , 
2025-11-24 20:13:29.942,-1.3094722,-3.2488549,11.070394,-4.1523104,-0.36666107,-0.49028128,9.88125,-23.456251,-44.025,-0.1127006,0.20178252,0.037836216,1002.2761, , , , 
2025-11-24 20:13:29.962,-2.7317061,-3.6029928,11.838789,-2.1859932,0.012064233,-0.6979694,10.25625,-20.15625,-45.862503,-0.15495035,0.19402868,0.041739993,1002.2588, , , , 
2025-11-24 20:13:29.982,-4.692325,-3.461816,11.46521,-0.16523418,0.6999546,-0.24960746,10.5,-16.9125,-47.625,-0.16837706,0.19489245,0.04016169,1002.2588, , , , 
2025-11-24 20:13:30.002,-4.627719,-3.5096726,10.464711,1.6533345,1.1947409,0.0936887,10.556251,-14.325001,-48.937504,-0.16323449,0.2036101,0.037977263,1002.26416, , , , 
2025-11-24 20:13:30.022,-4.725825,-3.4761732,8.85823,2.4376624,0.9919396,0.22441001,11.1,-12.993751,-49.66875,-0.14542209,0.21523795,0.03419908,1002.26416, , , , 
2025-11-24 20:13:30.042,-4.7377887,-3.777968,7.862217,2.507299,0.4519506,0.3459686,12.13125,-12.7875,-49.687504,-0.12196403,0.22409949,0.029985009,1002.2688, , , , 
2025-11-24 20:13:30.062,-4.2329035,-3.8617167,7.146464,1.8946191,0.5331933,0.3441361,12.975,-13.406251,-48.787502,-0.09975561,0.22918484,0.02689527,1002.2688, , , , 
2025-11-24 20:13:30.082,-4.5224347,-2.4394827,7.1919274,0.84999394,1.0799016,0.46569467,14.00625,-15.13125,-47.86875,-0.08195104,0.23915286,0.025052521,1002.27783, , , , 
2025-11-24 20:13:30.102,-5.020441,-1.556232,8.082356,0.2843494,1.4195327,0.70644486,14.56875,-16.743752,-47.11875,-0.075778045,0.25147146,0.02689635,1002.27783, , , , 
2025-11-24 20:13:30.122,-5.2070813,-0.63200426,8.882157,0.38330665,1.6748668,1.0986089,15.225,-17.94375,-46.03125,-0.0713537,0.2667316,0.032390736,1002.2737, , , , 
2025-11-24 20:13:30.142,-5.654838,0.12921242,9.301201,0.96613127,1.2411653,1.8517835,16.181252,-18.993752,-45.54375,-0.062395405,0.2823653,0.041825738,1002.2737, , , , 
2025-11-24 20:13:30.162,-4.9319067,-1.1012967,8.640183,1.2856044,0.15813309,2.1181128,16.85625,-19.66875,-45.05625,-0.046638988,0.2927837,0.056274593,1002.2578, , , , 
2025-11-24 20:13:30.182,-4.4051867,-0.94337034,7.711469,1.0052255,-1.0581402,1.1126583,17.38125,-20.38125,-43.987503,-0.030746162,0.29107723,0.070831254,1002.2578, , , , 
2025-11-24 20:13:30.202,-4.5248275,0.69900334,8.063214,0.79929364,-1.2291774,0.11995513,17.34375,-21.28125,-44.15625,-0.019621005,0.28120953,0.07752182,1002.24756, , , , 
2025-11-24 20:13:30.222,-3.7971103,1.2568301,8.010572,0.49997848,-1.1913049,-0.3094705,16.743752,-22.44375,-43.74375,-0.010653729,0.26765922,0.075205974,1002.24756, , , , 
2025-11-24 20:13:30.242,-2.9853454,0.28983065,6.775277,0.12552911,-1.6573813,-0.42247725,15.8625,-23.25,-43.4625,-0.0074606393,0.2558857,0.07096192,1002.23047, , , , 
2025-11-24 20:13:30.262,-3.7803607,-0.39511484,6.195915,0.10109522,-4.064807,-0.419423,14.681251,-23.775002,-43.800003,-0.006164502,0.23146814,0.06701063,1002.23047, , , , 
2025-11-24 20:13:30.282,-7.153642,0.148355,10.062417,1.083414,-4.147882,0.13095038,13.05,-24.6,-43.55625,0.0017891764,0.19517155,0.06423694,1002.23047, , , , 
2025-11-24 20:13:30.302,-4.4482574,-0.70378894,10.1700945,1.4034979,-3.3879879,0.42171368,10.743751,-25.237501,-43.55625,0.016398191,0.1588286,0.063671164,1002.23047, , , , 
2025-11-24 20:13:30.322,-3.0957143,-0.39750767,9.056833,1.0962417,-2.098413,0.8634326,7.9125004,-26.062502,-43.912502,0.031614468,0.131135,0.06521532,1002.2339, , , , 
2025-11-24 20:13:30.342,-2.1571295,0.2970091,7.6851482,0.39735615,-0.8101362,0.865876,4.93125,-27.16875,-43.575,0.042088132,0.11538847,0.07103715,1002.2339, , , , 
2025-11-24 20:13:30.362,-1.0079765,1.3692927,6.602994,-0.42362258,-0.033749312,0.59458345,2.30625,-27.91875,-43.2,0.044350307,0.10980723,0.07969106,1002.25, , , , 
2025-11-24 20:13:30.382,-0.6128617,1.7715861,7.285248,-0.8249492,-0.14431266,0.3496337,0.13125001,-28.743752,-43.275,0.038784236,0.10862625,0.08533992,1002.25, , , , 
2025-11-24 20:13:30.402,-0.26799613,1.3884354,8.522935,-0.38086328,-0.4729485,0.18959172,-1.5937501,-29.19375,-42.9375,0.03292514,0.105064146,0.08925373,1002.249, , , , 
2025-11-24 20:13:30.422,-0.21774685,1.6064813,9.102298,0.43217444,-1.9127154,0.102851406,-2.9250002,-29.475,-43.18125,0.033785284,0.09621209,0.09130121,1002.249, , , , 
2025-11-24 20:13:30.442,-1.1180464,1.8649062,8.729017,0.369868,-2.615266,0.15538427,-4.125,-29.85,-43.2,0.04072522,0.07226458,0.09152747,1002.2583, , , , 
2025-11-24 20:13:30.462,-1.2568301,1.5514464,6.2676997,-0.581832,-0.8443436,0.6116872,-5.30625,-30.375002,-42.675003,0.042747073,0.05585042,0.09209499,1002.2583, , , , 
2025-11-24 20:13:30.482,-0.54346985,1.3836497,4.970192,-1.9459302,-0.33795124,0.7504259,-6.39375,-30.6,-42.131252,0.03466548,0.048970953,0.097914405,1002.26245, , , , 
2025-11-24 20:13:30.502,1.6064813,0.96490574,3.4929228,-3.451058,0.3328354,0.22013408,-7.1625004,-30.431252,-41.86875,0.012103553,0.044952776,0.105410084,1002.26245, , , , 
2025-11-24 20:13:30.522,1.9606191,-0.2321038,4.6755753,-4.550659,-0.075286925,-0.8787801,-7.70625,-29.56875,-42.28125,-0.035682242,0.043220695,0.10741505,1002.2627, , , , 
2025-11-24 20:13:30.542,0.8979067,-2.0614166,8.867801,-4.121768,-1.8021522,-1.5036769,-7.9500003,-27.337502,-43.85625,-0.078260064,0.029422399,0.099587195,1002.2627, , , , 
2025-11-24 20:13:30.562,0.31136605,-3.1028929,12.384652,-2.7259822,-2.7765298,-1.6661623,-8.118751,-24.393751,-45.862503,-0.110381,0.0024218862,0.087188624,1002.26953, , , , 
2025-11-24 20:13:30.582,0.023928227,-3.2488549,13.634303,-1.5066547,-3.056298,-1.4865732,-9.375,-21.112501,-47.925003,-0.12846942,-0.029279664,0.07463199,1002.26953, , , , 
2025-11-24 20:13:30.601,1.3310076,-3.3110683,12.932907,-1.44557,-2.883428,-1.6099643,-11.0625,-18.225,-49.162502,-0.13928342,-0.06068991,0.063688464,1002.25684, , , , 
2025-11-24 20:13:30.622,2.7149563,-3.6197424,12.241082,-1.6746378,-2.5644896,-1.8756828,-13.51875,-16.10625,-49.0125,-0.15074141,-0.090552725,0.051167265,1002.25684, , , , 
2025-11-24 20:13:30.642,2.2671995,-3.9119658,12.990335,-1.641652,-2.3042686,-1.8701853,-15.95625,-14.925,-48.35625,-0.16693833,-0.12461276,0.031659737,1002.27, , , , 
2025-11-24 20:13:30.662,1.1300105,-2.32702,13.964812,-0.9892671,-1.5602566,-1.1225082,-17.98125,-14.137501,-47.268753,-0.17727883,-0.1455013,0.016774647,1002.27, , , , 
2025-11-24 20:13:30.682,0.622433,-1.3453646,13.509876,-0.11942064,-0.86999923,0.15171918,-19.66875,-13.406251,-46.162502,-0.18155204,-0.15731618,0.009880018,1002.2849, , , , 
2025-11-24 20:13:30.702,-0.06460621,-2.2097716,12.588041,0.51463884,-0.113159455,1.5353646,-20.90625,-12.8625,-45.412502,-0.1806158,-0.15945429,0.015576038,1002.2849, , , , 
2025-11-24 20:13:30.722,0.6774679,-3.5264223,11.702398,0.9160418,0.98583114,2.5909088,-22.10625,-12.39375,-44.643753,-0.17681606,-0.15012829,0.03293616,1002.28784, , , , 
2025-11-24 20:13:30.742,1.7931215,-4.814658,10.426426,0.99361944,0.64986515,2.7637784,-22.706251,-12.093751,-44.04375,-0.1722322,-0.13597651,0.05705357,1002.28784, , , , 
2025-11-24 20:13:30.762,2.7939196,-5.195117,9.70798,1.2972105,0.30229303,2.3001454,-23.15625,-11.53125,-44.11875,-0.16596702,-0.1255534,0.08272729,1002.28174, , , , 
2025-11-24 20:13:30.782,3.976572,-5.5926247,8.99462,1.4487007,-0.44301698,1.2946907,-23.19375,-11.15625,-44.175003,-0.15592831,-0.12051303,0.104488626,1002.28174,37.88751183,127.7400149,145.392822265625,0.0
2025-11-24 20:13:30.802,3.9981074,-6.658029,10.869098,1.7626761,1.002324,0.5377747,-23.15625,-11.00625,-44.41875,-0.13957863,-0.11764326,0.12201208,1002.2771, , , , 
2025-11-24 20:13:30.822,3.7516468,-5.616553,10.852348,1.9086686,1.370054,-0.2294495,-23.456251,-11.137501,-44.53125,-0.12471269,-0.10583886,0.12609862,1002.2771, , , , 
2025-11-24 20:13:30.842,2.5570302,-3.2799616,11.37189,1.914777,1.090286,-0.3986542,-23.081251,-12.13125,-44.68125,-0.108225584,-0.091618575,0.12384682,1002.27, , , , 
2025-11-24 20:13:30.862,2.4155545,-2.8633113,11.24507,2.0968096,0.78180814,-0.6943043,-22.25625,-13.500001,-45.037502,-0.09032202,-0.080780484,0.120211124,1002.27, , , , 
2025-11-24 20:13:30.882,2.2648067,-1.7333009,10.546066,2.0558827,0.73171866,-1.0027821,-21.075,-15.187501,-45.037502,-0.07061266,-0.07232723,0.114312194,1002.2698, , , , 
2025-11-24 20:13:30.902,2.0398812,-1.0797613,9.976275,1.9379892,0.82456744,-1.5036769,-19.518751,-17.19375,-45.15,-0.0514402,-0.06372378,0.10528332,1002.2698, , , , 
2025-11-24 20:13:30.922,1.6734804,-0.5099703,9.595518,1.8451405,0.83739525,-2.1139896,-18.112501,-18.9375,-44.86875,-0.02817417,-0.052245423,0.08680759,1002.26465, , , , 
2025-11-24 20:13:30.941,1.852942,-0.50039905,8.867801,1.6179054,0.19905984,-2.2721992,-16.6875,-20.90625,-43.912502,-0.010765892,-0.045982197,0.066771865,1002.26465, , , , 
2025-11-24 20:13:30.962,1.2616158,-0.78035927,8.173583,1.4517548,-0.16874656,-2.1310933,-15.281251,-22.706251,-43.18125,0.0048955902,-0.045523643,0.045820512,1002.2656, , , , 
2025-11-24 20:13:30.982,0.11724831,-1.0103694,8.4248295,1.2984322,-0.09483404,-1.595304,-13.687501,-24.281252,-42.0,0.01889227,-0.04644202,0.026438294,1002.2656, , , , 
2025-11-24 20:13:31.002,-1.1563315,-0.25603202,8.941978,1.2898804,0.0640626,-0.51715857,-12.3,-25.931252,-40.706253,0.031601258,-0.046561703,0.012419631,1002.27075, , , , 
2025-11-24 20:13:31.022,-0.58654064,-0.25842485,8.7673025,0.9905652,0.7243885,0.2140256,-11.325001,-27.056252,-40.0125,0.042724002,-0.04284218,0.008523447,1002.27075, , , , 
2025-11-24 20:13:31.042,0.41665024,0.18424734,8.930014,0.75775605,0.72377765,0.2476222,-10.51875,-28.1625,-39.3375,0.051082607,-0.03540224,0.011222188,1002.27954, , , , 
2025-11-24 20:13:31.062,0.34486556,0.31136605,9.21476,0.67834586,0.642535,0.2140256,-9.900001,-29.306252,-38.68125,0.05764612,-0.028800929,0.014214809,1002.27954, , , , 
2025-11-24 20:13:31.082,-0.11246266,0.39511484,9.296415,0.7559235,0.6474217,0.32336727,-9.46875,-29.8875,-38.362503,0.063984156,-0.022469383,0.016952474,1002.2854, , , , 
2025-11-24 20:13:31.102,-0.35443684,0.70378894,9.322736,0.8787801,0.46661094,0.35268793,-9.150001,-30.6,-37.912502,0.07128112,-0.016679043,0.020629447,1002.2854, , , , 
2025-11-24 20:13:31.122,-0.3472584,1.0845468,9.53809,0.9722398,0.32184014,0.40827504,-8.90625,-30.956251,-37.537502,0.08189738,-0.011828979,0.025531644,1002.28125, , , , 
2025-11-24 20:13:31.142,-0.38554356,1.2807583,9.447163,1.0418763,0.40308285,0.5231143,-8.45625,-31.44375,-37.162502,0.09132089,-0.008486677,0.030005064,1002.28125, , , , 
2025-11-24 20:13:31.162,-0.4645067,1.4557334,9.0544405,0.9649096,0.57106584,0.68995196,-8.418751,-32.30625,-36.43125,0.10087691,-0.0041698916,0.035713803,1002.2825, , , , 
2025-11-24 20:13:31.182,-0.40947178,1.718944,8.784052,0.7589777,0.72377765,0.84205294,-8.15625,-32.71875,-35.831253,0.10924311,0.0014239702,0.042994153,1002.2825, , , , 
2025-11-24 20:13:31.202,-0.15553348,2.085345,8.5779705,0.5781669,0.91008604,0.8768712,-7.74375,-33.43125,-35.15625,0.117142215,0.0100957425,0.053962916,1002.27295, , , , 
2025-11-24 20:13:31.222,0.0047856453,2.4011974,8.743374,0.4871507,1.0511918,0.83960956,-7.8375,-33.80625,-34.55625,0.12175397,0.018780932,0.06327229,1002.27295, , , , 
2025-11-24 20:13:31.242,0.02632105,2.5666013,9.200403,0.5635066,1.0237037,0.71316415,-7.6125,-33.9,-34.10625,0.1261245,0.0281581,0.0722155,1002.2683, , , , 
2025-11-24 20:13:31.262,-0.17706887,2.5450659,9.289237,0.7241594,0.8911498,0.596416,-7.5937505,-34.443752,-34.143753,0.13163634,0.037037715,0.079929285,1002.2683, , , , 
2025-11-24 20:13:31.282,-0.3185445,2.6671,8.932407,0.8554916,0.5728984,0.37712184,-7.5937505,-34.725002,-34.0875,0.1387005,0.044431962,0.086180866,1002.27124, , , , 
2025-11-24 20:13:31.302,-0.53629136,2.9422746,8.520542,0.7907418,0.14897038,0.16760121,-7.5000005,-35.175003,-34.237503,0.1464703,0.049002755,0.09011163,1002.27124, , , , 
2025-11-24 20:13:31.322,-0.51236314,3.1004999,8.393723,0.6447493,-0.24326992,0.023441264,-7.1625004,-35.643753,-34.518753,0.15362321,0.049782697,0.09156128,1002.2649, , , , 
2025-11-24 20:13:31.342,-0.41904306,3.2129626,8.633005,0.49997848,-0.49921492,-0.03825431,-7.2937503,-36.075,-34.0125,0.1609724,0.04621429,0.09088748,1002.2649, , , , 
2025-11-24 20:13:31.362,-0.14356937,3.3661032,9.030513,0.45783,-0.567019,-0.035200074,-7.5000005,-36.80625,-33.84375,0.16598088,0.041569494,0.089564994,1002.2661, , , , 
2025-11-24 20:13:31.382,0.16510476,3.5120654,9.320343,0.4987568,-0.46745086,-0.06757498,-7.7625003,-37.21875,-33.24375,0.170875,0.03692157,0.08805052,1002.2661, , , , 
2025-11-24 20:13:31.402,0.39032918,3.6293137,9.406485,0.5439595,-0.3281777,-0.025426516,-8.400001,-37.95,-32.4,0.17619243,0.033444036,0.08655273,1002.27026, , , , 
2025-11-24 20:13:31.422,0.43579283,3.7660038,9.186047,0.4883724,-0.13820419,0.017943637,-8.606251,-38.41875,-31.893751,0.18147072,0.031216301,0.08569201,1002.27026, , , , 
2025-11-24 20:13:31.441,0.3376871,3.8952162,8.958728,0.37964156,0.106211066,0.023441264,-8.868751,-38.568752,-31.181252,0.18592903,0.030688265,0.08543755,1002.2634, , , , 
2025-11-24 20:13:31.462,0.15792629,3.9574296,8.738588,0.20066333,0.3780381,0.03077143,-9.1125,-38.850002,-31.031252,0.18894915,0.032581996,0.08569073,1002.2634, , , , 
2025-11-24 20:13:31.482,-0.0526421,3.964608,8.779266,0.029015245,0.5380801,0.03321482,-9.262501,-38.9625,-31.050001,0.19003709,0.03662145,0.08655995,1002.2593, , , , 
2025-11-24 20:13:31.502,-0.29222345,3.8736808,8.9826565,-0.058946762,0.55884886,0.03565821,-9.28125,-39.05625,-31.125002,0.18939784,0.04298536,0.088210896,1002.2593, , , , 
2025-11-24 20:13:31.522,-0.4884349,3.8880377,9.176475,-0.0387888,0.4708869,0.016721943,-9.375,-39.24375,-31.44375,0.18846415,0.04783838,0.08957385,1002.25757, , , , 
2025-11-24 20:13:31.542,-0.71336025,3.828217,9.250652,0.030236939,0.32733777,0.0051158457,-9.225,-39.2625,-31.331251,0.18804158,0.05164879,0.09058752,1002.25757, , , , 
2025-11-24 20:13:31.562,-0.8787641,3.7564325,9.250652,0.11575556,0.18256697,0.033825666,-9.168751,-39.300003,-31.518751,0.1884136,0.054264065,0.09126817,1002.25757, , , , 
2025-11-24 20:13:31.582,-0.9457632,3.7731822,9.083155,0.1719535,0.096437514,0.06925481,-8.8125,-39.24375,-31.406252,0.18955952,0.055757623,0.09192177,1002.25757, , , , 
2025-11-24 20:13:31.602,-0.8138588,3.818646,8.800801,0.16217995,0.047493376,0.07963921,-8.34375,-39.393753,-30.993752,0.19117929,0.056595735,0.09268083,1002.2617, , , , 
2025-11-24 20:13:31.622,-0.74207413,3.964608,8.479864,0.05650337,0.06894939,0.060702946,-8.26875,-39.54375,-31.087502,0.19274698,0.0571307,0.09359778,1002.2617, , , , 
2025-11-24 20:13:31.642,-0.7923234,4.045964,8.190332,-0.1395786,0.15630054,0.01977618,-7.8375,-39.6375,-30.656252,0.19256644,0.058015637,0.09417305,1002.2688, , , , 
2025-11-24 20:13:31.662,-0.9409775,4.0244284,8.058429,-0.3655921,0.2900761,0.015500249,-7.9500003,-39.768753,-30.281252,0.190293,0.05981935,0.0947043,1002.2688, , , , 
2025-11-24 20:13:31.682,-1.1060823,3.9047875,8.0345,-0.6038225,0.4660001,0.046042614,-8.231251,-39.9,-30.281252,0.18581893,0.06277424,0.095629625,1002.2656, , , , 
2025-11-24 20:13:31.702,-1.0534402,3.9550366,7.945966,-0.85488075,0.534415,0.019165333,-7.9687505,-39.73125,-30.16875,0.17940637,0.06694622,0.09717508,1002.2656, , , , 
2025-11-24 20:13:31.722,-1.0271192,4.182355,8.317152,-1.0564604,0.50020754,-0.054747187,-7.9125004,-39.54375,-30.675001,0.17159922,0.07142119,0.09875073,1002.2634, , , , 
2025-11-24 20:13:31.742,-0.96490574,3.9000018,8.879765,-1.061958,0.41224554,-0.10605835,-7.7812505,-39.1875,-31.406252,0.16267581,0.07522324,0.099836476,1002.2634, , , , 
2025-11-24 20:13:31.762,-1.0342976,3.7277186,9.339486,-0.9239065,0.22776967,-0.15003936,-7.275,-38.568752,-32.1375,0.153788,0.07767662,0.10036992,1002.2676, , , , 
2025-11-24 20:13:31.781,-0.98644114,3.777968,9.502198,-0.7864658,-0.059404895,-0.26732203,-6.9,-38.325,-32.831253,0.14464074,0.078131616,0.09986663,1002.2676,37.88751183,127.7400149,145.392822265625,0.0
2025-11-24 20:13:31.801,-1.1084751,3.670291,9.696016,-0.7033906,-0.27625567,-0.42125553,-6.3187504,-37.74375,-33.2625,0.13880903,0.0761291,0.09766018,1002.26416, , , , 
2025-11-24 20:13:31.822,-1.4461622,3.2727833,9.734302,-0.70155805,-0.43507597,-0.45057622,-5.7000003,-37.350002,-33.975002,0.13333805,0.07284322,0.09379732,1002.26416, , , , 
2025-11-24 20:13:31.842,-1.8361923,3.1627133,9.976275,-0.76875126,-0.5010475,-0.38888064,-5.4375,-36.675003,-34.21875,0.12728381,0.06905034,0.08947286,1002.26465, , , , 
2025-11-24 20:13:31.862,-1.6902301,2.652743,10.280165,-0.7846333,-0.48821968,-0.31802234,-5.4750004,-36.075,-34.78125,0.12012676,0.06416189,0.08572659,1002.26465, , , , 
2025-11-24 20:13:31.882,-1.4174483,2.0685952,10.483853,-0.68201095,-0.25365433,-0.33940202,-5.53125,-35.90625,-35.5125,0.11313661,0.05986363,0.08255972,1002.2649, , , , 
2025-11-24 20:13:31.902,-1.759622,2.3748765,10.150951,-0.6728483,0.02611372,-0.17997088,-5.8500004,-35.34375,-35.90625,0.104813084,0.05818695,0.078738995,1002.2649, , , , 
2025-11-24 20:13:31.922,-1.7404794,2.2408783,10.351949,-0.53357506,0.14835952,0.08269345,-5.5687504,-34.912502,-36.45,0.09881286,0.058747277,0.07802122,1002.2683, , , , 
2025-11-24 20:13:31.942,-1.7835501,2.0518453,10.605887,-0.23853585,0.054212693,0.12545276,-5.625,-34.36875,-36.693752,0.09479013,0.05965032,0.07931041,1002.2683, , , , 
2025-11-24 20:13:31.961,-1.9486549,2.0087745,10.579566,0.1487413,-0.18585028,0.21097137,-5.4187503,-33.787502,-36.956253,0.09419021,0.059173834,0.08082766,1002.2644, , , , 
2025-11-24 20:13:31.981,-1.6567305,1.8864416,10.071989,0.46210596,-0.20845163,0.27511033,-5.08125,-33.412502,-36.975002,0.09746684,0.057016622,0.08272742,1002.2644, , , , 
2025-11-24 20:13:32.002,-1.4964114,1.8361923,9.763016,0.4718795,-0.023364907,0.4052208,-5.3625,-33.35625,-37.237503,0.102143906,0.055752642,0.08496544,1002.2627, , , , 
2025-11-24 20:13:32.021,-1.3908281,1.9704895,9.526126,0.48226392,0.2619771,0.5561001,-5.2875004,-33.28125,-37.443752,0.106754296,0.056480356,0.088616796,1002.2627, , , , 
2025-11-24 20:13:32.042,-1.2472588,2.3054845,9.140582,0.55800897,0.39697435,0.6171848,-5.49375,-33.28125,-37.0125,0.11286418,0.060258348,0.09535089,1002.2656, , , , 
2025-11-24 20:13:32.061,-1.1132607,2.6694927,8.644969,0.5909947,0.38658994,0.6263475,-5.8875003,-33.412502,-36.75,0.11841119,0.063977554,0.101363845,1002.2656, , , , 
2025-11-24 20:13:32.082,-0.87158567,2.9877381,8.582756,0.5903839,0.26075542,0.5976377,-6.01875,-33.581253,-36.2625,0.12414938,0.06715725,0.10738686,1002.26196, , , , 
2025-11-24 20:13:32.102,-0.45732823,3.4426737,8.494222,0.6203154,0.10376768,0.46264043,-6.0750003,-33.65625,-35.775,0.13017108,0.068993144,0.11280342,1002.26196, , , , 
2025-11-24 20:13:32.122,0.14596218,3.9071803,8.192725,0.61237437,0.021226943,0.22196662,-6.15,-33.881252,-35.41875,0.13660632,0.06965006,0.1165315,1002.2583, , , , 
2025-11-24 20:13:32.142,0.3376871,3.6029928,8.065607,0.43095273,0.026724568,-0.027869906,-6.4500003,-34.143753,-34.612503,0.14356445,0.0703924,0.118302226,1002.2583, , , , 
2025-11-24 20:13:32.162,0.3807579,3.5383866,8.894122,0.34848836,-0.23044212,-0.3485647,-6.8625,-34.443752,-34.068752,0.14643054,0.070399284,0.11778732,1002.25415, , , , 
2025-11-24 20:13:32.182,0.4645067,3.275176,9.159725,0.4278985,-0.34039465,-0.6778114,-6.8625,-34.85625,-33.65625,0.15110342,0.06792169,0.11225284,1002.25415, , , , 
2025-11-24 20:13:32.202,0.80189466,2.9183464,8.542078,0.29412296,-0.19440214,-0.7767686,-6.7875004,-35.11875,-33.28125,0.15464406,0.06665641,0.104899175,1002.2637, , , , 
2025-11-24 20:13:32.222,-0.6008976,2.693421,8.103892,0.011300675,0.05971032,-0.82197136,-6.4687505,-35.325,-33.393753,0.15580195,0.067071535,0.097018614,1002.2637, , , , 
2025-11-24 20:13:32.242,-0.6511469,2.7125635,8.443972,0.017409148,-0.26037365,-0.7608866,-6.01875,-35.34375,-33.3375,0.155047,0.068361685,0.089430265,1002.2678, , , , 
2025-11-24 20:13:32.262,-0.023928227,2.8130622,7.852646,0.12308572,-0.810747,-0.659486,-5.83125,-35.287502,-33.09375,0.15556529,0.06507783,0.082078345,1002.2678, , , , 
2025-11-24 20:13:32.282,0.06460621,3.2775688,7.089036,-0.114533864,-0.946966,-0.5263213,-5.55,-35.30625,-33.075,0.1565831,0.057562217,0.074742705,1002.2705, , , , 
2025-11-24 20:13:32.303,0.60329044,3.382853,8.029715,-0.33443886,-1.0776873,-0.39315656,-5.4,-35.41875,-33.018753,0.15472184,0.046403613,0.06721372,1002.2705, , , , 
2025-11-24 20:13:32.322,1.1395818,3.2799616,8.977871,-0.2287623,-1.1338853,-0.36689013,-5.25,-35.381252,-33.075,0.15262656,0.035343397,0.06210146,1002.26636, , , , 
2025-11-24 20:13:32.342,1.5658033,3.2847474,9.432806,-0.065055236,-1.090515,-0.34306708,-5.55,-35.53125,-33.131252,0.15164223,0.0255054,0.05720263,1002.26636, , , , 
2025-11-24 20:13:32.362,1.5681962,3.3732817,9.104691,-0.072996244,-1.4435848,-0.42492062,-6.05625,-35.68125,-33.112503,0.15191355,0.013819263,0.052274797,1002.2639, , , , 
2025-11-24 20:13:32.382,0.73489565,2.2671995,10.002597,-0.22204298,-1.5504831,-0.36689013,-6.5625005,-35.60625,-33.131252,0.15147682,-6.501854E-4,0.04617962,1002.2639, , , , 
2025-11-24 20:13:32.402,1.704587,1.8050855,11.106286,-0.08826743,-1.2597197,0.038712446,-7.4437504,-35.737503,-33.09375,0.14975752,-0.013232311,0.040918257,1002.27124, , , , 
2025-11-24 20:13:32.422,2.312663,2.2241287,11.410174,0.3319955,-1.170536,-0.1738624,-8.137501,-35.9625,-32.90625,0.15015586,-0.02543691,0.039218195,1002.27124, , , , 
2025-11-24 20:13:32.442,2.734099,3.3182468,10.014561,0.73759806,-1.3941061,-0.5263213,-8.981251,-36.018753,-32.850002,0.15654656,-0.039900664,0.03439615,1002.26953, , , , 
2025-11-24 20:13:32.462,2.9159534,3.3876386,7.8239317,0.959412,-1.4961176,-0.72667915,-9.975,-36.600002,-32.41875,0.16548392,-0.052734103,0.02713068,1002.26953, , , , 
2025-11-24 20:13:32.482,2.449054,3.165106,5.7840505,0.93864316,-1.4246485,-0.6784222,-10.63125,-37.256252,-31.66875,0.17556162,-0.06592709,0.018287605,1002.2627, , , , 
2025-11-24 20:13:32.502,2.1499512,5.9039907,3.5168512,0.5751127,-1.4380871,-1.0033929,-11.325001,-37.7625,-31.06875,0.1843191,-0.07808455,0.009805635,1002.2627, , , , 
2025-11-24 20:13:32.522,-1.1874382,6.5958157,2.8082764,0.4694361,-1.8302511,-1.2654464,-11.606251,-38.475002,-29.737501,0.191416,-0.090459086,-0.0021352144,1002.2556, , , , 
2025-11-24 20:13:32.542,-2.774777,6.0308104,2.489732,0.60199,-2.4533153,-0.70346695,-11.887501,-38.925003,-28.575,0.19824433,-0.10682311,-0.016593123,1002.2556, , , , 
2025-11-24 20:13:32.562,-0.37597227,2.8465617,2.3461626,0.8487723,-3.407535,-0.037032615,-12.243751,-39.75,-27.056252,0.20546721,-0.13099885,-0.026724879,1002.2488, , , , 
2025-11-24 20:13:32.582,2.14038,2.7388847,2.0733807,1.1585482,-4.539435,0.29648998,-12.900001,-40.612503,-25.44375,0.21557613,-0.1765383,-0.03348447,1002.2488, , , , 
2025-11-24 20:13:32.602,3.8330028,2.6838498,1.7883358,1.2116919,-5.3165092,0.3251998,-14.3625,-41.1375,-23.550001,0.22257368,-0.21076824,-0.036816504,1002.25244, , , , 
2025-11-24 20:13:32.622,5.4442697,1.5658033,2.0231316,0.41384903,-4.370841,0.5420506,-16.25625,-41.925003,-21.056252,0.22998534,-0.26917347,-0.0432482,1002.25244, , , , 
2025-11-24 20:13:32.642,6.0403814,2.3174486,4.2687955,0.3594836,-4.214464,0.6092438,-18.6375,-42.1875,-18.31875,0.22929578,-0.30998072,-0.046518806,1002.25146, , , , 
2025-11-24 20:13:32.662,6.626922,1.7835501,4.9342995,0.6300889,-4.2816577,0.6251258,-20.737501,-42.09375,-15.243751,0.22887912,-0.34948477,-0.04915624,1002.25146, , , , 
2025-11-24 20:13:32.682,6.3275204,1.474876,3.5120654,0.98567843,-4.008609,0.86526513,-22.556252,-42.112503,-12.056251,0.23064168,-0.38837788,-0.050271027,1002.2661, , , , 
2025-11-24 20:13:32.702,6.1624155,0.80907315,0.13878371,0.4627168,-3.3592782,1.4089192,-23.94375,-41.550003,-9.225,0.23166469,-0.42464584,-0.047084108,1002.2661, , , , 
2025-11-24 20:13:32.722,7.2756763,0.87637126,0.8955139,-0.59771407,-2.8449447,1.8878235,-25.06875,-40.818752,-6.5062504,0.22476976,-0.45523775,-0.039687786,1002.2622, , , , 
2025-11-24 20:13:32.742,8.9108715,0.040677983,1.8170497,-1.0198095,-2.7734756,2.1956904,-26.362501,-39.75,-4.125,0.2046575,-0.48969954,-0.029683081,1002.2622, , , , 
2025-11-24 20:13:32.762,9.995419,-0.69900334,3.2105699,-1.3734901,-2.9573407,2.5029466,-28.275002,-38.568752,-2.6625001,0.18253925,-0.5175487,-0.020833531,1002.2627, , , , 
2025-11-24 20:13:32.782,10.629815,-1.338186,4.601398,-1.3753226,-2.8339496,2.7723303,-30.225,-37.256252,-1.6125001,0.15647435,-0.54539263,-0.011412045,1002.2627,37.88751183,127.7400149,145.392822265625,0.0
2025-11-24 20:13:32.801,11.637792,-2.0470598,4.6301117,-1.1053281,-2.5357797,3.0185018,-32.268753,-35.68125,-0.99375004,0.12929173,-0.5706464,6.3444715E-4,1002.27637, , , , 
2025-11-24 20:13:32.821,12.466008,-2.7915268,3.653541,-0.7742489,-2.466754,3.0887492,-34.3125,-34.18125,-0.3375,0.10311432,-0.59362394,0.015868329,1002.27637, , , , 
2025-11-24 20:13:32.841,12.377473,-3.4259238,2.2528424,-0.5793886,-2.5296712,3.193815,-36.24375,-31.893751,0.5625,0.078959286,-0.6156232,0.0335538,1002.282, , , , 
2025-11-24 20:13:32.862,13.3352,-3.9717865,1.3836497,-0.6887303,-2.4881337,3.342938,-38.2125,-29.812502,1.8937501,0.0490842,-0.64228195,0.058240473,1002.282, , , , 
2025-11-24 20:13:32.882,13.098012,-4.4458647,1.6304095,-1.0381349,-2.0562646,3.4199047,-39.80625,-27.375002,3.2625,0.023077756,-0.6612352,0.0779162,1002.2844, , , , 
2025-11-24 20:13:32.902,12.705589,-5.1664033,2.1619153,-1.2568183,-1.3727266,3.4901521,-41.643753,-24.750002,4.8375,0.0014758911,-0.6719837,0.09163952,1002.2844, , , , 
2025-11-24 20:13:32.922,11.800504,-6.799206,2.2911277,-1.5213151,-0.5132644,3.526803,-42.80625,-22.1625,5.8500004,-0.038013004,-0.68153024,0.11299619,1002.29395, , , , 
2025-11-24 20:13:32.941,10.572388,-7.9100733,2.9183464,-1.5292561,-0.18340689,3.6275928,-44.1375,-19.06875,6.5437503,-0.0723487,-0.6834294,0.1286074,1002.29395, , , , 
2025-11-24 20:13:32.962,9.993026,-9.092726,3.1459637,-1.2391037,-0.28664008,3.898809,-45.675003,-15.918751,6.8437505,-0.107634336,-0.68272614,0.1454012,1002.2925, , , , 
2025-11-24 20:13:32.982,10.320843,-9.712767,2.9422746,-0.9312366,-0.6281037,4.190183,-46.875,-12.825001,6.7500005,-0.14247595,-0.6814407,0.16562265,1002.2925, , , , 
2025-11-24 20:13:33.002,10.821241,-9.796515,2.2935205,-0.72538114,-1.0764656,4.554859,-48.018753,-9.4875,6.99375,-0.1846561,-0.68045187,0.1965842,1002.302, , , , 
2025-11-24 20:13:33.022,11.905788,-9.116654,2.2863421,-0.7473716,-1.138772,4.6562595,-48.581253,-5.7000003,7.3125005,-0.21773188,-0.67981035,0.2242723,1002.302, , , , 
2025-11-24 20:13:33.042,12.865909,-8.429615,3.4809587,-0.5433486,-0.9860602,4.6916885,-48.862503,-1.8937501,8.0625,-0.24997668,-0.67698497,0.25175348,1002.30615, , , , 
2025-11-24 20:13:33.062,13.976776,-7.2972116,3.2847474,-0.43095273,-0.6445966,4.4045906,-48.600002,2.5875,9.0,-0.27970332,-0.6713705,0.27862474,1002.30615, , , , 
2025-11-24 20:13:33.081,14.517853,-6.533602,2.815455,-0.5042544,-0.27992076,3.9959338,-48.3375,7.05,9.806251,-0.30647054,-0.66356665,0.30211756,1002.3147, , , , 
2025-11-24 20:13:33.102,15.073287,-5.4466624,2.5259235,-0.973996,0.42324078,3.471216,-47.550003,10.950001,10.63125,-0.33197823,-0.65454555,0.3201513,1002.3147, , , , 
2025-11-24 20:13:33.122,14.855241,-4.781159,2.8250263,-1.453511,1.1244935,2.8102028,-46.6875,15.13125,10.8,-0.35797015,-0.6444458,0.32955146,1002.3196, , , , 
2025-11-24 20:13:33.142,14.273486,-4.4913282,3.4570305,-1.7088453,1.6211122,2.2048533,-46.10625,16.650002,10.931251,-0.38410705,-0.6335874,0.329503,1002.3196, , , , 
2025-11-24 20:13:33.162,12.868301,-4.4602213,4.2855453,-1.6147747,2.106736,1.4693931,-44.568752,20.6625,10.5375,-0.40870792,-0.6220141,0.3221518,1002.32104, , , , 
2025-11-24 20:13:33.182,11.276176,-4.409972,4.4315076,-1.0228637,2.445756,0.9025268,-44.175003,22.575,10.03125,-0.43411106,-0.6053223,0.30773288,1002.32104, , , , 
2025-11-24 20:13:33.202,10.610673,-4.857729,3.411567,-0.36437038,2.3034286,0.57870144,-43.706253,23.456251,8.868751,-0.44864264,-0.58997875,0.29609045,1002.3262, , , , 
2025-11-24 20:13:33.222,10.191629,-5.3700924,2.0279171,0.17134266,1.7084634,0.23051849,-43.78125,24.337502,7.6312504,-0.4574479,-0.5756043,0.28691566,1002.3262, , , , 
2025-11-24 20:13:33.242,9.767801,-5.8677993,0.99601245,0.44927815,1.0334772,-0.110945135,-43.575,24.581251,6.01875,-0.46047947,-0.56489664,0.28040883,1002.324, , , , 
2025-11-24 20:13:33.262,9.559626,-6.5647087,0.33290145,0.5158605,0.2796917,-0.4078169,-43.331253,24.937502,4.2375,-0.4586141,-0.5593299,0.27617896,1002.324, , , , 
2025-11-24 20:13:33.282,9.786943,-7.443174,0.009571291,0.35459682,-0.42591324,-0.5892385,-43.5,24.975,3.2250001,-0.45322776,-0.5595687,0.27382517,1002.3264, , , , 
2025-11-24 20:13:33.302,10.186844,-7.6851482,0.086141616,0.010689827,-0.6824691,-0.62161344,-43.443752,24.7875,2.4562502,-0.44494805,-0.56632334,0.2722546,1002.3264, , , , 
2025-11-24 20:13:33.321,10.900205,-7.089036,1.1706885,-0.26846737,-0.87061006,-0.7541673,-43.6875,24.50625,2.25,-0.4392999,-0.57458836,0.26983327,1002.3264, , , , 
2025-11-24 20:13:33.341,12.351152,-7.1751776,2.4035904,-0.25136364,-1.0294304,-1.1762627,-43.8375,23.98125,2.60625,-0.43258235,-0.5851606,0.26550272,1002.3264, , , , 
2025-11-24 20:13:33.362,12.420544,-7.4216385,3.3062828,0.06994201,-0.9665131,-1.7412964,-43.95,23.212502,3.525,-0.42169583,-0.59767836,0.25915343,1002.3281, , , , 
2025-11-24 20:13:33.382,12.523436,-7.7258263,3.4594233,0.5238015,-0.8565606,-2.1060486,-44.381252,22.518751,4.425,-0.40621567,-0.6100952,0.25183156,1002.3281, , , , 
2025-11-24 20:13:33.401,12.406187,-8.668898,2.6647072,0.95819026,-0.7386671,-2.5177598,-44.71875,20.94375,5.15625,-0.385907,-0.6218115,0.24439591,1002.31934, , , , 
2025-11-24 20:13:33.422,11.953645,-9.760623,1.7955143,1.2446777,-0.61099994,-2.8586125,-45.393753,19.181252,5.8875003,-0.35444918,-0.63552785,0.23439123,1002.31934, , , , 
2025-11-24 20:13:33.442,11.790933,-10.134202,1.2496517,1.3937243,-0.6256603,-3.012546,-46.0875,17.456251,6.0750003,-0.32636523,-0.6457902,0.225818,1002.31274, , , , 
2025-11-24 20:13:33.462,11.733505,-9.887741,0.88354975,1.5061203,-0.7203416,-3.1579275,-46.725002,14.925,6.3750005,-0.29645178,-0.6558151,0.21717449,1002.31274, , , , 
2025-11-24 20:13:33.482,11.374283,-9.3562355,0.34486556,1.5720918,-0.7661552,-3.3888278,-47.550003,12.76875,6.80625,-0.2643688,-0.66601306,0.20812038,1002.31006, , , , 
2025-11-24 20:13:33.502,10.445568,-9.375379,-0.21535404,1.4615284,-0.6684196,-3.6795912,-48.037502,10.2375,7.1062503,-0.23020145,-0.67599016,0.1975525,1002.31006, , , , 
2025-11-24 20:13:33.522,9.571589,-9.471091,-0.18185452,1.3027081,-0.5896203,-3.8066473,-48.43125,7.05,7.8187504,-0.19544011,-0.68520045,0.18453789,1002.31323, , , , 
2025-11-24 20:13:33.542,8.810373,-9.38495,-0.014356935,1.2104702,-0.5425851,-3.7938197,-48.6375,3.8812501,8.34375,-0.16120563,-0.6932316,0.16985084,1002.31323, , , , 
2025-11-24 20:13:33.562,7.9483585,-9.085547,-0.078963146,1.123119,-0.35688752,-3.6429403,-48.600002,0.39375,9.075001,-0.11984092,-0.70113575,0.1510175,1002.31323, , , , 
2025-11-24 20:13:33.582,6.954739,-8.4679,-0.2440679,1.0088906,-0.039246935,-3.3717241,-48.525,-3.24375,9.731251,-0.08899288,-0.704585,0.13645646,1002.31323, , , , 
2025-11-24 20:13:33.602,6.4495544,-7.929216,-0.5051847,0.8133431,0.37742725,-2.9954422,-47.8875,-6.4687505,10.14375,-0.061649643,-0.7048723,0.12274953,1002.3154, , , , 
2025-11-24 20:13:33.622,5.9039907,-7.089036,-0.5841478,0.56900424,0.9198596,-2.5611298,-47.325,-9.618751,10.668751,-0.038810678,-0.701468,0.10989581,1002.3154, , , , 
2025-11-24 20:13:33.642,5.7003016,-6.399305,-0.581755,0.3991887,1.2613232,-2.1995082,-46.55625,-12.225,10.725,-0.020435411,-0.69471383,0.097775824,1002.3125, , , , 
2025-11-24 20:13:33.662,5.669195,-5.7984076,-0.5697909,0.30328566,1.5081055,-1.8866781,-45.9375,-14.493751,10.368751,-0.005852974,-0.68546003,0.086679034,1002.3125, , , , 
2025-11-24 20:13:33.682,6.026025,-5.278866,-0.6128617,0.22448637,1.5471997,-1.6362307,-45.43125,-16.59375,9.76875,0.005903167,-0.67466027,0.076785,1002.3181, , , , 
2025-11-24 20:13:33.702,5.985347,-4.7545385,-0.53629136,0.22082129,1.4757307,-1.4523658,-44.662502,-18.150002,8.85,0.015714042,-0.66368383,0.06783918,1002.3181, , , , 
2025-11-24 20:13:33.722,6.102595,-4.2520456,-0.47886363,0.25808296,1.3004174,-1.283161,-44.456253,-19.050001,8.418751,0.024434645,-0.65327054,0.060059983,1002.32104, , , , 
2025-11-24 20:13:33.742,6.155237,-3.2129626,-0.23449662,0.3387148,0.9009234,-1.0522608,-43.55625,-21.0375,6.525,0.034406487,-0.6427392,0.052449465,1002.32104, , , , 
2025-11-24 20:13:33.762,6.0140605,-2.501696,0.03589234,0.41384903,0.5838936,-0.8659524,-42.7125,-22.25625,5.4750004,0.042102408,-0.63680756,0.04801094,1002.31885, , , , 
2025-11-24 20:13:33.782,6.061917,-2.1164517,0.20338993,0.45660833,0.42507333,-0.6649836,-42.506252,-23.38125,4.6875,0.04936965,-0.6326178,0.045094218,1002.31885,37.88751183,127.7400149,145.392822265625,0.0
2025-11-24 20:13:33.802,6.356234,-2.1619153,0.27996024,0.46882528,0.39575267,-0.45057622,-42.24375,-24.393751,4.1062503,0.05575033,-0.6292855,0.043890797,1002.3115, , , , 
2025-11-24 20:13:33.822,6.7872415,-2.4059832,0.26081768,0.4382829,0.43484688,-0.21051323,-41.8875,-25.087502,3.91875,0.060882963,-0.62612,0.044354424,1002.3115, , , , 
2025-11-24 20:13:33.842,6.96431,-2.597708,0.1363909,0.36437038,0.52464145,0.027106347,-42.018753,-25.425001,3.7125,0.064933546,-0.62179095,0.047098678,1002.31104, , , , 
2025-11-24 20:13:33.862,7.2613196,-2.5570302,0.10049855,0.22631891,0.53624755,0.2928249,-41.850002,-25.687502,3.7125,0.06573431,-0.61895424,0.049838338,1002.31104, , , , 
2025-11-24 20:13:33.882,7.5317082,-2.2791636,0.22253251,0.08460235,0.4971533,0.5182275,-41.550003,-25.725,3.7875001,0.063884296,-0.6146121,0.055775627,1002.31104, , , , 
2025-11-24 20:13:33.902,7.929216,-2.0183458,0.5051847,-0.043064732,0.40735877,0.67040485,-41.71875,-25.44375,3.5812502,0.060011122,-0.6117847,0.06121549,1002.31104, , , , 
2025-11-24 20:13:33.923,8.781659,-2.3509483,0.66071814,-0.14568707,0.32428354,0.6691832,-41.831253,-24.900002,3.4125001,0.0547766,-0.6097634,0.06662518,1002.30786, , , , 
2025-11-24 20:13:33.942,8.73141,-2.801098,0.54346985,-0.26846737,0.34993914,0.568317,-42.075,-24.768751,2.90625,0.04917605,-0.6080453,0.07116109,1002.30786, , , , 
2025-11-24 20:13:33.962,8.290832,-3.423531,0.40468612,-0.5066978,0.43484688,0.50784314,-42.61875,-24.225,2.23125,0.04293261,-0.6060724,0.07431372,1002.30225, , , , 
2025-11-24 20:13:33.982,7.5556364,-4.2951164,0.39511484,-0.82739264,0.5368584,0.5609869,-43.0125,-23.94375,1.44375,0.03236914,-0.6027626,0.07611141,1002.30225, , , , 
2025-11-24 20:13:34.002,7.201499,-4.8768716,0.51475596,-1.0784508,0.4855472,0.7650862,-43.800003,-23.8125,0.75,0.020479385,-0.59992206,0.07668381,1002.3086, , , , 
2025-11-24 20:13:34.022,7.2326055,-5.374878,0.8859426,-1.197566,0.17951274,0.989878,-43.912502,-23.15625,-0.13125001,0.0055700126,-0.5983554,0.07753722,1002.3086, , , , 
2025-11-24 20:13:34.042,7.292426,-5.776872,1.2281163,-1.1529742,-0.29580277,1.2189457,-44.175003,-22.66875,-0.7875,-0.0110190725,-0.5996348,0.07949271,1002.3142, , , , 
2025-11-24 20:13:34.062,7.493423,-6.1193447,1.5466608,-0.94528615,-0.8290724,1.5243694,-44.25,-21.91875,-1.21875,-0.028079046,-0.60430163,0.0836809,1002.3142, , , , 
2025-11-24 20:13:34.082,7.7832537,-6.2365932,1.7835501,-0.62459135,-1.2102411,1.8304038,-44.100002,-20.79375,-1.5375,-0.044836774,-0.6117231,0.091300644,1002.3137, , , , 
2025-11-24 20:13:34.102,8.432008,-6.241379,1.59691,-0.20127417,-1.5162756,2.1272755,-44.79375,-19.368752,-1.25625,-0.06409106,-0.62344104,0.106845595,1002.3137, , , , 
2025-11-24 20:13:34.122,8.831908,-6.2318077,1.1347961,0.10720369,-1.6451644,2.314195,-45.61875,-17.625,-0.75,-0.07751898,-0.6336663,0.12382188,1002.3186, , , , 
2025-11-24 20:13:34.142,8.860622,-5.9470615,0.6655038,0.2678565,-1.6671549,2.46202,-46.5,-15.937501,0.26250002,-0.08964077,-0.6435707,0.14374676,1002.3186, , , , 
2025-11-24 20:13:34.162,8.666505,-5.6668024,0.43579283,0.28007346,-1.6476078,2.5481493,-47.1375,-13.6125,1.66875,-0.10139374,-0.65277743,0.16523463,1002.32056, , , , 
2025-11-24 20:13:34.182,8.3530445,-5.4873405,0.51475596,0.19150062,-1.570641,2.5365431,-47.625,-11.4375,3.0375001,-0.11326719,-0.66118795,0.1867717,1002.32056, , , , 
2025-11-24 20:13:34.202,7.9483585,-5.492126,0.70378894,0.06261184,-1.326302,2.4754586,-47.850002,-8.90625,4.425,-0.12549278,-0.6684,0.20729287,1002.3225, , , , 
2025-11-24 20:13:34.222,7.5774713,-5.657231,1.0079765,-0.048562355,-0.9591829,2.3844423,-48.112503,-6.20625,5.8125,-0.1383853,-0.6734288,0.22608253,1002.3225, , , , 
2025-11-24 20:13:34.242,7.251748,-6.0379887,1.2783655,-0.070552856,-0.5169295,2.317249,-48.843754,-4.3125,7.0125003,-0.15556292,-0.67582995,0.24708481,1002.33325, , , , 
2025-11-24 20:13:34.262,7.0196443,-6.4737816,1.2472588,0.0027488125,-0.17607673,2.322136,-48.787502,-1.7437501,8.137501,-0.16993974,-0.67447585,0.26283967,1002.33325, , , , 
2025-11-24 20:13:34.281,7.0603223,-6.9882383,1.0127622,0.10292777,0.008399149,2.3789446,-48.750004,0.35625002,8.71875,-0.18472709,-0.67068106,0.27863336,1002.32666, , , , 
2025-11-24 20:13:34.303,7.361818,-7.426424,0.6678966,0.2055501,0.057266932,2.4876754,-48.675003,2.5875,9.09375,-0.19968304,-0.6653603,0.29499465,1002.32666, , , , 
2025-11-24 20:13:34.322,7.8957167,-7.893324,0.31136605,0.21837789,-0.019699825,2.597017,-47.86875,5.26875,9.0,-0.21472655,-0.65933895,0.31216872,1002.32837, , , , 
2025-11-24 20:13:34.341,8.436793,-8.307581,-0.021535404,0.08704574,-0.091168955,2.7112455,-47.53125,7.425,8.793751,-0.23009396,-0.6534245,0.32983142,1002.32837, , , , 
2025-11-24 20:13:34.361,9.025727,-8.65454,0.0047856453,-0.18417045,-0.10949437,2.7906556,-47.006252,9.525001,9.0,-0.24659643,-0.6479356,0.34698537,1002.32544, , , , 
2025-11-24 20:13:34.381,9.808479,-9.562018,0.44057846,-0.5708368,-0.026419144,2.7405663,-46.4625,12.168751,9.0,-0.26950523,-0.64181614,0.36570483,1002.32544, , , , 
2025-11-24 20:13:34.401,10.0265255,-10.332807,1.0486546,-0.9110787,0.14713784,2.7026937,-46.2,14.475,9.243751,-0.2897502,-0.6371661,0.37734342,1002.3274, , , , 
2025-11-24 20:13:34.421,10.107881,-10.644173,1.6854445,-1.2116156,0.39941776,2.6434414,-45.862503,16.96875,9.4125,-0.31203797,-0.6321529,0.38589096,1002.3274, , , , 
2025-11-24 20:13:34.441,9.942777,-10.663315,2.3174486,-1.4156386,0.6309289,2.5261588,-45.2625,19.7625,9.450001,-0.3359835,-0.62624365,0.39125395,1002.3237, , , , 
2025-11-24 20:13:34.461,10.122238,-10.960324,3.2273195,-1.4767232,0.62543124,2.2353954,-44.325,21.73125,9.543751,-0.3601856,-0.6199942,0.39364097,1002.3237, , , , 
2025-11-24 20:13:34.481,9.784551,-10.7351,3.9622152,-1.2953016,0.58267194,1.9611251,-43.2,23.94375,9.675,-0.38226953,-0.6141381,0.39428782,1002.3181, , , , 
2025-11-24 20:13:34.501,9.408877,-10.337592,4.2520456,-0.9397885,0.57045496,1.7436635,-42.206253,25.687502,9.76875,-0.4011639,-0.6079855,0.39490628,1002.3181, , , , 
2025-11-24 20:13:34.521,8.6090765,-9.820743,4.2424746,-0.35093176,0.6779641,1.4345748,-41.081253,26.94375,9.712501,-0.41945204,-0.5989743,0.39706314,1002.3191, , , , 
2025-11-24 20:13:34.541,7.225427,-9.001799,3.167499,0.28984702,0.8349518,1.1957335,-40.36875,28.25625,9.76875,-0.42924774,-0.5894743,0.40039745,1002.3191, , , , 
2025-11-24 20:13:34.562,6.1624155,-8.760123,1.4198412,0.6484144,0.78241897,1.0185878,-39.675003,29.118752,9.6,-0.43551105,-0.57834846,0.40519053,1002.3159, , , , 
2025-11-24 20:13:34.581,5.006084,-8.068,-0.059820566,0.68323267,0.7335512,0.95567054,-38.850002,30.075,9.150001,-0.43971208,-0.5674747,0.4106751,1002.3159, , , , 
2025-11-24 20:13:34.601,4.2329035,-7.4192457,-1.3429717,0.34299073,0.7066739,0.8994726,-38.2125,31.218752,8.56875,-0.44422552,-0.5575051,0.4155383,1002.3096, , , , 
2025-11-24 20:13:34.621,4.1105704,-7.2756763,-1.4027922,-0.06688777,0.6639146,0.73698723,-37.256252,31.95,7.7625003,-0.45021904,-0.5496835,0.41793996,1002.3096, , , , 
2025-11-24 20:13:34.641,4.019643,-7.5029945,-0.84017986,-0.26846737,0.53563666,0.5536567,-36.9,32.79375,6.8625,-0.45701805,-0.54424506,0.41761133,1002.31226, , , , 
2025-11-24 20:13:34.661,3.9526439,-7.876574,-0.43100718,-0.14690876,0.32000762,0.39666894,-36.54375,33.5625,6.2812505,-0.4629576,-0.5405695,0.4162927,1002.31226, , , , 
2025-11-24 20:13:34.681,3.5766716,-7.9770727,-0.6559325,0.15362808,0.049936764,0.29771167,-36.393753,33.975002,5.86875,-0.4666876,-0.53721243,0.41638574,1002.3179, , , , 
2025-11-24 20:13:34.701,3.1292138,-7.5173516,-1.2257234,0.33138463,-0.16447063,0.30137676,-36.35625,34.4625,5.625,-0.46687067,-0.5351725,0.4187882,1002.3179, , , , 
2025-11-24 20:13:34.721,3.083451,-6.789634,-1.6471593,0.3478775,-0.3165716,0.3679591,-35.9625,34.725002,5.49375,-0.46587095,-0.53372073,0.4228662,1002.322, , , , 
2025-11-24 20:13:34.741,3.816253,-5.9973106,-1.8194425,0.21410197,-0.40575528,0.43576315,-35.662502,34.78125,5.2875004,-0.46485135,-0.5329787,0.4276471,1002.322, , , , 
2025-11-24 20:13:34.762,5.1257253,-5.556732,-1.6567305,0.038177952,-0.46378577,0.41499436,-35.175003,34.912502,5.34375,-0.46435407,-0.53319764,0.43209624,1002.3264, , , , 
2025-11-24 20:13:34.781,6.8542404,-4.99412,-1.4988043,-0.13408098,-0.4534014,0.2500656,-35.025,35.11875,5.1937504,-0.46401042,-0.5348344,0.43537027,1002.3264,37.88749735,127.74002098,145.21051025390625,1.62
2025-11-24 20:13:34.801,8.35783,-4.7545385,-1.5418751,-0.31977853,-0.31962582,-0.08406785,-34.800003,35.5125,5.4,-0.4632703,-0.5382225,0.43619666,1002.32446, , , , 
2025-11-24 20:13:34.821,10.105488,-5.034798,-1.2161521,-0.44866732,-0.2677038,-0.5916819,-34.7625,35.831253,5.68125,-0.46120092,-0.5451733,0.4320715,1002.32446, , , , 
2025-11-24 20:13:34.841,10.857134,-4.7138605,-1.0654043,-0.5085303,-0.1485886,-1.0669211,-34.612503,35.98125,6.24375,-0.45725888,-0.55318254,0.4249864,1002.32153, , , , 
2025-11-24 20:13:34.862,11.855539,-4.8673005,-0.78035927,-0.581832,-0.017256435,-1.523224,-34.631252,35.7,6.675,-0.45160764,-0.5626947,0.41436684,1002.32153, , , , 
2025-11-24 20:13:34.881,13.502698,-4.74736,0.11246266,-0.48653984,-0.0019852535,-2.2105036,-35.025,35.175003,6.95625,-0.44354352,-0.5737515,0.4001562,1002.32153, , , , 
2025-11-24 20:13:34.901,14.319249,-5.575875,0.92183495,-0.18417045,-0.113159455,-3.088291,-36.0,34.162502,7.1625004,-0.43032354,-0.5867915,0.3826038,1002.32153, , , , 
2025-11-24 20:13:34.921,14.903397,-7.8311105,1.3597214,0.17134266,-0.34894648,-3.9117131,-37.18125,32.625,7.2937503,-0.40951407,-0.6022295,0.36220264,1002.3191, , , , 
2025-11-24 20:13:34.941,16.169798,-9.55484,1.6519449,0.5286883,-0.6458183,-4.633124,-38.60625,30.900002,7.6312504,-0.37292075,-0.6243477,0.33444306,1002.3191, , , , 
2025-11-24 20:13:34.961,16.16262,-10.953146,1.8218354,0.7125533,-0.8290724,-5.157918,-40.143753,28.10625,8.15625,-0.34576416,-0.638628,0.31674293,1002.3198, , , , 
2025-11-24 20:13:34.981,15.377175,-12.389438,2.3557339,0.7663079,-0.8522846,-5.5824566,-41.71875,24.806252,8.64375,-0.29391828,-0.66287786,0.28500232,1002.3198, , , , 
2025-11-24 20:13:35.001,14.589638,-13.842778,2.1834507,0.62642384,-0.4277458,-5.62827,-43.612503,20.90625,9.13125,-0.2500791,-0.6798985,0.2576561,1002.3198, , , , 
2025-11-24 20:13:35.022,14.48914,-14.254344,2.4394827,0.5238015,0.09521582,-5.352778,-45.1875,16.331251,9.825001,-0.20836017,-0.69214886,0.22882365,1002.3198, , , , 
2025-11-24 20:13:35.042,13.794922,-14.376677,2.4035904,0.6056551,0.5814502,-5.0638475,-46.331253,11.34375,10.125,-0.17009461,-0.69834054,0.20002621,1002.31494, , , , 
2025-11-24 20:13:35.061,13.268202,-14.541781,2.1475582,0.74798244,0.77142376,-4.6422863,-47.025,6.39375,10.3125,-0.13457912,-0.69957006,0.17270084,1002.31494, , , , 
2025-11-24 20:13:35.081,12.286546,-13.038192,1.4844474,0.90626824,0.9235247,-4.023498,-47.4375,1.5,10.14375,-0.09424428,-0.6963172,0.14370361,1002.31714, , , , 
2025-11-24 20:13:35.101,11.350354,-11.156535,1.3453646,0.9716289,0.66086036,-3.7211287,-47.60625,-3.1312501,9.75,-0.06476248,-0.69199795,0.12435368,1002.31714, , , , 
2025-11-24 20:13:35.121,10.203594,-9.921241,1.4676976,0.96613127,0.26075542,-3.6411078,-47.5125,-7.18125,9.431251,-0.035746764,-0.68914014,0.10650082,1002.3137, , , , 
2025-11-24 20:13:35.141,8.968299,-9.763016,1.6902301,0.9172635,0.055434387,-3.5678062,-47.025,-10.875,9.337501,-0.0067281118,-0.68774,0.089002684,1002.3137, , , , 
2025-11-24 20:13:35.162,7.6947193,-9.851849,1.9127626,0.9526926,0.16424155,-3.408375,-46.2,-14.2875,9.525001,0.021326585,-0.68600786,0.07215265,1002.31055, , , , 
2025-11-24 20:13:35.182,6.102595,-9.801301,1.5227325,1.0895225,0.43973368,-3.1487648,-44.90625,-17.41875,9.58125,0.048148055,-0.6822446,0.05716076,1002.31055, , , , 
2025-11-24 20:13:35.201,4.240082,-9.353843,0.74207413,1.1897014,0.6309289,-2.8476171,-43.518753,-20.25,9.65625,0.07388254,-0.67629164,0.044713367,1002.323, , , , 
2025-11-24 20:13:35.222,2.2169502,-8.365009,-0.10289137,1.1579373,0.5380801,-2.348555,-41.90625,-23.00625,10.106251,0.10353646,-0.6676493,0.033286933,1002.323, , , , 
2025-11-24 20:13:35.241,1.189831,-7.199106,-0.43100718,1.047374,0.26869643,-1.8292584,-40.350002,-25.143751,9.9375,0.123551354,-0.662261,0.02726389,1002.31616, , , , 
2025-11-24 20:13:35.261,0.69182485,-6.248557,-0.4549354,0.9600228,-0.13270657,-1.3167577,-38.943752,-27.187502,10.200001,0.13983588,-0.65954125,0.023665437,1002.31616, , , , 
2025-11-24 20:13:35.281,0.78753775,-5.712266,-0.38793638,0.9160418,-0.48821968,-0.81280863,-37.875,-28.556252,10.575001,0.15255442,-0.6602563,0.022559006,1002.3198, , , , 
2025-11-24 20:13:35.302,1.3716856,-5.250152,-0.43579283,0.8702283,-0.63543385,-0.30458373,-36.84375,-29.475,11.137501,0.1619558,-0.6634657,0.02416504,1002.3198, , , , 
2025-11-24 20:13:35.322,2.056631,-5.2334023,-0.73011,0.74126315,-0.5511369,0.059481252,-36.05625,-30.187502,12.01875,0.16831854,-0.66763586,0.02831165,1002.3196, , , , 
2025-11-24 20:13:35.342,2.4418755,-5.3557353,-1.2831511,0.49081576,-0.3672719,0.34230354,-35.625,-30.45,12.7875,0.1714626,-0.6714579,0.034195293,1002.3196, , , , 
2025-11-24 20:13:35.361,2.475375,-5.348557,-0.7923234,0.3075616,-0.026419144,0.7846333,-35.381252,-30.54375,13.668751,0.17006478,-0.67483956,0.042811826,1002.3169, , , , 
2025-11-24 20:13:35.382,2.8872397,-5.539983,-0.9194421,0.2495311,0.14897038,1.2647593,-35.362503,-30.337502,14.38125,0.16449852,-0.67626965,0.05265156,1002.3169, , , , 
2025-11-24 20:13:35.402,3.5359936,-5.64766,-1.0319048,0.2831277,0.21310934,1.7552696,-35.7,-29.643751,14.75625,0.15542437,-0.6775623,0.06578057,1002.32007, , , , 
2025-11-24 20:13:35.422,5.42752,-6.9499536,-1.6280167,0.32222193,0.11720632,2.2396715,-36.3375,-28.725,14.868751,0.14338647,-0.67937696,0.08258633,1002.32007, , , , 
2025-11-24 20:13:35.441,7.3689966,-8.195119,-2.2289143,0.20493926,0.010231691,2.6385548,-37.10625,-27.69375,14.83125,0.1286517,-0.6823226,0.102357276,1002.3203, , , , 
2025-11-24 20:13:35.462,8.592327,-8.252546,-2.612065,-0.16584504,0.15996562,3.005063,-38.30625,-26.212502,14.925,0.11010497,-0.6857905,0.12395874,1002.3203, , , , 
2025-11-24 20:13:35.482,9.205189,-8.254939,-2.3844478,-0.75409096,0.33955473,3.1724353,-39.525,-24.54375,15.000001,0.086680025,-0.6882533,0.14506844,1002.3203, , , , 
2025-11-24 20:13:35.502,9.91167,-9.487841,-1.5275182,-1.4602304,0.4440096,3.3031566,-40.65,-22.3875,14.962501,0.050122377,-0.690346,0.16694474,1002.3203, , , , 
2025-11-24 20:13:35.521,10.131809,-11.285748,-0.392722,-1.8842347,0.66452545,3.6135433,-42.018753,-19.987501,14.85,0.01456916,-0.6909975,0.18123387,1002.3225, , , , 
2025-11-24 20:13:35.541,10.601102,-12.636197,0.81864446,-2.0167885,0.8392278,4.174301,-43.443752,-17.625,14.062501,-0.026920635,-0.6892986,0.19584168,1002.3225, , , , 
2025-11-24 20:13:35.561,11.49153,-13.703695,1.5658033,-1.914777,0.6736882,4.8364596,-44.643753,-14.700001,13.06875,-0.07294942,-0.68552774,0.21325147,1002.3237, , , , 
2025-11-24 20:13:35.581,12.226726,-14.151452,1.730908,-1.8616334,0.49593163,5.282989,-46.350002,-11.64375,12.075001,-0.12140634,-0.680454,0.23441665,1002.3237, , , , 
2025-11-24 20:13:35.601,12.944871,-14.381462,1.9872392,-1.8738503,0.19600561,5.5884123,-47.25,-8.043751,10.762501,-0.1711199,-0.6741781,0.257921,1002.32495, , , , 
2025-11-24 20:13:35.621,12.908979,-14.319249,2.2671995,-1.9257723,-0.23410721,5.6720986,-48.112503,-3.6937501,9.637501,-0.22050542,-0.6674216,0.2817807,1002.32495, , , , 
2025-11-24 20:13:35.641,12.87548,-13.828422,2.7891338,-1.8616334,-0.6213844,5.639724,-48.581253,0.71250004,9.1125,-0.2798347,-0.6590623,0.31110322,1002.3203, , , , 
2025-11-24 20:13:35.662,13.004692,-12.849158,3.3684962,-1.5610201,-1.0447016,5.483958,-48.037502,5.5687504,8.981251,-0.32315755,-0.65213823,0.33457547,1002.3203, , , , 
2025-11-24 20:13:35.682,13.014263,-11.438889,3.696612,-1.0558494,-1.3953278,5.1834207,-47.2125,10.44375,9.525001,-0.36018693,-0.6449178,0.3592373,1002.32886, , , , 
2025-11-24 20:13:35.702,13.263416,-9.602696,3.8042889,-0.42056835,-1.2236798,4.6055593,-45.6375,15.150001,10.44375,-0.38940987,-0.63678426,0.3850103,1002.32886, , , , 
2025-11-24 20:13:35.721,12.861122,-7.5125656,3.7013974,0.1731752,-0.458899,3.8529954,-43.893753,19.556252,11.90625,-0.41142035,-0.6262049,0.4094399,1002.32764, , , , 
2025-11-24 20:13:35.741,11.886645,-5.81755,3.098107,0.78829837,0.44828552,2.9409242,-41.5875,23.5125,13.181251,-0.42761853,-0.6119008,0.42975634,1002.32764, , , , 
2025-11-24 20:13:35.761,10.495817,-5.19751,1.5658033,1.2080268,1.0737932,2.1798084,-39.206253,26.925001,14.025001,-0.43907413,-0.5943874,0.44512814,1002.3318, , , , 
2025-11-24 20:13:35.782,9.073584,-5.144868,-0.4549354,1.1842037,1.3254622,1.6935741,-37.050003,29.868752,14.062501,-0.44971597,-0.571003,0.45849094,1002.3318,37.88748873,127.74002943,144.78887939453125,1.05
2025-11-24 20:13:35.801,8.566006,-5.0132627,-1.9127626,0.73759806,1.3749409,1.5243694,-35.49375,32.2125,13.25625,-0.4582605,-0.5538162,0.46503526,1002.323, , , , 
2025-11-24 20:13:35.821,8.604291,-4.4458647,-2.4586253,0.046729814,1.386547,1.3722683,-34.40625,33.975002,12.187501,-0.46900865,-0.5396207,0.46739593,1002.323, , , , 
2025-11-24 20:13:35.841,8.997013,-4.0124645,-2.1140587,-0.7650862,1.3889903,1.0234746,-33.787502,35.5875,10.51875,-0.48220748,-0.5295069,0.4646131,1002.31665, , , , 
2025-11-24 20:13:35.861,9.286844,-4.196712,-0.97926265,-1.305686,1.2973633,0.6068004,-33.112503,36.393753,9.337501,-0.49669695,-0.5238989,0.45640552,1002.31665, , , , 
2025-11-24 20:13:35.881,9.322736,-4.6779685,0.24885355,-1.5567442,1.1043355,0.2812188,-32.34375,37.18125,8.34375,-0.51077706,-0.5223366,0.4442617,1002.3179, , , , 
2025-11-24 20:13:35.901,9.4686985,-4.9677987,1.4198412,-1.4974921,0.8734352,0.08758023,-31.781252,37.96875,7.6125,-0.523134,-0.523363,0.4308495,1002.3179, , , , 
2025-11-24 20:13:35.921,9.918848,-5.168796,2.5112674,-1.0088142,0.64497834,-0.12621632,-31.781252,38.1375,7.9500003,-0.53412575,-0.5258826,0.41578656,1002.3264, , , , 
2025-11-24 20:13:35.942,10.708778,-5.8223357,2.6240292,-0.37841988,0.4660001,-0.39376742,-31.66875,38.5875,8.1,-0.53764826,-0.5276155,0.40657008,1002.3264, , , , 
2025-11-24 20:13:35.961,11.750255,-6.6125655,2.0374885,0.23242739,0.22532628,-0.73828524,-31.743752,38.325,8.325001,-0.5356047,-0.5293931,0.39990085,1002.3291, , , , 
2025-11-24 20:13:35.982,12.885051,-7.3785677,1.1060823,0.68628687,-0.07895201,-1.1444987,-31.968752,37.95,8.53125,-0.5278346,-0.53236973,0.39521307,1002.3291, , , , 
2025-11-24 20:13:36.001,14.213666,-7.9818583,-0.038285162,0.8928296,-0.38987327,-1.7217493,-32.04375,37.78125,8.2875,-0.5147699,-0.53792423,0.39127904,1002.32666, , , , 
2025-11-24 20:13:36.021,14.881862,-8.635398,-0.35682967,0.81639737,-0.57434916,-2.4108615,-32.625,37.068752,8.15625,-0.49699727,-0.54743654,0.38572687,1002.32666, , , , 
2025-11-24 20:13:36.042,15.15225,-9.993026,-0.07178468,0.60321164,-0.50715595,-3.204963,-33.3375,36.393753,7.8562503,-0.46907863,-0.56532216,0.37329698,1002.3274, , , , 
2025-11-24 20:13:36.062,15.080465,-11.221142,0.39750767,0.3955236,-0.1565296,-3.8390224,-34.48125,35.268753,7.6312504,-0.44360268,-0.58226436,0.35726386,1002.3274, , , , 
2025-11-24 20:13:36.082,14.431711,-12.521043,1.1204392,0.3130592,0.2772483,-4.302655,-36.131252,33.318752,7.51875,-0.41667828,-0.5988169,0.33534876,1002.31445, , , , 
2025-11-24 20:13:36.101,14.003098,-13.610375,1.7428722,0.53418595,0.5148679,-4.640454,-38.006252,30.91875,7.4812503,-0.38814628,-0.61306083,0.3094433,1002.31445, , , , 
2025-11-24 20:13:36.121,13.090834,-14.292628,1.9247267,1.0693644,0.49226654,-4.8482184,-40.0875,27.88125,7.2937503,-0.3564439,-0.6245451,0.28266728,1002.313, , , , 
2025-11-24 20:13:36.142,12.688839,-14.513067,1.8433708,1.5989691,0.047493376,-4.906249,-42.28125,24.375002,6.7875004,-0.3206693,-0.63421315,0.25779083,1002.313, , , , 
2025-11-24 20:13:36.161,12.547363,-14.766706,1.4222339,2.102307,-0.5016583,-4.9844375,-44.11875,20.75625,6.1125,-0.27992484,-0.6442289,0.23660268,1002.31396, , , , 
2025-11-24 20:13:36.182,11.704791,-14.944075,0.79471624,2.4144502,-1.1381612,-5.030862,-46.10625,16.5375,5.45625,-0.222133,-0.65853584,0.215007,1002.31396, , , , 
2025-11-24 20:13:36.201,10.507782,-14.639887,0.69900334,2.4700372,-1.6402776,-4.945954,-47.41875,12.1125,5.4,-0.17265007,-0.6717636,0.2003748,1002.3113, , , , 
2025-11-24 20:13:36.221,9.320343,-13.821242,0.61046886,2.3698583,-2.0251114,-4.632513,-48.3375,6.8437505,6.2812505,-0.12304528,-0.68587154,0.18775862,1002.3113, , , , 
2025-11-24 20:13:36.241,8.625827,-12.636197,0.4142574,2.0968096,-2.2578442,-4.212861,-48.487503,1.9125,7.4812503,-0.075868525,-0.70012903,0.1769659,1002.3093, , , , 
2025-11-24 20:13:36.262,8.226225,-11.314462,-0.050249275,1.495125,-2.2181392,-3.8029823,-48.037502,-2.4562502,9.4125,-0.03289301,-0.71399605,0.16658665,1002.3093, , , , 
2025-11-24 20:13:36.282,7.785647,-10.251451,0.040677983,0.78402245,-1.914548,-3.4914503,-47.0625,-6.6000004,11.793751,0.0042401557,-0.7263652,0.15432145,1002.3086, , , , 
2025-11-24 20:13:36.303,7.392925,-9.183653,0.57936215,0.06139015,-1.3849435,-3.1298287,-45.675003,-9.76875,14.062501,0.040755954,-0.7381357,0.1347896,1002.3086, , , , 
2025-11-24 20:13:36.321,7.11775,-8.5779705,0.8883354,-0.42484426,-0.89382225,-2.8769379,-44.268753,-13.031251,16.63125,0.05750325,-0.7427597,0.121222764,1002.312, , , , 
2025-11-24 20:13:36.342,6.847062,-8.113463,1.3645071,-0.94406444,-0.1925696,-2.628934,-42.7125,-15.8625,18.525002,0.077866025,-0.7458918,0.09613008,1002.312, , , , 
2025-11-24 20:13:36.361,6.363413,-7.8981094,1.9007984,-1.2000095,0.45866993,-2.4908824,-41.68125,-18.581251,19.556252,0.08872749,-0.7437466,0.07433923,1002.31445, , , , 
2025-11-24 20:13:36.381,5.745765,-7.7473617,2.5112674,-1.1822948,0.9204705,-2.3931468,-40.55625,-20.775002,19.85625,0.09676838,-0.7376503,0.052249957,1002.31445, , , , 
2025-11-24 20:13:36.402,5.030012,-7.4192457,3.0643084,-0.7821899,1.1929083,-2.2825835,-39.46875,-22.78125,19.40625,0.104244374,-0.7287429,0.03158229,1002.3142, , , , 
2025-11-24 20:13:36.422,3.8808591,-6.579066,2.856133,-0.16523418,1.2478846,-2.104827,-38.34375,-25.06875,18.243752,0.113300115,-0.7181877,0.014541076,1002.3142, , , , 
2025-11-24 20:13:36.442,2.6168506,-5.752944,3.083451,0.5036436,1.018206,-1.9434869,-37.3125,-27.075,17.118752,0.12529007,-0.7077706,0.0025709723,1002.312, , , , 
2025-11-24 20:13:36.462,1.852942,-5.6189456,2.530709,1.3637929,0.63825905,-1.6557778,-36.225002,-28.931252,16.181252,0.14073102,-0.69919235,-0.0037732264,1002.312, , , , 
2025-11-24 20:13:36.481,0.9529416,-5.829514,0.9385847,2.0613804,0.24181916,-1.1322818,-35.268753,-30.2625,15.39375,0.16453488,-0.6927184,-0.0013386131,1002.3093, , , , 
2025-11-24 20:13:36.502,0.90508515,-5.9494543,-0.6511469,2.3222122,0.20883341,-0.4774535,-34.55625,-31.29375,15.656251,0.18363124,-0.69018126,0.008478845,1002.3093, , , , 
2025-11-24 20:13:36.522,1.0271192,-6.0714884,-2.4945176,2.1713328,0.47638452,0.21769069,-33.5625,-31.48125,16.5375,0.19926216,-0.6879408,0.024285555,1002.3076, , , , 
2025-11-24 20:13:36.542,1.1515459,-5.951847,-3.909573,1.5403277,0.8807654,0.9923214,-33.375,-31.10625,17.60625,0.20855437,-0.6846668,0.04375445,1002.3076, , , , 
2025-11-24 20:13:36.562,1.9776679,-5.681159,-4.3334017,0.80845636,1.0316447,1.6605883,-33.318752,-30.6375,18.6375,0.20919983,-0.68073165,0.06463117,1002.3025, , , , 
2025-11-24 20:13:36.582,3.6149569,-5.4753766,-3.9167516,0.15790401,0.86427253,2.18103,-33.7125,-29.56875,19.125,0.20081125,-0.67791057,0.08514329,1002.3025, , , , 
2025-11-24 20:13:36.602,5.681159,-5.8968124,-2.9422746,-0.27640837,0.42934927,2.461409,-34.96875,-28.331251,18.956251,0.18527436,-0.6778715,0.10404678,1002.3093, , , , 
2025-11-24 20:13:36.622,7.656434,-7.495816,-2.1738794,-0.49936762,-0.05207473,2.617175,-35.925003,-26.8875,18.431252,0.16038409,-0.68260455,0.12489901,1002.3093, , , , 
2025-11-24 20:13:36.642,8.968299,-8.518149,-1.7979071,-0.66612893,-0.19928892,2.87312,-37.425003,-25.0125,18.075,0.13761172,-0.68882996,0.1409929,1002.3059, , , , 
2025-11-24 20:13:36.661,9.854242,-9.1669035,-1.5945172,-0.8170082,-0.13270657,3.1125722,-39.206253,-23.19375,17.85,0.11184825,-0.69525677,0.15760192,1002.3059, , , , 
2025-11-24 20:13:36.682,10.342378,-9.662517,-1.4461622,-1.0308048,-0.09422319,3.3276668,-40.48125,-21.35625,17.493752,0.083354786,-0.7008245,0.17453635,1002.3076, , , , 
2025-11-24 20:13:36.702,10.782956,-10.366306,-1.2400804,-1.2366602,-0.2261662,3.4614422,-42.225002,-19.44375,17.19375,0.052426316,-0.70618564,0.1909192,1002.3076, , , , 
2025-11-24 20:13:36.722,11.1015005,-10.907383,-0.9553344,-1.4419049,-0.41736138,3.6831799,-43.36875,-17.268751,16.556252,0.01931356,-0.7119941,0.20649196,1002.31006, , , , 
2025-11-24 20:13:36.741,11.637792,-11.15175,-0.39032918,-1.6086663,-0.5957288,4.022811,-44.34375,-14.475,16.143751,-0.016354384,-0.71829015,0.22181945,1002.31006, , , , 
2025-11-24 20:13:36.761,12.537792,-11.199606,0.36161533,-1.6202724,-0.6757498,4.3160176,-45.225002,-11.38125,15.843751,-0.06431873,-0.7255027,0.24169122,1002.3225, , , , 
2025-11-24 20:13:36.782,13.272987,-10.99861,0.9026923,-1.5200934,-0.6568135,4.5004935,-45.506252,-8.1,15.937501,-0.10402562,-0.7294841,0.2587251,1002.3225,37.88748873,127.74002943,144.78887939453125,1.05
2025-11-24 20:13:36.802,13.497912,-10.785349,1.2496517,-1.3692142,-0.48944137,4.542642,-46.050003,-5.2312503,16.40625,-0.14337811,-0.7308432,0.2765065,1002.3257, , , , 
2025-11-24 20:13:36.822,13.344772,-10.500603,1.6016957,-1.2116156,-0.2261662,4.5261493,-46.03125,-1.7437501,16.800001,-0.18172324,-0.7289331,0.2944041,1002.3257, , , , 
2025-11-24 20:13:36.842,13.059727,-9.715159,2.0757737,-0.917798,0.07872294,4.487055,-46.18125,1.5937501,17.34375,-0.21892013,-0.72348684,0.3122265,1002.3301, , , , 
2025-11-24 20:13:36.862,12.516257,-8.544471,2.288735,-0.5134171,0.29374117,4.3856544,-46.21875,4.93125,17.681252,-0.2542289,-0.7143116,0.33050275,1002.3301, , , , 
2025-11-24 20:13:36.882,12.056536,-7.5676007,2.2360928,-0.008857286,0.402472,4.105886,-45.7125,8.681251,17.737501,-0.2935774,-0.69847876,0.3544457,1002.3218, , , , 
2025-11-24 20:13:36.902,11.587543,-6.9044895,2.0135603,0.34909922,0.526474,3.8071818,-45.018753,12.39375,17.7,-0.3137161,-0.6873277,0.3692349,1002.3218, , , , 
2025-11-24 20:13:36.922,11.127822,-6.224629,1.5394822,0.6771242,0.7011763,3.2799444,-43.78125,16.10625,17.306252,-0.34150696,-0.66680145,0.39317244,1002.33105, , , , 
2025-11-24 20:13:36.941,10.725529,-5.7146587,1.0247263,0.8609892,0.8300651,2.722241,-42.54375,19.612501,16.462502,-0.35859606,-0.64986145,0.41013095,1002.33105, , , , 
2025-11-24 20:13:36.961,10.194023,-5.654838,0.325723,0.92398286,0.9650623,2.0942898,-41.4,22.612501,15.712501,-0.3716128,-0.63337237,0.42429107,1002.3247, , , , 
2025-11-24 20:13:36.982,9.583553,-6.059524,-0.15314065,0.8402204,0.96994907,1.6288242,-40.5,25.050001,14.587501,-0.38148847,-0.6181738,0.43514523,1002.3247, , , , 
2025-11-24 20:13:37.002,8.796016,-6.14088,-0.55304116,0.6685723,0.9791118,1.3899829,-39.54375,27.206251,13.687501,-0.38950315,-0.60476416,0.44319272,1002.322, , , , 
2025-11-24 20:13:37.022,8.23101,-6.305985,-0.81625164,0.4071297,1.0206494,1.3185138,-38.53125,28.931252,12.918751,-0.3974687,-0.5927123,0.4490511,1002.322, , , , 
2025-11-24 20:13:37.042,7.960323,-6.167201,-0.8572287,0.0076355906,1.0298121,1.3716575,-37.7625,30.69375,11.625,-0.40958646,-0.57923245,0.45351896,1002.3198, , , , 
2025-11-24 20:13:37.062,8.314759,-5.721837,-0.53629136,-0.31428093,1.0560786,1.4003674,-37.0125,31.9125,10.44375,-0.42159647,-0.56972915,0.45502135,1002.3198, , , , 
2025-11-24 20:13:37.082,9.236296,-5.729016,-0.22971097,-0.5775561,1.1440406,1.2849172,-36.600002,33.15,9.431251,-0.4349127,-0.561329,0.45436144,1002.3203, , , , 
2025-11-24 20:13:37.101,10.062417,-6.06431,0.0741775,-0.73759806,1.2497171,1.0674555,-35.9625,34.36875,8.700001,-0.44863513,-0.554002,0.4509494,1002.3203, , , , 
2025-11-24 20:13:37.122,10.849956,-6.2940207,0.44536412,-0.7443174,1.3242404,0.8597675,-35.475002,35.2125,8.2875,-0.46191773,-0.5474,0.44524014,1002.31714, , , , 
2025-11-24 20:13:37.142,11.733505,-6.332306,0.4429713,-0.641695,1.3230188,0.66735065,-34.575,35.90625,7.8562503,-0.47412893,-0.540955,0.43834248,1002.31714, , , , 
2025-11-24 20:13:37.162,12.784553,-6.538388,0.4429713,-0.50975204,1.0811232,0.32336727,-33.975002,36.28125,7.5375004,-0.48429498,-0.5351632,0.43064883,1002.3252, , , , 
2025-11-24 20:13:37.182,14.32882,-7.574779,0.770788,-0.3155026,0.5667899,-0.31008133,-33.84375,36.300003,6.9750004,-0.49098638,-0.5320361,0.4203777,1002.3252, , , , 
2025-11-24 20:13:37.202,14.877076,-8.091928,1.4003994,-9.162709E-4,0.22899136,-0.9300913,-33.787502,36.487503,6.8250003,-0.4893176,-0.53429025,0.41203523,1002.32837, , , , 
2025-11-24 20:13:37.222,15.147465,-8.439186,1.8098712,0.49814594,0.043217443,-1.635009,-34.40625,36.506252,6.6937504,-0.48113462,-0.5393141,0.40377885,1002.32837, , , , 
2025-11-24 20:13:37.242,14.690136,-8.973084,1.7931215,0.9612445,-0.06429167,-2.3277862,-35.11875,36.225002,6.0375004,-0.46627194,-0.54615504,0.39501888,1002.3257, , , , 
2025-11-24 20:13:37.262,14.211273,-9.887741,1.623231,1.3222553,-0.27564484,-2.9581807,-36.131252,35.5875,5.71875,-0.4448582,-0.5546226,0.38523048,1002.3257, , , , 
2025-11-24 20:13:37.281,13.782957,-10.969895,1.2400804,1.5238348,-0.5144861,-3.4499125,-37.256252,34.275,5.1375003,-0.41748708,-0.56507,0.37446767,1002.3281, , , , 
2025-11-24 20:13:37.301,13.217953,-11.934502,1.0630114,1.5116179,-0.7973084,-3.8072584,-38.68125,32.60625,4.4437504,-0.3773825,-0.58072186,0.35951573,1002.3281, , , , 
2025-11-24 20:13:37.321,12.853944,-12.284153,1.4557334,1.411439,-1.0941801,-4.096189,-40.275,29.962502,4.0687504,-0.34238696,-0.5953297,0.34590647,1002.32495, , , , 
2025-11-24 20:13:37.341,12.198011,-12.18844,1.7979071,1.2941563,-1.3721156,-4.359464,-42.0,27.35625,3.8437502,-0.30505618,-0.61169803,0.3306398,1002.32495, , , , 
2025-11-24 20:13:37.361,11.467603,-12.046965,2.0733807,1.1866472,-1.6634898,-4.619685,-43.48125,23.79375,3.9375002,-0.26564,-0.62950903,0.3135025,1002.32153, , , , 
2025-11-24 20:13:37.381,10.837991,-11.994323,1.8625133,0.9838459,-2.053821,-4.8763175,-45.037502,20.15625,4.7250004,-0.22425032,-0.64864904,0.29441828,1002.32153, , , , 
2025-11-24 20:13:37.401,9.949955,-12.02543,1.730908,0.6374191,-2.3122096,-4.9887133,-46.29375,16.35,6.1125,-0.18172207,-0.66939133,0.2730328,1002.31055, , , , 
2025-11-24 20:13:37.421,9.1669035,-11.829218,1.9199411,0.1847813,-2.2999926,-4.824395,-47.287502,11.56875,7.9125004,-0.14026414,-0.69041467,0.24933438,1002.31055, , , , 
2025-11-24 20:13:37.441,8.585149,-11.280962,1.9414765,-0.22387552,-2.0012884,-4.496294,-47.943752,6.9375005,9.9375,-0.09373618,-0.71408594,0.21757561,1002.31274, , , , 
2025-11-24 20:13:37.462,8.235796,-10.751849,1.9462621,-0.63925165,-1.4539692,-4.1450567,-47.643753,2.0812502,12.150001,-0.062565565,-0.7289411,0.19088799,1002.31274, , , , 
2025-11-24 20:13:37.481,7.929216,-10.201201,2.082952,-0.981937,-0.79181075,-3.7858787,-47.23125,-2.41875,14.08125,-0.037437584,-0.7390849,0.16311246,1002.3159, , , , 
2025-11-24 20:13:37.502,7.6516485,-9.849456,2.1284158,-1.2470447,-0.014202199,-3.451745,-45.9,-6.1687503,15.8625,-0.017871328,-0.7441595,0.13476443,1002.3159, , , , 
2025-11-24 20:13:37.522,7.282855,-9.526126,2.271985,-1.346002,0.6193228,-3.2428353,-45.15,-9.825001,17.0625,-0.0026755366,-0.74422556,0.1062228,1002.31055, , , , 
2025-11-24 20:13:37.541,6.7704916,-9.329915,2.559423,-1.2629267,1.1134982,-3.0852368,-44.34375,-13.44375,17.118752,0.009746136,-0.7397483,0.078072555,1002.31055, , , , 
2025-11-24 20:13:37.561,6.0116677,-8.930014,3.0116663,-0.90924615,1.4586269,-2.908091,-43.4625,-16.81875,16.725,0.021088365,-0.73148715,0.0515844,1002.3076, , , , 
2025-11-24 20:13:37.581,5.130511,-8.453544,3.0212376,-0.25380704,1.522155,-2.6643631,-42.825,-19.837502,15.58125,0.036563348,-0.7177909,0.02387688,1002.3076, , , , 
2025-11-24 20:13:37.601,4.278367,-7.8406816,2.5666013,0.35459682,1.4910018,-2.383984,-41.625,-22.5375,14.118751,0.05139044,-0.7061565,0.007911712,1002.3152, , , , 
2025-11-24 20:13:37.621,3.4546378,-7.129714,2.0614166,0.94230825,1.4445775,-2.057181,-40.40625,-24.618752,12.993751,0.06830134,-0.69452995,-0.002101406,1002.3152, , , , 
2025-11-24 20:13:37.642,2.6694927,-7.093822,0.8572287,1.4566417,1.2961415,-1.6918179,-39.15,-26.60625,11.793751,0.08699121,-0.68336326,-0.0062334877,1002.3174, , , , 
2025-11-24 20:13:37.662,2.193022,-7.1129646,-0.24646074,1.6960938,1.1196066,-1.3289746,-38.193752,-28.5375,11.137501,0.10636222,-0.6734899,-0.0052484404,1002.3174, , , , 
2025-11-24 20:13:37.681,1.5634105,-6.6053867,-1.975275,1.7492375,0.91863793,-0.6533775,-37.2,-29.681252,10.837501,0.12427203,-0.6653751,5.1850436E-4,1002.3108, , , , 
2025-11-24 20:13:37.702,1.3070793,-5.8558354,-3.042773,1.5281107,0.7127824,0.022830416,-36.80625,-30.825,10.725,0.13814552,-0.6592332,0.010646794,1002.3108, , , , 
2025-11-24 20:13:37.721,1.9657038,-5.046762,-3.6559339,1.1194539,0.34871742,0.68201095,-36.05625,-30.975,11.00625,0.14752065,-0.65521836,0.027115747,1002.30444, , , , 
2025-11-24 20:13:37.741,3.5766716,-4.886443,-3.5336008,0.6630747,0.02367033,1.101663,-35.86875,-30.7875,11.15625,0.14833042,-0.65551037,0.04121203,1002.30444, , , , 
2025-11-24 20:13:37.762,5.266902,-5.113761,-2.949453,0.3515426,-0.23044212,1.3826528,-36.0,-30.431252,11.08125,0.14392054,-0.6584536,0.0546268,1002.2959, , , , 
2025-11-24 20:13:37.782,7.065108,-5.846264,-2.3605196,0.15607147,-0.4961607,1.6550907,-36.412502,-29.56875,11.400001,0.13581638,-0.6634589,0.06783417,1002.2959,37.88747623,127.74004183,144.6363525390625,0.84
2025-11-24 20:13:37.801,8.475079,-7.2637124,-2.4346972,-0.053449135,-0.6372664,1.8004723,-37.575,-28.7625,11.681251,0.12509735,-0.67014533,0.08125017,1002.30396, , , , 
2025-11-24 20:13:37.821,9.358628,-8.882157,-2.695814,-0.50975204,-0.6610894,1.9324152,-38.550003,-27.69375,12.225,0.11164978,-0.67766684,0.094192,1002.30396, , , , 
2025-11-24 20:13:37.841,9.059227,-9.686445,-2.3772693,-1.181684,-0.59756136,2.1675916,-39.2625,-26.175001,13.06875,0.09362058,-0.6854921,0.10530045,1002.3059, , , , 
2025-11-24 20:13:37.862,8.539685,-9.480662,-0.87158567,-1.8457514,-0.5212054,2.6464958,-40.3125,-24.6,13.44375,0.061563592,-0.69513345,0.115997374,1002.3059, , , , 
2025-11-24 20:13:37.882,8.740981,-8.944371,0.4118646,-2.090701,-0.45584476,3.133952,-41.30625,-23.19375,13.425,0.028356202,-0.70221186,0.123884484,1002.3091, , , , 
2025-11-24 20:13:37.903,9.530911,-8.556435,1.3812568,-2.043055,-0.36360684,3.4608314,-42.393753,-21.50625,13.031251,-0.008925372,-0.70779735,0.13312605,1002.3091, , , , 
2025-11-24 20:13:37.921,10.644173,-8.180761,1.9271195,-1.7161753,-0.20600824,3.518862,-44.006252,-19.85625,12.50625,-0.04687237,-0.7111269,0.14408332,1002.32104, , , , 
2025-11-24 20:13:37.941,11.034502,-8.134998,1.8601205,-1.3227898,0.0029015245,3.3704262,-45.09375,-17.775002,12.0,-0.082404554,-0.7116563,0.15650932,1002.32104, , , , 
2025-11-24 20:13:37.961,10.969895,-8.400901,1.3980067,-0.9410102,0.11231954,3.2200813,-46.237503,-15.1125,11.775001,-0.11424215,-0.70949584,0.1700813,1002.31934, , , , 
2025-11-24 20:13:37.982,10.560424,-8.625827,0.80907315,-0.65452284,0.049936764,3.1944258,-47.025,-12.450001,11.26875,-0.14273988,-0.70580345,0.1850389,1002.31934, , , , 
2025-11-24 20:13:38.002,10.308878,-8.570791,0.49800622,-0.45966256,-0.12659809,3.3466032,-47.5875,-9.5625,11.08125,-0.1757749,-0.7005027,0.20634821,1002.32104, , , , 
2025-11-24 20:13:38.021,10.325628,-7.9651084,0.64875406,-0.28373855,-0.29946786,3.5542912,-48.093754,-6.58125,10.81875,-0.20150982,-0.69597745,0.22580598,1002.32104, , , , 
2025-11-24 20:13:38.041,10.814063,-7.5053873,0.6966105,-0.09681929,-0.40270105,3.7057812,-48.075,-3.4125001,10.5375,-0.2265013,-0.6907974,0.24753194,1002.3103, , , , 
2025-11-24 20:13:38.062,11.398211,-7.213463,0.7683952,0.11942064,-0.34833565,3.746708,-48.281254,0.13125001,10.762501,-0.25021687,-0.68443704,0.27079254,1002.3103, , , , 
2025-11-24 20:13:38.081,11.566008,-7.144071,0.6343971,0.2855711,-0.19928892,3.6935644,-48.281254,3.525,10.70625,-0.272325,-0.6762775,0.29465848,1002.3091, , , , 
2025-11-24 20:13:38.102,11.563615,-7.0603223,0.40707895,0.36498123,-0.037414394,3.5603995,-47.943752,7.05,10.950001,-0.29290742,-0.66629636,0.3181959,1002.3091, , , , 
2025-11-24 20:13:38.121,11.412567,-6.7585278,0.15553348,0.35704023,0.045049984,3.3056,-47.49375,10.293751,11.38125,-0.31202048,-0.6552312,0.34019065,1002.3157, , , , 
2025-11-24 20:13:38.141,10.878669,-6.586244,0.14596218,0.27885178,-0.006872032,2.9366481,-46.7625,13.368751,11.418751,-0.33330354,-0.6417248,0.36413896,1002.3157, , , , 
2025-11-24 20:13:38.162,10.51496,-6.631708,0.27038896,0.22692975,-0.039857782,2.693531,-46.050003,16.556252,11.55,-0.34814098,-0.6320855,0.38071275,1002.3198, , , , 
2025-11-24 20:13:38.181,10.299307,-6.4881387,0.3999005,0.21165858,0.031000499,2.513942,-44.79375,19.66875,11.56875,-0.36155832,-0.6229355,0.395698,1002.3198, , , , 
2025-11-24 20:13:38.202,10.036097,-6.155237,0.39511484,0.22082129,0.19661646,2.2848742,-43.7625,22.44375,11.25,-0.3739935,-0.61353344,0.40916672,1002.32886, , , , 
2025-11-24 20:13:38.221,10.124631,-6.265307,0.2321038,0.17867282,0.37315133,2.0356486,-42.393753,24.956251,11.0625,-0.38543755,-0.60398906,0.42063984,1002.32886, , , , 
2025-11-24 20:13:38.244,10.239487,-6.576673,0.0023928226,0.054059982,0.70423055,1.7558805,-40.85625,26.962502,10.70625,-0.39902505,-0.5920682,0.43128115,1002.334, , , , 
2025-11-24 20:13:38.261,10.277771,-6.768099,-0.09092726,-0.073607095,0.9876637,1.5628527,-39.9375,28.743752,9.95625,-0.41037017,-0.5822301,0.43616384,1002.334, , , , 
2025-11-24 20:13:38.281,10.737493,-6.782456,-0.30179477,-0.18172707,1.1562575,1.3655491,-38.662502,30.2625,9.50625,-0.4222942,-0.5722156,0.43813086,1002.3296, , , , 
2025-11-24 20:13:38.301,11.0608225,-6.7585278,-0.55304116,-0.30817243,1.2246724,1.1535851,-37.818752,31.575,8.775001,-0.43414724,-0.5627013,0.4375496,1002.3296, , , , 
2025-11-24 20:13:38.321,11.72154,-7.0002027,-0.90508515,-0.54579204,1.2283375,0.90435934,-37.331253,32.775,8.212501,-0.44577956,-0.5545848,0.43443984,1002.32666, , , , 
2025-11-24 20:13:38.342,12.202797,-7.0986075,-0.84765744,-0.86526513,1.1739721,0.5854207,-36.61875,33.28125,7.6312504,-0.45724636,-0.5489025,0.42807266,1002.32666, , , , 
2025-11-24 20:13:38.362,12.964014,-7.201499,-0.325723,-1.141979,0.9375742,0.27755374,-36.225002,34.050003,7.1625004,-0.46818662,-0.54613566,0.41869348,1002.32275, , , , 
2025-11-24 20:13:38.382,14.4795685,-7.029216,0.60807604,-1.2311627,0.6358156,-0.16164546,-36.112503,34.443752,6.76875,-0.47756055,-0.5465767,0.40742144,1002.32275, , , , 
2025-11-24 20:13:38.402,15.499509,-7.0675006,1.8361923,-0.9263499,0.15080291,-1.0296594,-35.737503,34.612503,6.3375,-0.482567,-0.5509216,0.3944329,1002.32764, , , , 
2025-11-24 20:13:38.422,15.463616,-7.9890366,2.7293134,-0.36253786,-0.28236416,-1.8952299,-36.131252,34.631252,6.525,-0.47735864,-0.5624607,0.3773339,1002.32764, , , , 
2025-11-24 20:13:38.441,14.53221,-8.745767,2.951846,0.29412296,-0.64826167,-2.5849528,-36.675003,33.9,6.5625005,-0.46274492,-0.57535875,0.36465517,1002.32715, , , , 
2025-11-24 20:13:38.461,13.351951,-9.329915,2.501696,0.81212145,-0.8864921,-3.1115031,-37.162502,32.737503,6.9187503,-0.44003895,-0.5900924,0.35359076,1002.32715, , , , 
2025-11-24 20:13:38.482,11.89861,-9.619446,1.9486549,1.1115129,-0.950631,-3.5867424,-38.287502,31.237501,7.5375004,-0.41131657,-0.6057858,0.3430526,1002.32764, , , , 
2025-11-24 20:13:38.502,10.845169,-9.892527,1.4940187,1.1725976,-0.8675558,-3.9001071,-39.393753,29.19375,7.8187504,-0.37876728,-0.6216043,0.33151525,1002.32764, , , , 
2025-11-24 20:13:38.522,10.256236,-10.435997,1.2927225,1.1200649,-0.7985301,-4.135283,-40.8375,26.85,8.34375,-0.34428668,-0.6368562,0.31794676,1002.32446, , , , 
2025-11-24 20:13:38.542,9.880563,-11.106286,1.3310076,1.0931876,-0.7985301,-4.303266,-42.61875,23.90625,8.700001,-0.29971686,-0.6548433,0.29814142,1002.32446, , , , 
2025-11-24 20:13:38.562,9.506984,-11.335998,1.3453646,1.1335034,-0.86266905,-4.368627,-44.1375,20.75625,9.150001,-0.2629844,-0.6681793,0.28111595,1002.3262, , , , 
2025-11-24 20:13:38.582,8.479864,-11.266605,1.2089736,1.1133455,-0.9970554,-4.293493,-45.54375,17.175001,9.5625,-0.22560652,-0.68069625,0.264099,1002.3262, , , , 
2025-11-24 20:13:38.601,7.4647093,-10.775778,1.0725827,0.995452,-1.0483667,-4.0186114,-46.59375,13.425,9.918751,-0.18911053,-0.69245136,0.24784075,1002.32983, , , , 
2025-11-24 20:13:38.621,7.004988,-10.031311,0.8955139,0.762032,-0.91703445,-3.5274901,-47.23125,9.675,10.8,-0.15559761,-0.7027562,0.23276775,1002.32983, , , , 
2025-11-24 20:13:38.641,7.0986075,-9.310772,0.7755736,0.4755446,-0.72950435,-3.1793072,-47.68125,5.9812503,11.606251,-0.12643425,-0.7110581,0.21849342,1002.3179, , , , 
2025-11-24 20:13:38.662,7.086643,-8.79123,0.86919284,0.14629792,-0.48272204,-2.952683,-47.60625,2.60625,12.58125,-0.101463355,-0.7176376,0.20368087,1002.3179, , , , 
2025-11-24 20:13:38.682,7.1129646,-8.345866,1.2640085,-0.10659285,-0.16691402,-2.779813,-47.49375,-0.52500004,13.556251,-0.075569116,-0.72311664,0.18340063,1002.32104, , , , 
2025-11-24 20:13:38.701,7.1799636,-8.197512,1.3477573,-0.21898875,0.12942326,-2.6918511,-47.30625,-3.3750002,14.231251,-0.057878803,-0.725005,0.16620578,1002.32104, , , , 
2025-11-24 20:13:38.722,7.129714,-8.367402,1.1970096,-0.32894126,0.39330927,-2.6839101,-46.7625,-6.24375,14.606251,-0.041815214,-0.7247297,0.14836657,1002.3262, , , , 
2025-11-24 20:13:38.741,6.602994,-8.216654,1.3860425,-0.45049986,0.5796177,-2.6961272,-46.275,-8.85,14.75625,-0.02691121,-0.7227057,0.12948301,1002.3262, , , , 
2025-11-24 20:13:38.762,6.0379887,-8.010572,1.759622,-0.42545512,0.72499937,-2.6692498,-45.75,-11.400001,14.475,-0.012941274,-0.7193186,0.10984963,1002.33154, , , , 
2025-11-24 20:13:38.782,5.5280185,-7.6683984,1.9103698,-0.26846737,0.9009234,-2.5855637,-44.79375,-13.781251,14.00625,7.1049435E-4,-0.7143007,0.09069305,1002.33154,37.88746799,127.740049,145.034423828125,1.11
2025-11-24 20:13:38.801,5.506483,-7.8741813,1.7644076,-0.003970507,1.1049464,-2.5104296,-44.0625,-16.3125,13.481251,0.01463233,-0.7074474,0.073171884,1002.32544, , , , 
2025-11-24 20:13:38.822,5.1999025,-8.429615,1.1659029,0.3991887,1.370054,-2.3864276,-43.331253,-18.712502,12.656251,0.03353063,-0.6960661,0.05468159,1002.32544, , , , 
2025-11-24 20:13:38.841,4.206283,-8.302795,0.06699903,0.7040015,1.558195,-2.0779498,-42.600002,-21.0,11.90625,0.049646642,-0.6847252,0.044035766,1002.32764, , , , 
2025-11-24 20:13:38.861,2.9590242,-7.6660056,-1.1324034,0.7791357,1.5545299,-1.5494905,-41.925003,-22.987501,11.1,0.064819545,-0.6725597,0.037849076,1002.32764, , , , 
2025-11-24 20:13:38.881,2.9039893,-7.0411797,-1.8026928,0.6642964,1.330349,-0.9105442,-41.2125,-24.712502,10.293751,0.07640237,-0.6613776,0.03582804,1002.32544, , , , 
2025-11-24 20:13:38.902,3.5048869,-6.370591,-2.2002003,0.4651602,0.96261895,-0.21112408,-40.575,-26.081251,9.637501,0.08315142,-0.6526615,0.037296854,1002.32544, , , , 
2025-11-24 20:13:38.922,4.668397,-6.2605214,-2.3844478,0.24647687,0.6620821,0.2940466,-39.9375,-27.206251,9.09375,0.08502999,-0.6468068,0.041537303,1002.3174, , , , 
2025-11-24 20:13:38.942,6.183951,-7.007381,-2.3988047,0.030236939,0.35054997,0.68201095,-39.84375,-27.581251,8.400001,0.082524575,-0.6436544,0.047572613,1002.3174, , , , 
2025-11-24 20:13:38.961,7.4479594,-7.8670025,-2.4275186,-0.21043688,-0.0013744063,1.1731322,-39.73125,-27.581251,7.425,0.073699415,-0.6435805,0.05712028,1002.3196, , , , 
2025-11-24 20:13:38.981,7.945966,-7.5699935,-2.4801607,-0.45660833,-0.23288552,1.6502038,-40.125,-27.468752,6.8625,0.06496306,-0.6454781,0.06431106,1002.3196, , , , 
2025-11-24 20:13:39.001,8.56122,-6.4256263,-2.0183458,-0.8365553,-0.5431959,2.0832946,-40.55625,-26.475,6.5062504,0.04415476,-0.65141505,0.07823174,1002.3179, , , , 
2025-11-24 20:13:39.021,8.678469,-5.738587,-1.1587243,-1.1205993,-0.7911999,2.1523204,-41.287502,-25.593752,6.0937505,0.023569498,-0.65828913,0.08872444,1002.3179, , , , 
2025-11-24 20:13:39.042,8.601898,-6.0044894,-0.08853444,-1.2629267,-0.9463551,2.117502,-42.1875,-24.35625,6.39375,0.0014746973,-0.6662311,0.097384706,1002.3198, , , , 
2025-11-24 20:13:39.061,8.582756,-6.6891356,0.7085746,-1.1841274,-0.9194778,2.1480443,-43.125,-22.575,6.7125,-0.021137554,-0.67411727,0.105195634,1002.3198, , , , 
2025-11-24 20:13:39.081,8.573184,-7.309176,1.3956138,-0.84999394,-0.85472804,2.2439475,-44.175003,-20.8875,6.7875004,-0.043432757,-0.6808118,0.11396698,1002.32666, , , , 
2025-11-24 20:13:39.102,8.508578,-7.7832537,1.4437693,-0.26724568,-0.83945686,2.4388077,-44.756252,-18.88125,7.3500004,-0.064113446,-0.6859577,0.12579592,1002.32666, , , , 
2025-11-24 20:13:39.121,8.350652,-7.6851482,0.9385847,0.23425992,-0.8919897,2.6770382,-45.5625,-17.0625,7.7250004,-0.08665669,-0.6906531,0.1471677,1002.33496, , , , 
2025-11-24 20:13:39.141,8.259725,-7.254141,0.17228323,0.55006796,-0.9396358,2.9085493,-46.3125,-14.868751,8.043751,-0.10255919,-0.6934186,0.16949692,1002.33496, , , , 
2025-11-24 20:13:39.161,8.214261,-6.7848487,-0.2970091,0.65940964,-0.85106295,3.0942469,-46.85625,-12.937501,8.55,-0.11771689,-0.69512814,0.19475992,1002.33887, , , , 
2025-11-24 20:13:39.181,8.211868,-6.468996,-0.4334,0.6630747,-0.65498096,3.2268007,-47.2125,-12.168751,8.925,-0.12933101,-0.6952032,0.21459097,1002.33887, , , , 
2025-11-24 20:13:39.202,8.733803,-6.253343,-0.5985048,0.5280775,-0.22189027,3.363096,-48.075,-7.7625003,10.06875,-0.15017322,-0.6922653,0.24780014,1002.33325, , , , 
2025-11-24 20:13:39.221,9.483055,-6.116952,-0.6152545,0.3191677,0.25953373,3.3582091,-48.281254,-4.8562503,10.81875,-0.16881526,-0.6866442,0.27297848,1002.33325, , , , 
2025-11-24 20:13:39.241,10.356734,-5.6620164,-0.51236314,0.038177952,0.7732563,3.153499,-48.54375,-1.3312501,11.25,-0.194634,-0.67553073,0.3000267,1002.33325, , , , 
2025-11-24 20:13:39.261,10.677672,-5.4705906,-0.43100718,-0.20249587,1.0493592,2.7674434,-48.468754,1.8000001,11.512501,-0.21600908,-0.6646294,0.31641582,1002.33325, , , , 
2025-11-24 20:13:39.281,10.464711,-5.886942,-0.474078,-0.48653984,1.0927294,2.306254,-48.487503,4.74375,10.875,-0.236657,-0.6538164,0.32761118,1002.3374, , , , 
2025-11-24 20:13:39.302,9.719945,-6.5312095,-0.39032918,-0.8554916,0.95406705,1.9427997,-48.318752,7.55625,10.275001,-0.2564395,-0.6449002,0.33386737,1002.3374, , , , 
2025-11-24 20:13:39.321,8.621041,-6.8853474,0.29461628,-1.2684244,0.7799756,1.8114675,-48.15,9.900001,9.6,-0.27647093,-0.6384097,0.33640856,1002.33374, , , , 
2025-11-24 20:13:39.341,8.326724,-7.254141,1.0486546,-1.4981029,0.5796177,1.8071916,-47.8125,12.0375,8.606251,-0.29766774,-0.63354856,0.33685264,1002.33374, , , , 
2025-11-24 20:13:39.361,8.52772,-8.053643,1.8505492,-1.597671,0.32611609,1.7711517,-47.4,13.875001,8.175,-0.31924078,-0.6301092,0.33637518,1002.32715, , , , 
2025-11-24 20:13:39.382,8.970692,-8.913264,2.801098,-1.4235796,0.07994463,1.8041373,-47.100002,15.4125,7.6125,-0.34486938,-0.62723655,0.33614928,1002.32715, , , , 
2025-11-24 20:13:39.401,9.676874,-9.286844,3.399603,-0.961779,0.025502874,1.9635686,-46.6875,16.875,7.5937505,-0.3631925,-0.6241445,0.33881527,1002.33057, , , , 
2025-11-24 20:13:39.422,9.952348,-8.831908,3.1746774,-0.35276428,0.100102596,2.209129,-46.3125,18.487501,7.7625003,-0.37920615,-0.6182341,0.3457147,1002.33057, , , , 
2025-11-24 20:13:39.441,10.833205,-8.35783,2.2097716,0.19944163,0.11231954,2.4168172,-45.54375,20.00625,7.8562503,-0.3931012,-0.6090497,0.35707018,1002.33594, , , , 
2025-11-24 20:13:39.461,12.73191,-7.94118,0.4214359,0.57205844,0.17462596,2.4027677,-44.662502,21.956251,8.25,-0.40458116,-0.5978348,0.37147972,1002.33594, , , , 
2025-11-24 20:13:39.482,13.756637,-7.0818577,-0.89312106,0.6062659,0.29618457,2.2512777,-43.612503,23.775002,8.2875,-0.4140088,-0.5860158,0.3860422,1002.3342, , , , 
2025-11-24 20:13:39.501,14.82892,-6.114559,-1.9103698,0.4602734,0.35177165,2.0038843,-42.487503,26.081251,8.0625,-0.4226682,-0.57461774,0.39854845,1002.3342, , , , 
2025-11-24 20:13:39.522,16.042978,-4.8912287,-2.6288147,0.21410197,0.19783816,1.4553436,-41.41875,28.181252,7.6687503,-0.43212497,-0.56336296,0.40938783,1002.34106, , , , 
2025-11-24 20:13:39.541,16.806587,-4.536792,-2.908775,-0.029626092,-0.18462859,0.68201095,-40.40625,29.75625,6.9750004,-0.43648827,-0.55957377,0.413296,1002.34106, , , , 
2025-11-24 20:13:39.561,17.11287,-5.003691,-2.5040889,-0.25563958,-0.6763606,-0.22395188,-39.675003,31.087502,6.4125004,-0.43592387,-0.5626874,0.41277513,1002.33496, , , , 
2025-11-24 20:13:39.582,16.54308,-5.8797636,-1.7572291,-0.45294324,-0.88221616,-1.1603807,-39.0,31.85625,6.3,-0.42972967,-0.57254386,0.4082869,1002.33496, , , , 
2025-11-24 20:13:39.602,15.037395,-6.4495544,-1.0510473,-0.6801784,-0.69102097,-1.9025601,-38.775,32.025,6.6000004,-0.41950858,-0.5865971,0.39919356,1002.3308, , , , 
2025-11-24 20:13:39.621,12.947265,-6.9475603,-0.124426775,-0.86954105,-0.34894648,-2.520814,-38.90625,31.650002,7.2187505,-0.40717304,-0.60256237,0.3844053,1002.3308, , , , 
2025-11-24 20:13:39.641,11.082358,-7.4790664,0.8210373,-0.8951967,-0.035581853,-2.9074802,-39.15,30.7875,8.175,-0.393725,-0.61840296,0.36464158,1002.3257, , , , 
2025-11-24 20:13:39.661,9.909277,-8.314759,1.6064813,-0.6771242,0.0768904,-3.1298287,-40.21875,29.175001,9.20625,-0.3753868,-0.6360226,0.33647335,1002.3257, , , , 
2025-11-24 20:13:39.682,9.595518,-8.961121,2.0470598,-0.30695075,-0.12110047,-3.2342834,-41.5125,27.112501,9.5625,-0.35832474,-0.6485235,0.31434336,1002.32935, , , , 
2025-11-24 20:13:39.701,9.396914,-9.332308,2.2648067,0.15057385,-0.5395308,-3.316137,-42.73125,24.6375,10.087501,-0.33765447,-0.6607572,0.29484278,1002.32935, , , , 
2025-11-24 20:13:39.722,9.272487,-9.5404825,2.2743778,0.60687673,-1.0098833,-3.4010448,-43.987503,21.825,10.51875,-0.3124573,-0.6737565,0.27900898,1002.3325, , , , 
2025-11-24 20:13:39.741,8.803194,-9.636196,1.7333009,0.9404757,-1.4112098,-3.4352522,-45.037502,18.73125,10.743751,-0.2829242,-0.6876273,0.26674142,1002.3325, , , , 
2025-11-24 20:13:39.761,8.309974,-9.413663,1.4102699,0.9789591,-1.6738743,-3.3931038,-45.80625,15.918751,11.75625,-0.2508417,-0.70223093,0.256762,1002.33057, , , , 
2025-11-24 20:13:39.781,7.878967,-9.049655,1.3094722,0.8634326,-1.758782,-3.288038,-46.275,12.937501,12.731251,-0.2181401,-0.71710294,0.24769787,1002.33057,37.88745189,127.74006179,145.2218017578125,1.79
2025-11-24 20:13:39.801,7.43121,-8.697611,1.2496517,0.669794,-1.6353909,-3.1463215,-46.6875,10.14375,13.931251,-0.17863049,-0.73468703,0.23612757,1002.33105, , , , 
2025-11-24 20:13:39.821,7.132107,-8.470293,1.2089736,0.4071297,-1.2859862,-2.9789493,-46.55625,7.36875,15.243751,-0.14965186,-0.74673533,0.22582777,1002.33105, , , , 
2025-11-24 20:13:39.842,6.8015985,-8.283653,1.2975081,0.13530266,-0.74111044,-2.757212,-46.425003,4.6125,16.425001,-0.12429519,-0.75573117,0.21410747,1002.3345, , , , 
2025-11-24 20:13:39.862,6.411269,-8.077571,1.4102699,-0.09071082,-0.0361927,-2.468281,-46.350002,1.7625,17.775002,-0.1033441,-0.760874,0.20118354,1002.3345, , , , 
2025-11-24 20:13:39.882,6.2724853,-7.8717885,1.4003994,-0.20493926,0.5075377,-2.2221096,-46.162502,-0.88125,18.75,-0.08668666,-0.7619925,0.18773316,1002.333, , , , 
2025-11-24 20:13:39.902,6.3849483,-7.7617183,1.2879368,-0.266024,0.93574166,-2.0504615,-45.862503,-3.15,19.5,-0.073485866,-0.7596895,0.17419967,1002.333, , , , 
2025-11-24 20:13:39.922,6.4351974,-7.574779,1.1443675,-0.2507528,1.198406,-1.9642557,-45.881252,-5.53125,19.63125,-0.06250412,-0.754722,0.16066056,1002.32227, , , , 
2025-11-24 20:13:39.942,6.672386,-7.893324,0.9409775,-0.15607147,1.3676107,-1.9776944,-45.675003,-7.6312504,19.275002,-0.049822785,-0.74613214,0.14403571,1002.32227, , , , 
2025-11-24 20:13:39.962,6.6915283,-8.575577,0.6655038,-0.019241689,1.4818391,-2.0210645,-45.43125,-9.900001,18.54375,-0.039143384,-0.7378015,0.13113585,1002.32056, , , , 
2025-11-24 20:13:39.981,5.968597,-8.412866,0.18664017,0.088878274,1.6113387,-1.9300482,-45.46875,-12.281251,17.34375,-0.027982553,-0.7282228,0.11920415,1002.32056, , , , 
2025-11-24 20:13:40.001,5.211867,-7.8406816,-0.29461628,0.11697725,1.6333293,-1.7571785,-45.075,-14.475,16.181252,-0.017361598,-0.71768236,0.10862646,1002.3181, , , , 
2025-11-24 20:13:40.022,4.6899323,-7.5364943,-0.51236314,0.09498675,1.4696221,-1.5213915,-44.943752,-16.143751,14.56875,-0.007979041,-0.7071471,0.09919161,1002.3181, , , , 
2025-11-24 20:13:40.042,4.9725847,-8.2812605,-0.4860421,0.13102673,1.1409863,-1.3100383,-44.8875,-17.5125,12.975,-5.527116E-5,-0.6978913,0.09100243,1002.3247, , , , 
2025-11-24 20:13:40.062,4.7425747,-8.40808,-0.4884349,0.23120569,0.8728244,-0.99789536,-44.550003,-18.84375,11.75625,0.006672627,-0.69058883,0.08478212,1002.3247, , , , 
2025-11-24 20:13:40.081,5.317151,-8.956335,-0.52193445,0.40774053,0.55457294,-0.615505,-44.006252,-19.800001,10.650001,0.013237727,-0.6838987,0.08126648,1002.324, , , , 
2025-11-24 20:13:40.101,5.5686965,-9.339486,-0.95772725,0.5274666,0.33222455,-0.27281967,-43.350002,-20.60625,9.88125,0.017380144,-0.6805476,0.082284644,1002.324, , , , 
2025-11-24 20:13:40.122,5.688338,-9.449555,-1.5418751,0.44927815,0.23693238,0.11323581,-42.9,-21.393751,9.431251,0.019772869,-0.67851925,0.08642798,1002.3225, , , , 
2025-11-24 20:13:40.142,5.2310095,-8.76491,-2.085345,0.1487413,0.32733777,0.5652628,-42.9375,-21.768751,8.962501,0.018679881,-0.67688555,0.09267329,1002.3225, , , , 
2025-11-24 20:13:40.162,4.953442,-8.111071,-2.32702,-0.37170056,0.50387263,1.073564,-43.3125,-21.900002,8.775001,0.011956178,-0.6747662,0.09998111,1002.3191, , , , 
2025-11-24 20:13:40.181,5.111368,-7.3785677,-1.6519449,-0.9477295,0.64620006,1.5775131,-43.706253,-21.618752,8.606251,-0.0017842478,-0.6719347,0.107167274,1002.3191, , , , 
2025-11-24 20:13:40.201,5.6261244,-7.1488566,-0.7157531,-1.2348278,0.59855396,1.9244742,-44.287502,-20.71875,7.9875,-0.021516666,-0.6686826,0.113825634,1002.3169, , , , 
2025-11-24 20:13:40.221,6.3945193,-7.294819,0.26799613,-1.1829057,0.4012503,2.1162803,-44.662502,-19.3125,7.275,-0.05060446,-0.66497064,0.12249902,1002.3169, , , , 
2025-11-24 20:13:40.241,6.9786673,-7.606185,0.8210373,-0.8903099,0.12392564,2.2500558,-45.46875,-17.79375,6.4687505,-0.074047856,-0.6628994,0.13123982,1002.3169, , , , 
2025-11-24 20:13:40.262,7.278069,-7.75454,0.9385847,-0.47493374,-0.15164283,2.356954,-46.36875,-16.331251,5.7000003,-0.09549726,-0.6617334,0.14294352,1002.3169, , , , 
2025-11-24 20:13:40.282,7.3163543,-7.6492558,0.68464637,-0.035123717,-0.42346987,2.4864538,-47.0625,-14.587501,5.3812504,-0.11416998,-0.66131896,0.15814197,1002.3186, , , , 
2025-11-24 20:13:40.301,7.3235326,-7.4527454,0.1698904,0.20738265,-0.5804576,2.6471066,-47.90625,-12.750001,5.11875,-0.1305328,-0.6613976,0.17671953,1002.3186, , , , 
2025-11-24 20:13:40.322,7.622935,-7.3642106,-0.15553348,0.30939415,-0.634823,2.8376908,-48.375004,-10.3125,4.9875,-0.1459439,-0.66145474,0.19795458,1002.3225, , , , 
2025-11-24 20:13:40.341,7.9818583,-7.2230344,-0.33050862,0.29656634,-0.5041017,3.0392706,-48.881252,-7.55625,5.4,-0.16155949,-0.66077465,0.2208962,1002.3225, , , , 
2025-11-24 20:13:40.361,8.33151,-7.0172515,-0.52911294,0.17684028,-0.24693501,3.1510556,-49.0875,-4.6312504,5.775,-0.17829607,-0.65835387,0.24444586,1002.32886, , , , 
2025-11-24 20:13:40.381,8.743374,-6.780063,-0.63918275,-0.10353861,0.1672958,3.1443362,-49.29375,-1.5937501,6.4125004,-0.20182756,-0.65209395,0.2720971,1002.32886, , , , 
2025-11-24 20:13:40.401,9.24826,-6.6101727,-0.68464637,-0.41140562,0.446453,2.9787967,-49.162502,1.25625,6.5437503,-0.2227548,-0.644996,0.29056275,1002.33105, , , , 
2025-11-24 20:13:40.422,9.459127,-6.6963143,-0.5386842,-0.7119425,0.57534176,2.6587126,-49.0125,4.125,6.76875,-0.24462481,-0.6373447,0.30464947,1002.33105, , , , 
2025-11-24 20:13:40.441,9.547662,-7.1010003,-0.39511484,-0.92757154,0.57473093,2.3948267,-48.975002,6.9187503,6.4500003,-0.2664664,-0.63016385,0.31467885,1002.33057, , , , 
2025-11-24 20:13:40.462,9.562018,-7.282855,-0.21774685,-1.0613471,0.48615807,2.1877494,-48.843754,9.39375,6.2625003,-0.28790048,-0.6238764,0.32161504,1002.33057, , , , 
2025-11-24 20:13:40.481,9.46152,-7.2086773,-0.2321038,-1.1328162,0.30107135,2.021599,-48.862503,11.793751,5.86875,-0.30845568,-0.61876345,0.32656386,1002.334, , , , 
2025-11-24 20:13:40.501,9.394521,-6.8374906,-0.2632105,-1.209783,-0.00503949,1.8126892,-48.281254,14.156251,5.25,-0.33223096,-0.614774,0.33109662,1002.334, , , , 
2025-11-24 20:13:40.521,9.490233,-7.022037,-0.038285162,-1.2384928,-0.370937,1.605612,-47.643753,16.03125,5.2312503,-0.34912688,-0.6142299,0.33372232,1002.33887, , , , 
2025-11-24 20:13:40.541,9.559626,-7.7186475,0.18664017,-1.2042854,-0.6293254,1.5121524,-46.8375,17.98125,5.0062504,-0.36368525,-0.6160304,0.33629707,1002.33887, , , , 
2025-11-24 20:13:40.562,10.112667,-8.592327,0.4142574,-1.0827267,-0.74477553,1.705791,-46.068752,19.575,5.7375,-0.37707826,-0.61839813,0.34005418,1002.3406, , , , 
2025-11-24 20:13:40.581,10.950753,-8.111071,0.55304116,-0.8438855,-0.8125796,2.0527523,-45.225002,20.737501,6.7312503,-0.39051446,-0.6195853,0.3462858,1002.3406, , , , 
2025-11-24 20:13:40.601,12.40858,-7.1919274,0.13878371,-0.6026008,-0.8522846,2.2781549,-44.23125,22.050001,7.8375,-0.40388682,-0.61884946,0.35574687,1002.3467, , , , 
2025-11-24 20:13:40.622,14.094025,-6.401698,-0.5458627,-0.5085303,-0.78142637,2.1272755,-43.143753,23.475,8.962501,-0.41623083,-0.6170315,0.36677286,1002.3467, , , , 
2025-11-24 20:13:40.641,15.271892,-6.0810595,-0.9290134,-0.6135961,-0.52609223,1.6385977,-41.8125,24.956251,10.125,-0.42900777,-0.61548615,0.3776988,1002.3406, , , , 
2025-11-24 20:13:40.662,15.192928,-5.6189456,-0.67028946,-0.7748597,-0.06429167,1.0509627,-40.95,26.456251,11.025001,-0.4372257,-0.6154998,0.38079274,1002.3406, , , , 
2025-11-24 20:13:40.681,15.020645,-5.64766,-0.08135597,-0.81151056,0.3872008,0.45286688,-40.10625,27.712502,11.71875,-0.44422734,-0.6158576,0.3780588,1002.33936, , , , 
2025-11-24 20:13:40.701,14.764314,-6.059524,0.39750767,-0.60015744,0.73843795,-0.18424681,-39.61875,28.48125,12.450001,-0.44908315,-0.61615133,0.3707463,1002.33936, , , , 
2025-11-24 20:13:40.721,14.51546,-6.7058854,0.63918275,-0.23364908,0.8398386,-0.66559446,-39.54375,28.706251,12.656251,-0.45060977,-0.6161686,0.360988,1002.3357, , , , 
2025-11-24 20:13:40.741,14.151452,-7.012167,0.27996024,0.16767757,0.746379,-1.1078478,-39.6375,28.66875,12.618751,-0.44781432,-0.6162456,0.35075766,1002.3357, , , , 
2025-11-24 20:13:40.762,13.557734,-7.0411797,-0.16510476,0.44683477,0.4947099,-1.6130185,-40.10625,28.331251,12.168751,-0.44011095,-0.6175233,0.34075847,1002.33276, , , , 
2025-11-24 20:13:40.782,12.351152,-7.1249285,-0.285045,0.5909947,0.15630054,-2.2214987,-40.443752,27.73125,11.493751,-0.4232801,-0.62294614,0.32772815,1002.33276,37.88743875,127.74007137,145.36669921875,1.38
2025-11-24 20:13:40.801,11.118251,-7.500602,0.009571291,0.6490252,-0.11438115,-2.6985705,-41.287502,26.831251,10.8,-0.40455547,-0.63074183,0.3162027,1002.3308, , , , 
2025-11-24 20:13:40.821,9.786943,-7.996215,0.392722,0.6923954,-0.31962582,-2.9942205,-42.09375,25.237501,10.21875,-0.38216534,-0.64072317,0.30387208,1002.3308, , , , 
2025-11-24 20:13:40.841,8.992228,-8.697611,0.85483587,0.74920416,-0.5169295,-3.1188333,-42.9375,23.175001,10.06875,-0.35752714,-0.65172696,0.29144442,1002.32764, , , , 
2025-11-24 20:13:40.862,8.539685,-9.205189,1.2233306,0.8854995,-0.68613416,-3.168923,-44.193752,21.0,10.1625,-0.33133698,-0.6629643,0.2795757,1002.32764, , , , 
2025-11-24 20:13:40.881,8.099107,-9.585947,1.2903296,1.0803597,-0.8968765,-3.1786964,-44.925003,18.225,10.481251,-0.30345526,-0.6740716,0.2689089,1002.3264, , , , 
2025-11-24 20:13:40.901,7.5269227,-9.655338,1.2783655,1.2691115,-1.2236798,-3.1420455,-45.9375,15.843751,10.63125,-0.27382758,-0.6852616,0.260026,1002.3264, , , , 
2025-11-24 20:13:40.921,6.9332037,-9.380164,1.1850454,1.4248776,-1.6616572,-3.0119352,-46.800003,13.106251,10.950001,-0.2345894,-0.7002799,0.25212455,1002.32764, , , , 
2025-11-24 20:13:40.941,6.401698,-8.886943,0.83778703,1.4083847,-1.8980552,-2.8097446,-47.175003,10.368751,11.83125,-0.20231429,-0.71317345,0.24838388,1002.32764, , , , 
2025-11-24 20:13:40.961,6.224629,-8.379366,0.47886363,1.1933665,-1.9420362,-2.5574648,-47.475002,8.1,12.900001,-0.17126025,-0.72607577,0.24582349,1002.3252, , , , 
2025-11-24 20:13:40.981,6.332306,-7.7353973,0.61764735,0.84632885,-1.7832159,-2.3235102,-47.34375,5.6625004,14.38125,-0.14301097,-0.7383168,0.24274617,1002.3252, , , , 
2025-11-24 20:13:41.001,6.674779,-7.4240313,0.9026923,0.641695,-1.5376552,-2.172631,-46.93125,3.7500002,16.25625,-0.117993906,-0.74914783,0.23831989,1002.32715, , , , 
2025-11-24 20:13:41.021,6.7704916,-7.187142,0.8955139,0.48898324,-1.1949699,-2.0834472,-46.518753,1.5562501,17.643751,-0.095559694,-0.7579953,0.23285423,1002.32715, , , , 
2025-11-24 20:13:41.041,6.8255267,-6.875776,0.8066803,0.3203894,-0.70629215,-2.014956,-45.84375,-0.54375005,19.29375,-0.07530813,-0.76450855,0.22631803,1002.3208, , , , 
2025-11-24 20:13:41.061,6.983453,-6.7872415,0.5458627,0.14568707,-0.18829367,-1.9862462,-45.393753,-2.4,20.7,-0.05310333,-0.76881033,0.2164078,1002.3208, , , , 
2025-11-24 20:13:41.081,6.7968125,-6.650851,0.3807579,-0.019241689,0.3419981,-1.9783052,-45.037502,-4.125,21.65625,-0.03789965,-0.7689086,0.20677084,1002.31836, , , , 
2025-11-24 20:13:41.101,6.2270217,-6.370591,0.19381863,-0.21349111,0.8386169,-1.9447086,-44.79375,-5.5125003,22.425001,-0.024898836,-0.7661652,0.19570236,1002.31836, , , , 
2025-11-24 20:13:41.122,6.100202,-6.5407805,0.4549354,-0.26419145,1.0866209,-1.9245507,-44.475002,-7.05,22.6875,-0.014030377,-0.76117414,0.1833907,1002.31006, , , , 
2025-11-24 20:13:41.141,6.3370914,-7.433603,0.8811569,-0.05955761,1.162366,-1.986857,-44.175003,-8.53125,22.237501,-0.003996316,-0.7546958,0.17077975,1002.31006, , , , 
2025-11-24 20:13:41.161,5.602196,-7.622935,0.81625164,0.36375955,1.2252833,-2.0131235,-44.0625,-10.21875,21.31875,0.007444267,-0.74694186,0.1595484,1002.3103, , , , 
2025-11-24 20:13:41.181,4.503292,-7.6085777,0.038285162,0.7663079,1.2295592,-1.9043927,-43.575,-12.31875,20.306252,0.024948968,-0.7356337,0.14973053,1002.3103, , , , 
2025-11-24 20:13:41.201,4.045964,-7.821539,-0.78753775,0.9087117,1.1715287,-1.5727026,-43.36875,-13.950001,19.143751,0.0397259,-0.7261651,0.14561544,1002.3152, , , , 
2025-11-24 20:13:41.222,4.220939,-8.185547,-1.7237296,0.83044684,1.1281586,-1.0718079,-43.125,-15.637501,18.4125,0.05222622,-0.7170351,0.14481115,1002.3152, , , , 
2025-11-24 20:13:41.241,4.1703906,-8.075178,-2.3868406,0.5231907,1.0719606,-0.42553148,-42.91875,-16.9125,17.550001,0.060002223,-0.70871264,0.1467642,1002.3186, , , , 
2025-11-24 20:13:41.262,5.137689,-8.154441,-2.4418755,0.09987353,0.8538881,0.30748525,-43.0875,-17.38125,16.7625,0.061102845,-0.7019004,0.15074386,1002.3186, , , , 
2025-11-24 20:13:41.282,6.5694947,-8.592327,-2.32702,-0.2275406,0.506316,0.82250583,-43.350002,-17.925001,15.975,0.0558984,-0.6976949,0.15604225,1002.31934, , , , 
2025-11-24 20:13:41.302,8.252546,-9.047262,-2.2097716,-0.51402795,0.15935478,1.1047173,-43.706253,-17.925001,15.20625,0.045945592,-0.6965282,0.16196467,1002.31934, , , , 
2025-11-24 20:13:41.321,8.108678,-8.183154,-2.1427727,-0.8884773,-0.07834116,1.2323843,-44.0625,-17.550001,14.775001,0.029565813,-0.698484,0.16827898,1002.32666, , , , 
2025-11-24 20:13:41.341,7.5604224,-7.6181493,-1.6926229,-1.3350067,-0.2157818,1.3124053,-44.5125,-17.118752,14.325001,0.01356351,-0.70189947,0.17107897,1002.32666, , , , 
2025-11-24 20:13:41.361,7.1153574,-7.4455667,-0.73489565,-1.7222838,-0.23166382,1.44557,-45.131252,-16.10625,13.70625,-0.005747082,-0.70628685,0.17139444,1002.32495, , , , 
2025-11-24 20:13:41.381,6.937989,-7.402496,0.3807579,-1.8866781,-0.14981028,1.6538689,-45.54375,-15.093751,13.51875,-0.028410992,-0.710412,0.17035913,1002.32495, , , , 
2025-11-24 20:13:41.402,7.2326055,-7.5870423,1.4653047,-1.7070127,-0.09849912,1.8517835,-45.80625,-14.26875,13.2375,-0.053132717,-0.7134114,0.16978954,1002.32544, , , , 
2025-11-24 20:13:41.421,7.673184,-7.75454,1.89362,-1.3001884,-0.046577103,2.0112145,-45.99375,-13.2375,13.05,-0.07786525,-0.7149134,0.17171675,1002.32544, , , , 
2025-11-24 20:13:41.441,7.8957167,-7.548458,2.0470598,-0.7663079,0.0022906773,2.097955,-46.143753,-12.168751,12.750001,-0.10077417,-0.7146267,0.17725672,1002.3274, , , , 
2025-11-24 20:13:41.462,7.8287177,-6.9523463,1.8026928,-0.12247488,-0.035581853,2.141325,-46.48125,-10.762501,12.337501,-0.124935545,-0.71208954,0.18970159,1002.3274, , , , 
2025-11-24 20:13:41.482,7.7234335,-6.4064837,1.189831,0.34971005,-0.068567604,2.182252,-47.04375,-9.0375,12.0375,-0.14018926,-0.70886946,0.20401669,1002.3303, , , , 
2025-11-24 20:13:41.502,7.740183,-6.009275,0.4645067,0.6423059,-0.033138465,2.2317305,-47.4375,-7.1250005,12.0,-0.1526742,-0.7047157,0.22139877,1002.3303, , , , 
2025-11-24 20:13:41.521,7.862217,-5.7026944,-0.20817557,0.7302679,0.118428014,2.2561643,-48.112503,-5.0625,12.0375,-0.16372582,-0.6994412,0.24038881,1002.32104, , , , 
2025-11-24 20:13:41.541,8.063214,-5.5591254,-0.7636095,0.62459135,0.3652103,2.2286763,-48.300003,-2.7562501,11.868751,-0.1746986,-0.69279087,0.2591487,1002.32104, , , , 
2025-11-24 20:13:41.561,8.242975,-5.506483,-1.1180464,0.34054735,0.70056546,2.145601,-48.468754,-0.52500004,11.64375,-0.18668221,-0.6848174,0.27597108,1002.3164, , , , 
2025-11-24 20:13:41.581,8.388937,-5.5184474,-1.3549358,-0.00335966,0.9833877,2.0429788,-48.768753,1.5937501,11.0625,-0.2004063,-0.6757329,0.28969604,1002.3164, , , , 
2025-11-24 20:13:41.602,8.439186,-5.6739807,-1.378864,-0.45416492,1.166031,1.8640004,-48.581253,3.8437502,10.762501,-0.21622261,-0.66612464,0.29958716,1002.3198, , , , 
2025-11-24 20:13:41.621,8.1230345,-5.9327044,-1.1300105,-0.82250583,1.2210073,1.7039584,-48.787502,5.45625,10.125,-0.23852246,-0.6547043,0.30612567,1002.3198, , , , 
2025-11-24 20:13:41.641,7.8311105,-6.404091,-0.84017986,-1.1248752,1.2087904,1.6196615,-48.825,7.3125005,9.31875,-0.25802672,-0.64639837,0.30757105,1002.32666, , , , 
2025-11-24 20:13:41.661,7.6133633,-6.8662047,-0.36400816,-1.3478345,1.1208284,1.6147747,-48.80625,9.01875,8.2875,-0.27886817,-0.63887334,0.30684328,1002.32666, , , , 
2025-11-24 20:13:41.681,7.4766736,-7.048358,0.27517462,-1.4602304,0.9650623,1.6868547,-48.768753,10.387501,6.95625,-0.30064833,-0.63194925,0.30521473,1002.33276, , , , 
2025-11-24 20:13:41.701,7.7210402,-7.3881392,0.62721866,-1.477945,0.7616502,1.737555,-48.693752,12.1125,5.925,-0.3227162,-0.62549084,0.30377752,1002.33276, , , , 
2025-11-24 20:13:41.722,8.20469,-7.953144,0.91465646,-1.4315206,0.518533,1.7540479,-48.43125,13.668751,5.2125,-0.3442064,-0.61984104,0.30292672,1002.33325, , , , 
2025-11-24 20:13:41.742,8.613862,-8.451151,1.1946167,-1.3148488,0.38170317,1.813911,-47.925003,15.187501,4.96875,-0.36460543,-0.61478513,0.3030693,1002.33325, , , , 
2025-11-24 20:13:41.761,9.114262,-8.642576,1.378864,-1.0472976,0.198449,1.9666227,-47.475002,16.6875,4.96875,-0.38846064,-0.6081304,0.30589038,1002.33374, , , , 
2025-11-24 20:13:41.782,9.796515,-8.563613,1.2424731,-0.7589777,0.038941514,2.1346056,-46.800003,18.1875,5.0062504,-0.40591955,-0.6020915,0.31128186,1002.33374,37.88742838,127.74007741,145.4537353515625,1.01
2025-11-24 20:13:41.802,11.05843,-8.434401,0.73489565,-0.50242186,-0.116213694,2.249445,-46.21875,19.66875,5.0062504,-0.42176327,-0.59545594,0.3194858,1002.33545, , , , 
2025-11-24 20:13:41.821,12.308082,-7.8837523,0.033499517,-0.40651885,-0.1809635,2.1999664,-45.675003,21.31875,5.025,-0.43592077,-0.5887862,0.3292146,1002.33545, , , , 
2025-11-24 20:13:41.842,13.133904,-7.184749,-0.41904306,-0.43706122,-0.22555535,2.0277076,-45.05625,23.38125,5.08125,-0.44864693,-0.58270496,0.3386884,1002.33887, , , , 
2025-11-24 20:13:41.861,13.924134,-6.775277,-0.5913263,-0.5787778,-0.25365433,1.6526473,-43.875,25.35,5.7375,-0.4599362,-0.5781416,0.34630144,1002.33887, , , , 
2025-11-24 20:13:41.881,14.386248,-6.4977098,-0.19860429,-0.7290462,-0.23471805,1.1041064,-42.91875,27.000002,6.3375,-0.47146904,-0.57586384,0.35106027,1002.3423, , , , 
2025-11-24 20:13:41.902,14.673387,-6.6053867,0.5099703,-0.7094991,-0.20600824,0.5646519,-41.7,28.3875,6.99375,-0.4779431,-0.57665384,0.35093787,1002.3423, , , , 
2025-11-24 20:13:41.921,14.637494,-6.634101,1.1778669,-0.49814594,-0.13514996,0.009391776,-41.006252,29.212502,7.5750003,-0.48089287,-0.57915974,0.34820047,1002.34644, , , , 
2025-11-24 20:13:41.942,14.244772,-6.552745,1.5873387,-0.14507623,-0.06734591,-0.6387172,-40.612503,29.8875,7.8562503,-0.47930938,-0.5828709,0.34350973,1002.34644, , , , 
2025-11-24 20:13:41.961,13.064512,-6.5982084,1.6615162,0.28679278,-0.05207473,-1.4786321,-40.125,30.225,8.118751,-0.47209355,-0.58802575,0.33696115,1002.3469, , , , 
2025-11-24 20:13:41.981,11.453245,-7.096215,1.5442679,0.63558656,-0.14675605,-2.1897347,-40.3875,30.018751,8.043751,-0.45872983,-0.59509647,0.3285754,1002.3469, , , , 
2025-11-24 20:13:42.002,9.597911,-7.744969,1.6519449,0.9801808,-0.42102647,-2.7706504,-40.443752,29.306252,8.043751,-0.43388104,-0.6068037,0.31671825,1002.3406, , , , 
2025-11-24 20:13:42.022,8.365009,-8.499007,1.6543378,1.2483428,-0.67025214,-3.047975,-41.34375,27.843752,7.6312504,-0.40841827,-0.61802495,0.307777,1002.3406, , , , 
2025-11-24 20:13:42.041,7.697112,-9.257831,1.3908281,1.3821182,-0.890768,-3.0705764,-42.54375,25.931252,7.6312504,-0.37975335,-0.6299187,0.3002032,1002.34424, , , , 
2025-11-24 20:13:42.062,7.4120674,-9.698409,1.2735798,1.355241,-1.0642487,-2.916032,-43.48125,23.79375,7.7625003,-0.35024443,-0.6419351,0.29416716,1002.34424, , , , 
2025-11-24 20:13:42.082,7.4240313,-9.29163,1.2352947,1.2587271,-1.1247225,-2.7504926,-44.8125,21.28125,7.9875,-0.3213723,-0.65367633,0.28918532,1002.33984, , , , 
2025-11-24 20:13:42.101,7.663613,-8.441579,1.3070793,1.0785272,-1.1204466,-2.6802452,-45.787502,18.9375,8.75625,-0.2935371,-0.66499,0.28415126,1002.33984, , , , 
2025-11-24 20:13:42.121,7.9387875,-7.960323,1.4461622,0.91115505,-0.9616263,-2.7175066,-46.4625,16.59375,9.150001,-0.2665825,-0.67580396,0.27795252,1002.3374, , , , 
2025-11-24 20:13:42.142,7.8670025,-7.6085777,1.4222339,0.7504259,-0.76859856,-2.8372328,-47.193752,14.062501,9.731251,-0.24035127,-0.68551904,0.26966208,1002.3374, , , , 
2025-11-24 20:13:42.161,7.538887,-7.426424,1.3549358,0.54151607,-0.57618165,-2.964289,-47.41875,11.793751,10.5,-0.20838095,-0.6962591,0.25584581,1002.3325, , , , 
2025-11-24 20:13:42.183,7.2900333,-7.4455667,1.2017952,0.31855685,-0.25793025,-2.9795601,-47.662502,9.262501,11.15625,-0.18394537,-0.70338416,0.24227342,1002.3325, , , , 
2025-11-24 20:13:42.202,7.1416783,-7.426424,0.9816555,0.067498624,0.1672958,-2.9508505,-47.831253,6.4687505,11.887501,-0.16177203,-0.7081016,0.22658223,1002.3342, , , , 
2025-11-24 20:13:42.221,6.942775,-7.622935,0.84017986,-0.21349111,0.63337225,-2.9380226,-47.79375,4.18125,12.450001,-0.1422796,-0.7100829,0.20851648,1002.3342, , , , 
2025-11-24 20:13:42.242,6.669993,-7.7162547,0.8644072,-0.41018394,0.92291385,-2.908091,-47.756252,1.3312501,12.731251,-0.12535822,-0.7094859,0.18822233,1002.3303, , , , 
2025-11-24 20:13:42.264,6.3825555,-7.764111,0.97926265,-0.5286883,1.0652412,-2.8537257,-47.568752,-1.8375001,12.243751,-0.107069165,-0.70609164,0.1608205,1002.3303, , , , 
2025-11-24 20:13:42.283,6.107381,-7.744969,1.1276177,-0.5238015,1.0756257,-2.7547684,-47.5125,-4.14375,11.775001,-0.093856245,-0.7021626,0.13848189,1002.333, , , , 
2025-11-24 20:13:42.302,6.358627,-8.091928,1.1347961,-0.44866732,1.0573002,-2.663752,-47.456253,-7.275,10.725,-0.08441304,-0.6987484,0.12222344,1002.333, , , , 
2025-11-24 20:13:42.321,6.4881387,-8.745767,1.0390832,-0.27335414,1.0200386,-2.5464694,-47.15625,-9.825001,9.4125,-0.06877021,-0.69240767,0.096815206,1002.3291, , , , 
2025-11-24 20:13:42.341,5.959026,-9.004191,0.72771716,-0.096208446,1.0573002,-2.2819726,-46.85625,-12.468751,8.512501,-0.05630277,-0.6866928,0.07896193,1002.3291, , , , 
2025-11-24 20:13:42.362,5.278866,-8.482257,0.40947178,0.104760304,1.182524,-1.8103222,-46.18125,-15.356251,7.36875,-0.045057863,-0.67986125,0.064617775,1002.32983, , , , 
2025-11-24 20:13:42.382,4.5248275,-7.73779,-0.26081768,0.24403349,1.1806914,-1.3582952,-45.581253,-17.625,6.525,-0.035441663,-0.6718934,0.05430055,1002.32983, , , , 
2025-11-24 20:13:42.402,4.536792,-7.7736826,-0.70618176,0.28679278,1.0456941,-0.88672113,-44.8875,-19.5,5.71875,-0.027894445,-0.66407216,0.047916807,1002.3259, , , , 
2025-11-24 20:13:42.422,4.5272202,-7.637292,-1.0510473,0.34909922,0.878322,-0.34795386,-44.41875,-20.737501,4.875,-0.023143446,-0.65710783,0.045351032,1002.3259, , , , 
2025-11-24 20:13:42.442,5.130511,-7.740183,-1.311865,0.43339613,0.4812713,0.2384595,-44.04375,-21.73125,4.1625004,-0.021296158,-0.65054476,0.04817658,1002.32446, , , , 
2025-11-24 20:13:42.462,5.9135623,-8.063214,-1.59691,0.5158605,0.038330667,0.7229377,-43.96875,-22.3125,3.2812502,-0.02254351,-0.64854944,0.055170737,1002.32446, , , , 
2025-11-24 20:13:42.482,6.8709903,-8.235796,-2.0135603,0.5066978,-0.3538333,1.1615261,-44.025,-22.5,2.90625,-0.026079947,-0.6495038,0.06618667,1002.3247, , , , 
2025-11-24 20:13:42.504,7.50778,-7.9555373,-2.329413,0.3594836,-0.7276718,1.5133741,-44.11875,-22.21875,2.7562501,-0.03385711,-0.6543403,0.0835664,1002.3247, , , , 
2025-11-24 20:13:42.522,7.574779,-7.469495,-2.1499512,0.12125318,-1.0092723,1.7766492,-44.30625,-21.712502,2.68125,-0.040417865,-0.6588458,0.094818115,1002.3237, , , , 
2025-11-24 20:13:42.542,7.5846496,-7.069894,-1.6064813,-0.12736166,-1.1503781,2.0283184,-44.5125,-20.550001,3.4875002,-0.05177723,-0.6661313,0.11003825,1002.3237, , , , 
2025-11-24 20:13:42.562,7.7210402,-7.0002027,-0.9098708,-0.28129515,-1.1235008,2.273268,-45.2625,-19.29375,4.2000003,-0.06609514,-0.6736576,0.12540264,1002.33203, , , , 
2025-11-24 20:13:42.581,7.9220376,-7.048358,-0.2536392,-0.30023143,-0.9152019,2.51272,-46.03125,-17.53125,5.34375,-0.08281243,-0.68001854,0.14139023,1002.33203, , , , 
2025-11-24 20:13:42.601,8.235796,-7.2637124,0.26799613,-0.1963874,-0.65192676,2.6672645,-46.78125,-15.3,6.39375,-0.10564467,-0.684758,0.16283698,1002.3362, , , , 
2025-11-24 20:13:42.622,8.510971,-7.3139615,0.3711866,-0.033902023,-0.38742986,2.7265167,-47.662502,-13.275001,7.14375,-0.12419041,-0.6854308,0.18128589,1002.3362, , , , 
2025-11-24 20:13:42.642,8.29801,-6.966703,0.43579283,0.1511847,-0.16263808,2.7124672,-48.318752,-10.96875,7.8,-0.14194709,-0.6836264,0.20044547,1002.3345, , , , 
2025-11-24 20:13:42.662,7.9076805,-6.5455666,0.3711866,0.33443886,-0.0025961008,2.6898658,-48.600002,-8.793751,8.25,-0.15848781,-0.6796486,0.2201481,1002.3345, , , , 
2025-11-24 20:13:42.682,7.6253276,-6.093024,0.25842485,0.4883724,0.10560022,2.6672645,-48.975002,-6.3750005,8.231251,-0.17382476,-0.67409503,0.24032867,1002.33154, , , , 
2025-11-24 20:13:42.702,7.50778,-5.8920264,0.04546363,0.56595,0.19722731,2.6306138,-49.36875,-3.61875,8.25,-0.18812491,-0.6673191,0.26076078,1002.33154, , , , 
2025-11-24 20:13:42.722,7.5029945,-5.8630137,-0.30179477,0.5066978,0.31939676,2.5395975,-49.406254,-0.63750005,8.400001,-0.2017084,-0.6595776,0.2808492,1002.3345, , , , 
2025-11-24 20:13:42.742,7.510173,-5.8968124,-0.581755,0.3191677,0.40369368,2.3923833,-49.537502,2.2875001,7.7812505,-0.21856916,-0.6492483,0.30371407,1002.3345, , , , 
2025-11-24 20:13:42.762,7.242177,-5.992525,-0.6750751,0.04550812,0.43118182,2.2268436,-49.612503,4.9500003,7.6875005,-0.23251742,-0.6412997,0.31896174,1002.3259, , , , 
2025-11-24 20:13:42.782,7.1512494,-6.2868423,-0.4884349,-0.28373855,0.3872008,2.0716884,-49.312504,7.2937503,7.33125,-0.24723205,-0.634362,0.33119392,1002.3259,37.88742838,127.74007741,145.4537353515625,1.01
2025-11-24 20:13:42.802,7.268498,-6.806384,-0.4429713,-0.5793886,0.35849097,1.9684553,-48.99375,9.1875,6.61875,-0.26279813,-0.6285963,0.34077612,1002.3257, , , , 
2025-11-24 20:13:42.822,7.3881392,-7.285248,-0.25842485,-0.90558106,0.37254047,1.8829367,-48.656254,11.15625,6.1875005,-0.27945554,-0.62401026,0.34779418,1002.3257, , , , 
2025-11-24 20:13:42.842,7.1823564,-7.5317082,0.11006984,-1.1706887,0.4012503,1.8481184,-48.187504,12.8625,6.0375004,-0.29755884,-0.62019813,0.35228798,1002.31714, , , , 
2025-11-24 20:13:42.862,6.923632,-7.792825,0.72053874,-1.3594406,0.32978117,1.8829367,-47.550003,14.85,6.01875,-0.32206553,-0.6160229,0.35538694,1002.31714, , , , 
2025-11-24 20:13:42.882,7.2637124,-8.221439,1.1252248,-1.4052541,0.25586864,2.0509198,-46.8375,16.650002,6.05625,-0.34262195,-0.6128216,0.35761142,1002.32275, , , , 
2025-11-24 20:13:42.901,8.175976,-8.752945,1.0342976,-1.4492351,0.32978117,2.2561643,-46.2,18.28125,6.4125004,-0.3639995,-0.6089106,0.36072722,1002.32275, , , , 
2025-11-24 20:13:42.924,9.52134,-9.332308,1.015155,-1.5402514,0.58572614,2.5023358,-45.61875,20.081251,6.5062504,-0.39280394,-0.60187775,0.36465356,1002.3296, , , , 
2025-11-24 20:13:42.942,10.519746,-9.353843,0.9625129,-1.5390297,0.6779641,2.7100239,-44.925003,21.75,6.4875,-0.4113513,-0.59612185,0.3667357,1002.3296, , , , 
2025-11-24 20:13:42.961,12.276975,-9.052048,0.65353966,-1.5078765,0.59061295,2.8963323,-44.30625,23.475,6.8437505,-0.437045,-0.5868655,0.36988598,1002.34033, , , , 
2025-11-24 20:13:42.982,14.419747,-8.329117,0.5195416,-1.4309098,0.18928629,2.7564483,-43.143753,25.462502,7.05,-0.46800238,-0.57530916,0.37444657,1002.34033, , , , 
2025-11-24 20:13:43.002,15.645471,-7.591828,0.6726823,-1.33745,-0.13759334,2.3447373,-41.662502,27.525002,7.3875003,-0.4838154,-0.570202,0.37721714,1002.33325, , , , 
2025-11-24 20:13:43.022,16.490437,-6.4761744,1.3405789,-1.1267078,-0.27564484,1.4901619,-40.21875,29.343752,7.7625003,-0.50301963,-0.56635517,0.38016734,1002.33325, , , , 
2025-11-24 20:13:43.042,16.511972,-6.0523458,2.2671995,-0.7510367,-0.12904148,0.5108974,-38.756252,31.218752,8.4375,-0.51099783,-0.5669862,0.37924516,1002.33545, , , , 
2025-11-24 20:13:43.062,16.016657,-6.439983,2.9279177,-0.022906773,0.07566871,-0.6185592,-37.48125,32.550003,9.20625,-0.5115544,-0.56968707,0.37510425,1002.33545, , , , 
2025-11-24 20:13:43.082,15.346069,-7.416853,2.5450659,0.7785248,0.0988809,-1.5220023,-36.768753,33.1875,9.75,-0.5038136,-0.5735461,0.36926004,1002.33765, , , , 
2025-11-24 20:13:43.102,14.443676,-8.443972,1.5442679,1.4743562,-0.12048962,-2.328397,-36.525,33.375,10.14375,-0.48739493,-0.578616,0.36329278,1002.33765, , , , 
2025-11-24 20:13:43.122,13.244273,-9.24826,0.5769694,1.9080578,-0.4692834,-3.0357583,-36.956253,32.737503,9.993751,-0.46255085,-0.5860574,0.3576937,1002.34033, , , , 
2025-11-24 20:13:43.142,11.649756,-10.0983095,-0.34247273,1.9624232,-0.8565606,-3.604457,-37.987503,31.687502,9.4875,-0.42197418,-0.5997035,0.3502091,1002.34033, , , , 
2025-11-24 20:13:43.161,10.103095,-10.558031,-0.75643104,1.5397168,-1.0434798,-3.7901545,-39.3375,30.243752,8.775001,-0.38608432,-0.61395055,0.34241226,1002.3369, , , , 
2025-11-24 20:13:43.181,9.104691,-10.696815,-0.32093734,0.92764795,-1.0282086,-3.7669423,-41.04375,28.2,8.0625,-0.35170832,-0.629861,0.33159307,1002.3369, , , , 
2025-11-24 20:13:43.201,8.62822,-10.7351,0.72771716,0.3930802,-0.99949884,-3.6948624,-42.693752,25.800001,7.7812505,-0.32071462,-0.64604706,0.31733817,1002.3335, , , , 
2025-11-24 20:13:43.222,8.12782,-10.541281,1.704587,0.15423894,-1.0214894,-3.6130087,-44.325,22.893751,8.043751,-0.29234818,-0.66188085,0.30068573,1002.3335, , , , 
2025-11-24 20:13:43.242,8.0345,-10.251451,2.1547368,0.044286426,-0.9933904,-3.5409288,-45.75,19.556252,8.887501,-0.26546052,-0.6769526,0.28316462,1002.3301, , , , 
2025-11-24 20:13:43.262,7.9651084,-10.083953,2.3078775,-0.031458635,-0.8620582,-3.5458157,-46.537502,16.050001,10.14375,-0.23919205,-0.6908458,0.26505938,1002.3301, , , , 
2025-11-24 20:13:43.281,7.821539,-9.978668,2.3844478,-0.15851486,-0.5236488,-3.5476482,-47.23125,12.337501,10.9125,-0.2073793,-0.7056487,0.24081284,1002.33154, , , , 
2025-11-24 20:13:43.301,7.3546395,-9.808479,2.475375,-0.23731416,-0.14614521,-3.5250468,-47.68125,8.925,11.7375,-0.18341394,-0.714361,0.21977657,1002.33154, , , , 
2025-11-24 20:13:43.322,6.875776,-9.576375,2.6694927,-0.21837789,0.19356222,-3.419981,-47.775,5.7562504,12.225,-0.16098505,-0.7199459,0.19789194,1002.33154, , , , 
2025-11-24 20:13:43.341,6.7298136,-9.19801,2.5642085,-0.060168456,0.5099811,-3.2709343,-48.037502,2.30625,12.468751,-0.13982064,-0.7223222,0.17650913,1002.33154, , , , 
2025-11-24 20:13:43.361,6.3658056,-8.839087,2.2935205,0.09376506,0.72011256,-3.1951892,-48.05625,-0.7875,12.8625,-0.11903753,-0.7220078,0.15622638,1002.32886, , , , 
2025-11-24 20:13:43.381,5.705087,-8.487042,1.879263,0.1835596,0.96139723,-3.0626354,-47.8875,-4.0687504,12.88125,-0.09825445,-0.71942824,0.13707691,1002.32886, , , , 
2025-11-24 20:13:43.402,5.709873,-8.278867,1.5203397,0.229984,1.3572263,-2.8372328,-47.662502,-7.2000003,12.525001,-0.07845552,-0.71427906,0.119229145,1002.33154, , , , 
2025-11-24 20:13:43.422,5.372485,-8.147262,1.2017952,0.32527617,1.6657041,-2.6826885,-47.23125,-9.918751,11.981251,-0.05567938,-0.7034903,0.0985288,1002.33154, , , , 
2025-11-24 20:13:43.442,4.936692,-8.0201435,0.85483587,0.43461782,1.7805434,-2.5037103,-46.59375,-12.656251,10.875,-0.038451344,-0.6922451,0.08355218,1002.3318, , , , 
2025-11-24 20:13:43.462,4.618148,-7.768897,0.63200426,0.5598415,1.6962465,-2.300298,-46.143753,-15.075001,9.5625,-0.021898193,-0.6801744,0.07042494,1002.3318, , , , 
2025-11-24 20:13:43.482,4.5726843,-7.795218,0.35204405,0.7272137,1.4067049,-2.1225414,-45.581253,-17.587502,8.3625,-0.0056614587,-0.6687153,0.059367497,1002.3252, , , , 
2025-11-24 20:13:43.501,4.1847477,-7.998608,0.043070808,0.8646543,1.1116656,-1.922718,-45.075,-19.78125,6.8812504,0.010730914,-0.65889806,0.050336752,1002.3252, , , , 
2025-11-24 20:13:43.522,3.8090746,-7.780861,-0.39750767,0.9380323,0.8734352,-1.5342193,-44.25,-21.618752,5.8125,0.026442833,-0.6508171,0.04398954,1002.3213, , , , 
2025-11-24 20:13:43.541,3.3230324,-6.957132,-0.7683952,0.9600228,0.5814502,-0.98201334,-43.21875,-23.475,5.0062504,0.04009154,-0.6444225,0.04102695,1002.3213, , , , 
2025-11-24 20:13:43.562,3.4689946,-6.6939216,-1.3166506,0.86160004,0.32855946,-0.39193487,-42.28125,-25.0125,4.2937503,0.05290995,-0.6394263,0.04243984,1002.32056, , , , 
2025-11-24 20:13:43.582,4.1751766,-6.4423757,-1.9247267,0.72538114,0.2735832,0.2848839,-41.475002,-26.118752,4.125,0.05806897,-0.6374317,0.04795252,1002.32056, , , , 
2025-11-24 20:13:43.602,5.235795,-6.305985,-2.516053,0.5079195,0.2192178,0.88236886,-41.15625,-26.831251,4.275,0.05811748,-0.6361489,0.057352014,1002.32056, , , , 
2025-11-24 20:13:43.622,6.650851,-6.6125655,-2.8513472,0.23181653,-0.036803547,1.3466128,-41.268753,-26.94375,4.275,0.05343191,-0.63633704,0.069181085,1002.32056, , , , 
2025-11-24 20:13:43.641,7.6013994,-7.1392856,-3.1722846,-0.07849387,-0.2585411,1.6459279,-41.68125,-26.587502,4.6312504,0.044771343,-0.63864636,0.08208806,1002.3252, , , , 
2025-11-24 20:13:43.662,7.998608,-7.5556364,-3.2656047,-0.45660833,-0.422859,1.9281393,-42.1875,-25.781252,4.51875,0.03209455,-0.6427108,0.0951093,1002.3252, , , , 
2025-11-24 20:13:43.682,7.9363947,-7.4718876,-2.9446673,-0.9349017,-0.61222166,2.3245792,-42.787502,-24.581251,4.2937503,0.009764175,-0.6497056,0.11099361,1002.3279, , , , 
2025-11-24 20:13:43.702,8.003393,-7.5870423,-2.243271,-1.3411151,-0.7191199,2.7106347,-43.4625,-23.400002,4.33125,-0.013889904,-0.6565677,0.12347198,1002.3279, , , , 
2025-11-24 20:13:43.722,8.017751,-8.032107,-1.2855439,-1.6557015,-0.6769715,3.173657,-44.23125,-21.618752,4.425,-0.04283992,-0.66328484,0.13631682,1002.3279, , , , 
2025-11-24 20:13:43.742,8.403294,-8.7577305,-0.30418757,-1.8652985,-0.44484952,3.7405996,-45.225002,-19.518751,4.89375,-0.07692105,-0.66831434,0.15056635,1002.3279, , , , 
2025-11-24 20:13:43.762,9.334701,-9.294023,0.3185445,-1.9465412,-0.103996746,4.1376505,-46.331253,-16.78125,5.25,-0.1153903,-0.67009676,0.16670108,1002.3301, , , , 
2025-11-24 20:13:43.781,11.096715,-9.298808,0.6367899,-1.8958409,0.10193513,4.2091193,-47.60625,-13.33125,5.34375,-0.1563205,-0.6679648,0.18368264,1002.3301,37.8874127,127.74008713,145.34832763671875,1.05
2025-11-24 20:13:43.802,11.422139,-8.702696,1.0342976,-1.6666968,-0.06490252,3.9641697,-48.9,-9.5625,5.0062504,-0.19612217,-0.6636339,0.19980599,1002.3342, , , , 
2025-11-24 20:13:43.822,11.012966,-7.730612,1.6926229,-1.2030637,-0.5474719,3.7686985,-49.537502,-5.6062503,4.6687503,-0.23988955,-0.65865314,0.21955442,1002.3342, , , , 
2025-11-24 20:13:43.841,9.961919,-7.4048886,1.3956138,-0.9068028,-0.82662904,3.5164187,-49.912502,-1.8000001,4.425,-0.26883066,-0.6559789,0.23761961,1002.3323, , , , 
2025-11-24 20:13:43.861,9.803694,-6.7704916,2.0542383,-0.6502469,-0.67513895,3.5500152,-49.875004,1.85625,4.5375004,-0.29418856,-0.6530546,0.25670746,1002.3323, , , , 
2025-11-24 20:13:43.881,9.902099,-6.2318077,1.7356937,-0.5042544,-0.15347537,3.3539333,-49.48125,5.625,5.25,-0.3173935,-0.6471481,0.276046,1002.3318, , , , 
2025-11-24 20:13:43.901,10.2682,-5.8677993,1.6351951,-0.49325916,0.6107709,2.9109926,-49.218754,9.0,5.7375,-0.33915788,-0.6378403,0.29220477,1002.3318, , , , 
2025-11-24 20:13:43.922,10.205987,-5.6620164,1.5490535,-0.44744563,1.058522,2.356954,-48.693752,12.0,6.0375004,-0.35946354,-0.6257785,0.3030737,1002.3213, , , , 
2025-11-24 20:13:43.943,9.636196,-5.5591254,1.3214363,-0.3307738,1.0963944,1.7228947,-48.16875,14.868751,5.83125,-0.38100475,-0.6098742,0.31001335,1002.3213, , , , 
2025-11-24 20:13:43.962,8.963513,-5.549554,1.0534402,-0.20921518,0.8080746,1.2091721,-47.550003,17.0625,5.25,-0.39381108,-0.5992149,0.3125029,1002.3286, , , , 
2025-11-24 20:13:43.981,8.326724,-5.870192,0.663111,-0.16828842,0.44950724,0.7821899,-46.7625,18.9375,4.425,-0.4023593,-0.59192353,0.31381762,1002.3286, , , , 
2025-11-24 20:13:44.001,7.495816,-6.1648083,0.39032918,-0.23853585,0.12697987,0.5292228,-46.40625,20.737501,3.6937501,-0.40784994,-0.5881645,0.3144102,1002.33154, , , , 
