Time,Accel_X,Accel_Y,Accel_Z,Gyro_X,Gyro_Y,Gyro_Z,Mag_X,Mag_Y,Mag_Z,Orient_X,Orient_Y,Orient_Z,Pressure,Lat,Lng,Alt,Speed
2025-11-24 20:01:40.996,-2.204986,2.1020947,9.41127,-0.27129254,0.4407263,-0.1752368,-16.85625,-1.9687501,-50.04375,0.10498221,0.12142384,0.08514721,1002.1824,37.8875222,127.74004695,145.59991455078125,0.0
2025-11-24 20:01:41.017,-2.5737798,1.7093726,8.307581,-1.2023001,0.45477578,-0.18439952,-16.3875,-1.725,-49.893753,0.09130451,0.13059399,0.083460175,1002.17993, , , , 
2025-11-24 20:01:41.036,-2.801098,1.4700904,8.012965,-1.6036267,0.32955208,-0.14102936,-16.237501,-1.06875,-50.268753,0.07806759,0.1345818,0.08351355,1002.17993, , , , 
2025-11-24 20:01:41.056,-3.054737,1.2113664,7.900502,-1.8076497,0.0045813546,-0.09093989,-15.900001,-0.35625002,-50.643753,0.061789606,0.13652372,0.08442588,1002.16675, , , , 
2025-11-24 20:01:41.077,-3.153142,0.8500503,8.195119,-1.8009304,-0.40598437,-0.08238802,-15.50625,0.84375006,-50.643753,0.040197805,0.13491923,0.08631117,1002.16675, , , , 
2025-11-24 20:01:41.096,-3.167499,0.22731815,8.510971,-1.7062491,-1.0650885,-0.16546325,-15.225,2.11875,-50.925003,0.023741735,0.12802453,0.08759177,1002.1814, , , , 
2025-11-24 20:01:41.116,-2.5208387,-0.9242278,8.52772,-1.6915888,-1.3766207,-0.28946525,-15.4875,3.43125,-50.7,0.008144732,0.11503476,0.087592624,1002.1814, , , , 
2025-11-24 20:01:41.136,-1.59691,-2.3700907,9.08794,-1.4362546,-1.4706911,-0.2796917,-15.95625,4.8562503,-50.362503,-0.006792315,0.10034273,0.086524054,1002.1843, , , , 
2025-11-24 20:01:41.156,-3.0140593,-4.072285,10.747064,-0.74836427,-1.9117229,-0.0041995747,-17.1,5.71875,-49.8375,-0.017740706,0.08353892,0.08556995,1002.1843, , , , 
2025-11-24 20:01:41.176,-3.694219,-4.496114,11.307283,-0.031229567,-1.9221072,0.51685315,-18.393751,6.43125,-49.36875,-0.022022597,0.06499408,0.08684826,1002.1904, , , , 
2025-11-24 20:01:41.196,-3.5001013,-4.4985065,11.697613,0.5698441,-1.8347561,1.125257,-20.1375,6.525,-48.99375,-0.01944784,0.047454745,0.0926781,1002.1904, , , , 
2025-11-24 20:01:41.216,-2.9709885,-3.6918263,11.082358,0.82456744,-0.30641624,1.5204751,-22.21875,5.8875003,-48.43125,-0.012177721,0.034304745,0.10386145,1002.2073, , , , 
2025-11-24 20:01:41.236,-1.2759727,-1.9800607,11.273784,1.0151517,0.14935215,1.6829605,-25.125002,5.2125,-48.768753,-0.0011142952,0.036357094,0.12203426,1002.2073, , , , 
2025-11-24 20:01:41.256,0.27038896,1.2089736,11.051251,1.0518026,0.33566058,1.640812,-29.1375,4.40625,-49.706253,0.00840286,0.039045017,0.13801172,1002.21875, , , , 
2025-11-24 20:01:41.276,1.7476579,7.2206416,10.541281,0.98155516,0.7211052,1.3958623,-33.487503,5.175,-51.562504,0.019157229,0.045544088,0.15272847,1002.21875, , , , 
2025-11-24 20:01:41.296,2.719742,9.710373,9.495019,0.48188213,0.4242334,1.4667206,-36.9,7.9125004,-55.218754,0.028388506,0.05243411,0.1661394,1002.209, , , , 
2025-11-24 20:01:41.316,2.4825535,7.2756763,8.987442,0.08910734,0.23731416,1.0311866,-38.287502,11.962501,-60.412502,0.034213122,0.055296727,0.17952105,1002.209, , , , 
2025-11-24 20:01:41.336,1.2400804,3.6774693,9.578768,0.005421269,0.22021043,0.83999133,-38.4375,16.612501,-65.850006,0.036314223,0.056688678,0.18932907,1002.199, , , , 
2025-11-24 20:01:41.356,0.34965122,0.67028946,10.215558,0.13919681,0.21043688,0.69277716,-37.74375,20.456251,-70.443756,0.037722137,0.059036884,0.19918233,1002.199, , , , 
2025-11-24 20:01:41.376,-0.016749758,-0.60329044,10.469497,0.13553174,-0.20738265,0.40995488,-37.275,23.38125,-73.93125,0.03868404,0.059336808,0.20394208,1002.20435, , , , 
2025-11-24 20:01:41.396,-0.34965122,-0.20338993,11.170893,0.36093438,-0.18783553,0.26335153,-37.65,25.218752,-75.225006,0.041414592,0.05611858,0.20817788,1002.20435, , , , 
2025-11-24 20:01:41.416,-0.5051847,-0.5458627,11.941681,0.73049694,-0.2978644,0.2022668,-37.706253,26.325,-75.787506,0.046534207,0.055508323,0.21035162,1002.2002, , , , 
2025-11-24 20:01:41.436,-0.19142582,0.8644072,10.967503,0.9455152,-0.44996536,0.08926006,-37.068752,26.625002,-76.425,0.054850284,0.052725084,0.21146163,1002.2002, , , , 
2025-11-24 20:01:41.456,0.43579283,2.7364917,9.916455,0.96200806,-0.20188501,0.014736691,-35.25,26.1375,-76.856255,0.06460567,0.050902218,0.21156959,1002.1948, , , , 
2025-11-24 20:01:41.476,1.5945172,3.9047875,9.131011,0.8575532,-0.11880979,-0.22043951,-32.475002,25.331251,-76.96875,0.074214324,0.051256698,0.21095659,1002.1948, , , , 
2025-11-24 20:01:41.499,1.8385851,4.043571,8.989835,0.658417,0.19150062,-0.55342764,-30.91875,24.6,-76.725006,0.08220695,0.051649857,0.20813125,1002.1929, , , , 
2025-11-24 20:01:41.516,1.3357933,3.8808591,8.5014,0.44095537,0.3515426,-0.8002099,-27.075,22.2,-74.25,0.088848464,0.056684256,0.20099,1002.1929, , , , 
2025-11-24 20:01:41.536,0.7588239,3.9909291,8.721839,0.30779067,0.17012095,-0.9022214,-26.456251,20.025002,-71.175,0.09167058,0.06124706,0.19336827,1002.1985, , , , 
2025-11-24 20:01:41.556,-0.6750751,3.042773,10.4001045,0.6193228,-0.5458684,-0.86557055,-27.45,16.743752,-67.74375,0.09549061,0.06116618,0.18490021,1002.1985, , , , 
2025-11-24 20:01:41.576,-1.4653047,2.32702,10.785349,1.206347,-0.96246624,-0.66643435,-28.9125,12.88125,-64.068756,0.10393438,0.056871228,0.1761095,1002.1948, , , , 
2025-11-24 20:01:41.596,-1.1611172,0.97926265,9.260523,1.0395857,-1.0809705,-0.4923429,-30.112501,8.925,-60.787502,0.116911046,0.05000044,0.16834237,1002.1948, , , , 
2025-11-24 20:01:41.616,-2.0087745,1.8816559,8.250154,0.21555273,-0.57885414,0.22975492,-30.675001,5.11875,-57.787502,0.12560931,0.04259735,0.16249965,1002.1848, , , , 
2025-11-24 20:01:41.637,-1.4581263,2.489732,8.752945,-0.46187687,-0.22692975,0.6970531,-30.54375,2.15625,-55.3875,0.12533525,0.03674408,0.16537933,1002.1848, , , , 
2025-11-24 20:01:41.656,0.10767702,2.2337,9.585947,-0.4582118,-0.16828842,0.34764844,-30.000002,0.54375005,-53.456253,0.12104928,0.034249756,0.17132148,1002.1853, , , , 
2025-11-24 20:01:41.676,0.4334,1.9510478,10.06481,-0.075821415,-0.4298074,-0.09093989,-29.475,0.45000002,-51.9,0.11851591,0.030914195,0.17367527,1002.1853, , , , 
2025-11-24 20:01:41.696,0.14356937,1.7356937,10.467104,0.3780381,-0.74195033,-0.41781953,-29.025002,0.41250002,-50.625004,0.120459735,0.02581735,0.17174028,1002.1887, , , , 
2025-11-24 20:01:41.716,0.124426775,1.4916258,10.476675,0.77936476,-0.55564195,-0.6646018,-28.218752,0.675,-49.443752,0.12648425,0.020423131,0.16633762,1002.1887, , , , 
2025-11-24 20:01:41.736,0.124426775,1.5753746,9.832706,0.75126576,-0.1487413,-0.80082077,-27.91875,0.82500005,-48.675003,0.1342845,0.018620614,0.1590903,1002.1824, , , , 
2025-11-24 20:01:41.756,-0.040677983,1.7715861,8.865408,0.38292488,-0.0076355906,-0.9333746,-27.487501,0.35625002,-47.943752,0.14003478,0.019867321,0.15106988,1002.1824, , , , 
2025-11-24 20:01:41.776,-0.7396813,1.6926229,9.044869,0.21738526,-0.011911522,-0.9229902,-26.962502,-0.20625001,-47.362503,0.14285843,0.021900173,0.13985434,1002.1814, , , , 
2025-11-24 20:01:41.796,-1.0534402,1.5897316,9.131011,0.4324035,0.1847813,-0.67926216,-26.718752,-0.5625,-46.893753,0.14536628,0.02413267,0.13160318,1002.1814, , , , 
2025-11-24 20:01:41.816,-0.8330014,1.6998014,8.872586,0.4452313,0.049173206,-0.6151232,-26.118752,-1.0500001,-46.3875,0.14893775,0.027059302,0.12544477,1002.1797, , , , 
2025-11-24 20:01:41.836,-0.59611195,1.8912272,8.853444,0.446453,-0.13408098,-0.6322269,-25.7625,-1.6125001,-46.29375,0.15270653,0.028357109,0.11952682,1002.1797, , , , 
2025-11-24 20:01:41.856,-0.5027919,1.8984057,8.745767,0.46416757,-0.26968905,-0.62245333,-25.518751,-2.11875,-45.825,0.1567862,0.02821009,0.11322548,1002.1809, , , , 
2025-11-24 20:01:41.876,-0.9026923,1.9103698,8.4248295,0.40430453,-0.51227176,-0.467909,-25.500002,-2.6625001,-45.5625,0.16103409,0.02614265,0.1069959,1002.1809, , , , 
2025-11-24 20:01:41.896,-1.2089736,1.9944177,8.549256,0.30534726,-0.5837409,-0.25159273,-25.425001,-3.1875002,-45.206253,0.16476949,0.022035373,0.10184265,1002.1841, , , , 
2025-11-24 20:01:41.917,-1.4820545,1.4174483,9.200403,0.18378867,-0.14568707,0.2230356,-25.518751,-3.7125,-44.850002,0.16766395,0.017856624,0.09862135,1002.1841, , , , 
2025-11-24 20:01:41.936,-0.6511469,2.4945176,9.698409,0.09704836,0.31489176,0.50524706,-25.9125,-4.0875,-44.90625,0.1688116,0.017435659,0.100890614,1002.18896, , , , 
2025-11-24 20:01:41.956,0.069391854,3.0786655,9.667302,0.08788565,0.3191677,0.32016033,-25.800001,-4.4625,-44.86875,0.16951427,0.020331437,0.10583082,1002.18896, , , , 
2025-11-24 20:01:41.976,0.24646074,3.4761732,9.111869,-0.08437328,0.3246653,0.1827197,-26.118752,-4.5750003,-45.09375,0.16926661,0.022804437,0.10911588,1002.1875, , , , 
2025-11-24 20:01:41.996,-0.040677983,3.6583266,9.260523,-0.0898709,0.1408003,0.05688515,-25.931252,-4.74375,-45.075,0.16804498,0.02518311,0.111155234,1002.1875,37.8875222,127.74004695,145.59991455078125,0.0
2025-11-24 20:01:42.017,-0.30897322,3.6511483,9.6122675,0.02069245,-0.104760304,0.0678804,-25.406252,-4.74375,-45.09375,0.1675234,0.025618741,0.1120387,1002.19116, , , , 
2025-11-24 20:01:42.036,-0.11246266,3.696612,9.550055,0.07383616,-0.17256436,0.063604474,-25.425001,-4.74375,-45.206253,0.16815706,0.024306493,0.11252278,1002.19116, , , , 
2025-11-24 20:01:42.057,0.1052842,3.775575,9.380164,0.032909397,-0.20310672,0.02817533,-25.312502,-4.65,-45.300003,0.1690356,0.022634028,0.11280574,1002.19116, , , , 
2025-11-24 20:01:42.076,0.39032918,3.818646,9.6122675,0.042072106,-0.20921518,-0.06345176,-25.218752,-4.9500003,-45.65625,0.1697407,0.02002311,0.11241732,1002.1848, , , , 
2025-11-24 20:01:42.096,0.40947178,3.7133617,9.454341,0.051845662,-0.1719535,-0.11231954,-25.725,-4.7625003,-45.825,0.17052759,0.018428294,0.11139618,1002.1831, , , , 
2025-11-24 20:01:42.116,0.325723,3.7109687,9.178867,-0.01718008,-0.26174805,-0.154468,-25.931252,-4.9125004,-45.675003,0.17101526,0.016636943,0.10998909,1002.1831, , , , 
2025-11-24 20:01:42.136,0.22971097,3.6149569,9.080762,-0.037948888,-0.29290125,-0.16912833,-26.325,-5.175,-45.28125,0.1711762,0.014103632,0.108023174,1002.1826, , , , 
2025-11-24 20:01:42.158,0.29940194,3.626921,8.956335,-0.061161082,-0.40415183,-0.14041851,-26.75625,-5.1937504,-45.09375,0.17106032,0.0113612395,0.105993465,1002.1826, , , , 
2025-11-24 20:01:42.176,0.40707895,3.6583266,8.894122,-0.025121093,-0.5696914,-0.19478393,-26.906252,-5.2125,-44.775,0.17115691,0.0072268634,0.10398639,1002.18286, , , , 
2025-11-24 20:01:42.197,0.34486556,3.4522448,9.090333,0.029244313,-0.81036526,-0.22227205,-27.206251,-5.175,-44.71875,0.17171471,0.0015578541,0.10122147,1002.18286, , , , 
2025-11-24 20:01:42.216,0.24885355,3.0858438,9.363414,0.1556897,-0.9166527,-0.15874393,-27.6,-5.0625,-44.287502,0.17356676,-0.007943116,0.09705309,1002.18335, , , , 
2025-11-24 20:01:42.236,0.43579283,2.9997022,9.387342,0.19539477,-0.9380323,-0.08910734,-27.937502,-5.15625,-43.66875,0.17605384,-0.016368002,0.09416084,1002.18335, , , , 
2025-11-24 20:01:42.256,0.72771716,3.0499516,9.377771,0.18867545,-0.82136047,-0.06345176,-28.556252,-5.5687504,-43.10625,0.17863387,-0.024540368,0.09181051,1002.178, , , , 
2025-11-24 20:01:42.276,0.907478,3.153142,9.344272,0.12514733,-0.7260683,-0.07322531,-29.325,-5.925,-42.2625,0.18082532,-0.03172243,0.08980269,1002.178, , , , 
2025-11-24 20:01:42.296,0.93619186,3.2249267,9.313165,0.032909397,-0.5385382,-0.084220566,-29.94375,-6.1312504,-41.737503,0.18214051,-0.03767425,0.08786558,1002.18066, , , , 
2025-11-24 20:01:42.316,0.96729857,3.301497,9.372986,0.0023670332,-0.3729986,-0.059175827,-30.581251,-6.3187504,-41.100002,0.18267493,-0.04212581,0.0861297,1002.18066, , , , 
2025-11-24 20:01:42.336,1.0462617,3.3349965,9.24826,-0.017790927,-0.23181653,-0.024968382,-31.143751,-6.5437503,-40.518753,0.18290538,-0.045598954,0.08469335,1002.17993, , , , 
2025-11-24 20:01:42.356,1.1204392,3.5359936,9.274879,-0.02817533,-0.18905723,-0.01641652,-31.63125,-6.525,-40.275,0.18280298,-0.047627248,0.08406343,1002.17993, , , , 
2025-11-24 20:01:42.376,1.2927225,3.5886357,9.205189,-0.017790927,-0.13224843,-0.035963632,-31.725,-6.675,-39.9375,0.18278632,-0.049034193,0.08352542,1002.1814, , , , 
2025-11-24 20:01:42.398,1.338186,3.6197424,9.190832,-0.061161082,-0.15057385,-0.06772769,-32.025,-6.6937504,-39.768753,0.18262966,-0.050374452,0.08286046,1002.1814, , , , 
2025-11-24 20:01:42.416,1.2831511,3.5479577,9.226724,-0.03917058,-0.09743014,-0.078112096,-32.11875,-6.6562505,-39.581253,0.18247734,-0.051566746,0.081892505,1002.1863, , , , 
2025-11-24 20:01:42.436,1.2113664,3.5383866,9.133404,-0.027564483,-0.11025793,-0.032909397,-31.931252,-6.6375003,-39.318752,0.18241005,-0.0522777,0.08102066,1002.1863, , , , 
2025-11-24 20:01:42.456,1.3166506,3.5910287,9.042477,-0.026953636,-0.06322269,-0.028022617,-32.41875,-6.8250003,-39.46875,0.18243906,-0.053098194,0.08045864,1002.187, , , , 
2025-11-24 20:01:42.476,1.407877,3.6029928,8.784052,-0.11002886,-0.040621344,-0.02985516,-32.49375,-6.525,-39.1875,0.18233779,-0.053658947,0.07996675,1002.187, , , , 
2025-11-24 20:01:42.496,1.4222339,3.598207,8.872586,-0.1778329,-0.014965758,-0.04756973,-32.4,-6.3562503,-39.24375,0.18150352,-0.054209094,0.0795233,1002.1843, , , , 
2025-11-24 20:01:42.516,1.5059828,3.5240295,9.037691,-0.19982341,-0.028404398,-0.07200362,-32.49375,-6.2250004,-39.318752,0.18020009,-0.054528344,0.07892749,1002.1843, , , , 
2025-11-24 20:01:42.536,1.5203397,3.4474592,9.286844,-0.17050274,-0.051616594,-0.1220931,-32.25,-6.2812505,-39.16875,0.17871244,-0.055225722,0.07802093,1002.1863, , , , 
2025-11-24 20:01:42.556,1.2592229,3.2368908,9.361021,-0.10819632,-0.13285927,-0.106211066,-32.287502,-6.5062504,-39.412502,0.1774635,-0.055902984,0.07669498,1002.1863, , , , 
2025-11-24 20:01:42.576,1.1611172,3.1603205,9.466306,-0.036116343,-0.23120569,-0.04940227,-32.381252,-6.7875004,-39.206253,0.17649107,-0.057191864,0.075466484,1002.1897, , , , 
2025-11-24 20:01:42.596,1.2544373,3.1746774,9.442377,0.039017867,-0.29229042,-0.017638214,-32.53125,-6.99375,-39.05625,0.17616464,-0.059126142,0.0745766,1002.1897, , , , 
2025-11-24 20:01:42.616,1.3645071,3.2201412,9.286844,0.066506,-0.29656634,-0.007864659,-32.643753,-6.7312503,-39.09375,0.17649305,-0.061619997,0.07391382,1002.1848, , , , 
2025-11-24 20:01:42.636,1.448555,3.2656047,9.085547,0.043904647,-0.24403349,6.8720314E-4,-32.737503,-6.5437503,-38.90625,0.17719501,-0.064716764,0.07323609,1002.1848, , , , 
2025-11-24 20:01:42.656,1.4198412,3.3326037,8.939586,-0.0012980504,-0.16645588,0.014736691,-32.98125,-6.3562503,-38.9625,0.17755479,-0.06657763,0.072871566,1002.18335, , , , 
2025-11-24 20:01:42.676,1.4003994,3.3780673,8.836694,-0.03000787,-0.08215895,0.028786177,-33.075,-6.4500003,-38.86875,0.17764416,-0.06770357,0.072718576,1002.18335, , , , 
2025-11-24 20:01:42.696,1.3716856,3.39721,8.719446,-0.0794865,-0.044286426,0.049554985,-33.318752,-6.58125,-38.475002,0.17748226,-0.06812972,0.0728245,1002.1763, , , , 
2025-11-24 20:01:42.716,1.4294125,3.4043884,8.697611,-0.1259109,-0.064444385,0.03917058,-33.28125,-6.8437505,-38.475002,0.17693843,-0.068520665,0.07308009,1002.1763, , , , 
2025-11-24 20:01:42.736,1.5203397,3.4187453,8.755338,-0.2150946,-0.10109522,0.03917058,-33.112503,-6.675,-38.2125,0.17589565,-0.0692739,0.073214,1002.1797, , , , 
2025-11-24 20:01:42.756,1.6806588,3.4043884,9.107083,-0.24380441,-0.12369657,0.01901262,-33.206253,-6.4500003,-38.081253,0.17418686,-0.07049709,0.07321639,1002.1797, , , , 
2025-11-24 20:01:42.776,1.759622,3.301497,9.52134,-0.15339902,-0.09926268,0.007406523,-33.2625,-6.01875,-37.818752,0.17192127,-0.07219757,0.07295536,1002.1809, , , , 
2025-11-24 20:01:42.797,1.7907287,3.2823544,9.643374,-0.023288552,-0.09315421,0.025731942,-33.581253,-5.8500004,-37.6875,0.17097755,-0.07330329,0.07278005,1002.1809, , , , 
2025-11-24 20:01:42.816,1.8864416,3.342175,9.41127,0.040850412,-0.06322269,0.034283802,-33.80625,-5.9437504,-37.818752,0.17109057,-0.074272886,0.072897606,1002.18066, , , , 
2025-11-24 20:01:42.836,1.9800607,3.4689946,9.075976,0.012140589,0.0015271181,0.0055739814,-33.84375,-5.9812503,-37.631252,0.17163812,-0.07498853,0.07313878,1002.18066, , , , 
2025-11-24 20:01:42.856,1.9800607,3.4929228,8.810373,-0.051387526,0.040621344,-0.03840702,-33.73125,-6.1687503,-37.612503,0.17210114,-0.07529187,0.07318058,1002.18066, , , , 
2025-11-24 20:01:42.876,1.8433708,3.4737802,8.733803,-0.11186141,0.040010497,-0.07505786,-33.54375,-6.2625003,-37.725002,0.17209628,-0.07529884,0.072834484,1002.18066, , , , 
2025-11-24 20:01:42.896,1.7548363,3.3661032,8.867801,-0.13079767,0.0070247436,-0.093383275,-33.787502,-6.0375004,-37.85625,0.17164299,-0.07520924,0.07209565,1002.18823, , , , 
2025-11-24 20:01:42.916,1.7021942,3.222534,9.049655,-0.13201937,0.033291176,-0.10437853,-33.91875,-5.90625,-38.0625,0.17059876,-0.07513523,0.07084392,1002.18823, , , , 
2025-11-24 20:01:42.936,1.5777674,3.1962128,9.2075815,-0.120413266,0.072996244,-0.09460497,-34.050003,-5.775,-38.325,0.1695061,-0.07452777,0.06981972,1002.187, , , , 
2025-11-24 20:01:42.956,1.4676976,3.2297122,9.294023,-0.0898709,0.029626092,-0.0768904,-34.10625,-5.5125003,-38.175003,0.16855,-0.0736791,0.06895514,1002.187, , , , 
2025-11-24 20:01:42.976,1.4988043,3.2679975,9.301201,-0.09353599,0.019852536,-0.06956023,-34.2,-5.4187503,-38.081253,0.16780812,-0.073122926,0.06818886,1002.1843, , , , 
2025-11-24 20:01:42.996,1.3908281,3.342175,9.284451,-0.14973393,0.0015271181,-0.066506,-34.2,-5.4,-38.4375,0.1669733,-0.07262273,0.06742831,1002.1843,37.8875222,127.74004695,145.59991455078125,0.0
2025-11-24 20:01:43.016,1.5203397,3.2775688,9.456735,-0.2022668,0.08521319,-0.06467345,-34.331253,-5.4750004,-38.925003,0.16564892,-0.072039135,0.0666236,1002.18604, , , , 
2025-11-24 20:01:43.036,1.6088741,3.1555347,9.789336,-0.15645325,0.20310672,-0.05612159,-34.40625,-5.3812504,-39.412502,0.16337252,-0.0702919,0.06584351,1002.18604, , , , 
2025-11-24 20:01:43.056,1.5370895,3.2249267,9.669696,-0.082540736,0.19577655,-0.040850412,-33.675003,-5.3250003,-40.03125,0.16199513,-0.06827536,0.06555343,1002.1902, , , , 
2025-11-24 20:01:43.076,1.6926229,3.301497,9.413663,-0.011071607,0.15179555,-0.0640626,-32.756252,-4.7250004,-40.5,0.16156852,-0.06655129,0.06537856,1002.1902, , , , 
2025-11-24 20:01:43.097,1.785943,3.4139597,9.164511,0.044515494,0.06627693,-0.13675343,-31.48125,-4.14375,-40.875,0.16215378,-0.06556002,0.06489799,1002.1887, , , , 
2025-11-24 20:01:43.116,1.5801603,3.4570305,8.985049,0.023135839,0.016798299,-0.15385716,-30.093752,-3.7875001,-41.325,0.16325662,-0.06527986,0.06374343,1002.1887, , , , 
2025-11-24 20:01:43.136,0.9720842,2.9422746,8.898908,0.010308048,-0.12552911,0.049554985,-29.118752,-3.3375,-41.53125,0.16404559,-0.06511068,0.062415555,1002.1941, , , , 
2025-11-24 20:01:43.156,1.4772689,3.7540395,9.123833,0.07505786,-0.23975755,0.047722444,-28.5375,-3.2062502,-41.475002,0.16446728,-0.0663546,0.06257669,1002.1941, , , , 
2025-11-24 20:01:43.176,1.8409779,3.6364923,9.135797,0.19600561,-0.281906,-0.10498937,-28.368752,-2.8875,-41.2125,0.16682354,-0.068378724,0.062451553,1002.1907, , , , 
2025-11-24 20:01:43.196,1.9151554,3.667898,8.827123,0.1996707,-0.31435728,-0.16790664,-28.425001,-2.71875,-40.59375,0.16973989,-0.07128605,0.061222404,1002.1907, , , , 
2025-11-24 20:01:43.216,1.7380866,3.7229328,8.642576,0.16546325,-0.26480228,-0.20333578,-28.612501,-2.5687501,-40.068752,0.17347206,-0.07484937,0.058690123,1002.19385, , , , 
2025-11-24 20:01:43.237,1.4246268,3.6245282,8.532506,0.25709033,-0.17622943,-0.11720632,-28.368752,-2.2687502,-39.46875,0.17638159,-0.07678998,0.056470815,1002.19385, , , , 
2025-11-24 20:01:43.256,1.5801603,3.559922,8.448758,0.3676537,0.24525517,-0.024357535,-28.06875,-2.3625002,-39.037502,0.18012118,-0.077195935,0.055139486,1002.1929, , , , 
2025-11-24 20:01:43.276,1.59691,3.5838501,7.859824,0.24181916,0.56961507,0.07215633,-27.712502,-2.34375,-39.037502,0.18354997,-0.07349029,0.055576432,1002.1929, , , , 
2025-11-24 20:01:43.296,1.2257234,3.7277186,6.969096,-0.05260922,0.5995466,0.10575293,-27.31875,-2.5687501,-39.412502,0.18575397,-0.068090364,0.057421647,1002.18823, , , , 
2025-11-24 20:01:43.316,0.8138588,3.7971103,6.789634,-0.35436776,0.14263284,0.119802415,-27.45,-3.35625,-39.975002,0.18530983,-0.06272043,0.059867747,1002.18823, , , , 
2025-11-24 20:01:43.336,1.0462617,3.7277186,7.54128,-0.28045526,-0.5959579,-5.344914E-4,-28.181252,-4.05,-40.78125,0.18315187,-0.06423097,0.06069927,1002.1897, , , , 
2025-11-24 20:01:43.356,1.5490535,3.5814574,8.317152,0.12759072,-1.3870051,-0.22410458,-29.531252,-4.70625,-41.4375,0.18265675,-0.07261689,0.058991008,1002.1897, , , , 
2025-11-24 20:01:43.377,1.3884354,3.626921,8.111071,0.47943875,-1.9043927,-0.27541575,-31.406252,-5.2875004,-41.41875,0.18620996,-0.08666278,0.054524556,1002.18604, , , , 
2025-11-24 20:01:43.396,1.4581263,3.4953158,7.0675006,0.62970716,-2.2397478,-0.23571068,-33.393753,-5.8125,-40.85625,0.19261906,-0.10473056,0.04893681,1002.18604, , , , 
2025-11-24 20:01:43.416,1.8266209,3.5072799,6.0284176,0.69140273,-2.5653293,-0.18012358,-35.25,-6.15,-39.225002,0.20022063,-0.12588163,0.04322317,1002.18896, , , , 
2025-11-24 20:01:43.436,2.695814,3.8210387,5.154439,0.5447994,-2.6667302,-0.25220355,-36.693752,-7.0125003,-37.03125,0.20793156,-0.14989673,0.037395407,1002.18896, , , , 
2025-11-24 20:01:43.456,2.844169,3.1339993,4.5487556,0.2717507,-2.470648,-0.2540361,-38.11875,-7.89375,-34.275,0.21509612,-0.17904714,0.028586876,1002.18896, , , , 
2025-11-24 20:01:43.476,2.6671,3.016452,3.667898,-0.114304796,-2.1963778,-0.0011453386,-39.61875,-8.45625,-31.29375,0.21705288,-0.20100291,0.022099921,1002.18896, , , , 
2025-11-24 20:01:43.496,3.1435707,2.5642085,3.2033913,-0.6237514,-1.9654775,0.14362547,-41.04375,-9.28125,-28.650002,0.21481107,-0.22050735,0.01759136,1002.19336, , , , 
2025-11-24 20:01:43.516,3.330211,2.1188445,3.004488,-1.1412154,-1.8359778,0.28717458,-42.487503,-9.09375,-26.081251,0.20746885,-0.2389499,0.013839899,1002.19336, , , , 
2025-11-24 20:01:43.536,3.2249267,1.0247263,3.8712878,-1.518719,-1.5562098,0.57793784,-43.59375,-8.83125,-24.16875,0.19455925,-0.2557941,0.010713856,1002.1897, , , , 
2025-11-24 20:01:43.556,3.6221352,0.25842485,4.7282176,-1.4380871,-1.6246246,0.9016869,-44.4375,-8.118751,-22.518751,0.17875998,-0.27171445,0.009790979,1002.1897, , , , 
2025-11-24 20:01:43.577,4.8385863,-0.148355,5.1759744,-1.0465341,-1.9434869,1.0751675,-45.24375,-6.8625,-20.737501,0.15998311,-0.29395604,0.012498398,1002.19336, , , , 
2025-11-24 20:01:43.596,6.0810595,-0.21296121,4.6755753,-0.7642463,-2.3936813,1.1075424,-45.825,-5.7937503,-19.1625,0.14840311,-0.31546107,0.016510367,1002.19336, , , , 
2025-11-24 20:01:43.617,7.177571,-0.3999005,3.4809587,-0.99094695,-2.6960506,1.1857309,-46.3125,-4.4625,-17.175001,0.13763446,-0.34063888,0.02110515,1002.20166, , , , 
2025-11-24 20:01:43.636,8.012965,-0.65353966,2.9997022,-1.3855543,-2.734534,1.2260468,-46.912502,-3.2812502,-14.962501,0.123788744,-0.36745116,0.025350543,1002.20166, , , , 
2025-11-24 20:01:43.656,8.99462,-1.0438689,3.626921,-1.6500511,-2.7815692,1.1863418,-47.4375,-1.8375001,-12.337501,0.10627213,-0.39427626,0.028223604,1002.2014, , , , 
2025-11-24 20:01:43.676,9.660124,-1.8481563,5.221438,-1.4417522,-2.751638,1.2144407,-48.131252,-0.22500001,-9.4125,0.08768873,-0.42107064,0.029823307,1002.2014, , , , 
2025-11-24 20:01:43.696,9.84467,-2.3389843,4.76411,-1.1100621,-2.6636758,1.3225607,-48.675003,1.48125,-6.39375,0.07064176,-0.4465558,0.03260035,1002.1941, , , , 
2025-11-24 20:01:43.718,11.419746,-2.748456,3.7516468,-0.8437328,-2.6978834,1.3195064,-49.143753,3.075,-3.3187501,0.052552734,-0.47698778,0.039251722,1002.1941, , , , 
2025-11-24 20:01:43.737,11.335998,-3.1555347,3.1076784,-0.8675558,-2.996664,1.2119973,-49.2,4.4437504,-0.7875,0.040024932,-0.50229585,0.045140598,1002.197, , , , 
2025-11-24 20:01:43.756,10.81167,-3.83061,2.4466612,-1.1870289,-3.0864584,1.3323343,-49.068752,5.7000003,1.85625,0.026623437,-0.5290856,0.05033186,1002.197, , , , 
2025-11-24 20:01:43.776,11.182857,-4.302295,2.6694927,-1.5382661,-2.7840128,1.5766732,-48.656254,7.2000003,4.70625,0.009302145,-0.55472374,0.055305414,1002.2029, , , , 
2025-11-24 20:01:43.796,11.113464,-4.4315076,2.7532415,-1.7398458,-2.44316,1.7159463,-47.831253,8.64375,7.51875,-0.011349876,-0.57716584,0.060283784,1002.2029, , , , 
2025-11-24 20:01:43.816,10.895419,-4.8529434,3.0499516,-1.7655013,-2.1731656,1.84117,-47.100002,9.900001,10.33125,-0.034157984,-0.59630877,0.06509744,1002.2029, , , , 
2025-11-24 20:01:43.836,11.49871,-4.8194437,3.153142,-1.5633109,-2.0137343,1.9419597,-46.2,10.931251,13.35,-0.057647638,-0.6127334,0.07060613,1002.2029, , , , 
2025-11-24 20:01:43.857,12.834802,-4.465007,2.5259235,-1.5254383,-1.578811,1.9065306,-45.487503,11.90625,15.69375,-0.08578516,-0.6295627,0.07929309,1002.2102, , , , 
2025-11-24 20:01:43.876,13.19881,-4.618148,2.3437698,-1.6830369,-1.1328926,1.8118494,-44.643753,13.087501,17.85,-0.107788816,-0.6390757,0.08529027,1002.2102, , , , 
2025-11-24 20:01:43.897,10.842776,-7.1105714,2.652743,-1.4808465,-1.438927,1.633482,-43.66875,14.231251,20.04375,-0.12973441,-0.6470303,0.08923325,1002.20557, , , , 
2025-11-24 20:01:43.916,11.087144,-6.5694947,3.3254254,-1.1919158,-1.9447086,1.9816649,-42.393753,15.375001,21.6375,-0.15011267,-0.657231,0.094894245,1002.20557, , , , 
2025-11-24 20:01:43.936,11.709577,-6.863812,3.6460636,-0.72270864,-2.2360828,2.2302797,-40.893753,16.21875,23.456251,-0.16967005,-0.6688312,0.10602921,1002.2124, , , , 
2025-11-24 20:01:43.956,12.31526,-6.320342,3.696612,-0.26884916,-2.0821493,2.3751268,-39.3375,17.118752,25.3875,-0.18659936,-0.6796903,0.121729925,1002.2124, , , , 
2025-11-24 20:01:43.976,12.456436,-6.0690956,3.4761732,0.11293039,-1.9184421,2.3751268,-37.575,18.487501,26.98125,-0.20093967,-0.6881182,0.14011833,1002.2251, , , , 
2025-11-24 20:01:43.997,12.308082,-6.241379,2.9422746,0.36948624,-1.7602327,2.3855112,-35.5875,20.025002,28.556252,-0.21272013,-0.69455034,0.16042486,1002.2251,37.8875222,127.74004695,145.59991455078125,0.0
2025-11-24 20:01:44.018,11.968001,-6.363413,2.4035904,0.50387263,-1.5287216,2.4594238,-33.487503,21.75,30.056252,-0.22557054,-0.69987017,0.18759716,1002.22046, , , , 
2025-11-24 20:01:44.036,11.704791,-6.3131633,1.8433708,0.47943875,-1.2532295,2.546164,-31.237501,23.60625,30.825,-0.23583786,-0.70176625,0.20983908,1002.22046, , , , 
2025-11-24 20:01:44.056,11.857932,-6.148059,1.2496517,0.2980171,-0.9197069,2.6359587,-28.95,25.125002,31.556252,-0.24737003,-0.70148677,0.23130172,1002.22217, , , , 
2025-11-24 20:01:44.076,12.494721,-5.944669,1.0390832,0.060397524,-0.6069531,2.6151898,-27.112501,26.7,32.325,-0.26087493,-0.699277,0.25050125,1002.22217, , , , 
2025-11-24 20:01:44.096,13.088441,-5.575875,0.74207413,-0.19738002,-0.27091077,2.486301,-25.331251,28.44375,32.662502,-0.27571508,-0.6956651,0.2665664,1002.22656, , , , 
2025-11-24 20:01:44.116,13.759029,-5.2549376,0.4764708,-0.4325562,0.06383354,2.292586,-23.493752,29.7,33.131252,-0.29141694,-0.690981,0.27906477,1002.22656, , , , 
2025-11-24 20:01:44.136,14.165809,-4.725825,0.33050862,-0.63841176,0.3008423,2.0500798,-21.9375,30.73125,33.506252,-0.30763382,-0.68549407,0.28752232,1002.2302, , , , 
2025-11-24 20:01:44.156,14.146667,-3.7516468,0.4956134,-0.8339592,0.43217444,1.7000643,-20.56875,31.81875,33.73125,-0.32768312,-0.67859364,0.29270282,1002.2302, , , , 
2025-11-24 20:01:44.176,13.845171,-2.76042,0.86201435,-0.9371924,0.38452834,1.3188956,-19.331251,32.081253,34.125,-0.342348,-0.67411894,0.29288143,1002.23584, , , , 
2025-11-24 20:01:44.196,14.074882,-2.0135603,1.378864,-0.9371924,0.32588702,0.92184484,-18.712502,32.362503,34.518753,-0.35465723,-0.6712308,0.2904303,1002.23584, , , , 
2025-11-24 20:01:44.216,14.110774,-1.0438689,1.8026928,-0.79723203,0.37780902,0.3897969,-18.1875,32.53125,35.081253,-0.36364034,-0.6696427,0.2858288,1002.23706, , , , 
2025-11-24 20:01:44.237,13.919349,-0.68464637,1.8194425,-0.6329141,0.47065783,-0.17218257,-17.6625,32.04375,35.23125,-0.36863914,-0.6689475,0.27905142,1002.23706, , , , 
2025-11-24 20:01:44.256,13.344772,-1.041476,2.0662024,-0.4673745,0.5066978,-0.76844585,-17.831251,31.85625,35.268753,-0.3692675,-0.66931534,0.26971564,1002.24097, , , , 
2025-11-24 20:01:44.276,12.482758,-1.6902301,2.4705894,-0.19004986,0.51036286,-1.2546803,-18.09375,31.44375,35.325,-0.36533996,-0.6708344,0.25834748,1002.24097, , , , 
2025-11-24 20:01:44.297,11.8028965,-2.6694927,2.7963123,0.2851893,0.4535541,-1.6120259,-18.69375,30.937502,35.1375,-0.3542196,-0.67319393,0.24400195,1002.24316, , , , 
2025-11-24 20:01:44.316,11.312069,-3.382853,2.896811,0.84044945,0.2776301,-1.827655,-19.3125,30.581251,35.268753,-0.3402883,-0.6750025,0.23451965,1002.24316, , , , 
2025-11-24 20:01:44.336,11.300105,-3.682255,2.585744,1.4042615,-0.005803049,-2.0060225,-20.212502,30.187502,34.987503,-0.32139164,-0.6770813,0.22821897,1002.24365, , , , 
2025-11-24 20:01:44.356,11.426925,-3.9622152,2.178665,1.8649167,-0.37055522,-2.2381444,-21.337502,29.7,34.4625,-0.297508,-0.6801521,0.22503372,1002.24365, , , , 
2025-11-24 20:01:44.376,11.381461,-4.319045,1.6615162,2.071383,-0.54037076,-2.4464433,-22.5,29.775002,34.0125,-0.2690608,-0.6845123,0.22370683,1002.2449, , , , 
2025-11-24 20:01:44.396,11.218749,-4.831408,1.311865,2.0561118,-0.53548396,-2.5643368,-24.16875,29.5125,33.018753,-0.23781171,-0.68932575,0.22281495,1002.2449, , , , 
2025-11-24 20:01:44.416,10.977074,-4.9725847,1.1587243,1.9095086,-0.3949891,-2.635195,-25.29375,29.325,32.4375,-0.20594786,-0.6935716,0.22100809,1002.2446, , , , 
2025-11-24 20:01:44.436,10.857134,-5.3676996,0.7899306,1.5600276,-0.24586602,-2.6975014,-26.456251,29.493752,31.800001,-0.16742758,-0.69742805,0.21606234,1002.2446, , , , 
2025-11-24 20:01:44.456,10.806885,-5.61416,0.4860421,1.0243145,-0.062000997,-2.779355,-27.525002,28.893751,30.88125,-0.13902026,-0.6998395,0.2086079,1002.2388, , , , 
2025-11-24 20:01:44.476,10.586744,-5.7984076,0.8042875,0.3951418,0.18050537,-2.8483808,-28.63125,28.66875,30.300001,-0.11413654,-0.70161206,0.19649488,1002.2388, , , , 
2025-11-24 20:01:44.496,10.598709,-6.04756,1.7476579,-0.01901262,0.4010212,-2.8361638,-30.187502,27.91875,29.681252,-0.093386725,-0.7021743,0.17994314,1002.24146, , , , 
2025-11-24 20:01:44.516,10.493424,-6.4570317,2.4705894,-0.13263021,0.6227588,-2.7457585,-31.462502,26.587502,29.04375,-0.07566812,-0.7009934,0.16121031,1002.24146, , , , 
2025-11-24 20:01:44.536,10.526924,-6.567102,2.844169,0.010308048,0.7113316,-2.6345842,-33.16875,25.050001,28.5375,-0.05951683,-0.69803834,0.1425405,1002.2427, , , , 
2025-11-24 20:01:44.556,10.601102,-6.579066,2.9303105,0.33588964,0.6887303,-2.555174,-34.350002,23.212502,28.25625,-0.043227904,-0.6938201,0.12550902,1002.2427, , , , 
2025-11-24 20:01:44.576,10.526924,-7.11775,2.14038,0.7530983,0.6569662,-2.5136366,-35.756252,21.35625,27.7875,-0.02043058,-0.6878107,0.10789507,1002.2473, , , , 
2025-11-24 20:01:44.598,9.842278,-7.392925,0.9242278,0.92413557,0.7632536,-2.4061275,-37.162502,19.3875,27.393751,-1.5634524E-4,-0.6821646,0.09685135,1002.2473, , , , 
2025-11-24 20:01:44.617,9.322736,-7.2613196,-0.392722,0.82456744,1.0363023,-2.1355221,-38.2125,17.94375,26.8875,0.01945848,-0.6752058,0.08779247,1002.2461, , , , 
2025-11-24 20:01:44.636,8.71466,-7.1010003,-1.1682956,0.60893834,1.2610942,-1.9101194,-39.75,16.275002,26.081251,0.036401123,-0.6663932,0.0797724,1002.2461, , , , 
2025-11-24 20:01:44.656,8.554042,-7.091429,-1.338186,0.39819607,1.2690352,-1.6242429,-40.66875,14.812501,25.2,0.05000208,-0.65656465,0.07202496,1002.24023, , , , 
2025-11-24 20:01:44.676,8.597113,-7.5197444,-1.3286148,0.3004605,1.1291511,-1.2956071,-41.53125,13.70625,24.300001,0.060123943,-0.6471408,0.06507433,1002.24023, , , , 
2025-11-24 20:01:44.697,8.745767,-7.136893,-0.90029955,0.33344623,0.7675296,-0.94803494,-42.506252,12.39375,23.23125,0.06906727,-0.63772655,0.05885926,1002.2429, , , , 
2025-11-24 20:01:44.716,8.640183,-6.9475603,-0.73489565,0.56617904,0.35215345,-0.75806147,-43.0875,11.53125,22.143751,0.07534719,-0.6331374,0.056191977,1002.2429, , , , 
2025-11-24 20:01:44.736,8.266903,-6.617351,-0.98883396,0.72377765,-0.08765658,-0.5668663,-43.85625,10.59375,20.925001,0.08247422,-0.6318811,0.055885185,1002.23804, , , , 
2025-11-24 20:01:44.756,7.6492558,-6.2581286,-1.2209377,0.7500441,-0.2623589,-0.3268033,-44.475002,9.8625,20.025002,0.08945348,-0.6331355,0.057698607,1002.23804, , , , 
2025-11-24 20:01:44.777,7.306783,-5.884549,-1.6854445,0.57900685,-0.30580541,-0.026800923,-44.456253,9.58125,19.331251,0.09496311,-0.635338,0.061267577,1002.23145, , , , 
2025-11-24 20:01:44.796,7.2230344,-5.42752,-1.704587,0.3084015,-0.3198549,0.24258272,-44.60625,9.262501,19.425001,0.09758022,-0.63803697,0.06577443,1002.23145, , , , 
2025-11-24 20:01:44.816,7.4048886,-4.788337,-1.2951152,0.10132429,-0.37849623,0.4166742,-44.193752,9.337501,19.6875,0.09689285,-0.64129573,0.07039303,1002.23145, , , , 
2025-11-24 20:01:44.836,7.5269227,-4.5631127,-0.7851449,0.011529742,-0.47684264,0.4569901,-43.818752,9.618751,20.19375,0.094189145,-0.64518577,0.07459391,1002.23145, , , , 
2025-11-24 20:01:44.856,7.2493553,-4.642076,-0.33529428,0.0017561859,-0.57030225,0.4850891,-43.6875,9.806251,20.775002,0.08998787,-0.6509684,0.079236835,1002.2361, , , , 
2025-11-24 20:01:44.876,6.926025,-4.9031925,-0.08135597,0.030466007,-0.60206634,0.5797704,-43.48125,10.275001,21.0375,0.08628187,-0.6560093,0.08328855,1002.2361, , , , 
2025-11-24 20:01:44.897,6.6795645,-5.221438,0.06460621,0.053067356,-0.53181887,0.7514185,-43.29375,10.743751,21.6,0.08194019,-0.66093606,0.0884244,1002.2351, , , , 
2025-11-24 20:01:44.917,6.5647087,-5.319544,0.05503492,0.07200362,-0.4530196,0.95421976,-43.10625,11.212501,21.862501,0.07655681,-0.6653834,0.094996184,1002.2351, , , , 
2025-11-24 20:01:44.936,6.5431733,-4.9845486,-0.12203395,0.08238802,-0.3186332,1.1729031,-42.91875,11.962501,22.1625,0.069877885,-0.6691748,0.10324295,1002.2368, , , , 
2025-11-24 20:01:44.956,6.6077795,-4.4985065,-0.43100718,0.048180576,-0.26541314,1.3109546,-42.675003,12.431251,22.35,0.061916728,-0.6721877,0.11293802,1002.2368, , , , 
2025-11-24 20:01:44.976,6.897311,-4.182355,-0.7253244,-0.07521057,-0.29656634,1.4147986,-42.05625,14.062501,22.650002,0.05285735,-0.6751188,0.1231173,1002.2395, , , , 
2025-11-24 20:01:44.997,7.077072,-3.8641095,-0.58654064,-0.23097663,-0.36322504,1.505204,-41.49375,15.056251,23.1,0.03980507,-0.6792998,0.1353846,1002.2395,37.8875222,127.74004695,145.59991455078125,0.0
2025-11-24 20:01:45.016,7.385746,-3.6894333,-0.63918275,-0.40567893,-0.32046574,1.5840033,-40.96875,16.181252,23.38125,0.02782759,-0.68293476,0.14465185,1002.23804, , , , 
2025-11-24 20:01:45.037,7.7186475,-3.7420754,-0.53629136,-0.6701758,-0.12736166,1.6817389,-40.256252,16.95,23.831251,0.013968657,-0.68592715,0.1531871,1002.23804, , , , 
2025-11-24 20:01:45.056,7.9890366,-3.8760736,-0.34965122,-0.8492304,0.060779303,1.7861937,-39.61875,17.737501,24.112501,-0.002347964,-0.68776435,0.16080013,1002.23926, , , , 
2025-11-24 20:01:45.076,8.242975,-4.0148573,0.016749758,-0.9457443,0.2275406,1.929132,-39.15,19.050001,24.243752,-0.02102678,-0.68810534,0.16791819,1002.23926, , , , 
2025-11-24 20:01:45.096,8.685647,-4.1464624,0.17467605,-0.9292514,0.2043284,2.0500798,-38.625,20.00625,24.562502,-0.041161526,-0.68762773,0.17517398,1002.2334, , , , 
2025-11-24 20:01:45.116,9.349057,-4.1057844,0.3687938,-0.8137249,0.13285927,2.1838553,-38.04375,21.056252,24.88125,-0.06704129,-0.6866527,0.18550916,1002.2334, , , , 
2025-11-24 20:01:45.136,9.993026,-4.1033916,0.38315073,-0.6787277,0.048562355,2.2046242,-37.48125,22.425001,25.125002,-0.08714622,-0.68576676,0.1950285,1002.22876, , , , 
2025-11-24 20:01:45.156,10.215558,-3.9861434,0.42382872,-0.56266665,-0.013744064,2.1954615,-36.5625,23.306252,25.35,-0.10607579,-0.6847487,0.20529802,1002.22876, , , , 
2025-11-24 20:01:45.176,10.529317,-4.124927,0.148355,-0.51257724,-0.051616594,2.1618648,-35.4375,24.393751,25.875002,-0.12389058,-0.6836474,0.21601294,1002.228, , , , 
2025-11-24 20:01:45.196,10.960324,-4.6564326,-0.11246266,-0.5638884,-0.08215895,2.1160512,-34.5,25.837502,26.081251,-0.14105855,-0.6825402,0.22650667,1002.228, , , , 
2025-11-24 20:01:45.216,11.280962,-5.18076,0.04546363,-0.6518504,-0.14568707,2.10078,-33.24375,26.775002,26.56875,-0.15821579,-0.6816004,0.23629624,1002.22974, , , , 
2025-11-24 20:01:45.236,11.692827,-5.3365927,0.325723,-0.69644225,-0.22021043,2.1618648,-32.15625,27.88125,27.112501,-0.17568313,-0.68098545,0.24552646,1002.22974, , , , 
2025-11-24 20:01:45.257,12.355938,-4.922335,0.7181459,-0.69522053,-0.24525517,2.221117,-30.88125,28.95,27.431252,-0.19796257,-0.6800377,0.25722945,1002.2378, , , , 
2025-11-24 20:01:45.276,13.141083,-4.196712,0.9026923,-0.6707866,-0.266024,2.1472044,-29.362501,29.75625,27.712502,-0.21532123,-0.6790859,0.26640776,1002.2378, , , , 
2025-11-24 20:01:45.296,13.612768,-3.4402807,1.0247263,-0.64879614,-0.22387552,1.9346297,-27.806252,30.525002,27.91875,-0.23123078,-0.67802465,0.27459636,1002.2344, , , , 
2025-11-24 20:01:45.316,14.0653105,-3.0403802,0.8572287,-0.68911207,-0.13835691,1.5675104,-26.400002,31.331251,28.10625,-0.24514839,-0.67709106,0.28084454,1002.2344, , , , 
2025-11-24 20:01:45.336,13.770993,-3.0738797,0.6942177,-0.8290724,0.08093726,1.2816339,-25.1625,32.1375,28.518751,-0.25727382,-0.67637944,0.28432077,1002.23096, , , , 
2025-11-24 20:01:45.356,13.8356,-2.786741,0.8572287,-0.9384141,0.30023143,1.1215919,-23.868752,32.8875,28.85625,-0.26920477,-0.675118,0.28488442,1002.23096, , , , 
2025-11-24 20:01:45.376,14.773885,-2.3892334,0.9457632,-0.8864921,0.31611344,0.86870116,-23.34375,33.28125,29.343752,-0.28098854,-0.67332906,0.2830789,1002.2373, , , , 
2025-11-24 20:01:45.396,15.492331,-1.489233,0.9816555,-0.70316154,0.15912572,0.42339352,-22.5,33.412502,30.018751,-0.2920836,-0.6719332,0.27857298,1002.2373, , , , 
2025-11-24 20:01:45.416,15.820147,-1.2831511,1.0677971,-0.53517854,-0.149963,-0.074447006,-21.993752,33.15,30.35625,-0.29605612,-0.6729931,0.27342966,1002.2329, , , , 
2025-11-24 20:01:45.436,15.89911,-1.3860425,1.3166506,-0.35681117,-0.30030778,-0.5082249,-22.181252,32.8875,31.331251,-0.29500303,-0.6765908,0.26738065,1002.2329, , , , 
2025-11-24 20:01:45.456,15.683756,-1.582553,1.6950158,-0.24808034,-0.18172707,-0.99568105,-21.900002,32.475002,31.931252,-0.28984684,-0.6812726,0.2603052,1002.23804, , , , 
2025-11-24 20:01:45.476,14.816956,-2.1499512,2.341377,-0.15339902,0.10903624,-1.4929107,-21.975,31.893751,32.362503,-0.2814198,-0.68580925,0.25090748,1002.23804, , , , 
2025-11-24 20:01:45.496,13.0310135,-3.315854,3.8760736,0.11964971,0.31183752,-1.9247797,-22.1625,31.425001,32.643753,-0.26987413,-0.68923116,0.23882931,1002.2363, , , , 
2025-11-24 20:01:45.516,11.625828,-4.76411,6.0427747,0.9326874,0.27091077,-2.244253,-22.725,30.69375,32.4375,-0.25457764,-0.6910029,0.22657113,1002.2363, , , , 
2025-11-24 20:01:45.536,10.840384,-6.0140605,6.658029,2.134911,-0.013744064,-2.4488866,-23.7,30.187502,32.362503,-0.22639781,-0.6909302,0.21702302,1002.229, , , , 
2025-11-24 20:01:45.556,10.124631,-7.1679993,4.9917274,3.2411556,-0.5269321,-2.551509,-25.312502,29.625002,31.781252,-0.19376995,-0.69025385,0.21774574,1002.229, , , , 
2025-11-24 20:01:45.576,9.380164,-7.481459,2.1140587,3.5862842,-0.8897754,-2.4702663,-26.962502,29.268751,30.91875,-0.15407771,-0.69065434,0.22516963,1002.2307, , , , 
2025-11-24 20:01:45.596,9.0951185,-6.8374906,-0.15314065,2.9986491,-0.8971056,-2.223484,-27.993752,29.325,29.94375,-0.11380661,-0.6919321,0.23458703,1002.2307, , , , 
2025-11-24 20:01:45.616,9.751051,-5.803193,-0.61764735,2.1092556,-0.62955445,-2.104369,-29.2875,29.475,28.368752,-0.078648075,-0.6932819,0.24099205,1002.22754, , , , 
2025-11-24 20:01:45.636,10.320843,-4.7401814,0.021535404,1.346231,-0.3534515,-2.1862223,-30.0375,29.775002,26.85,-0.049912058,-0.69402754,0.24144918,1002.22754, , , , 
2025-11-24 20:01:45.656,10.596316,-3.8210387,1.055833,0.88381964,-0.21837789,-2.4574385,-30.91875,29.98125,25.743752,-0.0254028,-0.69415706,0.23574208,1002.2307, , , , 
2025-11-24 20:01:45.676,10.412068,-3.502494,1.2496517,0.59855396,-0.14324369,-2.6962798,-32.025,29.6625,24.956251,0.0035844306,-0.69377,0.2222894,1002.2307, , , , 
2025-11-24 20:01:45.696,10.481461,-3.3900316,1.5346966,0.36276692,-0.0076355906,-2.8202817,-32.756252,29.118752,24.375002,0.025912121,-0.6927929,0.20785676,1002.228, , , , 
2025-11-24 20:01:45.716,10.960324,-3.708576,1.8696918,0.21738526,0.2495311,-2.8709822,-33.91875,27.862501,24.13125,0.046846785,-0.69036245,0.19145267,1002.228, , , , 
2025-11-24 20:01:45.736,10.529317,-3.7301114,1.6806588,0.1556897,0.54945713,-2.8923619,-34.987503,26.118752,23.94375,0.06656992,-0.68562233,0.17402595,1002.22876, , , , 
2025-11-24 20:01:45.756,10.232307,-3.7325041,1.3094722,0.05856498,0.67406994,-2.8660953,-36.28125,24.243752,23.625,0.08520913,-0.6790962,0.15626304,1002.22876, , , , 
2025-11-24 20:01:45.777,10.201201,-3.7564325,1.3429717,-0.013514996,0.69483876,-2.8728147,-37.8375,21.975,23.268751,0.1026686,-0.67164034,0.13798179,1002.22925, , , , 
2025-11-24 20:01:45.796,9.564411,-4.041178,1.4820545,0.0035887277,0.6612422,-2.8251686,-39.09375,19.743752,22.9125,0.119517736,-0.6638144,0.11920784,1002.22925, , , , 
2025-11-24 20:01:45.816,9.12144,-4.05075,1.4772689,0.023135839,0.68689775,-2.7097185,-40.443752,17.400002,22.2,0.13975143,-0.6536315,0.096531205,1002.2334, , , , 
2025-11-24 20:01:45.836,9.274879,-4.4889355,1.352543,0.11109784,0.70583403,-2.5728886,-41.68125,14.85,21.65625,0.15506828,-0.64497447,0.07957875,1002.2334, , , , 
2025-11-24 20:01:45.856,8.9348,-5.142475,0.79950184,0.20516832,0.6728483,-2.351762,-42.3375,12.525001,21.393751,0.16975868,-0.63628185,0.06445264,1002.23193, , , , 
2025-11-24 20:01:45.876,8.2812605,-4.874479,0.36161533,0.18928629,0.57205844,-2.028013,-43.40625,10.35,20.8125,0.18307619,-0.62828106,0.05172119,1002.23193, , , , 
2025-11-24 20:01:45.896,7.5364943,-4.3788652,0.22013968,0.090329036,0.47065783,-1.6926577,-44.23125,8.08125,20.268751,0.19428618,-0.6213656,0.04087926,1002.2312, , , , 
2025-11-24 20:01:45.916,7.3115687,-4.3740797,0.35204405,-0.0031305922,0.42484426,-1.359746,-44.943752,6.3,19.59375,0.20299418,-0.61544573,0.03149538,1002.2312, , , , 
2025-11-24 20:01:45.937,7.24457,-5.046762,0.32093734,0.029244313,0.4071297,-0.90283227,-45.825,4.55625,19.29375,0.21008341,-0.60934705,0.022690816,1002.22, , , , 
2025-11-24 20:01:45.956,6.937989,-4.979763,0.09092726,0.11781716,0.34054735,-0.41659784,-45.99375,3.1125002,19.143751,0.2130264,-0.6056734,0.019578492,1002.22, , , , 
2025-11-24 20:01:45.976,7.0172515,-5.1089754,-0.36640096,0.20028155,0.12858334,0.027564483,-46.125,2.3812501,19.237501,0.21402243,-0.60401416,0.020259714,1002.2224, , , , 
2025-11-24 20:01:45.996,7.0675006,-4.817051,-0.90508515,0.15263546,-0.12308572,0.4478274,-46.275,1.6125001,18.993752,0.2129642,-0.60499144,0.024106,1002.2224,37.88752722,127.74006072,146.24554443359375,1.42
2025-11-24 20:01:46.016,7.433603,-4.1105704,-0.8428718,-0.0086282175,-0.40354097,0.84548897,-46.18125,1.6125001,18.581251,0.20919241,-0.6087022,0.02990651,1002.2234, , , , 
2025-11-24 20:01:46.036,8.175976,-3.6221352,-0.5458627,-0.10636378,-0.5367057,1.1197594,-46.0125,1.95,18.150002,0.20257726,-0.6145782,0.036794744,1002.2234, , , , 
2025-11-24 20:01:46.056,8.532506,-3.2273195,-0.46929234,-0.17966545,-0.5641938,1.2565892,-45.91875,2.53125,18.09375,0.19401433,-0.62151194,0.044519328,1002.2212, , , , 
2025-11-24 20:01:46.076,8.324331,-3.1459637,-0.3281158,-0.28961796,-0.5385382,1.3750936,-45.73125,3.1125002,18.393751,0.18417773,-0.6286174,0.052573882,1002.2212, , , , 
2025-11-24 20:01:46.096,7.8837523,-3.0236306,-0.06699903,-0.4026247,-0.44874367,1.5638454,-45.506252,4.1625004,18.84375,0.16961452,-0.6370493,0.06312203,1002.2263, , , , 
2025-11-24 20:01:46.116,8.159226,-2.9973094,0.076570325,-0.50524706,-0.34245625,1.7544297,-45.46875,5.2125,19.462502,0.15575546,-0.64325744,0.07242546,1002.2263, , , , 
2025-11-24 20:01:46.136,8.223832,-2.8489544,0.19860429,-0.55839074,-0.20005247,1.852776,-45.206253,6.20625,19.875,0.14023201,-0.6484998,0.08238846,1002.23047, , , , 
2025-11-24 20:01:46.156,8.305188,-3.0403802,0.29222345,-0.5889331,-0.1524064,1.8992004,-44.79375,7.4812503,20.2875,0.123876415,-0.6529092,0.09261391,1002.23047, , , , 
2025-11-24 20:01:46.176,8.319545,-3.3278182,0.30179477,-0.59443074,-0.12613995,1.9181367,-44.175003,9.056251,20.75625,0.10709294,-0.6568253,0.102922186,1002.2295, , , , 
2025-11-24 20:01:46.196,7.94118,-3.251248,0.54346985,-0.5418979,-0.17867282,1.897368,-43.95,10.087501,21.075,0.0902583,-0.6604843,0.11320174,1002.2295, , , , 
2025-11-24 20:01:46.216,7.048358,-3.5144582,0.78035927,-0.44599485,-0.29167956,1.9499009,-43.59375,11.55,21.243752,0.073964834,-0.6641777,0.123586126,1002.229, , , , 
2025-11-24 20:01:46.236,6.7609205,-3.8784664,1.0630114,-0.30244574,-0.34795386,2.1032236,-43.143753,12.806251,21.6,0.05385407,-0.6691734,0.13801667,1002.229, , , , 
2025-11-24 20:01:46.256,7.062715,-4.2352962,0.7683952,-0.17355698,-0.32474166,2.3096898,-42.73125,14.175,21.7875,0.03761638,-0.6728877,0.15193376,1002.22754, , , , 
2025-11-24 20:01:46.276,7.960323,-4.496114,0.3400799,-0.15950748,-0.27091077,2.5180652,-41.79375,16.050001,21.956251,0.02070503,-0.6759012,0.1679308,1002.22754, , , , 
2025-11-24 20:01:46.296,9.705587,-4.28076,0.22492532,-0.12896512,-0.33756948,2.610914,-40.987503,17.6625,22.48125,0.002744546,-0.6785307,0.18499956,1002.2322, , , , 
2025-11-24 20:01:46.316,10.687243,-4.0698924,-0.124426775,-0.14729054,-0.4401918,2.5565486,-39.80625,19.725,22.706251,-0.014790628,-0.6812816,0.2020575,1002.2322, , , , 
2025-11-24 20:01:46.336,11.211571,-4.206283,-0.3376871,-0.35925454,-0.40598437,2.47836,-38.5875,21.65625,23.25,-0.0317703,-0.6842668,0.21816313,1002.23755, , , , 
2025-11-24 20:01:46.356,11.324033,-4.369294,0.03589234,-0.7697439,-0.16340165,2.4020042,-37.4625,23.493752,23.775002,-0.054577503,-0.6873955,0.23514977,1002.23755, , , , 
2025-11-24 20:01:46.376,10.885847,-4.761717,0.8644072,-1.1528215,0.13224843,2.3628335,-36.075,25.5375,24.0,-0.07556187,-0.68845403,0.24523048,1002.23413, , , , 
2025-11-24 20:01:46.396,10.782956,-5.331807,1.9800607,-1.41854,0.38025242,2.386733,-35.006252,26.868752,24.13125,-0.09950161,-0.6878901,0.2524927,1002.23413, , , , 
2025-11-24 20:01:46.417,11.257034,-5.3123655,3.3086755,-1.3727266,0.5366293,2.3995607,-33.787502,27.862501,24.2625,-0.1253541,-0.6855166,0.25818318,1002.24414, , , , 
2025-11-24 20:01:46.436,12.260225,-5.6907306,3.92393,-0.99461204,0.6038225,2.356725,-32.4375,28.7625,24.843752,-0.15043144,-0.6812546,0.26420504,1002.24414, , , , 
2025-11-24 20:01:46.456,12.585649,-5.899205,3.4187453,-0.62558395,0.7009472,2.2791474,-31.275002,29.38125,25.63125,-0.17277125,-0.675157,0.2718595,1002.24536, , , , 
2025-11-24 20:01:46.477,12.370295,-5.4753766,2.679064,-0.33726403,0.63802993,2.2021806,-30.0375,30.150002,26.325,-0.1968277,-0.6657676,0.2833243,1002.24536, , , , 
2025-11-24 20:01:46.496,12.260225,-4.8433723,1.9848464,-0.21081866,0.5476246,2.1753035,-28.800001,31.0125,26.737501,-0.21362677,-0.6582003,0.29353604,1002.249, , , , 
2025-11-24 20:01:46.516,12.844373,-4.5678983,1.3692927,-0.16867019,0.4834856,2.1789684,-27.843752,32.25,26.60625,-0.2292268,-0.65085596,0.30422193,1002.249, , , , 
2025-11-24 20:01:46.536,13.703695,-4.084249,0.5075775,-0.26457322,0.58122116,2.137431,-26.550001,33.1875,26.456251,-0.24430475,-0.64360803,0.31469297,1002.2522, , , , 
2025-11-24 20:01:46.556,14.951253,-3.098107,0.07178468,-0.4282803,0.5390727,1.9077524,-25.237501,34.29375,26.362501,-0.25940612,-0.63663816,0.32307705,1002.2522, , , , 
2025-11-24 20:01:46.576,16.011871,-2.2002003,-0.033499517,-0.6378009,0.2959555,1.3903648,-24.187502,35.30625,26.2875,-0.27292612,-0.631773,0.32802212,1002.2478, , , , 
2025-11-24 20:01:46.596,16.60559,-1.6974086,-0.014356935,-0.910926,0.193944,0.83754796,-23.04375,35.98125,26.400002,-0.28367338,-0.63017684,0.32883894,1002.2478, , , , 
2025-11-24 20:01:46.616,16.86641,-1.3477573,0.5985048,-1.1393828,0.16584504,0.31405184,-22.3875,36.45,26.268751,-0.29225442,-0.63140017,0.32473367,1002.2461, , , , 
2025-11-24 20:01:46.636,16.976479,-1.3573287,1.3884354,-1.2511679,0.18905723,-0.18378867,-21.956251,36.693752,26.5125,-0.30021602,-0.63545364,0.31370363,1002.2461, , , , 
2025-11-24 20:01:46.656,16.73959,-1.4988043,2.0685952,-1.2395618,0.35215345,-0.7183564,-21.65625,36.581253,26.94375,-0.30386928,-0.6396522,0.3010908,1002.23364, , , , 
2025-11-24 20:01:46.676,15.497116,-2.0255244,2.571387,-1.1357177,0.7107208,-1.3169867,-21.45,36.112503,27.487501,-0.3041959,-0.6435069,0.28477642,1002.23364, , , , 
2025-11-24 20:01:46.696,13.438092,-2.908775,2.896811,-0.9701782,1.1548067,-1.8386502,-21.712502,35.5875,28.237501,-0.3015113,-0.6457767,0.26485562,1002.23413, , , , 
2025-11-24 20:01:46.716,12.193226,-3.8593237,3.4067812,-0.69644225,1.2293301,-2.1300244,-22.44375,34.5,28.85625,-0.29655853,-0.64601666,0.24256529,1002.23413, , , , 
2025-11-24 20:01:46.736,11.462817,-4.706682,3.9406798,-0.27923355,0.91046786,-2.3065593,-23.681252,33.46875,29.156252,-0.28862524,-0.6456426,0.22034068,1002.2329, , , , 
2025-11-24 20:01:46.756,11.458032,-5.142475,4.668397,0.28824356,0.48287475,-2.4843159,-25.48125,32.268753,29.268751,-0.27632204,-0.6464779,0.20060904,1002.2329, , , , 
2025-11-24 20:01:46.776,11.285748,-5.7074804,5.128118,1.1495382,-0.017409148,-2.747591,-27.225,30.768751,29.325,-0.25229186,-0.6495222,0.18105987,1002.2361, , , , 
2025-11-24 20:01:46.796,10.713564,-5.9087763,4.8649077,1.8844638,-0.61000735,-2.9522247,-29.19375,29.268751,29.025002,-0.22483346,-0.6541672,0.1703079,1002.2361, , , , 
2025-11-24 20:01:46.816,10.289736,-5.8558354,4.2759743,2.392078,-1.1573265,-3.1068456,-30.675001,27.69375,28.650002,-0.19069292,-0.66161495,0.16384137,1002.23315, , , , 
2025-11-24 20:01:46.836,10.201201,-5.5950174,3.141178,2.5411246,-1.5165046,-3.2357342,-31.95,26.268751,28.218752,-0.15176705,-0.67125237,0.16014552,1002.23315, , , , 
2025-11-24 20:01:46.856,10.131809,-5.3147583,2.1571295,2.2045476,-1.391281,-3.3505735,-33.09375,25.275002,27.675001,-0.11105311,-0.6815411,0.15639238,1002.23584, , , , 
2025-11-24 20:01:46.876,9.832706,-5.384449,1.6064813,1.6241665,-0.86473066,-3.3133118,-33.581253,24.656252,27.431252,-0.07235595,-0.68977404,0.14966469,1002.23584, , , , 
2025-11-24 20:01:46.896,9.70798,-5.2310095,1.4461622,0.9516237,-0.12430742,-3.1080673,-34.612503,23.831251,27.093752,-0.038940758,-0.69388855,0.13921049,1002.23315, , , , 
2025-11-24 20:01:46.916,9.97149,-5.1592245,1.5227325,0.55457294,0.37658733,-2.9448946,-35.5875,22.612501,26.812502,-0.011870607,-0.6934233,0.12579513,1002.23315, , , , 
2025-11-24 20:01:46.936,9.849456,-5.341378,1.3645071,0.1752368,0.8787038,-2.8215034,-36.581253,21.0375,26.550001,0.015063145,-0.6875656,0.10606566,1002.2324, , , , 
2025-11-24 20:01:46.956,9.518948,-5.3342,1.6519449,-0.020845164,1.1383139,-2.7109401,-38.04375,18.975,26.19375,0.032559615,-0.6796718,0.08872935,1002.2324, , , , 
2025-11-24 20:01:46.976,9.241081,-5.4203415,1.9534405,-0.01901262,1.1969552,-2.6565747,-39.0,17.025002,26.19375,0.04801659,-0.6702379,0.0708969,1002.2334, , , , 
2025-11-24 20:01:46.996,9.188439,-6.133702,2.1044874,0.20394664,1.1236535,-2.6486337,-40.331253,15.13125,25.743752,0.0633128,-0.66026646,0.05340801,1002.2334,37.88753503,127.74007295,146.4266357421875,1.44
2025-11-24 20:01:47.016,8.961121,-6.9738817,1.8314066,0.5619031,0.96727663,-2.5405138,-41.775,12.7875,24.750002,0.079883054,-0.650563,0.037609354,1002.23755, , , , 
2025-11-24 20:01:47.036,8.091928,-7.2158556,1.3692927,1.0053782,0.7986828,-2.250972,-42.7125,10.725,23.85,0.09783691,-0.64171034,0.025149854,1002.23755, , , , 
2025-11-24 20:01:47.056,7.2469625,-6.7633133,0.5937191,1.2405545,0.5561764,-1.9980813,-43.66875,8.512501,22.575,0.1168683,-0.63404775,0.016942365,1002.23, , , , 
2025-11-24 20:01:47.076,6.2868423,-6.0451674,0.078963146,1.3456202,0.18050537,-1.6608937,-43.95,6.6375003,21.675001,0.1408563,-0.62774503,0.011287593,1002.23, , , , 
2025-11-24 20:01:47.096,6.100202,-6.3658056,-0.2440679,1.3584479,-0.089489125,-1.2699515,-44.287502,5.3625,21.31875,0.15850449,-0.62557197,0.009560062,1002.2344, , , , 
2025-11-24 20:01:47.117,5.72423,-6.0020967,-0.7516454,1.26621,-0.104760304,-0.60534966,-44.550003,3.9,20.94375,0.17309798,-0.6253112,0.011008348,1002.2344, , , , 
2025-11-24 20:01:47.136,6.322735,-5.915955,-1.2161521,1.0780691,0.0045813546,-0.06894939,-45.112503,3.1125002,20.75625,0.18334904,-0.62560916,0.016287394,1002.2363, , , , 
2025-11-24 20:01:47.156,6.847062,-5.982954,-1.8242282,0.77447796,0.20982604,0.43133453,-45.581253,2.4750001,20.775002,0.1889709,-0.62585473,0.024460899,1002.2363, , , , 
2025-11-24 20:01:47.176,7.6109705,-5.9207406,-2.1044874,0.38170317,0.22326468,0.87908554,-45.506252,2.04375,20.643751,0.18871954,-0.62581515,0.037426744,1002.2373, , , , 
2025-11-24 20:01:47.196,7.663613,-5.683552,-2.0614166,0.043904647,0.008857286,1.1753465,-45.54375,2.49375,20.15625,0.1834841,-0.6274111,0.048243593,1002.2373, , , , 
2025-11-24 20:01:47.216,7.1249285,-5.29083,-1.6304095,-0.36597386,-0.10964708,1.4618338,-45.43125,3.3187501,19.875,0.17409965,-0.63089305,0.05857998,1002.2363, , , , 
2025-11-24 20:01:47.236,6.5982084,-5.259723,-0.61764735,-0.7953995,-0.046118967,1.8149036,-45.28125,4.18125,19.63125,0.15969048,-0.6350593,0.06842429,1002.2363, , , , 
2025-11-24 20:01:47.256,6.780063,-5.211867,0.6774679,-1.0184351,0.12613995,2.2113435,-44.943752,5.7937503,19.66875,0.14008975,-0.6388683,0.07850303,1002.2373, , , , 
2025-11-24 20:01:47.276,7.3043904,-5.3075795,1.4533406,-0.9292514,0.21288027,2.4527044,-44.90625,7.425,19.987501,0.11724908,-0.64162904,0.090015166,1002.2373, , , , 
2025-11-24 20:01:47.296,8.235796,-5.2334023,1.7213368,-0.6640673,0.2275406,2.5070698,-44.49375,8.775001,20.0625,0.09396792,-0.6434885,0.103484884,1002.2378, , , , 
2025-11-24 20:01:47.316,8.369795,-5.1903315,1.5251254,-0.23647425,-0.019241689,2.410556,-44.268753,10.425,20.0625,0.06810121,-0.64532036,0.1223923,1002.2378, , , , 
2025-11-24 20:01:47.336,8.058429,-5.4299126,0.948156,0.07994463,-0.37360945,2.411167,-44.006252,12.20625,19.96875,0.05126636,-0.6481978,0.13919073,1002.23804, , , , 
2025-11-24 20:01:47.356,8.173583,-5.3075795,0.3376871,0.2320456,-0.66070765,2.5137892,-43.18125,14.062501,20.04375,0.036533207,-0.65285236,0.15787172,1002.23804, , , , 
2025-11-24 20:01:47.376,8.257332,-5.0922256,-0.16749759,0.20883341,-0.7370636,2.590145,-42.16875,16.25625,20.306252,0.022466224,-0.65849346,0.17773865,1002.23315, , , , 
2025-11-24 20:01:47.397,8.618649,-4.9725847,-0.32093734,0.040850412,-0.64116055,2.6897132,-41.34375,18.825,20.775002,0.0076551856,-0.6638767,0.19765486,1002.23315, , , , 
2025-11-24 20:01:47.416,9.004191,-4.9103713,-0.23688944,-0.1002553,-0.52448875,2.7459111,-40.068752,21.1875,21.16875,-0.0087935,-0.6683259,0.21696158,1002.2317, , , , 
2025-11-24 20:01:47.436,9.229117,-4.953442,-0.19621146,-0.20837528,-0.37605286,2.7575173,-38.86875,23.19375,21.45,-0.02653244,-0.67169464,0.23537083,1002.2317, , , , 
2025-11-24 20:01:47.456,9.734302,-5.319544,-0.25842485,-0.31527355,-0.2367033,2.7434678,-38.41875,24.16875,21.6375,-0.045255214,-0.6737459,0.2528197,1002.23755, , , , 
2025-11-24 20:01:47.476,10.866705,-5.5854464,-0.20338993,-0.48753247,-0.11880979,2.578539,-35.86875,26.831251,22.44375,-0.069563955,-0.6749403,0.2724022,1002.23755, , , , 
2025-11-24 20:01:47.496,10.744671,-5.3533425,-0.22492532,-0.6701758,0.046729814,2.3219068,-34.48125,28.218752,22.81875,-0.08874839,-0.6751486,0.28516057,1002.24146, , , , 
2025-11-24 20:01:47.517,10.251451,-5.4849477,-0.0526421,-0.89504397,0.11331217,2.0934498,-32.8125,30.093752,23.118752,-0.10780563,-0.6749221,0.2945921,1002.24146, , , , 
2025-11-24 20:01:47.536,9.74148,-5.803193,0.29222345,-1.1167815,0.16095825,1.9944927,-31.218752,31.462502,23.1,-0.12728795,-0.6748674,0.3011806,1002.2478, , , , 
2025-11-24 20:01:47.556,9.602696,-6.2198434,0.6343971,-1.2444485,0.20738265,2.017705,-29.868752,32.5125,23.53125,-0.14778349,-0.6746134,0.3061417,1002.2478, , , , 
2025-11-24 20:01:47.576,10.131809,-6.502496,1.0797613,-1.2249014,0.14385453,2.0519123,-28.575,33.525,24.243752,-0.1692107,-0.6739773,0.31032524,1002.24365, , , , 
2025-11-24 20:01:47.598,10.6154585,-6.669993,1.3238292,-1.0501992,-0.049173206,2.0714593,-27.50625,33.9375,25.10625,-0.19015858,-0.67326427,0.31479248,1002.24365, , , , 
2025-11-24 20:01:47.616,10.945967,-6.5886374,1.2592229,-0.7990646,-0.2519745,2.0940607,-26.19375,34.575,26.156252,-0.2138257,-0.67257273,0.32240543,1002.24243, , , , 
2025-11-24 20:01:47.636,11.501102,-6.291628,1.2017952,-0.5767162,-0.48417282,2.0989475,-24.750002,35.175003,26.625002,-0.23044173,-0.67220354,0.33036712,1002.24243, , , , 
2025-11-24 20:01:47.656,12.066406,-5.63091,1.189831,-0.30000237,-0.7492805,2.0561883,-23.4375,35.71875,27.243752,-0.2444765,-0.67228574,0.3400028,1002.2488, , , , 
2025-11-24 20:01:47.676,12.851551,-4.9510493,0.8258229,-0.029397024,-0.9368106,1.9413489,-21.768751,36.24375,27.768751,-0.25528055,-0.67284626,0.3513101,1002.2488, , , , 
2025-11-24 20:01:47.696,13.701303,-4.6396832,0.22731815,0.07505786,-0.9252045,1.7751985,-20.081251,36.956253,28.06875,-0.26314408,-0.67364264,0.36340395,1002.2478, , , , 
2025-11-24 20:01:47.716,14.0653105,-4.108177,-0.392722,-0.023899399,-0.6906392,1.5962203,-18.300001,37.631252,28.518751,-0.2692165,-0.674436,0.3745909,1002.2478, , , , 
2025-11-24 20:01:47.736,14.086846,-3.3086755,-0.51236314,-0.2114295,-0.38277218,1.3995274,-16.368752,38.34375,28.931252,-0.27542117,-0.67475414,0.38316464,1002.2466, , , , 
2025-11-24 20:01:47.756,14.4077835,-2.9327033,-0.30418757,-0.34398335,-0.24586602,1.0660049,-14.6625,38.925003,29.531252,-0.28367496,-0.674861,0.38910326,1002.2466, , , , 
2025-11-24 20:01:47.776,15.128322,-2.8704898,-0.15553348,-0.36597386,-0.2287623,0.7446992,-13.462501,39.112503,29.925001,-0.28897783,-0.67558414,0.39082462,1002.24414, , , , 
2025-11-24 20:01:47.796,16.169798,-2.8298118,0.15553348,-0.22547899,-0.35406235,0.3006132,-12.20625,39.075,30.300001,-0.29168156,-0.67719215,0.39060524,1002.24414, , , , 
2025-11-24 20:01:47.816,17.24238,-3.2560334,0.10049855,0.012140589,-0.6069531,-0.41293275,-11.400001,38.90625,30.487501,-0.28935272,-0.68042326,0.38901594,1002.24146, , , , 
2025-11-24 20:01:47.836,16.734804,-3.7061832,-0.0741775,0.09155073,-0.6600968,-1.1422844,-10.931251,39.018753,30.431252,-0.2807064,-0.68590397,0.38558203,1002.24146, , , , 
2025-11-24 20:01:47.856,15.142679,-4.24726,0.04546363,0.053678203,-0.54770094,-1.8001668,-10.59375,39.16875,30.7875,-0.26690277,-0.6931186,0.37898633,1002.2363, , , , 
2025-11-24 20:01:47.876,13.493127,-4.857729,0.34247273,-0.02817533,-0.3558949,-2.2864013,-11.1,38.943752,30.806252,-0.24988286,-0.7009706,0.36880022,1002.2363, , , , 
2025-11-24 20:01:47.896,12.1046915,-5.8414783,0.6415756,-0.08070819,-0.16523418,-2.648023,-11.7375,38.5125,30.6375,-0.22633287,-0.7103525,0.3517556,1002.2329, , , , 
2025-11-24 20:01:47.916,11.359925,-6.7704916,0.9696914,-0.07337803,-0.05467083,-2.7885177,-12.975,37.96875,30.50625,-0.20663062,-0.71686125,0.33606172,1002.2329, , , , 
2025-11-24 20:01:47.936,10.974681,-7.1895347,1.3645071,0.03229855,-0.03451287,-2.8251686,-14.718751,37.237503,30.337502,-0.18660563,-0.72223103,0.31992406,1002.2317, , , , 
2025-11-24 20:01:47.956,11.077573,-7.2469625,1.7213368,0.26075542,-0.1524064,-2.8569326,-16.44375,36.7125,30.562502,-0.16579837,-0.7266652,0.30449197,1002.2317, , , , 
2025-11-24 20:01:47.976,11.146964,-7.048358,1.7141583,0.49532077,-0.16340165,-2.977346,-18.487501,36.018753,30.6375,-0.14309148,-0.7304203,0.2902547,1002.23, , , , 
2025-11-24 20:01:47.996,10.699207,-6.8446693,1.4724833,0.6596387,-0.1603474,-3.1538808,-20.268751,35.0625,30.750002,-0.11802875,-0.7331071,0.2766271,1002.23,37.88754116,127.74008319,145.8916015625,1.15
2025-11-24 20:01:48.016,9.7654085,-6.6891356,1.4246268,0.7518766,-0.24708772,-3.3426325,-21.975,33.9375,30.16875,-0.08383302,-0.73563117,0.25922096,1002.2302, , , , 
2025-11-24 20:01:48.037,9.073584,-6.538388,1.2520444,0.77386713,-0.29847524,-3.4470875,-23.7,32.68125,29.79375,-0.062119234,-0.7368767,0.2484394,1002.2302, , , , 
2025-11-24 20:01:48.056,8.5349,-6.3825555,1.0295119,0.73049694,-0.2727433,-3.4501417,-25.35,31.331251,29.7,-0.025137173,-0.7382477,0.22991452,1002.22974, , , , 
2025-11-24 20:01:48.076,8.254939,-6.411269,0.68464637,0.5796177,-0.08826743,-3.3102577,-27.525002,29.94375,29.212502,0.003598743,-0.7381781,0.21475033,1002.22974, , , , 
2025-11-24 20:01:48.096,8.73141,-6.2198434,0.06699903,0.37254047,0.28129515,-3.1392205,-29.23125,28.44375,29.23125,0.029821675,-0.73625326,0.19950981,1002.23193, , , , 
2025-11-24 20:01:48.116,9.152547,-5.8558354,-0.40947178,0.10498937,0.67101574,-3.0555344,-31.143751,26.85,29.00625,0.052868273,-0.73176986,0.18359256,1002.23193, , , , 
2025-11-24 20:01:48.136,9.140582,-5.8510494,-0.6008976,-0.16805935,0.9507837,-3.0494258,-32.775,25.06875,28.44375,0.07301095,-0.7249709,0.16608132,1002.2339, , , , 
2025-11-24 20:01:48.157,8.479864,-5.7026944,-0.4621139,-0.3830776,1.0668447,-3.0030015,-34.0125,22.931252,28.25625,0.09073788,-0.7164952,0.14677426,1002.2339, , , , 
2025-11-24 20:01:48.177,8.338688,-5.9303117,-0.13399807,-0.50036025,0.99842983,-2.8288336,-35.7,20.625,27.862501,0.109714545,-0.705206,0.12145047,1002.2278, , , , 
2025-11-24 20:01:48.196,8.010572,-6.315556,0.078963146,-0.44171894,0.9526163,-2.6199238,-37.36875,18.431252,27.31875,0.12279388,-0.696271,0.1018558,1002.2278, , , , 
2025-11-24 20:01:48.216,7.426424,-6.1887364,0.17706887,-0.30794337,0.83899873,-2.27113,-39.075,15.918751,27.000002,0.13443702,-0.6876361,0.08449368,1002.2324, , , , 
2025-11-24 20:01:48.236,7.053144,-5.681159,0.1363909,-0.1026987,0.67101574,-1.8380394,-40.48125,13.406251,26.362501,0.14459442,-0.67997223,0.07042608,1002.2324, , , , 
2025-11-24 20:01:48.256,6.672386,-5.2166524,-0.016749758,0.06589515,0.48043138,-1.4971867,-41.30625,11.38125,26.04375,0.15370224,-0.6736143,0.059792697,1002.2412, , , , 
2025-11-24 20:01:48.276,6.7130637,-5.4059844,-0.23688944,0.198449,0.2599155,-1.1832111,-41.925003,9.431251,25.500002,0.1619659,-0.6689778,0.052167464,1002.2412, , , , 
2025-11-24 20:01:48.296,6.322735,-5.697909,-0.63200426,0.30534726,0.18722469,-0.679873,-42.45,8.175,24.956251,0.17029466,-0.6654429,0.04696845,1002.2395, , , , 
2025-11-24 20:01:48.316,6.562316,-5.886942,-1.0175478,0.34871742,0.105371155,-0.19295138,-42.75,7.4812503,24.4125,0.1741596,-0.66397244,0.047118355,1002.2395, , , , 
2025-11-24 20:01:48.336,7.0579295,-5.9207406,-1.5011971,0.34993914,-0.04550812,0.26212984,-43.162502,6.8437505,24.13125,0.17529717,-0.66413283,0.050690036,1002.22876, , , , 
2025-11-24 20:01:48.356,7.443174,-5.556732,-1.7548363,0.30656898,-0.28618193,0.6549046,-43.612503,6.61875,24.0375,0.17373586,-0.6663482,0.056931462,1002.22876, , , , 
2025-11-24 20:01:48.377,8.18794,-5.0180483,-1.8864416,0.20028155,-0.6008446,0.993314,-43.65,6.76875,24.018751,0.16976841,-0.6710689,0.06481713,1002.2217, , , , 
2025-11-24 20:01:48.396,8.400901,-4.388437,-1.7476579,0.07994463,-0.7694385,1.2064997,-43.725002,7.1250005,24.393751,0.16361663,-0.67783606,0.07342819,1002.2217, , , , 
2025-11-24 20:01:48.416,8.568398,-3.8210387,-1.5346966,-0.0794865,-0.81769544,1.3488271,-43.3125,8.025001,24.31875,0.15555376,-0.6856895,0.08216061,1002.22095, , , , 
2025-11-24 20:01:48.436,8.5779705,-3.7277186,-1.1515459,-0.25479966,-0.66192937,1.445341,-42.600002,8.90625,24.73125,0.14290158,-0.6953539,0.09258017,1002.22095, , , , 
2025-11-24 20:01:48.456,8.56122,-3.8760736,-0.86201435,-0.3873535,-0.4029301,1.5204751,-42.037502,10.05,25.406252,0.13082458,-0.7016035,0.10059903,1002.21875, , , , 
2025-11-24 20:01:48.476,8.276474,-4.0292144,-0.49800622,-0.4514925,-0.12430742,1.5833925,-41.475002,11.325001,26.1,0.117188185,-0.7059485,0.10858563,1002.21875, , , , 
2025-11-24 20:01:48.496,8.106285,-4.287938,-0.30179477,-0.42400435,0.07482879,1.6621917,-40.95,12.168751,26.681252,0.10251925,-0.70854473,0.11693369,1002.2273, , , , 
2025-11-24 20:01:48.516,7.66122,-4.2999024,-0.1052842,-0.31160846,0.14141114,1.7373259,-40.48125,13.33125,27.056252,0.087414816,-0.7099595,0.12610474,1002.2273, , , , 
2025-11-24 20:01:48.536,7.3689966,-4.2257247,0.031106694,-0.13934954,0.05650337,1.8503327,-40.143753,14.325001,27.187502,0.07246455,-0.7109323,0.13653824,1002.2268, , , , 
2025-11-24 20:01:48.556,7.1799636,-4.074678,0.050249275,0.07200362,-0.035734564,1.9761672,-39.487503,15.450001,27.243752,0.057997655,-0.71209776,0.14878494,1002.2268, , , , 
2025-11-24 20:01:48.576,7.428817,-4.0268216,-0.3185445,0.22960222,-0.09193251,2.0989475,-39.206253,16.893751,27.243752,0.044197723,-0.7133047,0.16311035,1002.23145, , , , 
2025-11-24 20:01:48.596,7.785647,-3.7420754,-0.77318084,0.31573167,-0.110868774,2.1282682,-38.756252,18.45,27.187502,0.02760432,-0.71457654,0.1830238,1002.23145, , , , 
2025-11-24 20:01:48.616,7.9651084,-3.8952162,-1.055833,0.3212293,-0.15301724,2.092839,-37.7625,19.85625,27.35625,0.015024682,-0.7153632,0.19915037,1002.2368, , , , 
2025-11-24 20:01:48.636,8.137691,-4.4817567,-1.3453646,0.23632154,-0.16462334,2.0800114,-37.0875,21.431252,27.187502,0.0026480886,-0.7161687,0.21490717,1002.2368, , , , 
2025-11-24 20:01:48.656,8.343473,-5.425127,-1.4724833,0.013362284,-0.16401249,2.1013908,-35.8125,23.00625,27.243752,-0.010403354,-0.71701235,0.22981372,1002.23145, , , , 
2025-11-24 20:01:48.676,8.482257,-5.8558354,-1.3980067,-0.26212984,-0.08826743,2.2021806,-34.725002,24.300001,27.13125,-0.02518024,-0.71795696,0.2434984,1002.23145, , , , 
2025-11-24 20:01:48.696,8.7577305,-5.9087763,-1.2089736,-0.5498389,0.019241689,2.3322911,-33.525,25.725,26.925001,-0.04262099,-0.71862215,0.2558466,1002.2263, , , , 
2025-11-24 20:01:48.716,9.241081,-5.8944197,-0.7372885,-0.7874585,0.12369657,2.4612563,-32.5125,27.018751,27.093752,-0.06825954,-0.7187999,0.26932755,1002.2263, , , , 
2025-11-24 20:01:48.736,9.660124,-5.7146587,-0.42622152,-0.88954633,0.18050537,2.5479965,-32.025,27.768751,27.056252,-0.08518446,-0.7184231,0.27661586,1002.22314, , , , 
2025-11-24 20:01:48.756,10.672886,-5.5280185,-0.33050862,-0.9463551,0.28740364,2.595032,-30.112501,29.38125,27.806252,-0.11481235,-0.7167927,0.28803042,1002.22314, , , , 
2025-11-24 20:01:48.776,11.893824,-5.561518,-0.29461628,-0.926808,0.28129515,2.4661431,-28.875002,30.393751,28.331251,-0.13864611,-0.714507,0.29622647,1002.22534, , , , 
2025-11-24 20:01:48.796,12.159726,-5.645267,-0.37836507,-0.9231429,0.24464433,2.3188527,-27.206251,31.181252,28.837502,-0.1610792,-0.7120993,0.3032994,1002.22534, , , , 
2025-11-24 20:01:48.816,12.372687,-5.685945,-0.27756742,-0.94146836,0.25686127,2.2424967,-25.837502,31.931252,29.325,-0.18232192,-0.70967734,0.30942062,1002.23145, , , , 
2025-11-24 20:01:48.836,12.588041,-5.5304112,0.021535404,-0.9035958,0.2544179,2.2070675,-24.31875,32.68125,29.625002,-0.20306663,-0.70687306,0.31489354,1002.23145, , , , 
2025-11-24 20:01:48.856,12.837194,-5.0156555,0.18903299,-0.83151585,0.23242739,2.121549,-23.15625,33.35625,30.018751,-0.22298326,-0.70370924,0.32012492,1002.2368, , , , 
2025-11-24 20:01:48.877,13.390236,-4.9199424,0.31375888,-0.69277716,0.16401249,1.905309,-21.806252,34.2,30.618752,-0.24558505,-0.6994893,0.3261566,1002.2368, , , , 
2025-11-24 20:01:48.896,13.2921295,-4.8673005,0.35204405,-0.5345677,0.14141114,1.7000643,-20.550001,34.518753,31.312502,-0.26075578,-0.6963082,0.3305315,1002.24243, , , , 
2025-11-24 20:01:48.916,13.157832,-4.395615,0.33290145,-0.30427828,0.074217945,1.5577369,-19.725,35.04375,31.968752,-0.27369595,-0.6928546,0.33512825,1002.24243, , , , 
2025-11-24 20:01:48.936,13.213166,-4.196712,-0.0526421,-0.14118208,-0.030847786,1.4380108,-18.393751,35.15625,32.550003,-0.2843135,-0.68947685,0.34038547,1002.24854, , , , 
2025-11-24 20:01:48.958,13.718052,-4.182355,-0.5386842,-0.122856654,0.016187452,1.3323343,-17.23125,35.60625,32.68125,-0.29500306,-0.68573284,0.34744525,1002.24854, , , , 
2025-11-24 20:01:48.976,14.251951,-4.041178,-0.89312106,-0.1698919,0.22021043,1.2284902,-16.050001,36.09375,32.550003,-0.3009042,-0.68343073,0.35106456,1002.2495, , , , 
2025-11-24 20:01:48.996,14.881862,-3.9406798,-1.0127622,-0.15278818,0.66246384,0.8045622,-15.000001,36.54375,32.456253,-0.31019694,-0.67858225,0.3541859,1002.2495,37.88754116,127.74008319,145.8916015625,1.15
2025-11-24 20:01:49.016,14.587245,-3.938287,-1.2089736,0.037796173,0.93612343,0.15339902,-14.587501,37.03125,32.287502,-0.3150157,-0.6736512,0.35268596,1002.2561, , , , 
2025-11-24 20:01:49.036,13.440485,-4.1368914,-1.4868401,0.24792764,0.83105767,-0.4990622,-14.325001,36.91875,32.04375,-0.31529856,-0.6691325,0.3481227,1002.2561, , , , 
2025-11-24 20:01:49.056,12.284153,-4.304688,-1.5873387,0.32733777,0.501811,-0.9938485,-14.493751,36.975002,32.0625,-0.31213343,-0.667222,0.34351698,1002.25366, , , , 
2025-11-24 20:01:49.076,11.139786,-4.929514,-1.462912,0.22532628,-0.12675081,-1.6535635,-15.3,36.99375,31.593752,-0.3007482,-0.66894346,0.33387613,1002.25366, , , , 
2025-11-24 20:01:49.096,10.402497,-5.7696934,-0.9194421,0.06956023,-0.59840125,-2.0933735,-16.0125,37.0125,31.3875,-0.28688303,-0.67530054,0.32400224,1002.2583, , , , 
2025-11-24 20:01:49.116,9.662517,-6.710671,-0.09571291,-0.098422766,-0.91115505,-2.2973967,-16.987501,36.75,31.406252,-0.27004293,-0.6852928,0.31245217,1002.2583, , , , 
2025-11-24 20:01:49.136,9.289237,-7.294819,0.9553344,-0.2242573,-1.0510391,-2.2185972,-17.94375,35.8125,31.29375,-0.24802047,-0.69996583,0.2972796,1002.2549, , , , 
2025-11-24 20:01:49.156,9.47827,-7.0002027,1.9175483,-0.17477867,-1.0406547,-2.0890977,-18.675001,35.100002,31.518751,-0.23124343,-0.71135515,0.28576124,1002.2549, , , , 
2025-11-24 20:01:49.176,9.662517,-6.5048885,2.5498517,0.057343286,-0.95024925,-2.0811565,-19.462502,33.956253,31.875002,-0.21435742,-0.7213215,0.2753741,1002.2473, , , , 
2025-11-24 20:01:49.196,9.638589,-5.956633,2.679064,0.41591063,-0.7358419,-2.2668543,-20.306252,33.05625,32.568752,-0.19571087,-0.72947145,0.26609534,1002.2473, , , , 
2025-11-24 20:01:49.217,9.459127,-5.6763735,2.3509483,0.73110783,-0.59473616,-2.5460114,-20.98125,32.2125,33.05625,-0.17421065,-0.73563427,0.25731462,1002.2417, , , , 
2025-11-24 20:01:49.236,8.99462,-5.695516,1.6040884,0.9168054,-0.5757999,-2.7836308,-21.862501,31.312502,33.35625,-0.14942256,-0.7405503,0.24858057,1002.2417, , , , 
2025-11-24 20:01:49.256,8.788837,-5.729016,0.5554339,0.8037986,-0.4010976,-2.9021354,-22.743752,30.768751,33.1875,-0.122335956,-0.74489427,0.23949637,1002.2373, , , , 
2025-11-24 20:01:49.276,9.140582,-5.389235,-0.5075775,0.37620556,0.024128467,-2.943062,-23.775002,30.056252,32.775,-0.08928735,-0.7485103,0.22560377,1002.2373, , , , 
2025-11-24 20:01:49.296,9.059227,-5.168796,-0.64875406,-0.12530005,0.47249034,-2.9736044,-25.0125,29.212502,32.41875,-0.06637378,-0.74900615,0.21006794,1002.2363, , , , 
2025-11-24 20:01:49.317,9.61466,-5.374878,-0.55064833,-0.62436223,0.953838,-2.9913955,-26.531252,28.125002,32.381252,-0.047281265,-0.74720925,0.19046053,1002.2363, , , , 
2025-11-24 20:01:49.336,9.887741,-5.4035916,-0.2416751,-0.86266905,1.3148488,-3.100737,-28.275002,26.718752,32.23125,-0.031390976,-0.7427959,0.16731894,1002.2395, , , , 
2025-11-24 20:01:49.356,10.055239,-5.786443,0.1794617,-0.8412894,1.4400724,-3.2259607,-29.98125,24.768751,31.725,-0.016799735,-0.7360341,0.14163868,1002.2395, , , , 
2025-11-24 20:01:49.376,10.186844,-6.401698,0.30897322,-0.5028036,1.4034215,-3.3120902,-31.81875,22.650002,31.368752,-0.0014872325,-0.72778916,0.11550103,1002.24023, , , , 
2025-11-24 20:01:49.396,10.055239,-6.7202425,-0.31375888,0.0017561859,1.2195566,-3.2595572,-33.975002,20.212502,30.750002,0.016250947,-0.71887743,0.0914379,1002.24023, , , , 
2025-11-24 20:01:49.417,9.497412,-6.5718875,-1.3477573,0.26380965,1.049741,-3.0561452,-35.79375,17.493752,30.187502,0.041358855,-0.70812804,0.066384576,1002.2383, , , , 
2025-11-24 20:01:49.436,8.463115,-6.076274,-2.0877378,0.24670593,0.97521764,-2.779355,-37.6875,14.718751,29.437502,0.061453816,-0.70000285,0.04974149,1002.2383, , , , 
2025-11-24 20:01:49.456,8.111071,-6.0164533,-2.181058,0.057343286,0.87076277,-2.443389,-39.24375,11.90625,28.63125,0.0790763,-0.6922388,0.03468895,1002.2366, , , , 
2025-11-24 20:01:49.476,7.9100733,-6.066703,-1.7237296,-0.051387526,0.76447535,-1.9363859,-40.21875,9.6,27.900002,0.092842475,-0.68518823,0.021006046,1002.2366, , , , 
2025-11-24 20:01:49.496,7.902895,-5.7553368,-1.1419746,0.09155073,0.59771407,-1.467866,-41.100002,7.6312504,27.281252,0.10293949,-0.67900974,0.010102263,1002.2363, , , , 
2025-11-24 20:01:49.516,8.056036,-5.456234,-0.9242278,0.4281276,0.28068432,-1.1264024,-41.737503,5.7937503,26.79375,0.111404724,-0.6746132,0.002981257,1002.2363, , , , 
2025-11-24 20:01:49.536,8.140083,-5.547161,-1.3549358,0.7811973,-0.10048437,-0.8203679,-42.28125,4.55625,26.250002,0.1201942,-0.67279553,-9.790885E-5,1002.24, , , , 
2025-11-24 20:01:49.556,7.596614,-5.5447683,-2.1020947,0.9375742,-0.3791071,-0.48623443,-42.5625,3.5625002,25.743752,0.13154672,-0.6742035,0.0011448296,1002.24, , , , 
2025-11-24 20:01:49.576,6.9332037,-4.9055853,-2.4418755,0.8874847,-0.61794835,-0.023746688,-42.84375,2.8312502,25.48125,0.13884142,-0.677902,0.005751803,1002.2307, , , , 
2025-11-24 20:01:49.596,6.6628146,-4.328616,-2.4586253,0.6834617,-0.73156595,0.40690064,-42.675003,2.775,25.575,0.14272706,-0.68346786,0.012648781,1002.2307, , , , 
2025-11-24 20:01:49.616,6.686743,-4.199105,-2.32702,0.25953373,-0.47623178,0.84060216,-42.35625,2.90625,25.968752,0.14230348,-0.6893331,0.020698888,1002.23, , , , 
2025-11-24 20:01:49.636,6.8255267,-4.2855453,-2.0685952,-0.21326205,0.020463383,1.1985587,-42.131252,3.3187501,26.38125,0.13655443,-0.6933149,0.029104363,1002.23, , , , 
2025-11-24 20:01:49.656,7.0675006,-4.208975,-1.3764713,-0.5296809,0.4315636,1.4997064,-41.79375,3.9,26.493752,0.12523879,-0.6943514,0.037438188,1002.2317, , , , 
2025-11-24 20:01:49.676,7.5436726,-4.182355,-0.9385847,-0.6042043,0.5903839,1.6695219,-41.831253,4.8562503,26.56875,0.110020556,-0.6933346,0.045986574,1002.2317, , , , 
2025-11-24 20:01:49.696,7.7066836,-4.019643,-0.7181459,-0.48081315,0.50608695,1.712892,-41.79375,5.6062503,26.343752,0.08947671,-0.6911745,0.057385262,1002.2356, , , , 
2025-11-24 20:01:49.716,7.4527454,-3.6607196,-0.66071814,-0.28473118,0.25319618,1.6951776,-41.8875,6.76875,26.118752,0.074067034,-0.69025975,0.067245066,1002.2356, , , , 
2025-11-24 20:01:49.736,7.069894,-3.4953158,-0.7492526,-0.1026987,-0.03451287,1.6957884,-41.925003,8.175,26.04375,0.06036942,-0.6909167,0.0779574,1002.2329, , , , 
2025-11-24 20:01:49.757,6.88774,-3.3852458,-0.90508515,-0.013514996,-0.2043284,1.745267,-41.850002,9.1875,25.931252,0.047867075,-0.6929343,0.08971134,1002.2329, , , , 
2025-11-24 20:01:49.776,6.806384,-3.1292138,-0.94337034,-0.03061872,-0.2715216,1.7843612,-41.53125,10.81875,26.025002,0.035698503,-0.695573,0.10206708,1002.2339, , , , 
2025-11-24 20:01:49.796,7.0746794,-3.3326037,-0.9385847,-0.12163496,-0.25930467,1.8515544,-40.912502,12.0,26.212502,0.023163866,-0.6982055,0.11447128,1002.2339, , , , 
2025-11-24 20:01:49.816,7.84786,-3.4474592,-0.79950184,-0.2761793,-0.19821994,1.937073,-40.237503,13.181251,26.1,0.005825376,-0.70111334,0.12967618,1002.2302, , , , 
2025-11-24 20:01:49.836,8.403294,-3.5216367,-0.6583253,-0.39162946,-0.08765658,1.9725021,-39.881252,14.400001,26.175001,-0.009536956,-0.7026863,0.14116804,1002.2302, , , , 
2025-11-24 20:01:49.858,8.863015,-3.7636108,-0.57457656,-0.5028036,0.0070247436,2.0458038,-39.412502,15.562501,26.400002,-0.026051898,-0.70338064,0.1520726,1002.2385, , , , 
2025-11-24 20:01:49.876,9.396914,-4.0555353,-0.5027919,-0.60603684,0.062000997,2.1869094,-38.90625,17.212502,26.268751,-0.044079058,-0.7033845,0.16276807,1002.2385, , , , 
2025-11-24 20:01:49.896,10.184451,-3.8377883,-0.28743783,-0.69522053,0.0723854,2.3255718,-38.4375,18.46875,26.79375,-0.06377239,-0.70285565,0.1735703,1002.24194, , , , 
2025-11-24 20:01:49.916,10.99861,-3.6655052,0.016749758,-0.7324822,-0.029015245,2.2883103,-37.518753,19.9125,26.906252,-0.084241934,-0.70217675,0.18408908,1002.24194, , , , 
2025-11-24 20:01:49.936,11.561222,-3.777968,0.3376871,-0.71598935,-0.13591352,2.1545346,-36.73125,21.225,27.000002,-0.1040314,-0.7018926,0.19372374,1002.24194, , , , 
2025-11-24 20:01:49.956,11.719148,-4.0148573,0.5171488,-0.6585697,-0.118198946,2.0427496,-35.775,22.21875,27.35625,-0.122422464,-0.7017794,0.20255603,1002.24194, , , , 
2025-11-24 20:01:49.976,11.989537,-4.546363,0.37836507,-0.6005392,0.030236939,1.977389,-34.818752,23.643751,27.581251,-0.1439896,-0.70053554,0.21319461,1002.2468, , , , 
2025-11-24 20:01:49.996,12.18844,-4.7955155,0.16031912,-0.56694263,0.1408003,1.9034764,-33.881252,24.956251,27.900002,-0.16059516,-0.6983482,0.22129184,1002.2468,37.88754901,127.74009445,145.59967041015625,0.7
2025-11-24 20:01:50.016,11.95843,-4.6899323,-0.17706887,-0.6029826,0.2287623,1.8362832,-32.9625,26.062502,28.06875,-0.17665872,-0.6954611,0.2287521,1002.2522, , , , 
2025-11-24 20:01:50.036,11.89861,-4.4482574,-0.47168517,-0.8002863,0.31855685,1.7275524,-32.15625,27.187502,28.368752,-0.19276026,-0.69226176,0.23497196,1002.2522, , , , 
2025-11-24 20:01:50.057,11.989537,-4.848158,-0.6008976,-1.0153809,0.43339613,1.5962203,-31.218752,27.937502,28.462502,-0.20929813,-0.6890766,0.23882611,1002.2588, , , , 
2025-11-24 20:01:50.076,11.640184,-4.8290153,-0.5841478,-1.3250804,0.68689775,1.5094799,-30.431252,28.3875,28.800001,-0.22681406,-0.68551224,0.23985794,1002.2588, , , , 
2025-11-24 20:01:50.097,11.142179,-4.5918264,-0.28743783,-1.5248275,0.84266376,1.4264047,-29.625002,28.95,29.081251,-0.2508964,-0.67983943,0.23730156,1002.25, , , , 
2025-11-24 20:01:50.116,11.089537,-4.520042,-0.16271193,-1.6219522,0.90130514,1.4007491,-28.95,29.250002,29.41875,-0.27104387,-0.6747077,0.2331528,1002.25, , , , 
2025-11-24 20:01:50.136,11.644971,-4.575077,-0.15553348,-1.646997,0.9544488,1.3824238,-28.81875,29.306252,29.681252,-0.29153883,-0.66904485,0.22809401,1002.251, , , , 
2025-11-24 20:01:50.156,12.619148,-4.6372905,-0.2656033,-1.6079026,1.0137011,1.2920183,-28.44375,29.38125,30.018751,-0.31167787,-0.6628715,0.22229056,1002.251, , , , 
2025-11-24 20:01:50.176,13.545769,-4.5942197,-0.38315073,-1.4234269,0.99904066,1.081276,-28.1625,28.931252,30.562502,-0.33042157,-0.6562959,0.21568458,1002.2549, , , , 
2025-11-24 20:01:50.196,14.094025,-4.208975,-0.5267201,-1.1448805,0.8182299,0.8106707,-28.050001,28.518751,31.1625,-0.34641376,-0.6500375,0.20874913,1002.2549, , , , 
2025-11-24 20:01:50.216,13.969598,-3.3445678,-0.78753775,-0.88099444,0.5347968,0.43194535,-27.750002,28.2,31.3875,-0.35829452,-0.6453814,0.20207083,1002.25073, , , , 
2025-11-24 20:01:50.236,13.349558,-2.8322048,-1.0941181,-0.8008971,0.2935121,-0.11964971,-27.900002,27.825,31.725,-0.36665574,-0.6434959,0.19313684,1002.25073, , , , 
2025-11-24 20:01:50.256,12.930514,-3.2129626,-1.0845468,-0.91703445,0.33443886,-0.65177405,-28.06875,27.712502,31.837502,-0.36911088,-0.6451611,0.18330239,1002.2529, , , , 
2025-11-24 20:01:50.276,12.262618,-3.8545382,-0.6678966,-1.0172133,0.6526903,-1.0860864,-28.425001,27.281252,31.781252,-0.36922684,-0.64772314,0.1694561,1002.2529, , , , 
2025-11-24 20:01:50.296,11.297712,-4.3812585,-0.10289137,-0.9280297,0.94039935,-1.3145432,-28.893751,26.475,31.987501,-0.36804545,-0.6490689,0.15219958,1002.2551, , , , 
2025-11-24 20:01:50.316,10.993824,-4.429115,-0.0526421,-0.59076566,1.0644014,-1.3640219,-29.175001,25.612501,31.9125,-0.36555055,-0.6487243,0.13426842,1002.2551, , , , 
2025-11-24 20:01:50.336,11.292927,-3.789932,-0.7396813,-0.32077116,1.1138799,-1.4495405,-30.206251,24.16875,31.893751,-0.36104932,-0.6473187,0.11766278,1002.2461, , , , 
2025-11-24 20:01:50.356,11.333605,-3.4737802,-1.4413766,-0.23952848,1.1560284,-1.7256435,-31.181252,22.875,31.593752,-0.35408527,-0.64585453,0.1013017,1002.2461, , , , 
2025-11-24 20:01:50.376,10.866705,-3.2703903,-1.6663018,-0.27862272,1.110215,-2.0506144,-32.268753,21.581251,31.368752,-0.3448646,-0.64516854,0.08319513,1002.24097, , , , 
2025-11-24 20:01:50.396,10.610673,-3.4043884,-1.5227325,-0.28595287,0.9923214,-2.3242738,-33.581253,20.15625,31.031252,-0.3339398,-0.6456309,0.06313567,1002.24097, , , , 
2025-11-24 20:01:50.416,10.3136635,-3.6655052,-1.5131612,-0.20959696,0.95567054,-2.5069172,-34.8375,18.84375,30.35625,-0.31797934,-0.6473516,0.036664825,1002.2368, , , , 
2025-11-24 20:01:50.436,9.763016,-3.7540395,-1.785943,-0.18943901,0.8854231,-2.6089287,-36.15,17.04375,29.94375,-0.3034734,-0.6490571,0.015119427,1002.2368, , , , 
2025-11-24 20:01:50.456,10.040882,-3.9119658,-2.2360928,-0.3189386,0.8884773,-2.5655584,-37.443752,15.281251,29.306252,-0.28868774,-0.65091574,-0.006354993,1002.2405, , , , 
2025-11-24 20:01:50.476,10.572388,-3.8234315,-2.487339,-0.4966952,0.94467527,-2.6217566,-38.90625,13.106251,28.331251,-0.27475703,-0.65212256,-0.028399345,1002.2405, , , , 
2025-11-24 20:01:50.496,10.866705,-3.777968,-2.4825535,-0.7526402,0.92879325,-2.8007348,-39.881252,11.00625,27.843752,-0.26139516,-0.6529319,-0.052290276,1002.24194, , , , 
2025-11-24 20:01:50.516,10.548459,-4.0770707,-1.9776679,-0.99155784,0.92207396,-3.0133858,-40.59375,8.606251,27.225,-0.24834387,-0.65359163,-0.07891183,1002.24194, , , , 
2025-11-24 20:01:50.536,10.861919,-4.486542,-1.0223335,-1.0996778,0.82800347,-3.108678,-41.287502,6.0750003,26.681252,-0.23253505,-0.65393114,-0.11499681,1002.24243, , , , 
2025-11-24 20:01:50.556,10.560424,-4.5678983,-0.28265217,-0.99461204,0.8127323,-3.1819797,-41.737503,2.9250002,26.268751,-0.2196517,-0.65386707,-0.1447081,1002.24243, , , , 
2025-11-24 20:01:50.576,10.071989,-4.5152564,-0.03589234,-0.79112357,0.77608144,-3.1300578,-42.131252,-0.13125001,25.500002,-0.20562348,-0.65337425,-0.17343362,1002.2429, , , , 
2025-11-24 20:01:50.597,9.274879,-4.3070807,-0.29222345,-0.59809583,0.813954,-2.9448946,-42.393753,-3.0375001,24.468752,-0.19075857,-0.6524407,-0.19990008,1002.2429, , , , 
2025-11-24 20:01:50.616,8.3530445,-3.897609,-0.32333016,-0.52723753,0.79929364,-2.668181,-42.43125,-6.1312504,23.775002,-0.17597046,-0.6507378,-0.22380343,1002.23706, , , , 
2025-11-24 20:01:50.636,7.4479594,-3.4857445,-0.26799613,-0.5009711,0.7754706,-2.29984,-42.5625,-8.56875,23.212502,-0.16256078,-0.648369,-0.24502721,1002.23706, , , , 
2025-11-24 20:01:50.656,7.3043904,-3.4067812,-0.20338993,-0.46126604,0.79440683,-1.8062754,-42.28125,-11.493751,22.3875,-0.15139024,-0.64514834,-0.26330784,1002.23096, , , , 
2025-11-24 20:01:50.676,7.237391,-3.5838501,-0.0047856453,-0.30611083,0.7430957,-1.307824,-42.206253,-14.00625,21.65625,-0.14091365,-0.6400142,-0.28127444,1002.23096, , , , 
2025-11-24 20:01:50.696,7.5556364,-3.7923248,-0.059820566,-0.09720107,0.6038225,-0.7892147,-42.0,-16.40625,20.8125,-0.1351646,-0.6360965,-0.29040244,1002.23047, , , , 
2025-11-24 20:01:50.716,8.520542,-4.0220356,-0.5027919,0.06100837,0.3307738,-0.39766157,-41.325,-17.8875,19.96875,-0.13146986,-0.63335973,-0.2947737,1002.23047, , , , 
2025-11-24 20:01:50.736,9.186047,-4.922335,-1.2687942,0.04146126,0.016187452,-0.21494187,-41.30625,-18.84375,19.48125,-0.1294929,-0.6325211,-0.29596522,1002.2317, , , , 
2025-11-24 20:01:50.756,8.851051,-5.0587263,-1.7691933,-0.16072918,-0.27091077,0.025731942,-41.025,-19.35,19.143751,-0.13000084,-0.6335276,-0.29545897,1002.2317, , , , 
2025-11-24 20:01:50.776,8.106285,-4.26401,-1.7668004,-0.55961245,-0.52448875,0.35681117,-40.987503,-19.44375,18.956251,-0.13439088,-0.63539016,-0.2941243,1002.2224, , , , 
2025-11-24 20:01:50.797,7.5436726,-3.0092735,-0.974477,-0.9060392,-0.55869615,0.5999284,-41.34375,-19.556252,18.712502,-0.14606538,-0.6373704,-0.2927606,1002.2224, , , , 
2025-11-24 20:01:50.816,7.4048886,-2.477768,-0.25603202,-1.1118947,-0.3949891,0.7758524,-41.287502,-19.368752,18.618752,-0.15899064,-0.63706446,-0.2926257,1002.2256, , , , 
2025-11-24 20:01:50.836,7.5699935,-2.7053852,0.15314065,-1.1406045,-0.14568707,0.89191335,-41.568752,-19.5,18.5625,-0.17323092,-0.63448274,-0.29292268,1002.2256, , , , 
2025-11-24 20:01:50.856,7.66122,-3.2775688,0.19860429,-1.0477557,0.029015245,0.9181798,-41.850002,-19.143751,18.487501,-0.18725279,-0.6300304,-0.29302067,1002.2202, , , , 
2025-11-24 20:01:50.876,7.237391,-3.8545382,0.23928227,-0.8645016,0.033291176,0.88824826,-41.71875,-19.0125,18.581251,-0.20021437,-0.625132,-0.29249653,1002.2202, , , , 
2025-11-24 20:01:50.896,6.4594245,-4.503292,0.19621146,-0.62985986,-0.13774605,0.95360893,-41.8875,-18.91875,18.50625,-0.21202923,-0.6210359,-0.29065472,1002.2317, , , , 
2025-11-24 20:01:50.916,5.8079786,-4.6636114,0.11246266,-0.43011284,-0.3986542,1.1735139,-41.68125,-18.5625,18.1875,-0.22373031,-0.6184671,-0.28632164,1002.2317, , , , 
2025-11-24 20:01:50.936,5.7338014,-4.4243293,-0.02871387,-0.27923355,-0.66864866,1.4789376,-41.831253,-18.075,18.0,-0.23637131,-0.61758447,-0.2785037,1002.24097, , , , 
2025-11-24 20:01:50.956,6.346663,-3.9047875,-0.23928227,-0.18210883,-0.8262473,1.7764202,-42.28125,-17.56875,17.8875,-0.25398245,-0.6179671,-0.26397386,1002.24097, , , , 
2025-11-24 20:01:50.976,7.007381,-3.5766716,-0.48364928,-0.1662268,-0.82563645,1.921191,-42.768753,-16.48125,18.09375,-0.26897147,-0.6183739,-0.249916,1002.2385, , , , 
2025-11-24 20:01:50.997,8.022536,-3.5264223,-0.84765744,-0.31771693,-0.71568394,1.9236344,-43.162502,-14.7375,18.65625,-0.28423494,-0.6180863,-0.23533387,1002.2385,37.88755555,127.74010251,145.83917236328125,1.13
2025-11-24 20:01:51.016,8.324331,-3.6412778,-1.0606186,-0.61825377,-0.4774535,1.8564411,-43.3125,-13.25625,19.425001,-0.29979292,-0.616423,-0.22222275,1002.23486, , , , 
2025-11-24 20:01:51.036,8.3530445,-4.0890346,-0.9385847,-1.019046,-0.2367033,1.869269,-43.575,-11.2875,19.85625,-0.31648242,-0.61242,-0.21188407,1002.23486, , , , 
2025-11-24 20:01:51.056,8.317152,-4.752146,-0.325723,-1.3892194,-0.029015245,2.0745137,-43.7625,-9.4875,20.41875,-0.33559486,-0.60557425,-0.20406729,1002.22754, , , , 
2025-11-24 20:01:51.076,9.171689,-4.896014,0.3711866,-1.5327685,0.07605048,2.3493948,-44.268753,-8.306251,20.8875,-0.36343983,-0.59293056,-0.19545056,1002.22754, , , , 
2025-11-24 20:01:51.096,10.229915,-4.723432,0.7588239,-1.4967285,0.057725064,2.502794,-44.71875,-6.80625,20.212502,-0.38752908,-0.5805618,-0.1879118,1002.23975, , , , 
2025-11-24 20:01:51.116,11.2139635,-4.5296135,0.8500503,-1.4032688,-0.053449135,2.4991288,-45.0,-5.4750004,20.1,-0.41133487,-0.56791854,-0.17938404,1002.23975, , , , 
2025-11-24 20:01:51.138,11.853146,-4.8505507,0.9385847,-1.3458493,-0.24342263,2.3585577,-45.28125,-4.1062503,19.59375,-0.43400267,-0.5562078,-0.1702983,1002.24194, , , , 
2025-11-24 20:01:51.156,11.936894,-5.341378,1.2999009,-1.3623421,-0.35039726,2.2473834,-45.506252,-2.3812501,19.21875,-0.45558783,-0.5458661,-0.16115613,1002.24194, , , , 
2025-11-24 20:01:51.176,11.683255,-5.831907,1.8026928,-1.3330214,-0.30580541,2.2296689,-45.581253,-0.7875,19.706251,-0.47642583,-0.53587955,-0.15218908,1002.23926, , , , 
2025-11-24 20:01:51.196,11.750255,-6.315556,2.099702,-1.2499462,-0.20066333,2.276704,-45.35625,0.71250004,20.081251,-0.49650052,-0.5250674,-0.14318997,1002.23926, , , , 
2025-11-24 20:01:51.216,12.183655,-6.322735,2.12363,-1.0453124,-0.044286426,2.3347347,-45.05625,2.4562502,20.6625,-0.5201382,-0.509739,-0.13151115,1002.24756, , , , 
2025-11-24 20:01:51.236,12.660126,-6.4642105,1.6471593,-0.8504521,-0.019241689,2.3029704,-44.831253,4.0687504,20.737501,-0.53720677,-0.49657238,-0.121685244,1002.24756, , , , 
2025-11-24 20:01:51.256,12.614363,-6.387341,1.2065809,-0.66834325,-0.07910472,2.2675414,-44.53125,5.775,20.71875,-0.55257726,-0.48381132,-0.11125156,1002.2468, , , , 
2025-11-24 20:01:51.276,12.511472,-6.0116677,0.6798607,-0.52784836,-0.17806198,2.3219068,-44.625,7.3875003,20.737501,-0.5666447,-0.47158802,-0.09961216,1002.2468, , , , 
2025-11-24 20:01:51.296,13.574483,-5.6356955,0.0047856453,-0.4130091,-0.22387552,2.3603902,-44.4,9.0,20.737501,-0.5799004,-0.45979828,-0.08653329,1002.2439, , , , 
2025-11-24 20:01:51.316,14.058132,-5.2310095,-0.85244304,-0.46554196,0.00335966,2.3078573,-44.0625,10.6125,20.8125,-0.59209764,-0.44808394,-0.0732985,1002.2439, , , , 
2025-11-24 20:01:51.336,14.165809,-4.2257247,-1.2855439,-0.68422526,0.317946,2.2058458,-43.6875,12.187501,21.056252,-0.6040095,-0.43533105,-0.062309876,1002.2385, , , , 
2025-11-24 20:01:51.356,14.22563,-3.4689946,-1.189831,-0.88954633,0.48653984,2.0024338,-43.0125,14.137501,21.056252,-0.6195567,-0.41773164,-0.05363659,1002.2385, , , , 
2025-11-24 20:01:51.376,14.594423,-2.8776684,-0.9098708,-0.9359707,0.42728767,1.7031186,-42.487503,15.58125,21.018751,-0.6318005,-0.40412712,-0.049921654,1002.24414, , , , 
2025-11-24 20:01:51.396,15.032609,-1.8433708,-0.34965122,-0.82357484,0.35520768,1.1539668,-41.943752,16.9125,21.31875,-0.6422165,-0.39321744,-0.048663527,1002.24414, , , , 
2025-11-24 20:01:51.416,14.486747,-1.4102699,0.07178468,-0.5962633,0.3155026,0.32810134,-41.625,18.09375,20.868752,-0.64900047,-0.3865175,-0.050836124,1002.24536, , , , 
2025-11-24 20:01:51.437,13.607983,-1.3812568,0.44057846,-0.36169794,0.20921518,-0.35062632,-41.568752,18.300001,20.60625,-0.6516412,-0.38480002,-0.05667814,1002.24536, , , , 
2025-11-24 20:01:51.456,12.159726,-2.1332014,0.80189466,0.031687703,0.006413896,-1.1264024,-41.625,18.75,20.60625,-0.64976,-0.38848642,-0.06519553,1002.24023, , , , 
2025-11-24 20:01:51.477,10.974681,-3.0595229,0.7157531,0.36826456,-0.16217995,-1.5778185,-42.0,18.712502,20.550001,-0.6434893,-0.397161,-0.074712366,1002.24023, , , , 
2025-11-24 20:01:51.496,10.500603,-3.7731822,0.45254257,0.6126034,-0.23303823,-1.839872,-42.075,17.94375,20.8875,-0.63104844,-0.41249958,-0.08623274,1002.23267, , , , 
2025-11-24 20:01:51.516,10.909776,-3.7564325,-0.014356935,0.7671478,-0.1847813,-1.9821993,-42.131252,16.85625,21.393751,-0.6185826,-0.42637274,-0.0953922,1002.23267, , , , 
2025-11-24 20:01:51.536,11.44846,-3.8665023,-0.7085746,0.6785749,-0.07482879,-2.1355221,-42.35625,15.750001,21.206251,-0.60471374,-0.44077024,-0.10525976,1002.23584, , , , 
2025-11-24 20:01:51.556,11.266605,-3.964608,-0.7851449,0.3975852,0.2043284,-2.3627572,-42.881252,14.175,20.925001,-0.5905621,-0.45505375,-0.11754515,1002.23584, , , , 
2025-11-24 20:01:51.576,11.039288,-4.086642,-0.21774685,0.20089239,0.41934663,-2.4782073,-43.36875,12.675,20.737501,-0.57659733,-0.46818316,-0.13327004,1002.2346, , , , 
2025-11-24 20:01:51.596,11.278569,-4.223332,-0.16749759,0.028633466,0.97888273,-2.499587,-44.325,11.025001,20.25,-0.5625803,-0.4790778,-0.15188172,1002.2346, , , , 
2025-11-24 20:01:51.616,11.621042,-4.733003,-0.70618176,-0.24930204,1.6324893,-2.5851057,-45.15,9.09375,19.875,-0.5482739,-0.48604354,-0.17404005,1002.2295, , , , 
2025-11-24 20:01:51.636,11.542079,-4.915157,-0.8282157,-0.49180838,1.8731631,-2.6895604,-45.46875,7.0875,19.275002,-0.53062564,-0.48954412,-0.20770814,1002.2295, , , , 
2025-11-24 20:01:51.656,12.133406,-4.9199424,-0.7372885,-0.6274165,1.7033476,-2.800124,-46.443752,4.8187504,18.075,-0.517214,-0.4908024,-0.23704897,1002.2368, , , , 
2025-11-24 20:01:51.677,12.056536,-5.0802617,-0.27038896,-0.6634565,1.3020209,-3.0744705,-46.818752,2.49375,16.81875,-0.5039409,-0.49367428,-0.26647228,1002.2368, , , , 
2025-11-24 20:01:51.696,11.968001,-5.4705906,0.19381863,-0.7049941,1.065623,-3.2803261,-47.381252,-0.41250002,15.356251,-0.49006593,-0.49912304,-0.29543072,1002.239, , , , 
2025-11-24 20:01:51.716,11.979965,-5.7720866,0.7468598,-0.6787277,1.0161444,-3.4348705,-47.550003,-3.3937502,14.137501,-0.47545344,-0.5058557,-0.3242493,1002.239, , , , 
2025-11-24 20:01:51.736,11.893824,-6.5072813,0.79950184,-0.5785487,1.1639694,-3.5582616,-47.287502,-6.58125,13.200001,-0.4593262,-0.51253843,-0.35324314,1002.2329, , , , 
2025-11-24 20:01:51.756,11.324033,-6.923632,0.5841478,-0.43561044,1.2922474,-3.5875823,-46.893753,-9.8625,11.962501,-0.441176,-0.51821417,-0.3823739,1002.2329, , , , 
2025-11-24 20:01:51.776,10.651351,-7.254141,0.22971097,-0.22914408,1.277587,-3.468467,-46.256252,-13.275001,10.81875,-0.41662914,-0.5242773,-0.41706252,1002.2344, , , , 
2025-11-24 20:01:51.796,9.6122675,-7.0025954,-0.148355,-0.058717694,1.1755755,-3.209468,-45.54375,-16.48125,9.806251,-0.3966326,-0.52880687,-0.44170627,1002.2344, , , , 
2025-11-24 20:01:51.816,8.48465,-6.6221366,-0.39750767,0.009086353,1.0216421,-2.8783123,-44.268753,-19.5375,8.55,-0.3775109,-0.5330958,-0.46285987,1002.23193, , , , 
2025-11-24 20:01:51.836,7.838289,-6.6149583,-0.5027919,-0.023899399,0.90924615,-2.4256744,-43.125,-22.44375,7.8187504,-0.36040035,-0.536692,-0.48078564,1002.23193, , , , 
2025-11-24 20:01:51.856,7.443174,-6.5694947,-0.47886363,-0.060550235,0.8945858,-1.979756,-41.362503,-24.69375,7.1625004,-0.34587118,-0.5386797,-0.4959279,1002.22437, , , , 
2025-11-24 20:01:51.877,7.251748,-6.602994,-0.30179477,-0.042224817,0.865876,-1.6230211,-40.66875,-25.743752,6.6937504,-0.33373773,-0.5389143,-0.5085293,1002.22437, , , , 
2025-11-24 20:01:51.896,6.6532435,-6.5742803,-0.31136605,0.13675343,0.7907418,-1.1209047,-38.90625,-28.612501,5.4,-0.32357436,-0.5381882,-0.51845247,1002.2283, , , , 
2025-11-24 20:01:51.916,6.1791654,-6.2342005,-0.69182485,0.30473644,0.6105418,-0.6536066,-37.93125,-29.75625,4.4625,-0.31338802,-0.53711426,-0.52591354,1002.2283, , , , 
2025-11-24 20:01:51.936,5.748158,-5.441877,-1.3214363,0.41163468,0.35276428,-0.23815407,-37.162502,-30.843752,3.8812501,-0.3080184,-0.53705686,-0.52730924,1002.2246, , , , 
2025-11-24 20:01:51.956,5.152046,-4.5631127,-1.8457636,0.36704284,0.09193251,0.13812783,-36.825,-31.44375,3.4687502,-0.30543932,-0.5378259,-0.5253289,1002.2246, , , , 
2025-11-24 20:01:51.976,4.8912287,-3.7253258,-1.9271195,0.15141377,-0.15179555,0.5217399,-36.45,-31.66875,3.5812502,-0.3063972,-0.53857774,-0.52100474,1002.2251, , , , 
2025-11-24 20:01:51.996,5.2740803,-3.531208,-1.5897316,-0.018401774,-0.31374642,0.80944896,-36.5625,-31.743752,3.80625,-0.31095693,-0.5385251,-0.515359,1002.2251,37.88755701,127.74011457,145.798828125,1.18
2025-11-24 20:01:52.016,5.8343,-3.6221352,-1.1994023,-0.0794865,-0.42308807,1.085552,-37.03125,-31.3875,3.7687502,-0.31854787,-0.5375969,-0.50851315,1002.2268, , , , 
2025-11-24 20:01:52.037,6.567102,-3.775575,-0.8811569,0.009086353,-0.58190835,1.2773579,-37.29375,-30.900002,4.03125,-0.33078793,-0.5359322,-0.49769285,1002.2268, , , , 
2025-11-24 20:01:52.056,6.600601,-4.132106,-0.84765744,0.10071344,-0.75355643,1.3378319,-37.893753,-30.468752,4.14375,-0.34146693,-0.5355552,-0.48707038,1002.2356, , , , 
2025-11-24 20:01:52.076,6.2461643,-4.6301117,-0.7923234,0.090329036,-0.84945947,1.508869,-38.23125,-29.493752,4.125,-0.35288125,-0.53577524,-0.4749305,1002.2356, , , , 
2025-11-24 20:01:52.096,6.061917,-4.6468616,-0.4549354,0.093383275,-0.91787434,1.857052,-38.756252,-28.63125,4.65,-0.3659387,-0.53523606,-0.46104735,1002.2356, , , , 
2025-11-24 20:01:52.116,6.6388865,-4.1057844,-0.22013968,0.19295138,-1.0021713,2.2510486,-39.46875,-27.6375,5.1000004,-0.38090715,-0.53362,-0.4444567,1002.2356, , , , 
2025-11-24 20:01:52.136,7.919645,-3.3278182,-0.22971097,0.40552622,-1.0699754,2.55044,-40.331253,-26.00625,5.8875003,-0.3969172,-0.5314211,-0.42474285,1002.2346, , , , 
2025-11-24 20:01:52.156,9.004191,-2.746063,-0.7085746,0.5735092,-1.0577583,2.5577703,-41.325,-24.581251,7.0312505,-0.4123913,-0.5293204,-0.40261552,1002.2346, , , , 
2025-11-24 20:01:52.176,9.346664,-2.6048865,-1.1539388,0.6083275,-0.9728506,2.3469515,-42.45,-22.425001,8.0625,-0.42600358,-0.52766764,-0.37997106,1002.2346, , , , 
2025-11-24 20:01:52.196,9.02812,-3.1890345,-1.2424731,0.5289174,-0.87144995,2.2156193,-43.425003,-20.118752,9.150001,-0.44067106,-0.5257135,-0.35320517,1002.2346, , , , 
2025-11-24 20:01:52.217,8.664112,-3.8665023,-1.3094722,0.39208758,-0.7248466,2.2235603,-44.100002,-18.16875,10.368751,-0.45185578,-0.5230095,-0.33306175,1002.23193, , , , 
2025-11-24 20:01:52.236,8.515757,-4.398008,-1.5753746,0.057954133,-0.41087115,2.2980838,-44.8875,-15.918751,11.56875,-0.46340743,-0.5182156,-0.31404388,1002.23193, , , , 
2025-11-24 20:01:52.257,8.882157,-4.9486566,-1.7787645,-0.44110808,0.02535016,2.3891764,-45.73125,-14.1,12.281251,-0.47616908,-0.50983274,-0.2973521,1002.2385, , , , 
2025-11-24 20:01:52.276,9.162118,-5.2477593,-1.4964114,-0.954907,0.36803547,2.5015721,-46.275,-11.94375,12.825001,-0.49107152,-0.49668035,-0.28429165,1002.2385, , , , 
2025-11-24 20:01:52.296,9.566804,-5.4179487,-0.60329044,-1.3030899,0.46454933,2.6915457,-47.2125,-9.712501,12.656251,-0.50875324,-0.47941482,-0.27406552,1002.2368, , , , 
2025-11-24 20:01:52.316,10.5436735,-5.386842,0.1268196,-1.3702831,0.47065783,2.854642,-47.5875,-8.606251,12.468751,-0.5285586,-0.4593235,-0.2645261,1002.2368, , , , 
2025-11-24 20:01:52.336,12.34876,-5.6907306,0.6367899,-1.2291774,0.4071297,2.8900712,-47.925003,-5.2125,11.793751,-0.5533401,-0.43266472,-0.25181088,1002.23804, , , , 
2025-11-24 20:01:52.356,13.277773,-6.0786667,1.0941181,-0.88710296,0.16279079,2.7813404,-48.206253,-2.98125,10.9875,-0.57127416,-0.41229394,-0.24070257,1002.23804, , , , 
2025-11-24 20:01:52.376,13.46202,-6.34427,1.5394822,-0.32993388,-0.28129515,2.7361376,-48.375004,-0.50625,10.5,-0.58642364,-0.39493024,-0.22703274,1002.2307, , , , 
2025-11-24 20:01:52.396,13.763815,-6.495317,1.4294125,0.2992388,-0.69125,2.7605715,-48.318752,1.85625,10.275001,-0.5982098,-0.38146544,-0.20868218,1002.2307, , , , 
2025-11-24 20:01:52.418,14.223237,-6.5814586,0.5051847,0.57412004,-0.7346202,2.662225,-48.3375,4.4625,10.40625,-0.6065541,-0.37095937,-0.18657464,1002.2385, , , , 
2025-11-24 20:01:52.436,14.391033,-6.114559,-0.11964113,0.5460211,-0.7010236,2.3335128,-48.093754,7.3500004,11.025001,-0.6125263,-0.36236256,-0.16440125,1002.2385, , , , 
2025-11-24 20:01:52.457,13.593625,-5.413163,-0.32093734,0.40063944,-0.6796439,2.017094,-47.475002,9.84375,11.4375,-0.6172412,-0.35558352,-0.1447671,1002.2378, , , , 
2025-11-24 20:01:52.478,14.592031,-5.101797,-0.5602196,0.0432938,-0.44630027,1.5925552,-46.8375,12.262501,12.0,-0.6229291,-0.34913585,-0.124230936,1002.2378, , , , 
2025-11-24 20:01:52.496,15.044573,-4.510471,-0.71336025,-0.26151899,0.05650337,1.2101648,-45.99375,14.19375,12.468751,-0.6273722,-0.3443184,-0.113611355,1002.24146, , , , 
2025-11-24 20:01:52.516,14.970396,-4.045964,-0.57457656,-0.5834355,0.5592307,0.7251521,-45.318752,15.712501,12.675,-0.631856,-0.3381904,-0.11063583,1002.24146, , , , 
2025-11-24 20:01:52.536,14.678172,-3.7157545,-0.14117654,-0.6555155,0.59160554,0.39529455,-44.8125,17.118752,12.975,-0.6364247,-0.33158156,-0.11355755,1002.2344, , , , 
2025-11-24 20:01:52.557,14.809777,-3.2584262,0.17706887,-0.561445,0.39185852,0.038559735,-44.5125,17.94375,12.825001,-0.6402782,-0.32675284,-0.11896714,1002.2344, , , , 
2025-11-24 20:01:52.576,14.737993,-3.0332017,0.3592225,-0.41606334,0.17745113,-0.44103172,-44.4375,18.6,12.712501,-0.6423268,-0.3256972,-0.12553945,1002.23413, , , , 
2025-11-24 20:01:52.596,14.012669,-3.042773,0.5386842,-0.29328305,0.04734066,-1.0585983,-44.381252,18.525002,12.637501,-0.6419979,-0.32923993,-0.13374613,1002.23413, , , , 
2025-11-24 20:01:52.616,12.530614,-3.2368908,0.622433,-0.2566322,0.06994201,-1.5149012,-44.662502,17.831251,12.543751,-0.63834196,-0.33904585,-0.14727241,1002.23413, , , , 
2025-11-24 20:01:52.636,11.455638,-3.749254,0.7612167,-0.29694813,0.10353861,-1.8264333,-44.98125,17.1,12.39375,-0.6336746,-0.34926605,-0.16077168,1002.23413, , , , 
2025-11-24 20:01:52.656,11.106286,-4.362116,1.352543,-0.3122193,0.0839915,-2.028013,-45.487503,15.7875,12.4125,-0.6283041,-0.3604985,-0.17587587,1002.23755, , , , 
2025-11-24 20:01:52.676,10.919347,-4.5918264,1.89362,-0.17966545,0.044286426,-2.195385,-45.84375,15.075001,12.4125,-0.6235882,-0.36949202,-0.18780117,1002.23755, , , , 
2025-11-24 20:01:52.696,10.919347,-4.759324,2.2552354,0.21372019,-0.04367558,-2.3981864,-46.36875,12.562501,12.20625,-0.61304194,-0.38613015,-0.20776735,1002.2449, , , , 
2025-11-24 20:01:52.716,11.2139635,-4.8385863,1.8170497,0.526474,-0.036956258,-2.5056953,-46.912502,10.575001,12.225,-0.60144764,-0.40114546,-0.22281282,1002.2449, , , , 
2025-11-24 20:01:52.736,11.304891,-4.7210393,1.3214363,0.6791858,0.117588095,-2.6339734,-47.025,8.55,12.243751,-0.58346575,-0.4210176,-0.2409233,1002.2429, , , , 
2025-11-24 20:01:52.756,10.797313,-4.788337,0.8042875,0.6749099,0.27579755,-2.7298765,-47.193752,6.39375,12.637501,-0.5712843,-0.43272573,-0.25237057,1002.2429, , , , 
2025-11-24 20:01:52.777,10.476675,-4.74736,0.7540382,0.5258631,0.3967453,-2.8373854,-47.850002,4.275,12.525001,-0.5501062,-0.4512348,-0.27296722,1002.2395, , , , 
2025-11-24 20:01:52.796,9.935597,-4.599005,0.95054877,0.4000286,0.5366293,-2.8343313,-47.737503,1.8937501,12.6,-0.5330248,-0.46470338,-0.29082564,1002.2395, , , , 
2025-11-24 20:01:52.816,9.629018,-4.6205406,1.0438689,0.2735832,0.70155805,-2.7579753,-47.98125,-0.76875,12.4875,-0.5160388,-0.47643808,-0.3093494,1002.2334, , , , 
2025-11-24 20:01:52.837,10.292129,-4.4315076,1.4724833,0.25586864,0.8634326,-2.6901712,-48.05625,-3.4875002,12.056251,-0.49933016,-0.48586035,-0.3283676,1002.2334, , , , 
2025-11-24 20:01:52.856,10.428819,-4.28076,1.2664014,0.31573167,0.95567054,-2.7445366,-47.90625,-4.8,12.01875,-0.48192322,-0.4937315,-0.34785825,1002.23267, , , , 
2025-11-24 20:01:52.876,10.304092,-4.5415773,1.4772689,0.3676537,0.83472276,-2.8379965,-47.15625,-8.6625,11.137501,-0.46354234,-0.5015859,-0.36733714,1002.23267, , , , 
2025-11-24 20:01:52.896,9.459127,-4.8194437,1.3740784,0.4012503,0.6930062,-2.895416,-46.706253,-11.15625,10.35,-0.43999606,-0.5125031,-0.3906148,1002.2307, , , , 
2025-11-24 20:01:52.916,8.606684,-5.2022953,0.98644114,0.31267744,0.55006796,-2.8166168,-45.956253,-13.668751,9.58125,-0.421378,-0.5215795,-0.40808257,1002.2307, , , , 
2025-11-24 20:01:52.936,7.953144,-5.8343,1.0199406,0.13736428,0.34176904,-2.56678,-45.24375,-16.425001,9.075001,-0.40470782,-0.5303356,-0.4240831,1002.229, , , , 
2025-11-24 20:01:52.957,7.7425756,-6.5288167,1.1587243,0.0768904,0.3655921,-2.2729626,-44.456253,-18.825,8.606251,-0.39069128,-0.53765625,-0.438392,1002.229, , , , 
2025-11-24 20:01:52.976,8.274081,-6.5288167,0.60807604,0.037796173,0.48653984,-1.8533106,-43.5,-20.90625,8.2875,-0.37854373,-0.54257613,-0.4508866,1002.2241, , , , 
2025-11-24 20:01:52.996,6.329913,-4.6803613,0.66071814,-0.002519745,0.5360185,-1.9107302,-42.581253,-22.706251,7.74375,-0.36709186,-0.54611665,-0.46268645,1002.2241,37.88755097,127.74012662,146.07501220703125,1.29
2025-11-24 20:01:53.018,5.966204,-5.8821564,0.96729857,-0.055663455,0.5714476,-1.4507623,-41.9625,-23.587502,7.5000005,-0.35642028,-0.5484986,-0.47391224,1002.2241, , , , 
2025-11-24 20:01:53.036,8.482257,-6.265307,0.7827521,0.17340426,0.48226392,-1.2632321,-40.575,-26.062502,6.9187503,-0.34631586,-0.54954517,-0.48430958,1002.2185, , , , 
2025-11-24 20:01:53.056,7.6133633,-5.786443,0.49800622,0.39697435,0.60443336,-1.1031902,-39.43125,-27.31875,6.5062504,-0.337282,-0.55093795,-0.49089903,1002.2246, , , , 
2025-11-24 20:01:53.076,6.823134,-5.9350977,-0.8042875,0.43545774,0.32588702,-0.6542174,-38.662502,-28.406252,6.3187504,-0.32853806,-0.55242944,-0.49482906,1002.2246, , , , 
2025-11-24 20:01:53.096,7.5197444,-6.1360946,-1.407877,0.19295138,0.1511847,-0.26075542,-38.081253,-29.175001,6.05625,-0.3236378,-0.5541551,-0.4952596,1002.2383, , , , 
2025-11-24 20:01:53.117,7.6803627,-5.4107704,-1.6280167,-0.19371493,0.17012095,0.03000787,-37.29375,-29.868752,5.90625,-0.32259944,-0.5540997,-0.49466735,1002.2383, , , , 
2025-11-24 20:01:53.136,7.160821,-4.5128636,-1.1347961,-0.6158104,0.06322269,0.30794337,-37.237503,-30.31875,5.7562504,-0.32514882,-0.55156994,-0.49460948,1002.2285, , , , 
2025-11-24 20:01:53.156,6.296414,-3.5336008,0.48364928,-0.68483615,0.31122667,0.6555155,-37.256252,-30.69375,5.8875003,-0.33059338,-0.5459316,-0.49553955,1002.2285, , , , 
2025-11-24 20:01:53.176,7.495816,-3.2177482,1.5059828,-0.34764844,0.19699824,0.99025977,-37.48125,-30.7875,5.7562504,-0.33922184,-0.53627634,-0.4948087,1002.2302, , , , 
2025-11-24 20:01:53.196,7.7569327,-3.4833515,1.0295119,-0.015347538,-0.040010497,1.0262997,-38.1375,-30.16875,5.1000004,-0.34629512,-0.5308482,-0.49016157,1002.2302, , , , 
2025-11-24 20:01:53.216,7.510173,-3.909573,0.4118646,0.13797513,-0.21043688,1.0965471,-38.4375,-29.60625,4.8187504,-0.35276398,-0.5277472,-0.4830157,1002.22876, , , , 
2025-11-24 20:01:53.236,7.172785,-4.261617,0.13878371,0.092772424,-0.27885178,1.1924502,-38.86875,-28.725,4.4625,-0.3596461,-0.52557224,-0.47429392,1002.22876, , , , 
2025-11-24 20:01:53.257,7.3546395,-4.3669014,0.15553348,-0.014736691,-0.30458373,1.3506596,-39.54375,-27.956251,4.40625,-0.36766642,-0.522881,-0.4648375,1002.2302, , , , 
2025-11-24 20:01:53.276,7.620542,-4.2352962,0.26081768,-0.09353599,-0.34489962,1.4483953,-40.237503,-27.075,5.15625,-0.37705123,-0.5193434,-0.45486245,1002.2302, , , , 
2025-11-24 20:01:53.296,7.701898,-4.12732,0.31615168,-0.1674485,-0.33207184,1.492987,-41.04375,-26.343752,5.15625,-0.38725463,-0.51523197,-0.4446818,1002.23413, , , , 
2025-11-24 20:01:53.317,7.699505,-4.1177487,0.4142574,-0.24013934,-0.2947338,1.5717864,-41.98125,-25.48125,5.5125003,-0.40061218,-0.5090696,-0.4320427,1002.23413, , , , 
2025-11-24 20:01:53.337,7.8741813,-4.2161536,0.39511484,-0.30977592,-0.19211146,1.6621917,-42.46875,-24.112501,5.71875,-0.4117239,-0.5029595,-0.4219226,1002.2322, , , , 
2025-11-24 20:01:53.356,8.077571,-4.211368,0.40947178,-0.41728503,-0.024739314,1.7623707,-42.9375,-23.081251,5.71875,-0.42306364,-0.49526894,-0.41199064,1002.2322, , , , 
2025-11-24 20:01:53.376,8.235796,-3.9670007,0.44775695,-0.49486265,0.040010497,1.8014649,-43.631252,-21.50625,5.68125,-0.43462563,-0.48600787,-0.40251017,1002.24023, , , , 
2025-11-24 20:01:53.396,8.37458,-4.0627136,0.34965122,-0.5730511,-9.162709E-4,1.8460568,-43.875,-20.4375,5.34375,-0.4465543,-0.4760074,-0.39323193,1002.24023, , , , 
2025-11-24 20:01:53.416,8.743374,-4.108177,0.34486556,-0.729428,-0.104760304,1.9224126,-45.131252,-18.09375,4.93125,-0.45948797,-0.4656456,-0.38363805,1002.24097, , , , 
2025-11-24 20:01:53.436,9.38495,-4.2664027,0.62482584,-0.890768,-0.21471281,1.9883841,-46.0875,-16.743752,4.59375,-0.47751623,-0.4522411,-0.37121364,1002.24097, , , , 
2025-11-24 20:01:53.456,9.906884,-4.479364,1.0175478,-0.9811734,-0.28862533,2.0665727,-46.7625,-15.6,4.6125,-0.49319574,-0.441067,-0.36096412,1002.24194, , , , 
2025-11-24 20:01:53.476,10.443175,-4.613362,1.4557334,-0.9982771,-0.32413083,2.1624756,-47.475002,-13.9875,4.78125,-0.5095226,-0.42931822,-0.35014322,1002.24194, , , , 
2025-11-24 20:01:53.496,11.094322,-4.4578285,1.907977,-0.9231429,-0.3418454,2.2021806,-47.925003,-12.150001,4.6312504,-0.52576506,-0.41716164,-0.33868805,1002.2439, , , , 
2025-11-24 20:01:53.516,11.810075,-4.191926,2.243271,-0.7245412,-0.4053735,2.1233814,-48.300003,-9.9375,4.5375004,-0.54090637,-0.4052974,-0.32680154,1002.2439, , , , 
2025-11-24 20:01:53.537,12.123834,-4.4458647,2.1475582,-0.56083417,-0.52326703,1.9889951,-48.656254,-7.4812503,4.6312504,-0.5543761,-0.39494622,-0.31447598,1002.251, , , , 
2025-11-24 20:01:53.556,12.037394,-4.6612186,1.9558334,-0.4557684,-0.55869615,1.9352405,-48.73125,-5.7562504,4.8,-0.56642526,-0.3862563,-0.30164397,1002.251, , , , 
2025-11-24 20:01:53.576,12.099906,-4.749753,1.8074784,-0.38857523,-0.50066566,2.005488,-49.031254,-3.8812501,5.25,-0.58023393,-0.37581974,-0.28493717,1002.25464, , , , 
2025-11-24 20:01:53.596,12.40858,-4.4051867,1.7644076,-0.3122193,-0.41331452,2.1270466,-49.18125,-1.9875001,5.68125,-0.59064656,-0.36653084,-0.27102637,1002.25464, , , , 
2025-11-24 20:01:53.616,12.944871,-3.6750765,1.7356937,-0.18821731,-0.33879116,2.1722493,-49.425003,-0.075,6.1312504,-0.6002413,-0.35641184,-0.2567734,1002.26196, , , , 
2025-11-24 20:01:53.636,13.782957,-2.9877381,1.5921243,-0.01901262,-0.3094705,2.1038344,-49.537502,2.0625,6.24375,-0.60838145,-0.34624615,-0.24260353,1002.26196, , , , 
2025-11-24 20:01:53.656,14.601602,-2.5833511,1.2065809,0.15141377,-0.33879116,1.9040873,-49.29375,4.05,6.7500005,-0.6147447,-0.33734655,-0.22884606,1002.25977, , , , 
2025-11-24 20:01:53.676,14.577674,-1.5370895,1.1276177,0.30534726,-0.22448637,1.8081843,-49.068752,6.0750003,7.275,-0.6193064,-0.3298199,-0.2157181,1002.25977, , , , 
2025-11-24 20:01:53.697,15.5689,-0.69900334,0.6152545,0.48371467,-0.06261184,1.7293849,-48.581253,7.8187504,7.5750003,-0.6224043,-0.32062334,-0.2005449,1002.2522, , , , 
2025-11-24 20:01:53.716,16.430616,-0.04546363,0.09092726,0.54296684,0.07910472,1.5565152,-48.225002,9.65625,7.93125,-0.6230941,-0.31338775,-0.18974236,1002.2522, , , , 
2025-11-24 20:01:53.736,16.9693,0.5673981,0.0526421,0.59427804,0.03451287,1.0513445,-48.112503,11.512501,8.00625,-0.6223203,-0.30767232,-0.18163958,1002.2466, , , , 
2025-11-24 20:01:53.756,17.117954,0.45732823,0.22971097,0.7231668,-0.30214033,0.30122405,-47.625,13.33125,7.6312504,-0.6194828,-0.30679786,-0.17698559,1002.2466, , , , 
2025-11-24 20:01:53.776,16.562521,-0.39750767,0.26799613,0.89970165,-0.7089646,-0.53693473,-47.49375,14.7375,7.3500004,-0.6140688,-0.31317607,-0.1749288,1002.2429, , , , 
2025-11-24 20:01:53.796,15.477973,-1.2065809,0.009571291,0.95773214,-0.9135984,-1.1349542,-47.25,15.637501,7.2937503,-0.60603285,-0.325974,-0.17487177,1002.2429, , , , 
2025-11-24 20:01:53.816,14.129917,-1.7668004,-0.13399807,0.8001335,-0.95757943,-1.6120259,-46.95,15.69375,7.1062503,-0.59637713,-0.3430802,-0.17693909,1002.2427, , , , 
2025-11-24 20:01:53.836,13.232309,-2.5088747,0.016749758,0.4971533,-0.89588386,-2.0048008,-46.912502,14.906251,7.6687503,-0.58638805,-0.36231974,-0.1819757,1002.2427, , , , 
2025-11-24 20:01:53.856,12.853944,-3.531208,0.55782676,0.16363071,-0.81341946,-2.34321,-46.800003,14.043751,8.34375,-0.5745264,-0.38719183,-0.19322026,1002.2246, , , , 
2025-11-24 20:01:53.876,13.019049,-4.338187,1.2209377,0.023135839,-0.81403035,-2.531962,-46.8375,12.431251,9.225,-0.5654565,-0.4070322,-0.20533623,1002.2246, , , , 
2025-11-24 20:01:53.896,13.304094,-4.7162533,1.7763717,-0.004352287,-0.89466214,-2.679787,-47.175003,10.70625,10.181251,-0.55612993,-0.42708734,-0.21860342,1002.2163, , , , 
2025-11-24 20:01:53.916,13.6606245,-4.8242297,2.2025933,0.029244313,-1.0021713,-2.907633,-47.175003,8.681251,10.70625,-0.5459093,-0.4480925,-0.23236997,1002.2163, , , , 
2025-11-24 20:01:53.936,13.749458,-4.924728,2.3054845,0.031076854,-1.0467632,-3.2577248,-47.53125,6.20625,11.418751,-0.5340241,-0.47061816,-0.24693155,1002.2156, , , , 
2025-11-24 20:01:53.956,13.232309,-5.111368,2.1738794,-0.12407835,-0.9569686,-3.5704787,-47.756252,3.6562502,12.356251,-0.52032423,-0.49416068,-0.26309758,1002.2156, , , , 
2025-11-24 20:01:53.976,11.984752,-5.372485,2.0733807,-0.3873535,-0.5886277,-3.8062656,-47.268753,0.73125005,13.462501,-0.5013893,-0.5224792,-0.28718188,1002.2185, , , , 
2025-11-24 20:01:53.996,11.053644,-5.4705906,2.0733807,-0.5846572,-0.104760304,-3.7952704,-47.1375,-2.4375,14.38125,-0.48520842,-0.5414229,-0.31007028,1002.2185,37.8875408,127.74013536,145.69573974609375,1.24
2025-11-24 20:01:54.016,10.64178,-5.2884374,2.003989,-0.6432985,0.36009446,-3.6676033,-46.537502,-5.7937503,15.4875,-0.46846914,-0.5556227,-0.33518556,1002.218, , , , 
2025-11-24 20:01:54.037,10.4001045,-4.8649077,1.6686947,-0.561445,0.6911737,-3.5662026,-45.7125,-9.356251,15.88125,-0.4508351,-0.5660631,-0.36119422,1002.218, , , , 
2025-11-24 20:01:54.056,10.131809,-4.6755753,1.0654043,-0.51196635,0.85121566,-3.4440331,-44.831253,-12.8625,15.76875,-0.43208468,-0.57422996,-0.38684556,1002.219, , , , 
2025-11-24 20:01:54.076,9.859028,-4.4721856,0.72293156,-0.57488364,0.9856021,-3.2778828,-43.74375,-16.125,15.76875,-0.4130784,-0.58058053,-0.41156024,1002.219, , , , 
2025-11-24 20:01:54.096,9.483055,-4.273581,0.5458627,-0.613367,1.1572502,-3.112343,-42.375,-19.331251,14.94375,-0.39438897,-0.58452153,-0.4357783,1002.2241, , , , 
2025-11-24 20:01:54.116,9.528519,-4.3812585,0.37836507,-0.6982748,1.225665,-2.985287,-41.175003,-22.237501,13.875001,-0.37602034,-0.5863906,-0.45939863,1002.2241, , , , 
2025-11-24 20:01:54.136,8.621041,-4.6564326,0.6870392,-0.6707866,1.3502779,-2.8465483,-40.0125,-25.181252,12.750001,-0.35357276,-0.586167,-0.48837566,1002.22876, , , , 
2025-11-24 20:01:54.156,7.8000035,-5.2429733,0.9194421,-0.5486172,1.2720894,-2.5618935,-38.756252,-27.900002,11.512501,-0.33607647,-0.58469594,-0.50983685,1002.22876, , , , 
2025-11-24 20:01:54.177,7.1656065,-5.286044,1.2472588,-0.3378749,1.1505308,-2.0683289,-37.3125,-30.45,10.181251,-0.32040957,-0.58273655,-0.527811,1002.22876, , , , 
2025-11-24 20:01:54.196,6.8015985,-4.5128636,1.6615162,0.034741938,0.9184089,-1.5045168,-35.568752,-32.475002,9.31875,-0.3070671,-0.58084923,-0.54116225,1002.22876, , , , 
2025-11-24 20:01:54.216,6.8949184,-3.8665023,1.3405789,0.37009707,0.68567604,-1.1691617,-33.99375,-33.956253,8.306251,-0.29551756,-0.58050597,-0.5495463,1002.2324, , , , 
2025-11-24 20:01:54.236,6.9595246,-4.112963,0.7253244,0.56617904,0.5787778,-0.92360103,-32.456253,-35.34375,7.5375004,-0.2850066,-0.5819466,-0.5540079,1002.2324, , , , 
2025-11-24 20:01:54.256,6.710671,-4.3740797,-0.11246266,0.6242095,0.56961507,-0.57725066,-31.06875,-36.28125,6.9,-0.2734161,-0.58435446,-0.55592144,1002.2324, , , , 
2025-11-24 20:01:54.276,6.4570317,-4.9199424,-0.7612167,0.5680116,0.50730866,-0.22899136,-30.45,-36.9375,6.43125,-0.2661865,-0.5855936,-0.5552239,1002.2324, , , , 
2025-11-24 20:01:54.296,6.4184475,-5.235795,-1.3310076,0.42324078,0.34115818,0.23769593,-29.906252,-37.55625,6.4500003,-0.26224956,-0.5859522,-0.552483,1002.2312, , , , 
2025-11-24 20:01:54.316,6.995417,-5.300401,-1.7883358,0.17035003,0.014354911,0.71110255,-29.456251,-37.631252,6.4875,-0.26316017,-0.5854021,-0.5474539,1002.2312, , , , 
2025-11-24 20:01:54.337,7.4192457,-4.668397,-1.570589,-0.14790139,-0.41881216,1.1527451,-29.718752,-37.4625,7.0312505,-0.2698213,-0.5842167,-0.54056376,1002.23535, , , , 
2025-11-24 20:01:54.356,7.730612,-3.8377883,-0.8234301,-0.3238254,-0.77066016,1.4019709,-29.962502,-37.40625,7.2562504,-0.28169096,-0.5826902,-0.5323731,1002.23535, , , , 
2025-11-24 20:01:54.376,8.029715,-3.315854,-0.1698904,-0.37086064,-0.94230825,1.5357463,-30.69375,-36.75,7.2562504,-0.29691425,-0.5811688,-0.52325296,1002.23535, , , , 
2025-11-24 20:01:54.397,8.23819,-3.3086755,0.22731815,-0.34887013,-0.90748996,1.6267626,-31.687502,-36.28125,7.275,-0.31749046,-0.5789217,-0.51093614,1002.23535, , , , 
2025-11-24 20:01:54.417,8.429615,-3.7133617,0.32333016,-0.3171061,-0.7804337,1.712892,-32.8875,-35.643753,7.2000003,-0.33372882,-0.5761678,-0.5006328,1002.2339, , , , 
2025-11-24 20:01:54.436,8.290832,-4.132106,0.2656033,-0.28289863,-0.63444126,1.844835,-33.80625,-34.443752,7.4062505,-0.34957847,-0.5722218,-0.489845,1002.2339, , , , 
2025-11-24 20:01:54.456,8.39133,-4.4913282,0.23688944,-0.25235626,-0.5721348,2.0060987,-34.93125,-33.393753,7.89375,-0.36537534,-0.5670669,-0.47822127,1002.2405, , , , 
2025-11-24 20:01:54.477,8.503793,-4.618148,0.30418757,-0.18210883,-0.5812975,2.1746926,-36.15,-32.006252,8.38125,-0.3815132,-0.5610749,-0.46538892,1002.2405, , , , 
2025-11-24 20:01:54.496,8.980264,-4.347759,0.2009971,-0.1130831,-0.61122906,2.3304586,-37.143753,-30.375002,8.6625,-0.39804167,-0.5546935,-0.4509401,1002.24097, , , , 
2025-11-24 20:01:54.516,9.241081,-4.1297126,0.15074782,-0.08498412,-0.5531986,2.4081125,-38.325,-28.931252,8.887501,-0.41447663,-0.54783946,-0.43540314,1002.24097, , , , 
2025-11-24 20:01:54.536,9.638589,-3.7396827,0.059820566,-0.09536853,-0.43286163,2.458813,-39.45,-27.0375,9.09375,-0.43048912,-0.5401819,-0.41942933,1002.2529, , , , 
2025-11-24 20:01:54.556,9.897313,-3.4426737,0.021535404,-0.091092594,-0.32413083,2.4435418,-40.725002,-25.312502,9.31875,-0.44948444,-0.529169,-0.39980447,1002.2529, , , , 
2025-11-24 20:01:54.577,10.079167,-3.3589249,-0.148355,-0.09414683,-0.2751867,2.4331574,-42.0,-23.4375,9.618751,-0.46027407,-0.522071,-0.3882697,1002.2461, , , , 
2025-11-24 20:01:54.596,10.167702,-3.3182468,-0.35443684,-0.120413266,-0.2495311,2.446596,-43.050003,-21.54375,10.05,-0.4776459,-0.5096141,-0.36915904,1002.2461, , , , 
2025-11-24 20:01:54.617,10.5029955,-3.1100712,-0.6200402,-0.21204035,-0.26052636,2.43499,-43.875,-19.706251,10.556251,-0.49145615,-0.4992588,-0.35387248,1002.24146, , , , 
2025-11-24 20:01:54.636,10.823634,-3.1842487,-0.7157531,-0.349481,-0.26174805,2.422773,-44.8125,-17.456251,10.575001,-0.5018707,-0.49127725,-0.34264675,1002.24146, , , , 
2025-11-24 20:01:54.657,11.26182,-2.9781668,-0.622433,-0.4966952,-0.23303823,2.4178863,-45.43125,-15.337501,10.8,-0.51976806,-0.47722167,-0.3246788,1002.2373, , , , 
2025-11-24 20:01:54.676,11.520544,-2.8178477,-0.44536412,-0.61031276,-0.1847813,2.378792,-45.75,-14.26875,10.762501,-0.5343775,-0.46511617,-0.31132168,1002.2373, , , , 
2025-11-24 20:01:54.696,12.121441,-2.9183464,-0.40468612,-0.7953995,-0.05222744,2.2547135,-46.8375,-10.63125,10.5,-0.55252296,-0.44905555,-0.29652926,1002.24414, , , , 
2025-11-24 20:01:54.716,12.456436,-3.5527434,-0.30897322,-0.9231429,-0.014354911,2.1184947,-47.34375,-8.400001,10.59375,-0.56675345,-0.43557683,-0.2867955,1002.24414, , , , 
2025-11-24 20:01:54.736,12.583256,-4.3357944,-0.07178468,-0.9982771,-0.08521319,2.073292,-47.943752,-6.0750003,10.6125,-0.5810297,-0.42211005,-0.27812117,1002.2478, , , , 
2025-11-24 20:01:54.756,12.729517,-4.5415773,0.48364928,-1.0337063,-0.15423894,2.1722493,-48.61875,-3.8625002,10.51875,-0.5956862,-0.4086114,-0.26910326,1002.2478, , , , 
2025-11-24 20:01:54.777,13.165011,-4.254439,1.0342976,-0.95612866,-0.15912572,2.308468,-48.750004,-2.0062501,10.481251,-0.6104108,-0.39439645,-0.25925964,1002.24805, , , , 
2025-11-24 20:01:54.796,13.943276,-3.7444685,1.3716856,-0.8021188,-0.1395786,2.386122,-48.468754,0.16875,10.575001,-0.6245273,-0.379542,-0.2484251,1002.24805, , , , 
2025-11-24 20:01:54.817,15.09243,-3.4713874,1.1060823,-0.593209,-0.06139015,2.292586,-48.281254,1.6875001,10.59375,-0.6370542,-0.3646122,-0.23720849,1002.2517, , , , 
2025-11-24 20:01:54.836,15.726827,-2.8704898,0.72053874,-0.3354315,0.07543964,1.9889951,-48.093754,3.5812502,10.6125,-0.6492131,-0.3473917,-0.22452998,1002.2517, , , , 
2025-11-24 20:01:54.856,15.657435,-2.0494525,0.4022933,-0.10392039,0.16095825,1.6628026,-48.15,5.15625,10.556251,-0.6555978,-0.33550933,-0.21655029,1002.24414, , , , 
2025-11-24 20:01:54.876,15.705292,-1.474876,-0.1268196,0.032909397,0.14629792,1.2938509,-48.3375,6.8625,10.44375,-0.659473,-0.3260727,-0.21035558,1002.24414, , , , 
2025-11-24 20:01:54.896,15.6024,-0.9098708,-0.53389853,0.07017108,0.17378604,0.8112815,-48.112503,8.71875,10.181251,-0.66143405,-0.3195878,-0.20628175,1002.2488, , , , 
2025-11-24 20:01:54.916,15.544972,-0.6870392,-0.6583253,0.07566871,0.11514471,0.41606334,-47.86875,10.25625,10.425,-0.6619531,-0.31588247,-0.20486695,1002.2488, , , , 
2025-11-24 20:01:54.937,15.614365,-0.44775695,-0.5243273,0.10987615,-0.016798299,0.038559735,-47.41875,11.4375,10.387501,-0.6614609,-0.31511343,-0.20540886,1002.24634, , , , 
2025-11-24 20:01:54.956,15.504294,-0.19860429,-0.18903299,0.17584765,-0.24097924,-0.50700325,-47.1375,12.0375,10.35,-0.6591087,-0.31925008,-0.20826104,1002.24634, , , , 
2025-11-24 20:01:54.976,14.802599,-0.46929234,0.17706887,0.13980767,-0.31557897,-1.0995251,-47.25,12.168751,10.556251,-0.65541923,-0.32766855,-0.2128158,1002.24146, , , , 
2025-11-24 20:01:54.996,13.543376,-1.1587243,0.65353966,0.029244313,-0.18905723,-1.6297405,-47.475002,11.85,10.368751,-0.6500936,-0.339524,-0.22076134,1002.24146,37.887531,127.74013962,145.4534912109375,0.98
2025-11-24 20:01:55.017,12.499507,-2.1595225,1.0917253,-0.0898709,0.02779355,-2.0335104,-47.71875,11.043751,10.35,-0.6433651,-0.35273027,-0.23267174,1002.2417, , , , 
2025-11-24 20:01:55.036,11.6593275,-3.4953158,1.6423737,-0.13568445,0.21104772,-2.323663,-47.98125,9.65625,10.387501,-0.6354174,-0.36604893,-0.24798477,1002.2417, , , , 
2025-11-24 20:01:55.056,11.192428,-4.328616,2.2695923,-0.049554985,0.22692975,-2.4128466,-48.24375,7.8,10.40625,-0.626364,-0.37909955,-0.26504043,1002.24146, , , , 
2025-11-24 20:01:55.076,11.410174,-4.6755753,2.9135606,0.14469445,0.101706065,-2.419566,-48.2625,5.7562504,10.40625,-0.6163197,-0.39224592,-0.2817014,1002.24146, , , , 
2025-11-24 20:01:55.097,12.142977,-4.642076,3.3517463,0.51303536,-0.029015245,-2.5460114,-48.35625,3.4875002,10.44375,-0.60166895,-0.4102337,-0.3004013,1002.24, , , , 
2025-11-24 20:01:55.116,12.355938,-4.644469,3.1746774,0.8117396,-0.10292777,-2.7610297,-48.375004,1.1625,10.5,-0.5908456,-0.42264494,-0.31080687,1002.24, , , , 
