Time,Accel_X,Accel_Y,Accel_Z,Gyro_X,Gyro_Y,Gyro_Z,Mag_X,Mag_Y,Mag_Z,Orient_X,Orient_Y,Orient_Z,Pressure,Lat,Lng,Alt,Speed
2025-11-24 19:56:06.927,-2.1858435,3.7971103,8.932407,0.07368345,0.08994726,-0.21616358,17.6625,14.043751,-52.593754,0.19838338,-0.027045922,-0.57749367,1002.13257,37.88739581,127.74012553,143.906005859375,0.22
2025-11-24 19:56:06.947,-2.2935205,3.2847474,7.242177,-1.1076951,-0.0066429637,-0.37437302,17.643751,13.8,-52.612503,0.19445917,-0.019083457,-0.58184344,1002.1304, , , , 
2025-11-24 19:56:06.967,-2.734099,3.9670007,7.64447,-1.8089478,0.07773031,-0.5564055,17.34375,14.137501,-52.593754,0.18404542,-0.01031691,-0.58527684,1002.1184, , , , 
2025-11-24 19:56:06.987,-2.9733813,3.8138602,8.032107,-2.749118,0.6580352,-1.1336561,17.212502,15.168751,-52.537502,0.16962294,0.005215789,-0.5902602,1002.1184, , , , 
2025-11-24 19:56:07.007,-3.5359936,3.260819,8.99462,-3.7802284,1.7563386,-1.5294852,17.4375,16.875,-52.0125,0.15214756,0.032334372,-0.59777516,1002.1155, , , , 
2025-11-24 19:56:07.027,-4.007679,1.1515459,10.251451,-4.6067047,2.6396236,-1.3578371,17.6625,19.40625,-51.300003,0.13319644,0.07355819,-0.6049259,1002.1155, , , , 
2025-11-24 19:56:07.047,-3.3732817,-0.7396813,11.968001,-5.024524,2.6695552,-0.8508339,18.4125,22.275002,-49.687504,0.106905155,0.13601467,-0.6071061,1002.1211, , , , 
2025-11-24 19:56:07.067,-3.2105699,-1.3740784,11.087144,-5.210222,1.3030899,-0.16912833,19.5,25.650002,-47.325,0.0814278,0.18281104,-0.6030112,1002.1211, , , , 
2025-11-24 19:56:07.087,-2.9805596,-3.2081769,8.278867,-5.538323,-0.81723726,1.586523,20.75625,29.812502,-44.25,0.045839075,0.21682848,-0.59210753,1002.1377, , , , 
2025-11-24 19:56:07.107,-2.085345,-3.39721,6.98106,-5.5615354,-1.638216,3.03362,22.1625,33.5625,-40.706253,0.002527305,0.23847581,-0.56781596,1002.1377, , , , 
2025-11-24 19:56:07.127,-0.059820566,-0.25603202,11.350354,-3.7509077,-1.269875,3.279868,23.19375,36.9375,-37.3125,-0.037798155,0.25180393,-0.53131133,1002.11865, , , , 
2025-11-24 19:56:07.147,-3.3086755,-1.879263,12.80848,-0.2060846,0.32939938,2.7251422,24.6375,39.225002,-34.256252,-0.052037247,0.26116538,-0.4968971,1002.11865, , , , 
2025-11-24 19:56:07.167,-6.1863437,-5.276473,10.900205,2.8794577,0.2854184,1.5407095,25.987501,40.3875,-31.931252,-0.033126883,0.25891188,-0.4726747,1002.1018, , , , 
2025-11-24 19:56:07.187,-5.6333027,-2.935096,9.861421,4.6472497,-0.20333578,0.4777589,27.862501,40.29375,-30.69375,-9.2508976E-4,0.24348521,-0.46997204,1002.1018, , , , 
2025-11-24 19:56:07.207,-4.7210393,-2.4299114,9.190832,5.826261,-0.47333026,-0.22715883,29.625002,39.075,-30.468752,0.039887592,0.21698135,-0.4780919,1002.10474, , , , 
2025-11-24 19:56:07.227,-4.80748,-1.6543378,9.162118,6.6820583,-1.7188479,-0.46233502,30.562502,37.36875,-31.743752,0.08418756,0.18002167,-0.49286616,1002.10474, , , , 
2025-11-24 19:56:07.247,-4.108177,-0.25842485,8.611469,6.22942,-4.991233,-0.7659261,31.06875,34.8375,-34.10625,0.1297356,0.12884293,-0.50904465,1002.10474, , , , 
2025-11-24 19:56:07.267,-2.1738794,1.378864,6.262914,3.1958766,-8.351046,-1.058522,29.831251,31.612501,-37.95,0.1365622,0.052350674,-0.5296684,1002.10474, , , , 
2025-11-24 19:56:07.287,-0.5937191,-0.10767702,6.586244,2.4053638,-6.7810917,-0.9723925,27.35625,28.3875,-42.693752,0.11898541,-0.025015097,-0.5490596,1002.0891, , , , 
2025-11-24 19:56:07.307,-2.2624137,-0.32333016,4.2520456,0.103691325,-2.2313488,-0.47455198,23.175001,25.050001,-46.875,0.10216263,-0.07758727,-0.56331575,1002.0891, , , , 
2025-11-24 19:56:07.327,-2.193022,2.248057,3.3038898,-1.9176786,3.2261136,0.40323555,18.0375,22.237501,-50.737503,0.098098665,-0.06872171,-0.5698118,1002.0989, , , , 
2025-11-24 19:56:07.347,-3.502494,2.9614172,18.403498,-2.184619,-0.7176692,1.0007205,14.38125,20.737501,-52.406254,0.091884226,-0.037795335,-0.5637565,1002.0989, , , , 
2025-11-24 19:56:07.367,1.3549358,0.7253244,8.613862,-1.1981006,-1.2283375,1.4044906,12.281251,20.60625,-52.74375,0.07032817,-0.040889315,-0.5560824,1002.10864, , , , 
2025-11-24 19:56:07.387,2.3341985,2.099702,9.985847,-0.19692189,-0.68224,1.0257653,11.625,21.45,-52.781254,0.057754546,-0.045794014,-0.54634124,1002.10864, , , , 
2025-11-24 19:56:07.407,2.178665,2.3341985,10.100702,0.35108447,0.4912739,0.7832589,11.981251,22.40625,-52.10625,0.055477113,-0.049409058,-0.53866106,1002.1074, , , , 
2025-11-24 19:56:07.427,0.91226363,1.8984057,10.445568,0.63512844,0.98728186,0.82662904,11.925,23.2875,-52.068752,0.062340945,-0.047081083,-0.5318263,1002.1074, , , , 
2025-11-24 19:56:07.447,-0.10767702,2.0374885,10.754242,0.52945185,1.2756017,0.80830365,11.981251,23.41875,-52.10625,0.07245522,-0.04230239,-0.52421486,1002.1135, , , , 
2025-11-24 19:56:07.467,0.10049855,2.6886353,9.473484,0.18249062,0.8205206,0.41606334,12.618751,23.025002,-52.10625,0.08341612,-0.03370308,-0.51508766,1002.1135, , , , 
2025-11-24 19:56:07.487,0.35682967,2.9422746,9.835099,0.3657448,0.458899,-0.08788565,13.6125,22.556252,-52.36875,0.08884831,-0.02942721,-0.51171696,1002.10815, , , , 
2025-11-24 19:56:07.507,-0.21296121,2.597708,9.47827,0.5984776,-0.250371,-0.51242447,14.812501,21.900002,-52.18125,0.09391331,-0.030248353,-0.51255935,1002.10815, , , , 
2025-11-24 19:56:07.527,-0.68464637,2.1738794,8.927621,0.6149705,-0.5570164,-0.66941226,15.4875,21.6,-52.256252,0.09746752,-0.03578981,-0.5168345,1002.10254, , , , 
2025-11-24 19:56:07.548,-1.0606186,2.082952,9.394521,0.65162134,-0.6987329,-0.6755207,15.937501,21.075,-52.2,0.099759184,-0.043144964,-0.52259386,1002.10254, , , , 
2025-11-24 19:56:07.567,-1.378864,2.2241287,9.47827,0.79150534,-0.75065494,-0.6126034,15.58125,20.6625,-52.218754,0.10212436,-0.051703077,-0.5284247,1002.1008, , , , 
2025-11-24 19:56:07.587,-1.1922239,2.4155545,9.250652,0.90145785,-0.82517827,-0.5380801,15.075001,20.1375,-52.706253,0.105352044,-0.061425004,-0.53366727,1002.1008, , , , 
2025-11-24 19:56:07.607,-1.0007981,2.7843482,8.913264,0.9417738,-0.8709918,-0.54418856,14.137501,19.556252,-53.156254,0.10897656,-0.072016776,-0.5383102,1002.09644, , , , 
2025-11-24 19:56:07.627,-0.8234301,2.9614172,8.460722,0.8984036,-1.0285904,-0.56862247,13.218751,18.900002,-53.5875,0.11232283,-0.08351638,-0.5429445,1002.09644, , , , 
2025-11-24 19:56:07.647,-0.66071814,3.0933216,8.546864,0.7585196,-1.0304229,-0.51975465,12.525001,18.393751,-54.225002,0.114643805,-0.09884275,-0.5490015,1002.0969, , , , 
2025-11-24 19:56:07.667,-0.1794617,3.301497,8.640183,0.49707696,-0.5716767,-0.5026509,11.512501,17.98125,-54.45,0.11598205,-0.10825695,-0.5535964,1002.0969, , , , 
2025-11-24 19:56:07.687,0.27038896,3.2105699,9.310772,0.15500249,-0.2772483,-0.3896442,10.89375,17.362501,-54.675003,0.117176145,-0.11310657,-0.55768734,1002.10034, , , , 
2025-11-24 19:56:07.707,0.3281158,3.098107,9.77498,-0.05581617,-0.13308835,-0.19722731,9.918751,17.04375,-55.068752,0.116897926,-0.11496246,-0.5608625,1002.10034, , , , 
2025-11-24 19:56:07.727,0.42622152,3.0499516,10.37827,-0.13095038,-0.07627955,-0.04512634,9.243751,16.518751,-54.956253,0.11575126,-0.11512465,-0.56257683,1002.10376, , , , 
2025-11-24 19:56:07.748,0.55782676,3.1962128,11.285748,0.07490514,-0.07933379,-0.07933379,8.6625,16.3125,-55.218754,0.114294365,-0.11533257,-0.563346,1002.10376, , , , 
2025-11-24 19:56:07.767,0.6128617,3.1986058,10.486246,0.28755635,0.057496,-0.11170869,8.493751,16.06875,-55.331253,0.11572584,-0.11632554,-0.5639791,1002.10596, , , , 
2025-11-24 19:56:07.787,0.30418757,3.315854,9.413663,0.11407573,0.18951537,-0.08544226,8.475,15.8625,-55.275,0.11828641,-0.11658674,-0.5644823,1002.10596, , , , 
2025-11-24 19:56:07.807,0.15074782,3.4211383,9.38495,-0.22929679,0.3208475,-0.08788565,8.212501,15.8625,-55.66875,0.11948532,-0.11443577,-0.5649291,1002.11206, , , , 
2025-11-24 19:56:07.827,-0.040677983,3.4043884,9.664909,-0.2873273,0.44790375,-0.070781924,8.306251,15.8625,-55.725002,0.11961752,-0.11000155,-0.5655382,1002.11206, , , , 
2025-11-24 19:56:07.847,-0.10767702,3.4666018,9.77498,-0.09429955,0.37399122,-0.03413109,8.45625,15.7875,-55.575,0.12038382,-0.10511528,-0.56577134,1002.115, , , , 
2025-11-24 19:56:07.867,-0.083748795,3.4953158,9.267701,0.18554485,0.16569231,-0.017638214,8.6625,15.95625,-55.55625,0.12223263,-0.10254012,-0.56561744,1002.115, , , , 
2025-11-24 19:56:07.888,0.124426775,3.6149569,8.724232,0.381016,-0.16057648,-0.02741177,9.337501,16.1625,-55.575,0.12528923,-0.10404527,-0.56524396,1002.11523, , , , 
2025-11-24 19:56:07.907,0.47886363,3.6559339,8.319545,0.4237753,-0.34993914,-0.05428905,9.58125,16.10625,-55.987503,0.12733932,-0.10824529,-0.56524885,1002.11523, , , , 
2025-11-24 19:56:07.927,0.6559325,3.5551362,8.132606,0.32481802,-0.45011806,-0.12026055,9.39375,16.087502,-56.193752,0.12838174,-0.113506556,-0.5657499,1002.1177,37.88739581,127.74012553,143.906005859375,0.22
2025-11-24 19:56:07.947,0.7923234,3.4067812,8.384151,0.21914145,-0.44950724,-0.18134528,9.4125,15.937501,-56.79375,0.12823077,-0.11854591,-0.56700045,1002.1177, , , , 
2025-11-24 19:56:07.967,0.78753775,3.3661032,8.489435,0.13423368,-0.36887538,-0.20089239,8.962501,15.656251,-56.831253,0.12762748,-0.12269118,-0.56876564,1002.1211, , , , 
2025-11-24 19:56:07.987,0.7899306,3.234498,8.551649,-0.03077143,-0.28641102,-0.21433103,8.775001,15.4875,-56.98125,0.12661438,-0.12553005,-0.5706725,1002.1211, , , , 
2025-11-24 19:56:08.007,0.6966105,3.0212376,9.020942,-0.1584385,-0.25586864,-0.21494187,8.7375,15.4125,-57.412502,0.124754965,-0.1269766,-0.5727485,1002.1157, , , , 
2025-11-24 19:56:08.027,0.59611195,2.8633113,9.897313,-0.11506835,-0.26869643,-0.18378867,8.38125,15.375001,-57.24375,0.12227474,-0.12778081,-0.5748979,1002.1157, , , , 
2025-11-24 19:56:08.047,0.40468612,2.8130622,10.368699,0.09208523,-0.18745375,-0.02741177,8.08125,15.39375,-57.375004,0.12015287,-0.12963006,-0.5769392,1002.1145, , , , 
2025-11-24 19:56:08.067,0.4956134,3.1555347,10.045668,0.19837265,0.05932854,0.13324106,7.70625,15.356251,-57.131252,0.120602086,-0.13108355,-0.57698274,1002.1145, , , , 
2025-11-24 19:56:08.087,0.63200426,3.6511483,9.597911,0.10246963,0.30191126,0.21020782,7.4437504,15.543751,-57.3375,0.12255535,-0.13089383,-0.57553685,1002.10767, , , , 
2025-11-24 19:56:08.107,0.6056832,4.0794635,9.676874,-8.39915E-4,0.42224815,0.18882816,7.4812503,15.20625,-57.525,0.1247122,-0.12865081,-0.5735101,1002.10767, , , , 
2025-11-24 19:56:08.127,0.6678966,4.3812585,9.571589,0.020539738,0.39414918,0.13873868,7.8187504,15.281251,-57.581253,0.12696272,-0.12567261,-0.5715673,1002.1052, , , , 
2025-11-24 19:56:08.148,0.7181459,4.546363,9.219545,0.030313294,0.31596074,0.031229567,8.19375,15.31875,-57.787502,0.12982804,-0.12265214,-0.5697286,1002.1052, , , , 
2025-11-24 19:56:08.167,0.5721837,4.610969,9.042477,0.02481567,0.2481567,-0.06772769,8.25,14.962501,-57.54375,0.13182731,-0.12080024,-0.5692046,1002.0991, , , , 
2025-11-24 19:56:08.187,0.5243273,4.3908296,9.040084,0.021761434,0.21150586,-0.12697987,8.3625,15.150001,-57.581253,0.13360882,-0.11915421,-0.5694575,1002.0991, , , , 
2025-11-24 19:56:08.207,0.43818563,4.1464624,8.963513,0.06940752,0.19195876,-0.16363071,8.6625,14.887501,-57.61875,0.13535991,-0.11780365,-0.5701634,1002.10767, , , , 
2025-11-24 19:56:08.227,0.35443684,3.8952162,8.88455,0.09086353,0.14125843,-0.22532628,8.85,14.887501,-57.35625,0.13729532,-0.11681194,-0.57116646,1002.10767, , , , 
2025-11-24 19:56:08.247,0.20578274,3.6918263,8.745767,0.0290916,0.14431266,-0.23571068,9.3,14.981251,-57.393753,0.13900727,-0.11589373,-0.5726091,1002.10596, , , , 
2025-11-24 19:56:08.267,0.08853444,3.5886357,9.037691,-0.05276193,0.1473669,-0.21188764,9.88125,15.1125,-56.943752,0.14001212,-0.11445636,-0.57420224,1002.10596, , , , 
2025-11-24 19:56:08.287,0.050249275,3.5336008,9.226724,-0.011224318,0.17057909,-0.1752368,10.06875,15.4125,-56.775,0.14077142,-0.1126736,-0.5756709,1002.1072, , , , 
2025-11-24 19:56:08.307,-0.05503492,3.626921,9.289237,0.08842014,0.11682454,-0.1300341,10.425,15.4125,-56.568752,0.14228189,-0.11106795,-0.5770153,1002.1072, , , , 
2025-11-24 19:56:08.327,-0.27996024,3.897609,9.12144,0.13423368,0.10827268,-0.040850412,10.275001,15.450001,-56.5125,0.1443162,-0.11060604,-0.57763064,1002.1018, , , , 
2025-11-24 19:56:08.347,-0.22971097,4.1847477,9.085547,0.08536591,0.107050985,0.033062108,10.293751,15.431251,-56.362503,0.14676003,-0.11048114,-0.5775462,1002.1018, , , , 
2025-11-24 19:56:08.367,-0.076570325,4.2975097,9.413663,0.043751936,0.11071607,0.07276718,10.387501,15.4875,-56.1375,0.14862613,-0.11022545,-0.5769872,1002.1035, , , , 
2025-11-24 19:56:08.387,0.033499517,4.520042,9.559626,0.07681404,0.042835664,0.07765396,10.35,15.356251,-56.193752,0.14954351,-0.11007565,-0.5761912,1002.1035, , , , 
2025-11-24 19:56:08.407,0.07178468,4.534399,9.794122,0.11835165,-0.033520244,0.047111593,10.9125,15.375001,-55.706253,0.15039495,-0.11058277,-0.5754531,1002.1028, , , , 
2025-11-24 19:56:08.427,0.1794617,4.3932223,9.847063,0.21853061,-0.03657448,0.091703445,11.1,15.337501,-55.7625,0.15164861,-0.11230906,-0.57477504,1002.1028, , , , 
2025-11-24 19:56:08.447,0.38554356,4.4482574,9.602696,0.25945738,0.047722444,0.15278818,11.34375,15.281251,-55.781254,0.15363686,-0.114463426,-0.5736767,1002.1018, , , , 
2025-11-24 19:56:08.467,0.6798607,4.5487556,9.205189,0.21242213,0.20173231,0.18760647,11.71875,15.356251,-55.66875,0.15627365,-0.11636625,-0.57190746,1002.1018, , , , 
2025-11-24 19:56:08.487,0.81625164,4.5391846,9.037691,0.19837265,0.2622062,0.19371493,12.0375,15.58125,-55.518753,0.15916283,-0.117493756,-0.5696559,1002.1001, , , , 
2025-11-24 19:56:08.507,0.86201435,4.479364,8.685647,0.28022617,0.22922044,0.15339902,12.4875,15.806251,-55.2,0.16223678,-0.11881143,-0.5672686,1002.1001, , , , 
2025-11-24 19:56:08.527,0.9098708,4.3070807,8.022536,0.3126011,0.16141638,0.091703445,12.937501,15.525001,-55.0875,0.16563056,-0.12084005,-0.5651688,1002.105, , , , 
2025-11-24 19:56:08.547,0.9385847,4.220939,7.278069,0.25945738,0.091168955,0.03978143,13.312501,15.562501,-54.9,0.168848,-0.12335651,-0.5635214,1002.105, , , , 
2025-11-24 19:56:08.567,1.0486546,4.031607,6.928418,0.07124006,0.01901262,-0.042682953,13.687501,15.150001,-54.881252,0.17115717,-0.1259876,-0.56245697,1002.1028, , , , 
2025-11-24 19:56:08.587,1.1587243,3.7396827,7.105786,-0.11690089,-0.024968382,-0.10682192,13.5375,14.493751,-54.7125,0.17122334,-0.12649333,-0.56280285,1002.1028, , , , 
2025-11-24 19:56:08.607,1.0486546,3.696612,7.8717885,-0.15171918,-0.10682192,-0.12881242,13.856251,14.400001,-54.375004,0.16968812,-0.12625651,-0.5638945,1002.10645, , , , 
2025-11-24 19:56:08.627,1.0079765,3.708576,7.764111,-0.12911785,-0.13247749,-0.09582666,13.931251,14.1,-54.281254,0.16806754,-0.1263849,-0.5651163,1002.10645, , , , 
2025-11-24 19:56:08.647,1.0223335,3.9000018,7.5676007,-0.13461547,-0.31206658,-0.059786674,13.856251,14.025001,-53.86875,0.16603099,-0.12717406,-0.5661246,1002.1033, , , , 
2025-11-24 19:56:08.667,1.1778669,4.124927,7.443174,-0.118122585,-0.63703734,-0.07017108,13.743751,13.743751,-53.850002,0.1628807,-0.12976252,-0.56714106,1002.1033, , , , 
2025-11-24 19:56:08.687,1.6447664,4.240082,6.99781,-0.11690089,-1.114109,-0.09582666,13.181251,13.856251,-53.756252,0.1578824,-0.13520154,-0.56865084,1002.1084, , , , 
2025-11-24 19:56:08.707,1.7117655,4.625326,6.9092755,-0.1040731,-1.5917916,-0.13064496,12.656251,13.968751,-53.60625,0.14810908,-0.14731246,-0.5717036,1002.1084, , , , 
2025-11-24 19:56:08.727,1.8888344,4.793123,6.629315,-0.09307785,-1.9302009,-0.14530529,11.56875,14.062501,-53.775,0.13808222,-0.16027172,-0.5749695,1002.1094, , , , 
2025-11-24 19:56:08.747,1.8601205,4.7162533,6.478567,-0.024052111,-2.142165,-0.12514733,10.425,14.718751,-53.9625,0.12663116,-0.17563461,-0.5785005,1002.1094, , , , 
2025-11-24 19:56:08.767,2.3389843,4.9606204,6.0020967,0.001603474,-2.2435656,-0.110487,8.4375,14.75625,-54.318752,0.114807814,-0.19247454,-0.5818214,1002.1096, , , , 
2025-11-24 19:56:08.787,3.1076784,5.183153,6.059524,-0.059481252,-2.4127703,-0.2851893,5.9812503,14.531251,-54.412502,0.10240861,-0.20992918,-0.5851257,1002.1096, , , , 
2025-11-24 19:56:08.807,3.141178,5.1065826,6.937989,-0.12667444,-2.7622514,-0.34688488,3.5062501,14.3625,-54.487503,0.0884441,-0.22857611,-0.5894236,1002.10913, , , , 
2025-11-24 19:56:08.827,3.950251,4.5487556,6.552745,-0.41010758,-2.9332886,-0.29740626,0.4875,14.118751,-54.412502,0.07219799,-0.24831875,-0.59427917,1002.10913, , , , 
2025-11-24 19:56:08.848,5.1879387,5.8968124,11.412567,-0.5377747,-2.7854636,-0.33588964,-2.4375,13.593751,-53.943752,0.04680287,-0.27167773,-0.6004034,1002.1084, , , , 
2025-11-24 19:56:08.867,4.5272202,5.0970116,11.379068,-0.1504975,-2.9815454,-0.40186113,-5.5687504,13.9125,-53.756252,0.03327703,-0.28460616,-0.6042282,1002.1084, , , , 
2025-11-24 19:56:08.887,4.575077,5.286044,12.3607235,0.21303298,-3.1861794,-0.35421506,-7.2375,14.08125,-53.531254,0.020426493,-0.30002993,-0.6072991,1002.1094, , , , 
2025-11-24 19:56:08.907,5.456234,5.786443,10.936097,1.0199622,-3.2081697,-0.20700087,-12.356251,14.062501,-52.593754,-7.2796625E-5,-0.3394393,-0.6086662,1002.1094, , , , 
2025-11-24 19:56:08.927,6.3849483,6.282057,10.167702,1.1231954,-2.8948052,-0.19600561,-15.637501,14.00625,-51.600002,-0.0100296475,-0.36671564,-0.60666156,1002.10986,37.88739581,127.74012553,143.906005859375,0.22
2025-11-24 19:56:08.947,6.914061,6.7034926,9.631411,1.1421317,-2.2789948,-0.21249849,-18.6,13.44375,-50.550003,-0.017324546,-0.39143366,-0.60396177,1002.10986, , , , 
2025-11-24 19:56:08.967,7.4527454,7.069894,8.487042,0.900847,-1.5471997,-0.27113983,-21.28125,12.675,-49.537502,-0.021152759,-0.411327,-0.60133195,1002.114, , , , 
2025-11-24 19:56:08.987,6.4618177,6.4328046,7.8287177,0.7469135,-0.92413557,-0.250371,-23.362501,11.3625,-48.581253,-0.022091284,-0.42767268,-0.59960634,1002.114, , , , 
2025-11-24 19:56:09.007,4.881657,5.738587,6.0427747,0.8532009,-1.0786799,-0.07383616,-25.2,10.5375,-48.018753,-0.021495242,-0.4381729,-0.5976546,1002.12036, , , , 
2025-11-24 19:56:09.027,3.545565,5.1257253,3.9885364,0.9185616,-1.8996586,0.12896512,-26.643751,9.46875,-47.081253,-0.02341648,-0.4523485,-0.59329236,1002.12036, , , , 
2025-11-24 19:56:09.047,2.7532415,4.76411,2.3030918,0.9784246,-2.8532674,0.42766944,-27.712502,8.681251,-46.425003,-0.030862914,-0.47266757,-0.58653605,1002.1218, , , , 
2025-11-24 19:56:09.067,3.6173496,3.9215372,1.6184454,0.60458606,-3.4280748,0.8021952,-28.9125,8.08125,-45.506252,-0.045202065,-0.49743488,-0.5772155,1002.1218, , , , 
2025-11-24 19:56:09.087,6.133702,4.45065,3.6870406,-0.11629005,-2.8862534,0.910926,-30.393751,7.3500004,-44.100002,-0.0653615,-0.5194408,-0.5681135,1002.12036, , , , 
2025-11-24 19:56:09.107,6.329913,4.199105,4.9175496,-0.45347774,-1.8947718,0.954907,-32.4375,7.4062505,-42.225002,-0.085618004,-0.5330789,-0.5621491,1002.12036, , , , 
2025-11-24 19:56:09.127,5.712266,3.775575,4.8768716,-0.45469943,-1.2912548,1.2010784,-34.631252,7.5375004,-39.9,-0.10715039,-0.5403013,-0.55637646,1002.1179, , , , 
2025-11-24 19:56:09.147,6.033203,3.7564325,4.4458647,-0.4504235,-1.12205,1.5480397,-36.506252,8.26875,-37.85625,-0.12346082,-0.5432652,-0.5497819,1002.1179, , , , 
2025-11-24 19:56:09.167,7.053144,3.6197424,4.398008,-0.4504235,-1.018206,1.8198667,-37.875,9.525001,-36.1875,-0.14065568,-0.54495895,-0.5410868,1002.11914, , , , 
2025-11-24 19:56:09.187,7.426424,3.5886357,4.0268216,-0.5261686,-1.0383639,2.003121,-38.456253,10.725,-34.987503,-0.15881313,-0.5456869,-0.5306987,1002.11914, , , , 
2025-11-24 19:56:09.207,7.893324,3.5168512,3.6774693,-0.7448519,-0.82945424,2.0330524,-39.037502,12.337501,-34.143753,-0.177862,-0.5452215,-0.5199159,1002.12085, , , , 
2025-11-24 19:56:09.227,8.027322,3.1459637,3.5551362,-0.98186064,-0.6199336,1.9237107,-39.018753,14.306251,-33.037502,-0.19687977,-0.5421947,-0.5103892,1002.12085, , , , 
2025-11-24 19:56:09.247,8.659326,3.4594233,5.10419,-0.764399,-0.7347729,1.4845115,-39.075,16.237501,-31.931252,-0.21509847,-0.53775215,-0.5029665,1002.1199, , , , 
2025-11-24 19:56:09.267,9.013762,3.6149569,4.9031925,-0.112014115,-0.842282,0.58595526,-39.24375,18.16875,-30.91875,-0.23132429,-0.5370016,-0.49603623,1002.1199, , , , 
2025-11-24 19:56:09.287,7.390532,3.4977086,3.4546378,0.48486,-0.902145,-0.24181916,-39.1875,19.800001,-30.0375,-0.23546752,-0.54246116,-0.49283084,1002.12085, , , , 
2025-11-24 19:56:09.307,6.305985,2.2624137,2.32702,0.73713994,-0.8581641,-0.71950173,-39.393753,20.962502,-29.175001,-0.23334433,-0.5519619,-0.49086568,1002.12085, , , , 
2025-11-24 19:56:09.327,5.0491548,0.8787641,1.9920249,0.41705596,-0.38292488,-0.58022857,-39.46875,21.4125,-28.462502,-0.22888091,-0.5611792,-0.4898468,1002.1245, , , , 
2025-11-24 19:56:09.347,4.191926,0.009571291,2.0757737,-0.061313793,0.40514445,-0.070781924,-39.975002,21.056252,-27.900002,-0.22541405,-0.5642078,-0.49047837,1002.1245, , , , 
2025-11-24 19:56:09.367,3.8401814,-0.26081768,2.4921248,-0.3728459,1.1216683,0.618941,-40.143753,20.41875,-27.468752,-0.22435354,-0.55886394,-0.49186167,1002.1304, , , , 
2025-11-24 19:56:09.387,4.23051,0.03589234,2.6455646,-0.3612398,1.5126106,1.0856283,-40.3125,19.725,-27.375002,-0.22528043,-0.5470957,-0.49210232,1002.1304, , , , 
2025-11-24 19:56:09.407,5.152046,0.53389853,2.4993033,0.046195325,1.4936743,1.1118947,-40.275,19.7625,-27.54375,-0.22589749,-0.530095,-0.48954552,1002.1272, , , , 
2025-11-24 19:56:09.427,6.322735,0.622433,1.7356937,0.5349495,1.1235008,0.73744535,-39.393753,20.5125,-28.06875,-0.22326891,-0.52031565,-0.48535034,1002.1272, , , , 
2025-11-24 19:56:09.447,6.471389,0.0023928226,0.51475596,0.840984,0.3581092,0.22731154,-38.15625,21.09375,-29.250002,-0.2177314,-0.51711875,-0.48022446,1002.13525, , , , 
2025-11-24 19:56:09.467,6.2988067,-1.0223335,-0.45014977,0.64673454,-0.20700087,0.09659022,-37.40625,21.69375,-30.281252,-0.21270335,-0.5198205,-0.4746822,1002.13525, , , , 
2025-11-24 19:56:09.487,6.1121664,-2.2241287,-0.43579283,0.109799795,-0.57473093,0.29572642,-36.525,21.69375,-31.29375,-0.21181946,-0.52448523,-0.46930888,1002.13745, , , , 
2025-11-24 19:56:09.507,6.526424,-3.4522448,-0.41665024,-0.5487699,-0.69690037,0.6342122,-35.850002,21.69375,-31.968752,-0.21752542,-0.52785426,-0.46434247,1002.13745, , , , 
2025-11-24 19:56:09.527,6.875776,-4.7688956,-0.36400816,-1.3141615,-0.7402705,1.1406045,-35.8125,22.0125,-32.006252,-0.23016931,-0.5276299,-0.4600183,1002.12866, , , , 
2025-11-24 19:56:09.547,8.879765,-5.616553,0.8452646,-2.0135815,-1.0450833,1.7331264,-35.53125,22.650002,-31.85625,-0.25769785,-0.52160835,-0.4542331,1002.12866, , , , 
2025-11-24 19:56:09.567,10.950753,-6.2581286,2.0638096,-2.1815646,-1.605841,1.9499772,-35.5125,23.90625,-31.087502,-0.28745487,-0.51559734,-0.44811383,1002.13403, , , , 
2025-11-24 19:56:09.587,12.461222,-7.282855,2.9662027,-1.9744874,-2.1140661,2.003121,-35.53125,25.312502,-30.0375,-0.32039672,-0.51185596,-0.43962908,1002.13403, , , , 
2025-11-24 19:56:09.607,13.332808,-7.893324,2.8896325,-1.3581425,-2.4909587,2.018392,-35.53125,27.431252,-28.031252,-0.3528788,-0.51126504,-0.4278694,1002.1406, , , , 
2025-11-24 19:56:09.627,13.857135,-8.295617,1.9510478,-0.85175014,-2.787907,2.1087976,-35.30625,29.7,-25.593752,-0.38285303,-0.514137,-0.4115521,1002.1406, , , , 
2025-11-24 19:56:09.647,14.251951,-8.398508,0.622433,-0.648338,-2.8581543,2.2401297,-35.23125,31.893751,-22.893751,-0.41079378,-0.5194141,-0.39070222,1002.1472, , , , 
2025-11-24 19:56:09.667,14.244772,-8.429615,-0.45014977,-0.756458,-2.7384284,2.4282706,-34.706253,33.975002,-19.875,-0.43780395,-0.5243667,-0.3673356,1002.1472, , , , 
2025-11-24 19:56:09.687,14.077274,-8.616255,-1.0127622,-1.2298646,-2.349853,2.6707768,-33.9,35.79375,-17.681252,-0.4723652,-0.5261899,-0.33793318,1002.1553, , , , 
2025-11-24 19:56:09.707,13.550554,-8.458329,-0.8282157,-1.6568469,-1.8923285,2.8515878,-33.24375,37.725002,-15.375001,-0.5015747,-0.5217018,-0.31703678,1002.1553, , , , 
2025-11-24 19:56:09.727,13.057334,-8.276474,-0.47886363,-1.9555511,-1.5288743,2.942604,-31.968752,39.375,-13.2375,-0.5315938,-0.51203555,-0.29919514,1002.1655, , , , 
2025-11-24 19:56:09.747,12.477972,-8.271688,0.04546363,-2.0667253,-1.3028609,2.9578753,-30.6375,41.381252,-10.96875,-0.56164014,-0.49881923,-0.28370425,1002.1655, , , , 
2025-11-24 19:56:09.767,12.28176,-8.137691,0.95772725,-1.824219,-1.2900331,2.9560425,-28.9125,43.256252,-8.15625,-0.59065723,-0.48365283,-0.2691406,1002.17334, , , , 
2025-11-24 19:56:09.788,12.131013,-8.087142,1.3214363,-1.1754992,-1.2735401,2.9572642,-26.493752,45.018753,-5.71875,-0.6229142,-0.46458384,-0.24892123,1002.17334, , , , 
2025-11-24 19:56:09.807,12.126227,-7.8239317,0.9840483,-0.5426614,-1.2014602,3.0012453,-23.831251,46.875,-3.2250001,-0.64387256,-0.4500487,-0.22967921,1002.16797, , , , 
2025-11-24 19:56:09.827,12.147762,-7.50778,0.28265217,-0.028328042,-1.0566894,3.0580542,-20.98125,48.206253,-1.3312501,-0.66064984,-0.43585134,-0.20790137,1002.16797, , , , 
2025-11-24 19:56:09.847,12.336796,-6.4618177,-0.74207413,0.25029466,-0.8044095,3.0537782,-18.300001,49.575,0.056250002,-0.6739698,-0.4214208,-0.18498614,1002.1648, , , , 
2025-11-24 19:56:09.867,12.178869,-5.372485,-1.4003994,0.25762483,-0.5600706,2.8967905,-15.50625,50.643753,0.95625,-0.68485093,-0.40647578,-0.16335708,1002.1648, , , , 
2025-11-24 19:56:09.887,11.379068,-4.503292,-1.5586249,0.044362783,-0.34932828,2.5760956,-12.562501,51.6375,1.40625,-0.69446,-0.39173454,-0.14466542,1002.167, , , , 
2025-11-24 19:56:09.907,10.591531,-3.9478583,-1.4557334,-0.1828724,-0.13186665,2.2975492,-9.806251,52.350002,1.3687501,-0.70343655,-0.377441,-0.12962812,1002.167, , , , 
2025-11-24 19:56:09.927,10.569995,-3.5886357,-1.4413766,-0.43454146,0.097277425,1.9230999,-6.80625,52.612503,1.21875,-0.7120917,-0.36347517,-0.118553884,1002.1704,37.88739581,127.74012553,143.906005859375,0.22
2025-11-24 19:56:09.947,10.529317,-3.6870406,-1.3501502,-0.54815906,0.20173231,1.5938532,-4.2375,52.95,1.125,-0.7222779,-0.34728155,-0.110360555,1002.1704, , , , 
2025-11-24 19:56:09.969,10.500603,-3.696612,-1.2807583,-0.52067095,0.24326992,1.3873868,-2.0062501,52.987503,0.99375004,-0.7295425,-0.3356439,-0.10667142,1002.17334, , , , 
2025-11-24 19:56:09.987,10.443175,-3.5072799,-1.2855439,-0.42354622,0.21517095,1.3018682,-0.16875,53.343754,1.5562501,-0.73586375,-0.32485107,-0.10378701,1002.17334, , , , 
2025-11-24 19:56:10.007,10.491032,-3.1244283,-1.3597214,-0.31909135,0.12476555,1.1674818,1.21875,53.68125,2.23125,-0.74123293,-0.3150598,-0.10084766,1002.16626, , , , 
2025-11-24 19:56:10.027,10.7279215,-2.559423,-1.4676976,-0.30931777,0.05505261,0.970789,2.7,53.850002,2.9437501,-0.74576825,-0.30688092,-0.097997,1002.16626, , , , 
2025-11-24 19:56:10.047,10.723136,-2.3605196,-1.3621143,-0.35818556,0.03489465,0.7404996,3.9,53.775,3.4687502,-0.7496847,-0.30067116,-0.095991224,1002.1655, , , , 
2025-11-24 19:56:10.067,11.068001,-2.7795627,-1.2544373,-0.4131618,0.072232686,0.5076904,5.0625,53.568752,3.6937501,-0.7531413,-0.29619104,-0.09539127,1002.1655, , , , 
2025-11-24 19:56:10.087,11.422139,-3.2919257,-1.1802598,-0.39666894,0.1601947,0.3067217,6.01875,53.30625,3.7687502,-0.75599724,-0.29301473,-0.09658032,1002.1621, , , , 
2025-11-24 19:56:10.107,11.683255,-3.6197424,-1.1706885,-0.34474692,0.18768282,0.11613733,6.61875,52.912502,4.33125,-0.7584414,-0.29034242,-0.100173414,1002.1621, , , , 
2025-11-24 19:56:10.127,11.941681,-4.019643,-1.0869397,-0.33741677,0.20967332,-0.07322531,7.1250005,53.193752,4.6875,-0.759606,-0.28953788,-0.104209214,1002.1719, , , , 
2025-11-24 19:56:10.147,12.3607235,-4.6205406,-0.78753775,-0.31298286,0.23044212,-0.31939676,7.1625004,53.156254,5.3250003,-0.76009387,-0.2900041,-0.10955321,1002.1719, , , , 
2025-11-24 19:56:10.168,13.13869,-5.602196,-0.53629136,-0.22196662,0.20173231,-0.60649496,7.36875,53.250004,6.05625,-0.759632,-0.29203537,-0.11620892,1002.1741, , , , 
2025-11-24 19:56:10.187,13.792529,-6.4570317,-0.48364928,-0.02893889,0.21944688,-0.9717816,7.0687504,53.325,6.2250004,-0.75757444,-0.29644537,-0.12420241,1002.1741, , , , 
2025-11-24 19:56:10.207,13.907384,-7.0097737,-0.5027919,0.2893889,0.2701472,-1.3816601,6.61875,53.287502,6.4687505,-0.7515195,-0.30558196,-0.13648611,1002.1665, , , , 
2025-11-24 19:56:10.227,14.072489,-7.603792,-0.61764735,0.5557183,0.17546588,-1.7090743,5.9812503,53.343754,6.5062504,-0.7458612,-0.3131123,-0.14473729,1002.1665, , , , 
2025-11-24 19:56:10.247,14.02224,-8.039286,-0.72053874,0.95582324,0.012904149,-2.0425968,4.8187504,53.193752,6.0937505,-0.73293114,-0.32991707,-0.15826279,1002.17065, , , , 
2025-11-24 19:56:10.267,13.734802,-8.008179,-0.92662054,1.2746855,-0.032909397,-2.2705193,3.3187501,53.250004,5.6062503,-0.719305,-0.346599,-0.16815771,1002.17065, , , , 
2025-11-24 19:56:10.287,13.196417,-7.6683984,-1.2017952,1.4774868,0.041003123,-2.6095395,1.40625,52.95,5.025,-0.7029267,-0.3654091,-0.17811432,1002.16943, , , , 
2025-11-24 19:56:10.307,12.609577,-7.7880397,-1.2735798,1.6210359,0.19928892,-3.0065901,-0.675,52.912502,4.0125003,-0.6838109,-0.38593823,-0.1896271,1002.16943, , , , 
2025-11-24 19:56:10.327,11.836396,-8.3123665,-1.4027922,1.8012359,0.27197975,-3.4525087,-3.3187501,52.912502,2.8875,-0.6614626,-0.40802994,-0.2035526,1002.16846, , , , 
2025-11-24 19:56:10.347,10.907383,-8.793623,-1.6184454,1.996707,0.17668757,-3.8159628,-6.0,52.875004,1.10625,-0.6358073,-0.4322809,-0.21875753,1002.16846, , , , 
2025-11-24 19:56:10.367,9.746265,-9.178867,-1.8864416,2.1756852,0.0104607595,-3.9821134,-9.056251,52.800003,-0.58125,-0.59971154,-0.46535543,-0.23695818,1002.1648, , , , 
2025-11-24 19:56:10.387,8.760123,-9.253045,-2.2121646,2.216001,-0.22593713,-3.8843777,-12.50625,51.975002,-2.60625,-0.56924117,-0.49274638,-0.24902688,1002.1648, , , , 
2025-11-24 19:56:10.407,8.18794,-8.953942,-2.7029922,2.032747,-0.5252523,-3.6174374,-15.900001,50.906254,-4.70625,-0.5395067,-0.51993895,-0.25782165,1002.1714, , , , 
2025-11-24 19:56:10.427,7.7904325,-8.039286,-2.9183464,1.5422366,-0.834341,-3.214889,-19.5375,49.518753,-6.39375,-0.5127323,-0.5460552,-0.2637904,1002.1714, , , , 
2025-11-24 19:56:10.447,7.785647,-7.2589264,-2.693421,0.980868,-1.0365314,-2.8850317,-22.837502,47.53125,-8.493751,-0.49040934,-0.5701359,-0.26845863,1002.1721, , , , 
2025-11-24 19:56:10.467,8.091928,-6.77767,-2.2217357,0.4616478,-1.1544249,-2.666959,-25.875002,45.487503,-9.712501,-0.47278884,-0.5918156,-0.27336788,1002.1721, , , , 
2025-11-24 19:56:10.487,8.199904,-6.4881387,-1.7261224,-0.06986566,-1.1037246,-2.5056953,-28.575,43.59375,-10.481251,-0.45883507,-0.6111376,-0.28147042,1002.1721, , , , 
2025-11-24 19:56:10.507,8.4655075,-6.4471617,-1.3812568,-0.48707435,-0.7647044,-2.4623253,-30.750002,41.456253,-10.59375,-0.44488576,-0.6311334,-0.2908438,1002.1721, , , , 
2025-11-24 19:56:10.527,8.207083,-5.9709897,-1.0797613,-0.9195542,-0.10071344,-2.3975754,-32.86875,39.43125,-9.975,-0.43467003,-0.6421713,-0.30455178,1002.16626, , , , 
2025-11-24 19:56:10.547,7.8430743,-6.033203,-0.53389853,-1.2249779,0.3208475,-2.3859694,-34.66875,37.65,-9.618751,-0.42517188,-0.64812636,-0.3228663,1002.16626, , , , 
2025-11-24 19:56:10.567,7.673184,-6.3394847,-0.14356937,-1.2726239,0.706903,-2.363368,-36.393753,35.643753,-8.6625,-0.41571614,-0.650657,-0.34407097,1002.1575, , , , 
2025-11-24 19:56:10.587,6.741778,-6.586244,-0.019142581,-1.144346,1.1540432,-2.244253,-37.912502,33.9,-8.25,-0.40518624,-0.65038204,-0.36635405,1002.1575, , , , 
2025-11-24 19:56:10.607,5.8944197,-6.3131633,0.03589234,-0.9207759,1.4411414,-1.9839555,-39.35625,31.931252,-7.7250004,-0.39356315,-0.64762264,-0.38812783,1002.156, , , , 
2025-11-24 19:56:10.627,5.346164,-5.9063835,0.083748795,-0.5939726,1.506502,-1.662039,-40.537502,30.337502,-7.6687503,-0.3815166,-0.643174,-0.40762845,1002.156, , , , 
2025-11-24 19:56:10.647,5.602196,-6.090631,-0.21296121,-0.09429955,1.3122526,-1.3175212,-41.287502,28.800001,-8.0625,-0.36679927,-0.6377597,-0.4262779,1002.1633, , , , 
2025-11-24 19:56:10.667,5.7146587,-6.100202,-0.73489565,0.39201123,1.0892934,-1.0310339,-42.112503,27.225,-8.587501,-0.35545102,-0.63533807,-0.43530446,1002.1633, , , , 
2025-11-24 19:56:10.687,5.171189,-5.6261244,-1.2113664,0.79150534,0.8449545,-0.6987329,-42.693752,26.325,-9.39375,-0.34444326,-0.6350119,-0.4389921,1002.1653, , , , 
2025-11-24 19:56:10.707,4.970192,-5.2573304,-2.0374885,0.9381087,0.56152135,-0.31512082,-43.0125,25.031252,-10.5,-0.33465236,-0.63634443,-0.43787768,1002.1653, , , , 
2025-11-24 19:56:10.727,5.209474,-5.4466624,-2.597708,0.7670714,0.32145837,0.014125843,-43.3875,23.94375,-11.775001,-0.32743937,-0.63823426,-0.43366927,1002.1633, , , , 
2025-11-24 19:56:10.747,5.645267,-5.762515,-3.0116663,0.46348035,0.13637166,0.40751147,-43.631252,22.95,-12.562501,-0.32426172,-0.6394633,-0.4279336,1002.1633, , , , 
2025-11-24 19:56:10.767,6.2294145,-6.262914,-3.275176,0.11835165,0.013514996,0.90420663,-43.65,22.368752,-13.743751,-0.3260998,-0.63888246,-0.42119065,1002.1655, , , , 
2025-11-24 19:56:10.787,7.0818577,-6.849455,-3.4259238,-0.2952683,-0.21555273,1.4802356,-43.55625,22.462502,-14.1,-0.3362808,-0.6349227,-0.41113544,1002.1655, , , , 
2025-11-24 19:56:10.807,7.778468,-7.144071,-3.2201412,-0.5921401,-0.5136462,1.9579182,-43.36875,22.81875,-14.64375,-0.34704593,-0.6310696,-0.40389338,1002.1636, , , , 
2025-11-24 19:56:10.827,8.630612,-6.8398833,-2.4705894,-0.82120776,-0.9754467,2.4441526,-42.75,23.8875,-14.85,-0.37259233,-0.62308663,-0.38905856,1002.1636, , , , 
2025-11-24 19:56:10.847,9.341879,-6.282057,-1.730908,-0.8071583,-1.3663889,2.7843945,-42.075,25.425001,-14.38125,-0.3980047,-0.6163587,-0.3741242,1002.1648, , , , 
2025-11-24 19:56:10.867,10.043275,-5.752944,-1.2496517,-0.6709394,-1.6394377,3.0397286,-41.193752,27.13125,-13.35,-0.4256069,-0.6097661,-0.3558797,1002.1648, , , , 
2025-11-24 19:56:10.888,11.005788,-5.1161537,-0.9720842,-0.41560522,-1.7371732,3.173504,-40.237503,29.437502,-11.868751,-0.45354205,-0.603241,-0.3345902,1002.1621, , , , 
2025-11-24 19:56:10.907,11.7311125,-4.8194437,-1.0271192,-0.18959172,-1.5551407,3.1234148,-39.112503,31.743752,-10.387501,-0.47970888,-0.5964146,-0.31147283,1002.1621, , , , 
2025-11-24 19:56:10.927,11.824432,-4.536792,-1.189831,-0.03321482,-1.0872318,2.9236677,-37.59375,34.0875,-8.793751,-0.50242215,-0.588664,-0.28874618,1002.16016,37.88739581,127.74012553,143.906005859375,0.22
2025-11-24 19:56:10.947,11.340783,-4.6564326,-1.3836497,0.073072605,-0.52036554,2.6719987,-35.925003,36.43125,-7.5750003,-0.52507496,-0.5766838,-0.26402584,1002.16016, , , , 
2025-11-24 19:56:10.967,10.684851,-4.8194437,-1.7021942,0.16355436,-0.10376768,2.5718198,-33.825,38.737503,-6.3187504,-0.53962624,-0.56513083,-0.24719264,1002.16284, , , , 
2025-11-24 19:56:10.987,9.9140625,-4.7715874,-1.9151554,0.23502348,0.2701472,2.5235627,-31.931252,40.987503,-5.5875,-0.55202276,-0.5517428,-0.23217475,1002.16284, , , , 
2025-11-24 19:56:11.007,8.817552,-4.5942197,-2.1762722,0.33703497,0.5474719,2.5681546,-30.075,42.600002,-5.3625,-0.5628004,-0.5364819,-0.21852231,1002.1692, , , , 
2025-11-24 19:56:11.027,8.190332,-4.54397,-2.2384856,0.3309265,0.61161083,2.709871,-28.125002,44.30625,-5.4750004,-0.57292885,-0.5196632,-0.20486556,1002.1692, , , , 
2025-11-24 19:56:11.047,8.017751,-4.776373,-2.1140587,0.2637333,0.6604786,2.8888495,-26.025002,45.61875,-5.9437504,-0.5834557,-0.5014028,-0.19052704,1002.16675, , , , 
2025-11-24 19:56:11.067,8.633005,-4.857729,-2.4945176,0.051692948,0.8528955,3.025679,-23.6625,46.74375,-6.525,-0.5975,-0.47594002,-0.17226344,1002.16675, , , , 
2025-11-24 19:56:11.087,9.040084,-4.6205406,-2.6742785,-0.2500656,0.87855107,2.922446,-21.206251,48.131252,-6.8250003,-0.60969245,-0.4536651,-0.15950662,1002.16406, , , , 
2025-11-24 19:56:11.107,9.542876,-4.6636114,-2.719742,-0.5561001,0.70507044,2.6231308,-18.54375,49.256252,-7.05,-0.6226557,-0.4320574,-0.14916515,1002.16406, , , , 
2025-11-24 19:56:11.127,9.676874,-5.1664033,-2.6479573,-0.83708984,0.4613424,2.3103771,-15.88125,50.006252,-7.18125,-0.63598925,-0.4128611,-0.14094579,1002.1616, , , , 
2025-11-24 19:56:11.147,9.779765,-5.549554,-2.2671995,-1.040502,0.20967332,2.1478918,-13.387501,50.86875,-6.80625,-0.6498557,-0.39611247,-0.1337867,1002.1616, , , , 
2025-11-24 19:56:11.167,10.062417,-5.7074804,-1.6351951,-1.1131928,-0.017638214,2.1674387,-10.6125,51.6375,-6.525,-0.6641779,-0.38082218,-0.12631902,1002.1636, , , , 
2025-11-24 19:56:11.187,10.648958,-5.329115,-1.2711871,-1.1009759,-0.09704836,2.2535682,-8.043751,52.2,-5.7000003,-0.6821231,-0.36234713,-0.11533063,1002.1636, , , , 
2025-11-24 19:56:11.207,11.477174,-4.9199424,-1.1443675,-1.0912023,-0.0066429637,2.2602875,-5.4375,52.968754,-4.7250004,-0.69595146,-0.34727415,-0.10609864,1002.1665, , , , 
2025-11-24 19:56:11.227,12.300903,-4.6731825,-1.1706885,-1.0710443,0.14614521,2.155222,-2.60625,53.41875,-3.6937501,-0.70575225,-0.33571008,-0.09996584,1002.1665, , , , 
2025-11-24 19:56:11.247,13.145868,-4.627719,-1.2329018,-1.0447779,0.38681903,1.910883,-0.09375,53.49375,-2.5500002,-0.7204789,-0.3164891,-0.0928019,1002.1677, , , , 
2025-11-24 19:56:11.267,13.603197,-4.5391846,-1.448555,-1.0368369,0.6293254,1.6695982,2.11875,53.756252,-1.63125,-0.7307513,-0.30133894,-0.09033191,1002.1677, , , , 
2025-11-24 19:56:11.287,13.902598,-4.1727834,-1.5299109,-1.0447779,0.7288935,1.4209834,4.2375,53.49375,-0.4875,-0.7400032,-0.28654432,-0.09066279,1002.17163, , , , 
2025-11-24 19:56:11.307,14.338391,-4.100999,-1.4246268,-1.040502,0.71301144,1.0752438,5.9625,53.30625,0.5625,-0.7483103,-0.27310082,-0.093321875,1002.17163, , , , 
2025-11-24 19:56:11.327,14.78585,-4.6779685,-1.1922239,-0.9904125,0.7007945,0.5676298,7.1625004,52.95,1.81875,-0.7569147,-0.26023403,-0.0997866,1002.17334, , , , 
2025-11-24 19:56:11.347,15.147465,-5.130511,-0.90029955,-0.79738474,0.774707,0.09964446,8.231251,52.537502,2.9250002,-0.76161575,-0.25354162,-0.10792533,1002.17334, , , , 
2025-11-24 19:56:11.367,15.540187,-5.587839,-0.7899306,-0.4400391,0.7832589,-0.4360686,8.868751,52.4625,3.8625002,-0.76345664,-0.25009128,-0.11874657,1002.17285, , , , 
2025-11-24 19:56:11.387,15.611971,-5.9781685,-0.8500503,9.926268E-4,0.7368345,-1.0518026,9.1875,52.3875,4.8187504,-0.76160896,-0.25113997,-0.13187104,1002.17285, , , , 
2025-11-24 19:56:11.407,15.176179,-6.3251276,-0.99601245,0.4097258,0.6580352,-1.6705909,8.71875,52.3875,5.4187503,-0.7558023,-0.2574381,-0.14684817,1002.17285, , , , 
2025-11-24 19:56:11.427,14.34557,-6.725028,-1.0055838,0.8299887,0.4821112,-2.3248847,7.8562503,52.706253,5.8500004,-0.74626553,-0.26906392,-0.16326232,1002.17285, , , , 
2025-11-24 19:56:11.447,13.6199465,-7.2086773,-1.0677971,1.1195303,0.2713689,-2.8422723,6.2625003,52.818752,5.8500004,-0.7332519,-0.2859419,-0.18017921,1002.1638, , , , 
2025-11-24 19:56:11.467,12.719946,-7.579864,-0.79710907,1.3516523,-0.021303298,-3.3572166,3.9562502,52.893753,5.08125,-0.7172782,-0.30777135,-0.19707392,1002.1638, , , , 
2025-11-24 19:56:11.487,11.623435,-7.8693953,-0.3999005,1.6192033,-0.23387815,-3.7884748,1.7062501,53.1375,4.03125,-0.6932989,-0.34122083,-0.21764542,1002.16675, , , , 
2025-11-24 19:56:11.507,10.536495,-8.33151,-0.14117654,1.8977497,-0.52097636,-4.06641,-1.3875,53.081253,2.60625,-0.67049956,-0.3721454,-0.23303579,1002.16675, , , , 
2025-11-24 19:56:11.527,9.959526,-8.73141,-0.23928227,2.1866806,-0.8318976,-4.189801,-4.8375,52.893753,1.0875001,-0.6449753,-0.40591624,-0.24585874,1002.1577, , , , 
2025-11-24 19:56:11.547,9.454341,-8.877372,-0.53629136,2.3717673,-1.1147199,-4.1494856,-8.606251,52.612503,-0.31875002,-0.62437165,-0.43258274,-0.25308418,1002.1577, , , , 
2025-11-24 19:56:11.567,8.999406,-8.400901,-1.6734804,2.0956643,-1.2087904,-3.8611655,-12.656251,51.937504,-1.9875001,-0.5890554,-0.4775571,-0.2603176,1002.15576, , , , 
2025-11-24 19:56:11.587,8.980264,-7.7330046,-2.12363,1.4316733,-1.0456941,-3.5765107,-16.518751,50.568752,-3.9750001,-0.56267965,-0.51047045,-0.26489633,1002.15576, , , , 
2025-11-24 19:56:11.607,9.217153,-6.9906316,-1.9776679,0.48791423,-0.7219451,-3.315068,-20.0625,49.10625,-5.6625004,-0.535149,-0.5444662,-0.2741881,1002.1604, , , , 
2025-11-24 19:56:11.627,9.169296,-6.617351,-1.2017952,-0.1932568,-0.454394,-3.1886227,-23.41875,46.912502,-7.0312505,-0.52175134,-0.56062347,-0.28316143,1002.1604, , , , 
2025-11-24 19:56:11.647,9.174082,-6.5958157,-0.392722,-0.5383855,-0.20577917,-3.083557,-26.437502,45.16875,-7.7625003,-0.50307935,-0.58176696,-0.30296752,1002.1616, , , , 
2025-11-24 19:56:11.667,8.949157,-6.629315,0.17706887,-0.576258,0.03061872,-3.0322459,-28.987501,43.162502,-7.5937505,-0.48926398,-0.594683,-0.3213285,1002.1616, , , , 
2025-11-24 19:56:11.687,8.451151,-6.5814586,0.1052842,-0.47180316,0.26037365,-2.9424512,-31.593752,41.006252,-7.05,-0.4747784,-0.60564804,-0.34007284,1002.15894, , , , 
2025-11-24 19:56:11.707,8.12782,-6.2054863,-0.2440679,-0.47058147,0.64032066,-2.743315,-33.91875,39.24375,-6.3750005,-0.45942158,-0.6144626,-0.35849828,1002.15894, , , , 
2025-11-24 19:56:11.727,7.5990067,-5.8486567,-0.59611195,-0.588475,1.0728005,-2.551509,-35.850002,36.9375,-6.0375004,-0.44361496,-0.6198897,-0.37751716,1002.16675, , , , 
2025-11-24 19:56:11.748,6.7633133,-5.697909,-0.34965122,-0.7014817,1.3635638,-2.3609247,-37.85625,34.706253,-5.8875003,-0.4240363,-0.6216824,-0.40290338,1002.16675, , , , 
2025-11-24 19:56:11.767,5.915955,-5.4729834,-0.08135597,-0.60191363,1.4295353,-2.1195636,-39.46875,32.4,-6.2812505,-0.40902948,-0.62044525,-0.42305708,1002.1665, , , , 
2025-11-24 19:56:11.787,5.72423,-5.2884374,-0.021535404,-0.35268793,1.3715048,-1.7933712,-40.631252,30.2625,-6.9750004,-0.39485478,-0.61824554,-0.4407732,1002.1665, , , , 
2025-11-24 19:56:11.807,6.143273,-5.4610195,-0.47168517,-0.020997874,1.2829319,-1.510549,-41.756252,28.275002,-7.70625,-0.38144156,-0.61609703,-0.45480344,1002.1616, , , , 
2025-11-24 19:56:11.827,5.669195,-5.032405,-0.98883396,0.32603973,1.1161706,-1.1867999,-42.412502,26.475,-8.681251,-0.36848256,-0.61480784,-0.4648378,1002.1616, , , , 
2025-11-24 19:56:11.847,5.077869,-4.4243293,-1.2472588,0.4952444,0.8021952,-0.82884336,-43.18125,25.1625,-9.84375,-0.35661486,-0.61468536,-0.47079295,1002.16284, , , , 
2025-11-24 19:56:11.867,4.8266225,-3.9430726,-1.378864,0.57221115,0.4534014,-0.45989162,-43.612503,24.093752,-10.6125,-0.34751388,-0.61576414,-0.4727309,1002.16284, , , , 
2025-11-24 19:56:11.887,5.7194443,-4.338187,-1.7572291,0.58503896,0.11865708,-0.11415208,-43.725002,23.00625,-11.475,-0.3406329,-0.6182028,-0.47056425,1002.1616, , , , 
2025-11-24 19:56:11.907,6.3658056,-5.073083,-2.2624137,0.54899895,-0.010308048,0.19799086,-44.081253,22.3875,-12.168751,-0.33850533,-0.62037414,-0.4661053,1002.1616, , , , 
2025-11-24 19:56:11.927,7.129714,-5.195117,-2.7723842,0.4885251,-0.12270394,0.5932854,-43.800003,21.825,-12.4125,-0.33929947,-0.6217081,-0.4595742,1002.16455,37.88741268,127.74011734,144.18609619140625,1.43
2025-11-24 19:56:11.947,7.699505,-5.168796,-3.2488549,0.36513394,-0.3768164,0.9555178,-43.7625,21.54375,-12.8625,-0.34342527,-0.6223193,-0.450866,1002.16455, , , , 
2025-11-24 19:56:11.967,8.036893,-5.1209397,-3.4666018,0.110410646,-0.7555417,1.1968025,-43.65,22.03125,-13.06875,-0.35106307,-0.6228622,-0.44036594,1002.16406, , , , 
2025-11-24 19:56:11.987,8.286046,-5.168796,-3.2703903,-0.32458895,-1.0994487,1.3702831,-43.3875,22.6875,-12.900001,-0.36291677,-0.6233921,-0.42900556,1002.16406, , , , 
2025-11-24 19:56:12.007,8.558827,-5.346164,-2.5064816,-0.76623154,-1.2472738,1.5773604,-43.29375,23.831251,-12.637501,-0.3791461,-0.6227754,-0.41827035,1002.16455, , , , 
2025-11-24 19:56:12.027,8.700303,-5.3964133,-1.5777674,-1.1260206,-1.1031138,1.8870599,-42.825,25.06875,-11.962501,-0.40440616,-0.6180547,-0.40644723,1002.16455, , , , 
2025-11-24 19:56:12.047,9.138189,-5.3342,-0.85483587,-1.2714022,-0.9039776,2.1240687,-42.7125,26.343752,-10.762501,-0.4270174,-0.6103613,-0.39792794,1002.1658, , , , 
2025-11-24 19:56:12.067,9.475877,-5.2429733,-0.35682967,-1.2249779,-0.6559736,2.2657852,-41.8125,28.06875,-9.50625,-0.45006034,-0.5998054,-0.38980812,1002.1658, , , , 
2025-11-24 19:56:12.087,9.789336,-5.1664033,-0.15314065,-1.048443,-0.41102386,2.3183181,-40.818752,29.94375,-8.0625,-0.47192997,-0.58733416,-0.38167962,1002.1665, , , , 
2025-11-24 19:56:12.107,9.868599,-5.2310095,-0.24885355,-0.7876112,-0.14774868,2.3519146,-39.768753,31.687502,-6.6937504,-0.49172685,-0.57378733,-0.37318304,1002.1665, , , , 
2025-11-24 19:56:12.127,9.55484,-5.073083,-0.49322057,-0.5371638,0.044057358,2.386733,-37.912502,33.45,-5.7937503,-0.50926316,-0.55943924,-0.36411205,1002.1692, , , , 
2025-11-24 19:56:12.147,9.209974,-4.9677987,-0.8042875,-0.3288649,0.081395395,2.427049,-36.75,35.4,-4.89375,-0.5248259,-0.5447575,-0.35411558,1002.1692, , , , 
2025-11-24 19:56:12.167,9.090333,-4.8649077,-1.1276177,-0.16393614,0.002519745,2.5052373,-35.30625,36.9375,-4.55625,-0.5392439,-0.5303111,-0.34263828,1002.1677, , , , 
2025-11-24 19:56:12.187,9.257831,-4.7377887,-1.4126626,-0.10224056,-0.043904647,2.594421,-33.80625,38.9625,-4.05,-0.5531529,-0.51614976,-0.32947016,1002.1677, , , , 
2025-11-24 19:56:12.207,9.526126,-4.5487556,-1.7763717,-0.15477343,-0.010308048,2.6689444,-32.475002,40.78125,-3.7875001,-0.5702424,-0.49804652,-0.31154367,1002.16626, , , , 
2025-11-24 19:56:12.227,9.803694,-4.5822554,-2.0111675,-0.348412,0.05505261,2.7025409,-30.712502,42.131252,-3.5812502,-0.58403575,-0.48255908,-0.2973544,1002.16626, , , , 
2025-11-24 19:56:12.247,10.294521,-4.7835517,-2.2145574,-0.5640411,0.119267926,2.698876,-28.406252,44.006252,-3.2062502,-0.5983343,-0.46590143,-0.28411335,1002.1658, , , , 
2025-11-24 19:56:12.267,10.569995,-5.1089754,-2.0901306,-0.80227154,0.11682454,2.6817722,-26.118752,45.131252,-3.1125002,-0.6132837,-0.4481749,-0.27210414,1002.1658, , , , 
2025-11-24 19:56:12.287,10.62503,-5.451448,-1.6423737,-0.95864844,0.03978143,2.7007084,-23.6625,46.331253,-2.8312502,-0.62909496,-0.42965868,-0.2609473,1002.1599, , , , 
2025-11-24 19:56:12.307,10.888241,-5.563911,-1.1300105,-0.95437247,-0.18073443,2.734916,-20.90625,47.49375,-2.4562502,-0.64965945,-0.40610594,-0.24655919,1002.1599, , , , 
2025-11-24 19:56:12.327,11.235498,-5.1257253,-0.6774679,-0.8303705,-0.3951418,2.7733994,-18.675001,48.3375,-1.7812501,-0.6658765,-0.3880348,-0.23330295,1002.1599, , , , 
2025-11-24 19:56:12.347,11.642578,-4.5391846,-0.35443684,-0.64894885,-0.5148679,2.7850053,-16.125,49.518753,-1.125,-0.68104184,-0.3708707,-0.21829276,1002.1599, , , , 
2025-11-24 19:56:12.367,12.463615,-3.978965,-0.19621146,-0.348412,-0.5881696,2.6842155,-13.35,50.49375,0.01875,-0.69446355,-0.35470206,-0.20216456,1002.16626, , , , 
2025-11-24 19:56:12.387,13.194024,-3.610171,-0.4549354,-0.038712446,-0.59427804,2.450261,-10.950001,51.375004,1.06875,-0.7052362,-0.34021413,-0.18578987,1002.16626, , , , 
2025-11-24 19:56:12.407,13.741981,-3.1459637,-0.9840483,0.2197523,-0.5386909,2.2376862,-8.212501,52.237503,1.7812501,-0.71300393,-0.32787308,-0.16991898,1002.17017, , , , 
2025-11-24 19:56:12.427,14.306986,-2.5208387,-1.3980067,0.36879903,-0.51181364,2.029998,-5.8500004,52.8375,2.0062501,-0.7183446,-0.31717965,-0.15490715,1002.17017, , , , 
2025-11-24 19:56:12.447,14.917753,-1.5275182,-1.704587,0.37796175,-0.48799062,1.7282397,-3.61875,53.775,2.04375,-0.7228022,-0.30636346,-0.13789175,1002.16626, , , , 
2025-11-24 19:56:12.467,15.662221,-1.041476,-1.8290138,0.22586077,-0.40369368,1.334854,-1.2,54.037502,1.85625,-0.7253036,-0.30012143,-0.12690394,1002.16626, , , , 
2025-11-24 19:56:12.487,16.430616,-1.1371889,-1.7500507,9.926268E-4,-0.23571068,0.79669756,0.6,54.16875,1.575,-0.72727853,-0.2963999,-0.1201264,1002.1653, , , , 
2025-11-24 19:56:12.507,16.567307,-1.3549358,-1.5179468,-0.14499986,0.014125843,0.25907558,2.1375,54.037502,1.6500001,-0.7284863,-0.2951892,-0.118675046,1002.1653, , , , 
2025-11-24 19:56:12.527,16.58884,-1.9558334,-1.2376875,-0.2024195,0.2005106,-0.32061845,3.3750002,53.5125,1.6125001,-0.7285838,-0.29597303,-0.122275695,1002.1616, , , , 
2025-11-24 19:56:12.547,16.746767,-2.6599214,-1.1324034,-0.18959172,0.26403874,-0.84472543,3.7875001,53.4,1.4625001,-0.7272272,-0.29935935,-0.12998694,1002.1616, , , , 
2025-11-24 19:56:12.567,16.691732,-3.2368908,-1.1946167,-0.24273543,0.5157078,-1.3694432,3.7875001,53.23125,1.5187501,-0.7241343,-0.3057343,-0.14104715,1002.1653, , , , 
2025-11-24 19:56:12.587,15.935002,-3.749254,-0.92183495,-0.32214558,0.92192125,-1.8526233,3.4875002,53.23125,1.5562501,-0.71789503,-0.31598386,-0.1611481,1002.1653, , , , 
2025-11-24 19:56:12.607,14.951253,-4.615755,-0.74446696,-0.30382016,1.2853754,-2.3560379,2.1375,53.325,1.575,-0.71056,-0.32478383,-0.18338525,1002.1621, , , , 
2025-11-24 19:56:12.627,13.960027,-5.7720866,-0.5673981,-0.10468395,1.4246485,-2.807454,0.4875,53.86875,1.8000001,-0.7004664,-0.33456165,-0.20988277,1002.1621, , , , 
2025-11-24 19:56:12.647,12.985549,-6.8542404,-0.52193445,0.2777828,1.2639956,-3.10738,-1.5562501,54.281254,1.9687501,-0.6871932,-0.3464041,-0.23749693,1002.1633, , , , 
2025-11-24 19:56:12.667,12.3607235,-7.819146,-0.64636123,0.62413317,0.94024664,-3.2326038,-4.03125,54.15,2.2125,-0.67113,-0.36111793,-0.2629015,1002.1633, , , , 
2025-11-24 19:56:12.687,12.293725,-8.12782,-0.40947178,0.87030464,0.6500942,-3.3242307,-6.6937504,53.625004,2.0812502,-0.65335107,-0.37830272,-0.28524125,1002.16406, , , , 
2025-11-24 19:56:12.707,12.121441,-8.434401,-0.37836507,1.1201411,0.41125292,-3.4457893,-9.825001,52.500004,1.2,-0.6339908,-0.39752552,-0.30518287,1002.16406, , , , 
2025-11-24 19:56:12.727,11.7717905,-8.3530445,-0.031106694,1.365091,-0.05245651,-3.5050416,-12.825001,51.037502,0.3375,-0.6131331,-0.4190796,-0.32257196,1002.16284, , , , 
2025-11-24 19:56:12.747,11.345569,-7.8143606,-0.0741775,1.584385,-0.45866993,-3.5331407,-16.331251,49.74375,-0.73125005,-0.58590984,-0.4502831,-0.3387758,1002.16284, , , , 
2025-11-24 19:56:12.767,11.056037,-7.2708907,-0.2656033,1.5342956,-0.7048414,-3.479386,-19.59375,48.43125,-1.9875001,-0.56352186,-0.47761282,-0.3477921,1002.167, , , , 
2025-11-24 19:56:12.787,10.4001045,-6.739385,-0.40468612,1.1677872,-0.6590278,-3.4213555,-22.743752,46.85625,-3.1312501,-0.5417017,-0.50464934,-0.3555217,1002.167, , , , 
2025-11-24 19:56:12.807,9.810872,-6.471389,-0.19142582,0.69071555,-0.4091913,-3.3107922,-25.85625,45.15,-4.3500004,-0.5209707,-0.5288874,-0.36467302,1002.1631, , , , 
2025-11-24 19:56:12.827,9.638589,-6.372984,0.2536392,0.38223767,-0.07261447,-3.1159317,-28.66875,43.29375,-5.45625,-0.5018752,-0.54862237,-0.3763496,1002.1631, , , , 
2025-11-24 19:56:12.847,9.3562355,-6.305985,0.2536392,0.26190075,0.36788276,-2.8740363,-31.35,41.23125,-5.90625,-0.48366538,-0.56362015,-0.38986334,1002.1609, , , , 
2025-11-24 19:56:12.867,8.695218,-6.023632,0.0,0.103080474,0.89504397,-2.6174805,-33.75,38.9625,-6.1687503,-0.46085176,-0.5760119,-0.4085327,1002.1609, , , , 
2025-11-24 19:56:12.887,8.1015,-5.831907,-0.03589234,-0.0264955,1.2053543,-2.418955,-35.86875,36.84375,-6.2250004,-0.44272327,-0.5813062,-0.4248829,1002.16455, , , , 
2025-11-24 19:56:12.907,7.64447,-5.7601223,0.16749759,0.009544488,1.314696,-2.2564697,-37.725002,34.65,-6.7500005,-0.4251127,-0.5838385,-0.4415204,1002.16455, , , , 
2025-11-24 19:56:12.927,6.966703,-5.587839,0.26799613,0.22708246,1.2371184,-2.125672,-39.09375,32.4375,-7.6687503,-0.40761492,-0.5855791,-0.45690593,1002.1638,37.88742655,127.74010838,144.53662109375,1.6
2025-11-24 19:56:12.947,6.439983,-5.389235,0.18185452,0.4616478,1.0373714,-1.9973942,-40.21875,30.50625,-8.325001,-0.39011315,-0.58811617,-0.46982095,1002.1638, , , , 
2025-11-24 19:56:12.967,6.471389,-5.563911,-0.26081768,0.6620057,0.84984124,-1.8520125,-41.193752,28.29375,-9.76875,-0.37298128,-0.59198815,-0.47974104,1002.16235, , , , 
2025-11-24 19:56:12.987,6.2748785,-5.3629136,-0.81864446,0.797003,0.72461754,-1.6266099,-41.90625,26.306252,-10.9125,-0.35253218,-0.5981502,-0.48825732,1002.16235, , , , 
2025-11-24 19:56:13.007,5.4634123,-4.855336,-1.0366904,0.81166327,0.6061132,-1.3645564,-42.768753,24.562502,-11.700001,-0.33743554,-0.6031699,-0.4925825,1002.17163, , , , 
2025-11-24 19:56:13.027,4.8505507,-4.2592244,-1.1036894,0.75668705,0.39964682,-1.0475267,-43.331253,22.95,-12.69375,-0.32463557,-0.6080303,-0.49481648,1002.17163, , , , 
2025-11-24 19:56:13.047,4.618148,-3.694219,-1.230509,0.66261655,0.25793025,-0.6474217,-43.912502,21.50625,-13.368751,-0.31480676,-0.6124285,-0.4951621,1002.1636, , , , 
2025-11-24 19:56:13.067,5.137689,-4.108177,-1.4868401,0.5465556,0.24388076,-0.35421506,-44.1375,20.362501,-13.9125,-0.30796862,-0.6157372,-0.49397504,1002.1636, , , , 
2025-11-24 19:56:13.087,5.219045,-4.2281175,-1.8242282,0.4317163,0.36299598,0.11491564,-44.325,19.35,-14.55,-0.30381763,-0.6170386,-0.4917861,1002.16675, , , , 
2025-11-24 19:56:13.107,5.999704,-4.5415773,-2.248057,0.31382278,0.28847262,0.52609223,-44.60625,18.69375,-15.31875,-0.30251148,-0.61636525,-0.48802075,1002.16675, , , , 
2025-11-24 19:56:13.127,6.586244,-4.718646,-2.6647072,0.16966283,0.13881505,0.8883246,-44.53125,18.5625,-15.825001,-0.30470812,-0.6145361,-0.48244318,1002.1572, , , , 
2025-11-24 19:56:13.147,7.294819,-4.833801,-3.030809,-0.112624966,-0.22838052,1.1803097,-44.60625,18.712502,-16.2,-0.31274027,-0.6113482,-0.47329587,1002.1572, , , , 
2025-11-24 19:56:13.167,7.5173516,-5.1472607,-2.8992038,-0.43820655,-0.702398,1.3544011,-44.381252,19.181252,-16.725,-0.32415769,-0.6089603,-0.46494678,1002.1487, , , , 
2025-11-24 19:56:13.187,7.574779,-5.3075795,-2.193022,-0.7301915,-1.1990168,1.6292824,-43.987503,20.081251,-16.650002,-0.34053177,-0.60686386,-0.45581067,1002.1487, , , , 
2025-11-24 19:56:13.207,8.161619,-5.276473,-1.2855439,-0.82548374,-1.4922235,1.8833948,-43.66875,21.075,-16.1625,-0.36123747,-0.60456586,-0.44532612,1002.15063, , , , 
2025-11-24 19:56:13.227,8.597113,-5.2836514,-0.6367899,-0.7479061,-1.6333293,2.0978022,-43.143753,22.3875,-15.093751,-0.38452855,-0.6019321,-0.43305805,1002.15063, , , , 
2025-11-24 19:56:13.247,9.229117,-5.226224,-0.3185445,-0.5890858,-1.5600276,2.2859433,-42.5625,24.093752,-13.931251,-0.40852574,-0.59872127,-0.4187309,1002.15137, , , , 
2025-11-24 19:56:13.267,9.731909,-5.1472607,-0.22253251,-0.4064425,-1.2936982,2.410556,-42.037502,25.706251,-12.4875,-0.43163013,-0.59422344,-0.4029215,1002.15137, , , , 
2025-11-24 19:56:13.287,10.131809,-5.0276194,-0.30897322,-0.20913883,-0.88443047,2.482636,-41.25,27.69375,-10.81875,-0.45762148,-0.5860855,-0.38245094,1002.15405, , , , 
2025-11-24 19:56:13.307,10.227522,-5.0826545,-0.58654064,-0.059481252,-0.53502584,2.4930203,-40.29375,29.75625,-9.675,-0.47560367,-0.577512,-0.36633137,1002.15405, , , , 
2025-11-24 19:56:13.327,10.129416,-4.9725847,-1.015155,0.032756682,-0.31695336,2.4838576,-39.09375,31.875002,-8.2875,-0.49141967,-0.56758595,-0.350601,1002.1543, , , , 
2025-11-24 19:56:13.347,9.928419,-4.965406,-1.4126626,0.049860407,-0.22593713,2.5144,-37.631252,33.84375,-7.4437504,-0.5059294,-0.5568383,-0.3350264,1002.1543, , , , 
2025-11-24 19:56:13.367,9.940384,-4.9869413,-1.6160526,-0.030160584,-0.16546325,2.5919776,-36.037502,35.943752,-7.1250005,-0.5201338,-0.54533017,-0.3193222,1002.15234, , , , 
2025-11-24 19:56:13.387,10.256236,-5.1616178,-1.8146569,-0.17615308,-0.06467345,2.6640575,-34.518753,37.725002,-6.5437503,-0.53459525,-0.5325389,-0.30383933,1002.15234, , , , 
2025-11-24 19:56:13.407,10.443175,-5.35095,-1.8242282,-0.3832303,0.097888276,2.754463,-33.05625,39.43125,-6.4125004,-0.55333394,-0.5141571,-0.28563243,1002.14624, , , , 
2025-11-24 19:56:13.427,10.550853,-5.5710893,-1.7787645,-0.5420506,0.21639264,2.8442576,-31.050001,41.268753,-6.39375,-0.56900877,-0.49711055,-0.27226117,1002.14624, , , , 
2025-11-24 19:56:13.447,11.056037,-5.9374905,-1.8481563,-0.6397861,0.24204823,2.9444366,-29.081251,42.75,-6.3750005,-0.5852924,-0.47828844,-0.2593813,1002.1521, , , , 
2025-11-24 19:56:13.467,11.362318,-5.8008003,-1.8242282,-0.70026004,0.21150586,3.0317876,-26.79375,44.25,-6.3750005,-0.6019673,-0.45834434,-0.24637066,1002.1521, , , , 
2025-11-24 19:56:13.487,11.489138,-5.604589,-1.7811574,-0.71858543,0.13209572,3.0531673,-24.225,45.693752,-6.0750003,-0.61872405,-0.43782106,-0.23293696,1002.15234, , , , 
2025-11-24 19:56:13.507,11.764611,-5.6356955,-1.6615162,-0.69231904,-0.008475506,2.9963586,-21.5625,47.2125,-5.175,-0.6351276,-0.4174577,-0.2190623,1002.15234, , , , 
2025-11-24 19:56:13.527,11.920145,-5.382056,-1.5275182,-0.6355102,-0.18134528,2.8888495,-18.862501,48.693752,-4.3500004,-0.65075165,-0.3982315,-0.20466089,1002.1592, , , , 
2025-11-24 19:56:13.547,12.528221,-5.391628,-1.3836497,-0.4180486,-0.43851197,2.7575173,-16.2,50.04375,-3.61875,-0.6684878,-0.37679774,-0.18538776,1002.1592, , , , 
2025-11-24 19:56:13.567,13.13869,-5.573482,-1.6280167,-0.25373068,-0.5680116,2.6249633,-13.575001,51.187504,-2.7375002,-0.6806728,-0.3618666,-0.16876562,1002.1665, , , , 
2025-11-24 19:56:13.587,13.466805,-5.300401,-1.8553349,-0.12239852,-0.6083275,2.5198977,-11.00625,51.9,-2.2875001,-0.6911464,-0.3486012,-0.15169995,1002.1665, , , , 
2025-11-24 19:56:13.607,13.473985,-4.627719,-1.8720846,-0.003283304,-0.5759526,2.4362116,-8.53125,52.537502,-1.63125,-0.7000325,-0.33618867,-0.1347417,1002.1658, , , , 
2025-11-24 19:56:13.627,13.713266,-3.8880377,-1.9462621,0.015042114,-0.5875587,2.278002,-5.86875,53.175003,-1.4625001,-0.70762783,-0.32455075,-0.11838786,1002.1658, , , , 
2025-11-24 19:56:13.647,14.575281,-3.6197424,-2.0231316,-0.11384666,-0.5612923,1.9780761,-3.4687502,53.531254,-1.48125,-0.7144649,-0.31439054,-0.10340863,1002.17334, , , , 
2025-11-24 19:56:13.667,14.972789,-3.2871401,-2.0279171,-0.24212459,-0.3071798,1.6903671,-1.0875001,53.98125,-1.3125,-0.72070545,-0.30584952,-0.09115502,1002.17334, , , , 
2025-11-24 19:56:13.687,15.2623205,-2.5809584,-2.1355941,-0.33314082,0.05260922,1.3385191,1.2750001,54.112503,-1.5187501,-0.7274871,-0.29562357,-0.081586,1002.17334, , , , 
2025-11-24 19:56:13.707,14.941682,-2.0662024,-2.0805593,-0.42782214,0.26587126,0.9261972,3.1875002,54.000004,-1.125,-0.7320562,-0.2881504,-0.079153195,1002.17334, , , , 
2025-11-24 19:56:13.727,14.596816,-1.5945172,-1.7787645,-0.47607908,0.3037438,0.5070796,4.9500003,53.8875,-0.69375,-0.7359044,-0.28240433,-0.08061792,1002.1738, , , , 
2025-11-24 19:56:13.747,14.898611,-1.5323038,-1.5083755,-0.41132927,0.22372282,-0.07505786,6.2812505,53.7,-0.35625002,-0.7386333,-0.27961096,-0.08486784,1002.1738, , , , 
2025-11-24 19:56:13.767,15.011074,-1.6064813,-1.3956138,-0.26045,0.22005773,-0.73110783,6.99375,53.662502,0.01875,-0.7392873,-0.28117174,-0.091939084,1002.17285, , , , 
2025-11-24 19:56:13.787,14.654244,-2.3030918,-1.3166506,-0.10040802,0.21089502,-1.458016,7.4062505,53.5125,0.43125,-0.7371062,-0.28763232,-0.10257521,1002.17285, , , , 
2025-11-24 19:56:13.807,14.012669,-3.5383866,-1.2161521,0.0762032,0.13209572,-2.1323915,7.2937503,53.362503,0.675,-0.7318905,-0.29917887,-0.116571896,1002.17065, , , , 
2025-11-24 19:56:13.827,13.040585,-5.1329036,-0.99601245,0.25945738,-0.1220931,-2.7084968,6.4687505,53.4,0.8625,-0.72133905,-0.32036987,-0.13663556,1002.17065, , , , 
2025-11-24 19:56:13.847,12.303296,-6.399305,-0.73011,0.39445463,-0.4067479,-3.0224721,4.8187504,53.49375,1.1625,-0.7103209,-0.3420479,-0.15236259,1002.17065, , , , 
2025-11-24 19:56:13.867,11.845967,-7.160821,-0.4645067,0.48974678,-0.6162685,-3.1733515,2.53125,53.7,0.5625,-0.69757336,-0.36664817,-0.16662166,1002.17065, , , , 
2025-11-24 19:56:13.887,11.767004,-7.4647093,-0.39511484,0.5239542,-0.6950678,-3.2057264,-0.0,53.625004,0.20625001,-0.6835528,-0.39254797,-0.17949183,1002.16113, , , , 
2025-11-24 19:56:13.907,12.229118,-7.3402824,-0.45014977,0.45798272,-0.63703734,-3.17946,-3.24375,53.41875,-0.28125,-0.6688054,-0.41831374,-0.1916396,1002.16113, , , , 
2025-11-24 19:56:13.927,12.648161,-7.2876406,-0.6200402,0.28205872,-0.24487339,-3.3010185,-6.01875,52.93125,-0.65625,-0.6533887,-0.4427922,-0.2049149,1002.1616,37.88744004,127.7401002,144.81231689453125,1.31
2025-11-24 19:56:13.947,12.274582,-7.2230344,-0.81625164,0.022372281,0.2121167,-3.478775,-8.981251,52.3875,-0.43125,-0.63683844,-0.4651553,-0.22195022,1002.1616, , , , 
2025-11-24 19:56:13.967,11.72154,-7.4072814,-0.6966105,-0.23723781,0.6177193,-3.586895,-12.31875,51.656254,-1.03125,-0.6151371,-0.4892824,-0.24911162,1002.16675, , , , 
2025-11-24 19:56:13.987,10.950753,-7.433603,-0.50039905,-0.33558422,0.8632799,-3.5453575,-15.243751,50.568752,-1.44375,-0.5972169,-0.50542915,-0.27381265,1002.16675, , , , 
2025-11-24 19:56:14.007,10.81167,-7.469495,-0.5027919,-0.43393064,1.030652,-3.343167,-18.6,49.237503,-2.025,-0.5792651,-0.5187618,-0.29895538,1002.16846, , , , 
2025-11-24 19:56:14.027,10.835598,-7.036394,-0.29940194,-0.58786416,1.2749909,-3.130592,-21.73125,47.662502,-2.6625001,-0.56188524,-0.52886707,-0.32411978,1002.16846, , , , 
2025-11-24 19:56:14.047,11.099108,-7.096215,-0.1363909,-0.7106444,1.6915888,-3.0780594,-24.825,46.0125,-2.49375,-0.54470766,-0.53544295,-0.35044363,1002.17334, , , , 
2025-11-24 19:56:14.067,10.598709,-7.146464,0.06699903,-0.57870144,1.9786869,-3.0621774,-27.768751,44.23125,-2.7375002,-0.5262711,-0.5388695,-0.37867683,1002.17334, , , , 
2025-11-24 19:56:14.087,9.827921,-7.103393,0.19860429,-0.26350424,1.9707459,-2.995595,-30.187502,42.1875,-3.15,-0.5061897,-0.5408136,-0.40644032,1002.1697, , , , 
2025-11-24 19:56:14.107,9.294023,-6.926025,0.25124636,0.140953,1.7984871,-2.9064112,-32.381252,40.143753,-3.54375,-0.48475865,-0.5433082,-0.43125704,1002.1697, , , , 
2025-11-24 19:56:14.127,8.851051,-7.096215,-0.038285162,0.60397524,1.5578132,-2.8496025,-34.3125,37.875,-4.425,-0.46205717,-0.5474976,-0.45217556,1002.1753, , , , 
2025-11-24 19:56:14.147,8.403294,-7.4072814,-0.689432,0.8373189,1.3458493,-2.7903502,-36.018753,35.643753,-5.5875,-0.4322004,-0.55577534,-0.47288075,1002.1753, , , , 
2025-11-24 19:56:14.167,7.701898,-7.6133633,-1.1012967,0.84648156,1.2279557,-2.6498554,-38.04375,33.581253,-6.80625,-0.40834126,-0.56355333,-0.48622897,1002.16895, , , , 
2025-11-24 19:56:14.187,6.6245294,-7.4072814,-1.0630114,0.70109993,1.1015103,-2.3664222,-39.5625,31.050001,-8.34375,-0.385852,-0.5705894,-0.4979164,1002.16895, , , , 
2025-11-24 19:56:14.207,6.17438,-7.285248,-0.9553344,0.5825956,1.0636377,-2.0425968,-40.893753,28.893751,-10.012501,-0.36587155,-0.57607263,-0.50823337,1002.1655, , , , 
2025-11-24 19:56:14.227,5.6931233,-7.093822,-1.1419746,0.55022067,1.174812,-1.6400485,-42.075,26.587502,-11.212501,-0.34815064,-0.5794924,-0.51731753,1002.1655, , , , 
2025-11-24 19:56:14.247,5.2740803,-6.8039913,-1.4724833,0.5532749,1.2077978,-1.2735401,-43.162502,24.300001,-12.468751,-0.33209962,-0.58085585,-0.52484715,1002.1614, , , , 
2025-11-24 19:56:14.268,5.1616178,-6.7369924,-2.111666,0.5764871,1.107008,-0.72255594,-43.93125,22.3875,-13.500001,-0.3152679,-0.58064336,-0.5309476,1002.1614, , , , 
2025-11-24 19:56:14.287,5.152046,-6.686743,-2.7293134,0.5777088,0.93780327,-0.26686388,-44.362503,20.71875,-14.83125,-0.30525512,-0.5796379,-0.5324721,1002.1582, , , , 
2025-11-24 19:56:14.307,5.2477593,-6.6484575,-3.370889,0.4421007,0.5157078,0.3635305,-44.475002,19.25625,-15.95625,-0.29968974,-0.57830787,-0.5303803,1002.1582, , , , 
2025-11-24 19:56:14.327,4.9917274,-5.8797636,-3.5814574,0.20387027,-0.11964971,0.9573504,-44.100002,18.46875,-17.081251,-0.30031136,-0.5770887,-0.52459085,1002.15063, , , , 
2025-11-24 19:56:14.347,5.343771,-5.235795,-3.05713,-0.028328042,-0.9571213,1.5242167,-43.85625,18.243752,-18.056252,-0.30887243,-0.5767203,-0.51490057,1002.15063, , , , 
2025-11-24 19:56:14.367,6.485746,-4.8290153,-2.2839491,-0.03321482,-1.7023549,1.9738002,-43.443752,18.618752,-18.09375,-0.3254587,-0.5779984,-0.50100607,1002.155, , , , 
2025-11-24 19:56:14.387,7.943573,-4.725825,-1.8218354,0.20020519,-2.246009,2.2254694,-43.050003,19.66875,-18.206251,-0.35288313,-0.5824296,-0.47747028,1002.155, , , , 
2025-11-24 19:56:14.407,8.59472,-4.79073,-1.5346966,0.42316443,-2.5202794,2.2437947,-42.581253,20.71875,-17.23125,-0.3760093,-0.5882293,-0.45460704,1002.1582, , , , 
2025-11-24 19:56:14.427,8.965906,-5.1161537,-1.3357933,0.61558133,-2.5068407,2.2492924,-42.09375,22.21875,-15.7875,-0.3982318,-0.5950606,-0.4295145,1002.1582, , , , 
2025-11-24 19:56:14.447,9.135797,-5.3389854,-1.3166506,0.74935687,-2.1397216,2.310988,-41.68125,24.018751,-13.968751,-0.41840369,-0.6007877,-0.4034838,1002.1526, , , , 
2025-11-24 19:56:14.467,9.169296,-5.382056,-1.4844474,0.80372226,-1.5850723,2.4258273,-41.23125,26.118752,-11.868751,-0.43609956,-0.6037053,-0.3777089,1002.1526, , , , 
2025-11-24 19:56:14.487,9.305986,-5.4610195,-1.7548363,0.7383616,-1.1477057,2.5394447,-40.612503,28.331251,-10.181251,-0.45190638,-0.60325944,-0.3528934,1002.15234, , , , 
2025-11-24 19:56:14.507,9.650553,-5.496912,-2.003989,0.60153186,-0.7243885,2.7092602,-39.84375,30.73125,-9.13125,-0.4706332,-0.59791076,-0.3236809,1002.15234, , , , 
2025-11-24 19:56:14.527,10.043275,-5.266902,-2.219343,0.4885251,-0.38292488,2.833873,-38.7,32.71875,-8.493751,-0.4854475,-0.58982,-0.30183277,1002.1533, , , , 
2025-11-24 19:56:14.547,10.012168,-4.6731825,-2.530709,0.32481802,-0.015194826,2.8845735,-37.125,34.66875,-7.9500003,-0.49991432,-0.5787069,-0.28166693,1002.1533, , , , 
2025-11-24 19:56:14.567,9.949955,-4.240082,-2.8489544,0.030313294,0.38315395,2.838149,-35.175003,36.6375,-7.70625,-0.5139891,-0.5647494,-0.26416728,1002.1482, , , , 
2025-11-24 19:56:14.587,9.926026,-4.4243293,-3.1100712,-0.30748525,0.6891884,2.7642365,-33.206253,38.4,-7.4625,-0.5279935,-0.5482087,-0.25010866,1002.1482, , , , 
2025-11-24 19:56:14.607,9.827921,-5.101797,-3.3445678,-0.70392513,0.8632799,2.7886705,-31.10625,40.443752,-7.6687503,-0.54274046,-0.52923983,-0.23935923,1002.15796, , , , 
2025-11-24 19:56:14.627,10.100702,-5.7433724,-3.4857445,-1.1541195,0.90665007,2.942604,-29.156252,42.2625,-7.9875,-0.5595501,-0.5077896,-0.23077466,1002.15796, , , , 
2025-11-24 19:56:14.647,10.699207,-6.282057,-3.2033913,-1.6146984,0.810747,3.138686,-26.962502,43.912502,-8.25,-0.57949466,-0.48393017,-0.22325775,1002.16626, , , , 
2025-11-24 19:56:14.667,11.187642,-6.2868423,-2.4011974,-1.9732658,0.6568135,3.3104103,-24.50625,45.73125,-7.9875,-0.6085595,-0.45128924,-0.21429557,1002.16626, , , , 
2025-11-24 19:56:14.687,11.855539,-6.2676997,-1.4940187,-2.064282,0.34955734,3.3531697,-21.84375,47.30625,-7.0687504,-0.63352174,-0.42413324,-0.20663829,1002.167, , , , 
2025-11-24 19:56:14.707,12.763017,-6.210272,-0.8668,-1.9396691,0.0098499125,3.275592,-18.6,48.881252,-5.7562504,-0.65817076,-0.3981221,-0.19730747,1002.167, , , , 
2025-11-24 19:56:14.727,13.564912,-6.3011994,-0.46929234,-1.6415757,-0.2888544,3.0549998,-15.656251,50.23125,-4.0687504,-0.68074566,-0.3745066,-0.18624645,1002.16406, , , , 
2025-11-24 19:56:14.747,14.3022,-6.291628,-0.4214359,-1.2982795,-0.5008184,2.8326514,-12.450001,51.318752,-2.30625,-0.7003346,-0.35380745,-0.17385843,1002.16406, , , , 
2025-11-24 19:56:14.767,14.742779,-6.06431,-0.6008976,-0.9409338,-0.66024953,2.5736523,-9.375,51.693752,-0.50625,-0.71660376,-0.33622065,-0.16036962,1002.1748, , , , 
2025-11-24 19:56:14.787,14.740386,-5.5256257,-0.8572287,-0.7308024,-0.76287186,2.306712,-6.61875,52.0125,1.0125,-0.729802,-0.321772,-0.14622803,1002.1748, , , , 
2025-11-24 19:56:14.807,14.742779,-5.137689,-0.92662054,-0.7338566,-0.74698985,2.0813093,-4.05,52.575,2.1000001,-0.7436256,-0.30711594,-0.12902947,1002.17456, , , , 
2025-11-24 19:56:14.827,14.589638,-4.4171505,-0.7755736,-0.780281,-0.534415,1.9554747,-1.725,52.443752,3.24375,-0.7534986,-0.2966805,-0.11706363,1002.17456, , , , 
2025-11-24 19:56:14.847,14.908182,-3.4019957,-0.72293156,-0.78089184,-0.22838052,1.8009304,0.28125,52.65,4.125,-0.7626008,-0.2857067,-0.10766154,1002.1648, , , , 
2025-11-24 19:56:14.867,15.027823,-2.4059832,-0.6678966,-0.7143095,-0.0023670332,1.534601,2.23125,52.65,4.8187504,-0.7706334,-0.27451983,-0.10146965,1002.1648, , , , 
2025-11-24 19:56:14.887,15.2216425,-1.5490535,-0.57457656,-0.5768689,0.10582929,1.0929585,4.3875003,52.48125,5.6625004,-0.77710116,-0.2644452,-0.09854723,1002.1582, , , , 
2025-11-24 19:56:14.907,15.528222,-1.1611172,-0.47886363,-0.36856997,0.1357608,0.46676368,5.8500004,52.518753,6.2812505,-0.7813394,-0.25754967,-0.09892712,1002.1582, , , , 
2025-11-24 19:56:14.927,15.655042,-1.2592229,-0.28265217,-0.071698196,0.09849912,-0.29313034,7.3500004,52.425003,6.8812504,-0.7824666,-0.25606465,-0.10421619,1002.16064,37.88745143,127.74009379,144.51611328125,1.13
2025-11-24 19:56:14.947,15.1498575,-1.8888344,-0.15553348,0.37246412,0.015347538,-1.238111,7.9125004,52.425003,7.1625004,-0.7791176,-0.2621219,-0.11196327,1002.16064, , , , 
2025-11-24 19:56:14.967,14.309678,-2.9614172,-0.22013968,0.72186875,-0.025579229,-2.014498,7.6875005,52.331253,7.4062505,-0.7715243,-0.27500919,-0.12242782,1002.16943, , , , 
2025-11-24 19:56:14.987,13.359129,-4.167998,-0.28743783,0.9936958,-0.0432938,-2.6205347,7.0875,52.7625,7.18125,-0.7600463,-0.29354122,-0.13502713,1002.16943, , , , 
2025-11-24 19:56:15.007,12.420544,-5.705087,-0.4668995,1.1922212,-0.031687703,-3.1470852,5.5687504,53.156254,6.2812505,-0.74516886,-0.3161259,-0.149246,1002.1709, , , , 
2025-11-24 19:56:15.027,11.886645,-7.012167,-0.6008976,1.2453649,-0.048791423,-3.4488437,3.4875002,53.362503,5.4,-0.7276142,-0.34152657,-0.16462807,1002.1709, , , , 
2025-11-24 19:56:15.047,11.034502,-7.66122,-0.55782676,1.293011,0.03489465,-3.5013764,0.63750005,53.531254,4.2937503,-0.7081469,-0.3680562,-0.18031986,1002.16406, , , , 
2025-11-24 19:56:15.067,10.246665,-7.752147,-0.6128617,1.3162231,0.11071607,-3.4128036,-2.6437502,53.193752,2.98125,-0.682109,-0.39979652,-0.19956636,1002.16406, , , , 
2025-11-24 19:56:15.087,10.36152,-7.84786,-0.94337034,1.2355913,0.17363334,-3.3291175,-6.05625,52.781254,1.66875,-0.6608025,-0.4234597,-0.21423392,1002.1548, , , , 
2025-11-24 19:56:15.107,10.462317,-7.697112,-1.3166506,1.0523372,0.27320144,-3.2881908,-9.243751,52.18125,0.58125,-0.63945824,-0.44564667,-0.2291078,1002.1548, , , , 
2025-11-24 19:56:15.127,10.277771,-7.49103,-1.3477573,0.7420267,0.37826717,-3.2142782,-12.431251,51.393753,-0.8625,-0.61879426,-0.4659418,-0.24475035,1002.1509, , , , 
2025-11-24 19:56:15.147,9.866206,-7.136893,-1.2089736,0.34131092,0.634823,-3.131203,-15.468751,50.437504,-2.2125,-0.5992843,-0.48377043,-0.26188874,1002.1509, , , , 
2025-11-24 19:56:15.167,9.380164,-6.7872415,-0.87637126,0.01809635,0.86633414,-3.0047576,-18.300001,49.36875,-2.79375,-0.58100724,-0.49827683,-0.28121284,1002.1499, , , , 
2025-11-24 19:56:15.187,9.0951185,-6.2988067,-0.57936215,-0.16943376,1.1051754,-2.8361638,-21.4125,48.131252,-3.73125,-0.56402284,-0.5092581,-0.30221766,1002.1499, , , , 
2025-11-24 19:56:15.207,9.289237,-6.0212393,-0.5243273,-0.2140256,1.3317997,-2.6889496,-24.0,46.6875,-4.2000003,-0.5436441,-0.518473,-0.32967412,1002.1499, , , , 
2025-11-24 19:56:15.227,9.480662,-5.846264,-0.75643104,-0.22929679,1.4594668,-2.6614616,-26.400002,45.225002,-4.59375,-0.53121483,-0.5223513,-0.34649295,1002.1499, , , , 
2025-11-24 19:56:15.247,9.578768,-5.5950174,-0.79950184,-0.19753273,1.4686295,-2.6461904,-29.00625,43.55625,-5.53125,-0.51001805,-0.527409,-0.37462687,1002.1592, , , , 
2025-11-24 19:56:15.267,9.784551,-5.7840505,-0.80907315,-0.058870405,1.3800566,-2.640082,-30.937502,42.0,-6.0375004,-0.4926253,-0.53121865,-0.39626694,1002.1592, , , , 
2025-11-24 19:56:15.287,9.923634,-6.3131633,-1.0869397,0.08597675,1.2285665,-2.6150372,-33.0,40.3875,-6.95625,-0.47469962,-0.5355701,-0.41630715,1002.16064, , , , 
2025-11-24 19:56:15.307,9.861421,-6.538388,-1.3764713,0.15927842,1.0960127,-2.5142474,-34.6875,38.362503,-7.6125,-0.45677593,-0.54070395,-0.43415686,1002.16064, , , , 
2025-11-24 19:56:15.327,9.2075815,-6.3370914,-1.3046865,0.22708246,0.96468055,-2.3322148,-36.1875,36.506252,-8.38125,-0.43517396,-0.54714876,-0.45368502,1002.1636, , , , 
2025-11-24 19:56:15.347,8.405686,-5.9327044,-1.0725827,0.22463907,0.72828263,-2.1562145,-37.74375,34.18125,-9.337501,-0.4191895,-0.5524205,-0.466906,1002.1636, , , , 
2025-11-24 19:56:15.367,7.850253,-5.831907,-0.64636123,0.21486552,0.5425851,-1.9607433,-38.925003,32.175003,-10.1625,-0.40502003,-0.55782264,-0.4781529,1002.1648, , , , 
2025-11-24 19:56:15.387,7.7665043,-6.282057,-0.5937191,0.27045262,0.5083776,-1.7347299,-40.3125,30.581251,-11.137501,-0.39242598,-0.5628671,-0.48763442,1002.1648, , , , 
2025-11-24 19:56:15.407,7.2900333,-6.346663,-0.7492526,0.34925193,0.6360447,-1.3749409,-41.4375,28.781252,-11.775001,-0.38082907,-0.56667465,-0.4953092,1002.16846, , , , 
2025-11-24 19:56:15.428,7.1225357,-6.495317,-1.1850454,0.42438614,0.75699246,-0.95773214,-42.393753,27.525002,-12.356251,-0.37028936,-0.56871074,-0.5009733,1002.16846, , , , 
2025-11-24 19:56:15.447,6.6795645,-6.430412,-1.8122641,0.43354884,0.78142637,-0.5612923,-43.275,26.2875,-12.825001,-0.36108565,-0.569261,-0.5045069,1002.1675, , , , 
2025-11-24 19:56:15.467,6.303592,-6.265307,-2.2552354,0.29244313,0.6140542,-0.15996562,-43.706253,24.956251,-13.556251,-0.35425207,-0.5685772,-0.5057659,1002.1675, , , , 
2025-11-24 19:56:15.487,5.6213384,-5.5950174,-2.1834507,0.059023116,0.27564484,0.34276167,-43.59375,23.962502,-14.062501,-0.35149792,-0.56636775,-0.50434023,1002.1648, , , , 
2025-11-24 19:56:15.507,5.5519466,-4.821837,-1.6447664,-0.08452599,-0.15874393,0.7753179,-43.4625,23.456251,-14.868751,-0.3550011,-0.56391543,-0.50051117,1002.1648, , , , 
2025-11-24 19:56:15.527,6.210272,-4.331009,-1.07019,-0.07963921,-0.55945975,1.0862391,-42.956253,23.1,-15.4125,-0.36317235,-0.5619237,-0.49386021,1002.15283, , , , 
2025-11-24 19:56:15.547,7.022037,-4.0005,-0.74446696,0.08903099,-0.8147939,1.2523896,-42.46875,23.400002,-15.4125,-0.3739265,-0.56099904,-0.48452196,1002.15283, , , , 
2025-11-24 19:56:15.567,7.6540413,-3.9550366,-0.91226363,0.23868857,-0.8728244,1.2982031,-42.225002,24.018751,-15.31875,-0.385028,-0.5612222,-0.47303027,1002.1482, , , , 
2025-11-24 19:56:15.587,7.740183,-4.1225343,-1.1659029,0.23319094,-0.7879166,1.2817103,-41.7,24.768751,-14.85,-0.3954443,-0.5617668,-0.4607546,1002.1482, , , , 
2025-11-24 19:56:15.607,7.4359956,-4.4171505,-1.4027922,0.07925743,-0.6126034,1.3489034,-41.456253,26.00625,-14.306251,-0.40533808,-0.56150794,-0.44885635,1002.155, , , , 
2025-11-24 19:56:15.628,7.086643,-4.587041,-1.338186,-0.053983625,-0.498375,1.5474288,-41.175003,27.056252,-13.837501,-0.41850471,-0.5584875,-0.4348457,1002.155, , , , 
2025-11-24 19:56:15.647,6.98106,-4.4339004,-1.1682956,-0.12239852,-0.4324035,1.8070389,-40.55625,28.575,-13.500001,-0.43050778,-0.553685,-0.42334235,1002.15234, , , , 
2025-11-24 19:56:15.667,7.199106,-4.314259,-1.2017952,-0.16943376,-0.37498385,2.030609,-40.18125,29.94375,-12.900001,-0.4437362,-0.54714215,-0.41092807,1002.15234, , , , 
2025-11-24 19:56:15.687,7.440781,-4.223332,-1.1826526,-0.2189124,-0.32550523,2.2071438,-39.3375,31.237501,-12.356251,-0.45780542,-0.5389676,-0.3978008,1002.1521, , , , 
2025-11-24 19:56:15.707,7.7832537,-4.211368,-1.1108679,-0.19570018,-0.32611609,2.374516,-38.30625,32.90625,-11.75625,-0.47254005,-0.5295623,-0.3839643,1002.1521, , , , 
2025-11-24 19:56:15.727,8.164012,-4.1751766,-1.2233306,-0.13095038,-0.32184014,2.4997396,-37.125,34.443752,-11.38125,-0.4875112,-0.5193319,-0.3690497,1002.1555, , , , 
2025-11-24 19:56:15.747,8.705089,-4.1751766,-1.5634105,-0.06681142,-0.3267269,2.5797608,-35.737503,35.850002,-10.856251,-0.50589573,-0.50582594,-0.34887743,1002.1555, , , , 
2025-11-24 19:56:15.767,9.097511,-4.2855453,-1.8960128,-0.090634465,-0.338333,2.6084704,-34.0875,37.40625,-10.837501,-0.52027506,-0.49470168,-0.33196715,1002.16016, , , , 
2025-11-24 19:56:15.787,9.341879,-4.362116,-2.0422742,-0.15538427,-0.38781166,2.6530623,-32.34375,39.09375,-10.650001,-0.53473365,-0.48321894,-0.314746,1002.16016, , , , 
2025-11-24 19:56:15.807,9.640982,-4.3836513,-1.9968106,-0.1828724,-0.53624755,2.7312508,-30.45,40.725002,-10.33125,-0.54969645,-0.471438,-0.29695284,1002.16504, , , , 
2025-11-24 19:56:15.827,10.773385,-4.5415773,-1.6304095,-0.118122585,-1.0304229,2.9010663,-28.2,42.600002,-10.275001,-0.5654668,-0.46007273,-0.27741492,1002.16504, , , , 
2025-11-24 19:56:15.847,13.194024,-4.805087,-1.1156535,0.022983128,-1.6345509,3.0085754,-26.343752,44.25,-9.543751,-0.5824187,-0.45072976,-0.25388423,1002.1648, , , , 
2025-11-24 19:56:15.867,14.946467,-4.4051867,-0.7851449,0.2325801,-1.7530553,2.850366,-24.0375,45.65625,-8.94375,-0.5986808,-0.4442068,-0.22683667,1002.1648, , , , 
2025-11-24 19:56:15.887,15.485151,-3.9909291,-0.541077,0.35719293,-1.4073157,2.418497,-21.9375,47.11875,-8.212501,-0.61411214,-0.43837184,-0.19434184,1002.1699, , , , 
2025-11-24 19:56:15.907,15.173786,-4.1201415,-0.6415756,0.35597125,-0.97727925,2.04588,-19.6875,48.45,-7.6312504,-0.6224889,-0.43402886,-0.17292993,1002.1699, , , , 
2025-11-24 19:56:15.927,14.608781,-4.426722,-0.907478,0.25762483,-0.54663193,1.8736212,-17.362501,49.55625,-7.4062505,-0.62877876,-0.4287735,-0.15586074,1002.176,37.88745143,127.74009379,144.51611328125,1.13
2025-11-24 19:56:15.947,14.654244,-4.7859445,-1.3621143,0.07681404,-0.14835952,1.8510199,-15.281251,50.625004,-7.5937505,-0.6346732,-0.42132208,-0.14228812,1002.176, , , , 
2025-11-24 19:56:15.967,14.8073845,-4.8003016,-1.5993029,-0.11140327,0.20722993,1.8717887,-13.312501,50.925003,-7.7625003,-0.64108837,-0.4112542,-0.13186525,1002.1765, , , , 
2025-11-24 19:56:15.987,14.989538,-4.3525443,-1.7979071,-0.21341476,0.4729485,1.8852273,-11.587501,51.375004,-7.7250004,-0.648033,-0.3987413,-0.124058224,1002.1765, , , , 
2025-11-24 19:56:16.007,15.391533,-3.6918263,-1.9223338,-0.20119782,0.49066305,1.8039846,-9.712501,51.61875,-7.4437504,-0.65507424,-0.38501665,-0.11801346,1002.1714, , , , 
2025-11-24 19:56:16.027,15.973288,-2.5450659,-2.03031,-0.10773818,0.36238512,1.574917,-8.118751,51.99375,-7.0125003,-0.6628072,-0.36891085,-0.11167495,1002.1714, , , , 
2025-11-24 19:56:16.047,16.375582,-1.704587,-1.9486549,0.029702447,0.10094251,1.1998568,-6.3750005,52.518753,-6.6000004,-0.666335,-0.36131784,-0.10841632,1002.17163, , , , 
2025-11-24 19:56:16.067,16.229618,-1.0486546,-1.7548363,0.21425468,-0.24181916,0.45637926,-4.6125,52.66875,-6.4875,-0.668947,-0.35549936,-0.1042702,1002.17163, , , , 
2025-11-24 19:56:16.087,15.329319,-1.0869397,-1.4533406,0.25518143,-0.3872008,-0.3407764,-3.2250001,53.11875,-6.8625,-0.66755533,-0.35820317,-0.10354858,1002.16846, , , , 
2025-11-24 19:56:16.107,13.945669,-1.352543,-1.1132607,0.22586077,-0.25342527,-1.0469159,-2.325,53.04375,-7.2937503,-0.66326237,-0.36631167,-0.10686583,1002.16846, , , , 
2025-11-24 19:56:16.127,12.559328,-2.204986,-1.2759727,0.12873606,0.12110047,-1.6376052,-2.04375,53.268753,-7.6687503,-0.65656716,-0.37701952,-0.11504853,1002.1655, , , , 
2025-11-24 19:56:16.147,11.75504,-3.0762727,-1.6136597,-0.016111096,0.34039465,-1.982123,-2.775,53.643753,-7.93125,-0.648462,-0.38830012,-0.12810934,1002.1655, , , , 
2025-11-24 19:56:16.167,11.628221,-3.6918263,-1.6710875,-0.16088189,0.29152685,-2.207602,-4.125,53.550003,-8.19375,-0.63795584,-0.40282083,-0.14851734,1002.16504, , , , 
2025-11-24 19:56:16.187,11.561222,-4.086642,-1.6184454,-0.22502086,0.17424418,-2.4299505,-5.775,53.193752,-8.3625,-0.629305,-0.41567063,-0.16600023,1002.16504, , , , 
2025-11-24 19:56:16.207,11.211571,-4.3405805,-1.2520444,-0.3148154,-0.084220566,-2.6333625,-7.8187504,52.875004,-8.53125,-0.6202094,-0.43036297,-0.1839345,1002.1648, , , , 
2025-11-24 19:56:16.227,11.053644,-4.706682,-0.64875406,-0.44431502,-0.32306185,-2.799513,-10.106251,52.0125,-8.55,-0.61109585,-0.44712976,-0.20136672,1002.1648, , , , 
2025-11-24 19:56:16.247,10.766207,-5.1640105,-0.05742774,-0.5463265,-0.3444415,-2.9540575,-12.4875,51.393753,-8.15625,-0.6016965,-0.46501437,-0.21890765,1002.16724, , , , 
2025-11-24 19:56:16.267,10.368699,-5.494519,0.42622152,-0.62573665,-0.23998661,-3.0224721,-15.150001,50.550003,-7.5000005,-0.59168077,-0.48284987,-0.23727638,1002.16724, , , , 
2025-11-24 19:56:16.287,10.0576315,-5.7170515,0.57936215,-0.6862105,0.10582929,-2.9870431,-17.6625,49.612503,-6.8625,-0.58091104,-0.4992166,-0.25672302,1002.16455, , , , 
2025-11-24 19:56:16.307,10.122238,-5.95424,0.5386842,-0.6904865,0.56885153,-2.8728147,-20.118752,48.43125,-6.15,-0.56627655,-0.5151494,-0.28322092,1002.16455, , , , 
2025-11-24 19:56:16.327,10.014561,-5.966204,0.4022933,-0.6825455,0.9145911,-2.795237,-22.650002,47.025,-5.83125,-0.5535268,-0.5241534,-0.30594966,1002.15967, , , , 
2025-11-24 19:56:16.347,9.44477,-6.0427747,0.36640096,-0.67338276,1.0972344,-2.7604187,-25.125002,45.581253,-5.5687504,-0.5399886,-0.5307378,-0.32952937,1002.15967, , , , 
2025-11-24 19:56:16.367,8.860622,-6.1360946,0.4645067,-0.6159631,1.082574,-2.7084968,-27.806252,43.96875,-5.5125003,-0.5260125,-0.53607494,-0.3529784,1002.16016, , , , 
2025-11-24 19:56:16.387,8.62822,-5.805586,0.66071814,-0.49501535,0.9952229,-2.5631151,-30.056252,42.1875,-5.55,-0.5120314,-0.540985,-0.3749266,1002.16016, , , , 
2025-11-24 19:56:16.407,9.099904,-5.7816577,0.58654064,-0.38384116,1.0550859,-2.4299505,-32.100002,40.518753,-5.7562504,-0.4980157,-0.54539067,-0.39497125,1002.1553, , , , 
2025-11-24 19:56:16.427,9.810872,-6.195915,0.38554356,-0.17309885,1.0465341,-2.3413775,-33.862503,39.16875,-5.9625,-0.48349252,-0.5490536,-0.41393933,1002.1553, , , , 
2025-11-24 19:56:16.447,9.961919,-6.026025,-0.17228323,0.081700824,0.9854493,-2.1654534,-35.081253,37.350002,-6.4875,-0.46853685,-0.552871,-0.430594,1002.156, , , , 
2025-11-24 19:56:16.467,9.282058,-5.309973,-0.4334,0.22036316,0.8645016,-2.0108328,-36.3375,35.79375,-7.14375,-0.44963858,-0.55815125,-0.44759533,1002.156, , , , 
2025-11-24 19:56:16.487,8.807981,-5.0132627,-0.16031912,0.2997733,0.6397098,-1.9216491,-37.443752,34.162502,-7.4437504,-0.4351686,-0.5631402,-0.45892173,1002.1587, , , , 
2025-11-24 19:56:16.507,8.743374,-5.18076,-0.26799613,0.48547086,0.54502845,-1.7573313,-38.550003,32.362503,-8.043751,-0.42143226,-0.56875753,-0.46819025,1002.1587, , , , 
2025-11-24 19:56:16.527,8.877372,-5.8920264,-0.92183495,0.69865656,0.5841227,-1.4836717,-39.84375,30.562502,-8.512501,-0.40806237,-0.5745563,-0.47496113,1002.1633, , , , 
2025-11-24 19:56:16.547,8.211868,-5.695516,-1.5753746,0.8171609,0.6940752,-1.1275477,-40.96875,29.081251,-9.28125,-0.39501777,-0.57942075,-0.47935155,1002.1633, , , , 
2025-11-24 19:56:16.567,8.130213,-5.8968124,-2.2025933,0.77195823,0.54625016,-0.8239566,-41.831253,27.6,-10.125,-0.38318408,-0.5833627,-0.48132506,1002.1655, , , , 
2025-11-24 19:56:16.587,7.8000035,-5.764908,-2.7005994,0.60458606,0.36421767,-0.46111333,-42.487503,25.95,-11.00625,-0.3723171,-0.5874078,-0.48096672,1002.1655, , , , 
2025-11-24 19:56:16.607,7.6277204,-5.6907306,-2.8537402,0.35902548,0.17180079,-0.24853848,-42.787502,24.750002,-12.0,-0.36833084,-0.58913255,-0.479756,1002.1655, , , , 
2025-11-24 19:56:16.627,6.8135624,-5.3653064,-2.7269206,-0.042377528,-0.065284304,0.04161397,-42.975002,23.831251,-12.6,-0.36647096,-0.5906696,-0.47735348,1002.1655, , , , 
2025-11-24 19:56:16.647,6.305985,-4.989334,-1.9486549,-0.37651098,-0.2796917,0.35925454,-43.237503,23.118752,-13.05,-0.3699204,-0.59013253,-0.4753048,1002.1704, , , , 
2025-11-24 19:56:16.667,6.5575304,-4.7282176,-0.99601245,-0.48035502,-0.39575267,0.6415423,-43.29375,23.1,-13.05,-0.37735072,-0.5879683,-0.4728432,1002.1704, , , , 
2025-11-24 19:56:16.687,6.9355965,-4.558327,-0.34486556,-0.29465744,-0.41102386,0.83823514,-43.875,23.4375,-12.918751,-0.38662937,-0.58496827,-0.46921852,1002.1726, , , , 
2025-11-24 19:56:16.707,7.2756763,-4.5822554,-0.2009971,-0.060702946,-0.3780381,0.8968765,-43.96875,23.587502,-12.39375,-0.395592,-0.58210963,-0.46398365,1002.1726, , , , 
2025-11-24 19:56:16.727,7.1512494,-4.658826,-0.4860421,0.16721943,-0.24181916,0.90909344,-43.6875,24.187502,-11.775001,-0.40494335,-0.5792307,-0.4556382,1002.1699, , , , 
2025-11-24 19:56:16.747,6.454639,-4.7018967,-0.7899306,0.2521272,-0.11476293,0.9695673,-43.36875,25.125002,-11.418751,-0.40937343,-0.57751375,-0.45011836,1002.1699, , , , 
2025-11-24 19:56:16.767,5.5686965,-4.8529434,-1.2783655,0.16660859,-0.012140589,1.1595408,-42.525,26.1,-10.9125,-0.41635305,-0.5738042,-0.44021502,1002.1699, , , , 
2025-11-24 19:56:16.787,5.1735816,-5.0395837,-1.4222339,-0.096132085,0.11987878,1.5620892,-42.0,27.093752,-10.70625,-0.4235313,-0.56848294,-0.43184626,1002.1699, , , , 
2025-11-24 19:56:16.807,5.4370914,-5.006084,-1.230509,-0.26045,0.1577513,1.9377602,-41.4375,28.087502,-10.950001,-0.43363526,-0.5599337,-0.4228872,1002.1643, , , , 
2025-11-24 19:56:16.827,6.4208403,-4.766503,-1.1036894,-0.35024455,0.16141638,2.314653,-40.818752,29.025002,-11.15625,-0.44655213,-0.54872423,-0.4126507,1002.1643, , , , 
2025-11-24 19:56:16.847,7.347461,-4.551149,-1.1826526,-0.35085538,0.15469708,2.4881337,-39.9375,30.018751,-11.306251,-0.4609768,-0.53569365,-0.40116435,1002.1648, , , , 
2025-11-24 19:56:16.867,8.17119,-4.4051867,-1.3669,-0.35146624,0.0104607595,2.54311,-38.8875,31.650002,-11.34375,-0.47594306,-0.52207494,-0.38863346,1002.1648, , , , 
2025-11-24 19:56:16.887,9.059227,-4.7979083,-1.6304095,-0.36856997,-0.26258796,2.598697,-37.631252,33.35625,-11.137501,-0.49552214,-0.50591356,-0.37119985,1002.155, , , , 
2025-11-24 19:56:16.907,9.631411,-5.0132627,-1.6399808,-0.420492,-0.45011806,2.719034,-35.8875,35.025,-10.6875,-0.5123008,-0.49361882,-0.35540658,1002.155, , , , 
2025-11-24 19:56:16.927,10.414461,-5.185546,-1.6016957,-0.4931828,-0.59061295,2.8870168,-33.99375,37.18125,-10.387501,-0.53015894,-0.48106283,-0.33807352,1002.15894,37.88746562,127.74008536,144.85693359375,1.08
2025-11-24 19:56:16.947,11.597114,-5.192724,-1.5418751,-0.6355102,-0.6284855,3.0898182,-32.04375,38.90625,-10.21875,-0.54913235,-0.46765676,-0.31938487,1002.15894, , , , 
2025-11-24 19:56:16.967,12.530614,-4.982156,-1.1587243,-0.67582613,-0.62054443,3.2426064,-29.94375,40.8375,-9.618751,-0.5688553,-0.452688,-0.30010325,1002.1677, , , , 
2025-11-24 19:56:16.987,13.641482,-4.65404,-0.7325028,-0.588475,-0.7243885,3.3207948,-27.900002,42.91875,-9.168751,-0.5885494,-0.43651593,-0.2800937,1002.1677, , , , 
2025-11-24 19:56:17.007,15.2527485,-4.362116,-0.8042875,-0.4864635,-0.8679376,3.1808343,-25.706251,44.775,-8.400001,-0.6073049,-0.42083344,-0.2590486,1002.16064, , , , 
2025-11-24 19:56:17.027,16.083656,-3.9526439,-0.78753775,-0.45897534,-0.84044945,2.9487123,-23.175001,46.6875,-7.5750003,-0.6282355,-0.40345716,-0.2330222,1002.16064, , , , 
2025-11-24 19:56:17.047,16.241583,-3.4450665,-0.58654064,-0.42782214,-0.69140273,2.7135363,-20.53125,48.05625,-6.61875,-0.64268804,-0.3906973,-0.21416663,1002.16724, , , , 
2025-11-24 19:56:17.067,16.028622,-2.8465617,-0.47168517,-0.41865945,-0.4452313,2.445985,-17.7,49.3875,-5.625,-0.65512145,-0.37829244,-0.19772963,1002.16724, , , , 
2025-11-24 19:56:17.087,16.12912,-2.6551359,-0.3185445,-0.44064993,-0.27480492,2.1118517,-14.85,50.381252,-4.9125004,-0.66580045,-0.36618227,-0.18434651,1002.15967, , , , 
2025-11-24 19:56:17.107,16.13869,-2.5283163,-0.3400799,-0.37345675,-0.11476293,1.774664,-12.13125,51.112503,-4.3500004,-0.6747108,-0.35514838,-0.17423844,1002.15967, , , , 
2025-11-24 19:56:17.127,16.167406,-2.003989,-0.44057846,-0.26778015,0.06177193,1.4845115,-9.806251,51.975002,-3.8625002,-0.68152434,-0.3452284,-0.16691136,1002.1609, , , , 
2025-11-24 19:56:17.147,16.21287,-1.3405789,-0.5195416,-0.2152473,0.15958385,1.0330955,-8.118751,52.65,-3.6000001,-0.68639404,-0.33660433,-0.16236374,1002.1609, , , , 
2025-11-24 19:56:17.167,15.896717,-0.92183495,-0.3472584,-0.17859647,0.13453911,0.5560237,-6.39375,53.1375,-3.3750002,-0.69006157,-0.32938784,-0.16087827,1002.1575, , , , 
2025-11-24 19:56:17.187,15.4827585,-0.96729857,-0.24885355,-0.1376697,0.14492351,0.091092594,-5.4,53.362503,-3.0187502,-0.69100344,-0.3273529,-0.16266645,1002.1575, , , , 
2025-11-24 19:56:17.207,15.068501,-1.1419746,-0.11485548,-0.11995513,0.22189027,-0.32733777,-4.4812503,53.437504,-3.0937502,-0.690346,-0.32797447,-0.1669695,1002.1604, , , , 
2025-11-24 19:56:17.227,14.682958,-1.3190435,-0.021535404,-0.11384666,0.2701472,-0.7146149,-3.7875001,53.550003,-2.5500002,-0.68830454,-0.33058652,-0.17379126,1002.1604, , , , 
2025-11-24 19:56:17.247,13.974383,-1.6615162,0.29940194,-0.13033953,0.28786176,-1.1367104,-3.9562502,53.41875,-2.3812501,-0.6849533,-0.3354971,-0.1831438,1002.16797, , , , 
2025-11-24 19:56:17.267,13.133904,-2.1499512,0.68464637,-0.11506835,0.35200074,-1.5459781,-4.1062503,53.531254,-2.0812502,-0.6801522,-0.34275314,-0.19502561,1002.16797, , , , 
2025-11-24 19:56:17.287,12.262618,-2.774777,1.0055838,0.003436016,0.3654394,-1.9204274,-4.9125004,53.4,-1.6125001,-0.67356557,-0.35199195,-0.20933008,1002.1731, , , , 
2025-11-24 19:56:17.307,11.606686,-3.7181473,1.0630114,0.28205872,0.22250111,-2.2662432,-6.20625,52.875004,-2.0062501,-0.6623046,-0.36667457,-0.22885051,1002.1731, , , , 
2025-11-24 19:56:17.327,11.302498,-4.3405805,1.0175478,0.5667136,-0.04146126,-2.4494975,-7.55625,52.36875,-2.2875001,-0.65080124,-0.38154313,-0.2435307,1002.1731, , , , 
2025-11-24 19:56:17.347,11.510972,-4.793123,0.79471624,0.7823426,-0.32306185,-2.5814404,-9.39375,51.768753,-2.7375002,-0.63760173,-0.3993132,-0.2559567,1002.1731, , , , 
2025-11-24 19:56:17.367,11.604293,-5.0682974,0.6678966,0.8244911,-0.4000286,-2.7121618,-11.4375,51.15,-3.05625,-0.62307113,-0.41922513,-0.26677307,1002.16675, , , , 
2025-11-24 19:56:17.387,11.49153,-5.073083,0.6415756,0.75180024,-0.36459947,-2.7934046,-13.8,50.437504,-3.5625002,-0.6075879,-0.43993348,-0.27739897,1002.16675, , , , 
2025-11-24 19:56:17.407,10.924132,-5.077869,0.6750751,0.6174139,-0.19417307,-2.863652,-16.40625,49.781254,-3.7687502,-0.5915522,-0.46010354,-0.28882867,1002.1692, , , , 
2025-11-24 19:56:17.427,10.524531,-5.19751,0.84765744,0.47997323,-0.0060321167,-2.916185,-18.993752,48.937504,-4.3125,-0.5710112,-0.48318985,-0.30524012,1002.1692, , , , 
2025-11-24 19:56:17.447,10.105488,-5.1257253,0.92183495,0.43660307,0.12843063,-2.9253476,-21.675001,47.71875,-4.96875,-0.5540847,-0.4998994,-0.31977978,1002.1655, , , , 
2025-11-24 19:56:17.467,9.856635,-5.2238307,0.66071814,0.3657448,0.29763532,-2.8471591,-24.16875,46.18125,-5.4,-0.53675866,-0.51505417,-0.33476,1002.1655, , , , 
2025-11-24 19:56:17.487,9.964312,-5.2046885,0.392722,0.2521272,0.58900946,-2.7054424,-26.60625,44.662502,-5.7562504,-0.5194613,-0.5278553,-0.35015854,1002.16626, , , , 
2025-11-24 19:56:17.507,9.885348,-5.0180483,0.08853444,0.1421747,0.8138013,-2.6284757,-28.837502,42.975002,-5.9812503,-0.50212157,-0.5377891,-0.3664941,1002.16626, , , , 
2025-11-24 19:56:17.527,10.002597,-4.99412,-0.05742774,0.008322794,0.89870906,-2.5789971,-30.91875,41.4,-6.4687505,-0.48505756,-0.5455152,-0.38372296,1002.1692, , , , 
2025-11-24 19:56:17.547,10.024133,-5.2980084,-0.059820566,0.004046863,0.9194778,-2.5533416,-32.737503,39.768753,-7.0875,-0.4683504,-0.55194104,-0.40124983,1002.1692, , , , 
2025-11-24 19:56:17.567,10.024133,-6.023632,-0.2727818,0.050471254,0.79608667,-2.531351,-34.612503,37.706253,-7.70625,-0.44756296,-0.559423,-0.4222759,1002.1675, , , , 
2025-11-24 19:56:17.587,9.791729,-6.332306,-0.3999005,0.11468657,0.58778775,-2.4201767,-36.1875,35.625,-8.700001,-0.43158686,-0.5658812,-0.4372836,1002.1675, , , , 
2025-11-24 19:56:17.607,9.282058,-6.15763,-0.2970091,0.21486552,0.38865158,-2.2240949,-37.6875,33.5625,-9.5625,-0.41682178,-0.57275295,-0.4498637,1002.1682, , , , 
2025-11-24 19:56:17.627,8.692825,-5.762515,0.086141616,0.31870955,0.1797418,-2.078026,-39.075,31.48125,-10.012501,-0.40325806,-0.5802128,-0.45994782,1002.1682, , , , 
2025-11-24 19:56:17.647,8.635398,-6.114559,-0.18664017,0.5166241,0.20784079,-1.8966044,-40.143753,29.400002,-10.462501,-0.39030573,-0.58802295,-0.4679843,1002.16064, , , , 
2025-11-24 19:56:17.667,8.429615,-6.8518476,-1.0055838,0.6223006,0.39353836,-1.6840296,-41.23125,27.50625,-10.650001,-0.37708297,-0.59527034,-0.4742524,1002.16064, , , , 
2025-11-24 19:56:17.687,7.7904325,-7.1392856,-1.6208383,0.6455128,0.5358658,-1.3608913,-42.05625,25.875002,-10.650001,-0.36403424,-0.6009668,-0.47903848,1002.16797, , , , 
2025-11-24 19:56:17.707,7.036394,-7.359425,-2.42034,0.5166241,0.5554129,-0.90764266,-42.91875,24.150002,-11.118751,-0.3499505,-0.60570896,-0.48265418,1002.16797, , , , 
2025-11-24 19:56:17.727,5.95424,-6.882954,-2.707778,0.2557923,0.50593424,-0.33466795,-43.4625,22.800001,-11.6625,-0.34255734,-0.60696024,-0.48367333,1002.16064, , , , 
2025-11-24 19:56:17.747,5.5304112,-6.107381,-2.5354948,-0.03749075,0.27686653,0.2657949,-43.93125,21.6375,-12.093751,-0.34052104,-0.6056858,-0.48283175,1002.16064, , , , 
2025-11-24 19:56:17.767,5.638088,-5.2334023,-1.9824536,-0.23418356,-0.043904647,0.8290724,-44.34375,20.60625,-12.69375,-0.34428218,-0.60267544,-0.47993672,1002.1543, , , , 
2025-11-24 19:56:17.787,6.0020967,-4.4434714,-1.3597214,-0.26350424,-0.3071798,1.1931374,-44.1375,20.587502,-12.900001,-0.3526465,-0.59884953,-0.47479334,1002.1543, , , , 
2025-11-24 19:56:17.807,6.775277,-3.9311085,-0.95772725,-0.14316733,-0.4971533,1.4069339,-43.93125,21.09375,-13.181251,-0.36390105,-0.5950605,-0.46734753,1002.1538, , , , 
2025-11-24 19:56:17.827,7.5604224,-3.7109687,-1.0438689,-0.0051158457,-0.4867689,1.4606885,-43.706253,21.975,-13.481251,-0.37882945,-0.5910026,-0.45538914,1002.1538, , , , 
2025-11-24 19:56:17.847,7.764111,-3.9215372,-1.2257234,-0.008780929,-0.37437302,1.4136533,-43.050003,23.25,-13.275001,-0.38975924,-0.587723,-0.44533384,1002.1548, , , , 
2025-11-24 19:56:17.867,7.632506,-4.331009,-1.2640085,-0.09185616,-0.22715883,1.3837217,-42.75,24.243752,-13.012501,-0.39991364,-0.5836768,-0.43602896,1002.1548, , , , 
2025-11-24 19:56:17.887,7.0025954,-4.634897,-1.0773684,-0.13033953,-0.11476293,1.4729054,-42.46875,25.44375,-12.468751,-0.4098923,-0.57837063,-0.42748463,1002.1548, , , , 
2025-11-24 19:56:17.907,6.68435,-4.5559344,-0.9026923,-0.08758023,-0.086663954,1.7239636,-41.71875,26.5125,-11.793751,-0.420448,-0.5717674,-0.41846597,1002.1548, , , , 
2025-11-24 19:56:17.927,6.7058854,-4.35733,-0.96729857,-0.024662958,-0.100102596,1.9359276,-41.175003,27.7875,-11.83125,-0.4317998,-0.5642005,-0.40793082,1002.1565,37.88747477,127.74007702,144.9395751953125,1.1
2025-11-24 19:56:17.947,6.966703,-4.2281175,-1.1228321,0.0022143214,-0.14591613,2.098413,-40.2,29.437502,-11.793751,-0.4437637,-0.55604696,-0.39579213,1002.1565, , , , 
2025-11-24 19:56:17.967,7.306783,-4.23051,-1.3477573,-0.014278554,-0.17340426,2.2211933,-39.05625,30.806252,-11.55,-0.4563272,-0.5473981,-0.38238728,1002.15845, , , , 
2025-11-24 19:56:17.987,7.792825,-4.342973,-1.5681962,-0.10162971,-0.18012358,2.3470278,-37.78125,32.625,-11.4375,-0.4728772,-0.53561187,-0.36454368,1002.15845, , , , 
2025-11-24 19:56:18.007,8.329117,-4.5798626,-1.7835501,-0.24945475,-0.18012358,2.4453743,-36.0,34.162502,-10.950001,-0.48700413,-0.5250323,-0.34993696,1002.1587, , , , 
2025-11-24 19:56:18.027,8.937193,-4.8266225,-1.8625133,-0.4504235,-0.21982865,2.5522726,-34.48125,35.643753,-10.63125,-0.50234884,-0.51331913,-0.3353036,1002.1587, , , , 
2025-11-24 19:56:18.047,9.782158,-5.171189,-1.7835501,-0.6794912,-0.29435202,2.6970434,-32.737503,37.18125,-10.556251,-0.5193378,-0.50034034,-0.3205815,1002.1572, , , , 
2025-11-24 19:56:18.067,10.883454,-5.3629136,-1.3812568,-0.9018396,-0.43973368,2.8931253,-31.143751,38.60625,-10.35,-0.53833634,-0.4861345,-0.30535802,1002.1572, , , , 
2025-11-24 19:56:18.087,11.697613,-5.192724,-0.7851449,-1.0050728,-0.51242447,3.0244575,-29.400002,40.706253,-9.95625,-0.55884683,-0.47076643,-0.28947863,1002.1643, , , , 
2025-11-24 19:56:18.107,12.339189,-4.79073,-0.27756742,-1.0075161,-0.5576272,3.0843205,-27.243752,42.7125,-9.09375,-0.57981694,-0.45450488,-0.2730398,1002.1643, , , , 
2025-11-24 19:56:18.127,13.210773,-4.709075,-0.076570325,-0.896342,-0.5386909,3.0372853,-25.143751,44.775,-8.2875,-0.6000783,-0.4379037,-0.25623742,1002.1621, , , , 
2025-11-24 19:56:18.147,14.053347,-5.2046885,-0.2632105,-0.83281386,-0.3481066,2.8515878,-22.650002,46.7625,-7.1625004,-0.622785,-0.4172933,-0.2358625,1002.1621, , , , 
2025-11-24 19:56:18.167,14.182559,-5.745765,-0.41904306,-0.7839461,-0.06467345,2.6011403,-20.493752,48.15,-6.05625,-0.6382838,-0.40076402,-0.22204821,1002.16504, , , , 
2025-11-24 19:56:18.187,13.416556,-6.04756,-0.28743783,-0.6862105,0.22677705,2.358634,-18.206251,49.256252,-5.11875,-0.6514049,-0.38389838,-0.21118785,1002.16504, , , , 
2025-11-24 19:56:18.207,12.679268,-6.181558,-0.25842485,-0.60741127,0.34833565,2.246238,-15.806251,50.175003,-4.2937503,-0.662612,-0.36676607,-0.20231165,1002.16406, , , , 
2025-11-24 19:56:18.227,11.853146,-5.8486567,-0.22253251,-0.56648445,0.43202174,2.1808774,-13.481251,50.943752,-3.825,-0.67253643,-0.349536,-0.19434643,1002.16406, , , , 
2025-11-24 19:56:18.247,12.066406,-5.8630137,-0.4860421,-0.56709534,0.4369085,2.0861962,-11.3625,51.43125,-3.15,-0.6816525,-0.33232227,-0.1870577,1002.1631, , , , 
2025-11-24 19:56:18.267,12.379867,-5.5686965,-1.1084751,-0.580534,0.4717268,2.0196137,-9.075001,51.881252,-2.79375,-0.69019836,-0.31566352,-0.1804001,1002.1631, , , , 
2025-11-24 19:56:18.287,13.035799,-4.761717,-1.4198412,-0.60741127,0.3837648,1.9389819,-6.8250003,52.443752,-2.4,-0.7004451,-0.2952507,-0.17292534,1002.1699, , , , 
2025-11-24 19:56:18.307,13.8499565,-3.897609,-1.4724833,-0.6196282,0.16324893,1.754506,-4.5750003,52.48125,-1.6875001,-0.7084699,-0.28060374,-0.16714962,1002.1699, , , , 
2025-11-24 19:56:18.327,14.4795685,-2.9877381,-1.2544373,-0.62818,-0.10560022,1.5132214,-2.4750001,52.55625,-1.06875,-0.7160886,-0.26889032,-0.16138135,1002.16846, , , , 
2025-11-24 19:56:18.347,14.826528,-2.0422742,-0.7181459,-0.61290884,-0.36704284,1.1338853,-0.75,52.7625,-0.09375,-0.7231849,-0.2606894,-0.1556914,1002.16846, , , , 
2025-11-24 19:56:18.367,14.908182,-1.4724833,-0.08853444,-0.5487699,-0.49348822,0.6922427,0.63750005,52.593754,0.69375,-0.72922564,-0.25641772,-0.1509436,1002.1782, , , , 
2025-11-24 19:56:18.387,14.881862,-1.2209377,0.56500524,-0.3795652,-0.4660001,0.1259109,1.5562501,52.725002,1.21875,-0.7335482,-0.2560882,-0.14818893,1002.1782, , , , 
2025-11-24 19:56:18.407,14.481961,-1.3286148,0.7325028,-0.17615308,-0.2216612,-0.41102386,2.53125,52.893753,1.7437501,-0.73529524,-0.26053047,-0.14915718,1002.17944, , , , 
2025-11-24 19:56:18.427,13.653446,-1.50359,0.7109674,0.03642177,0.08261709,-0.9956047,2.90625,53.025,1.8000001,-0.7332653,-0.26700655,-0.15502281,1002.17944, , , , 
2025-11-24 19:56:18.447,12.67209,-2.3198416,0.48364928,0.26800925,0.23532891,-1.5478106,2.9437501,53.100002,1.95,-0.72812223,-0.27604178,-0.16539662,1002.1792, , , , 
2025-11-24 19:56:18.467,11.903396,-3.557529,0.2105684,0.53739285,0.08872557,-2.0206063,2.2125,53.156254,2.025,-0.7202312,-0.28816244,-0.17824328,1002.1792, , , , 
2025-11-24 19:56:18.487,11.563615,-4.4985065,0.20817557,0.75668705,-0.21799612,-2.3102243,1.06875,53.025,1.5937501,-0.71022916,-0.30395374,-0.19092925,1002.1804, , , , 
2025-11-24 19:56:18.507,11.455638,-5.1496534,0.18424734,0.9271134,-0.5295282,-2.499587,-0.375,53.156254,1.1812501,-0.6985122,-0.32340753,-0.20197684,1002.1804, , , , 
2025-11-24 19:56:18.527,11.592328,-5.5256257,0.086141616,0.98819816,-0.72805357,-2.655353,-2.4750001,52.893753,0.6,-0.6855052,-0.3458324,-0.21115902,1002.1721, , , , 
2025-11-24 19:56:18.547,11.513365,-5.7338014,0.12203395,0.9332219,-0.77020204,-2.8453264,-4.8,52.612503,-0.28125,-0.6678128,-0.37637427,-0.22180232,1002.1721, , , , 
2025-11-24 19:56:18.567,11.288141,-5.982954,0.16031912,0.7731799,-0.71094984,-3.0212505,-7.14375,52.312504,-1.4250001,-0.65281814,-0.40159276,-0.23120414,1002.17017, , , , 
2025-11-24 19:56:18.587,10.92174,-6.4208403,0.15792629,0.48608172,-0.5564055,-3.1012716,-9.7875,51.54375,-2.0062501,-0.6375165,-0.42630935,-0.24228019,1002.17017, , , , 
2025-11-24 19:56:18.607,10.687243,-6.4471617,0.5051847,0.15439165,-0.31756422,-3.1018825,-12.525001,51.16875,-2.53125,-0.6228236,-0.4490176,-0.2554516,1002.17163, , , , 
2025-11-24 19:56:18.627,10.488639,-6.3275204,0.9194421,-0.031993125,-0.033520244,-3.1281488,-15.31875,50.325,-2.7,-0.6085308,-0.46886244,-0.2712502,1002.17163, , , , 
2025-11-24 19:56:18.647,10.225129,-6.320342,1.393221,0.059633963,0.11987878,-3.206948,-18.150002,49.350002,-2.49375,-0.5936524,-0.48644724,-0.2891019,1002.1809, , , , 
2025-11-24 19:56:18.667,9.830314,-6.3083777,1.5179468,0.37185326,0.037948888,-3.3016295,-21.112501,47.98125,-2.7562501,-0.57271,-0.5080913,-0.31131774,1002.1809, , , , 
2025-11-24 19:56:18.687,9.770194,-6.521638,0.7827521,0.53433865,0.158973,-3.1996179,-23.775002,46.331253,-2.7375002,-0.5538635,-0.5260708,-0.32693693,1002.17993, , , , 
2025-11-24 19:56:18.707,9.964312,-6.660422,0.12921242,0.5392254,0.5493044,-2.9870431,-26.081251,44.49375,-3.0,-0.5338566,-0.5418974,-0.3418581,1002.17993, , , , 
2025-11-24 19:56:18.727,10.565209,-7.02443,-0.86201435,0.46653458,0.94146836,-2.7585862,-28.875002,42.393753,-3.45,-0.51350254,-0.55393076,-0.3571972,1002.1687, , , , 
2025-11-24 19:56:18.747,11.072786,-6.792027,-1.8146569,0.34741938,1.2810994,-2.5374596,-31.06875,40.443752,-4.3875003,-0.49337408,-0.5622243,-0.37325084,1002.1687, , , , 
2025-11-24 19:56:18.767,11.022537,-6.387341,-2.300699,0.22158484,1.3195828,-2.4574385,-33.24375,38.268753,-5.4,-0.47377086,-0.5677818,-0.38973898,1002.1692, , , , 
2025-11-24 19:56:18.787,10.043275,-6.183951,-2.1260228,0.0071010995,1.0892934,-2.4666011,-35.4375,36.2625,-6.6000004,-0.455178,-0.5725594,-0.40624735,1002.1692, , , , 
2025-11-24 19:56:18.807,9.53809,-6.329913,-1.4365909,-0.012446013,0.6940752,-2.4171226,-36.825,34.518753,-7.55625,-0.43851218,-0.5775605,-0.4223274,1002.17163, , , , 
2025-11-24 19:56:18.827,9.31795,-7.1010003,-1.1826526,0.23991026,0.42041564,-2.2833471,-38.287502,32.7,-8.325001,-0.4198427,-0.585431,-0.4393768,1002.17163, , , , 
2025-11-24 19:56:18.847,8.719446,-7.2589264,-1.2855439,0.5276193,0.3086306,-2.0151088,-39.46875,31.10625,-9.0,-0.4055478,-0.59292734,-0.4489701,1002.1592, , , , 
2025-11-24 19:56:18.867,8.103892,-6.971489,-1.5801603,0.71820366,0.28602922,-1.6369942,-40.65,29.456251,-9.356251,-0.39184755,-0.60064137,-0.45496958,1002.1592, , , , 
2025-11-24 19:56:18.887,7.3283186,-6.34427,-2.12363,0.7188145,0.3892624,-1.2527714,-41.49375,27.750002,-9.84375,-0.37918258,-0.6074058,-0.4583453,1002.1633, , , , 
2025-11-24 19:56:18.907,6.9475603,-5.95424,-2.3940191,0.5789305,0.45523393,-0.8728244,-42.43125,26.212502,-10.275001,-0.3682947,-0.6121749,-0.46012098,1002.1633, , , , 
2025-11-24 19:56:18.927,6.4666033,-5.697909,-2.626422,0.39995223,0.5114319,-0.4928774,-43.125,24.6375,-10.950001,-0.36000523,-0.614668,-0.4610138,1002.16724,37.88748427,127.74006654,145.0650634765625,1.27
2025-11-24 19:56:18.947,5.793622,-5.0922256,-2.5570302,0.17088452,0.47539186,-0.051845662,-43.21875,23.60625,-11.7375,-0.3538943,-0.6145182,-0.46106738,1002.16724, , , , 
2025-11-24 19:56:18.967,5.590232,-4.642076,-2.2983062,0.012598725,0.3153499,0.2798444,-43.55625,22.931252,-12.468751,-0.35297063,-0.6125287,-0.45999035,1002.17236, , , , 
2025-11-24 19:56:18.987,5.6787663,-4.354937,-1.9992033,-0.05581617,0.114992,0.5236488,-43.65,22.3875,-12.88125,-0.3552291,-0.6098427,-0.45768425,1002.17236, , , , 
2025-11-24 19:56:19.007,5.9805613,-4.3262234,-1.7787645,-0.06375718,-0.118428014,0.6757498,-43.21875,22.29375,-13.25625,-0.3598801,-0.60734046,-0.4539272,1002.1726, , , , 
2025-11-24 19:56:19.027,6.370591,-4.558327,-1.6304095,-0.049707696,-0.29618457,0.8205206,-43.237503,22.44375,-13.425,-0.36626172,-0.60539937,-0.44875094,1002.1726, , , , 
2025-11-24 19:56:19.047,6.4256263,-4.5248275,-1.5658033,-0.053372778,-0.28702185,0.98300594,-42.9375,22.706251,-13.293751,-0.37384135,-0.6034532,-0.44239798,1002.1782, , , , 
2025-11-24 19:56:19.067,6.222236,-4.4195433,-1.5418751,-0.12850699,-0.14225106,1.1680927,-42.61875,23.4375,-13.05,-0.38215896,-0.60046184,-0.4353981,1002.1782, , , , 
2025-11-24 19:56:19.087,5.8677993,-4.371687,-1.3980067,-0.2916032,0.04161397,1.3941061,-42.75,24.4125,-12.675,-0.3936445,-0.59386945,-0.42676848,1002.167, , , , 
2025-11-24 19:56:19.107,5.688338,-4.388437,-1.1730813,-0.40460995,0.103996746,1.6219522,-42.35625,25.218752,-12.281251,-0.4043162,-0.5861147,-0.41997716,1002.167, , , , 
2025-11-24 19:56:19.127,5.745765,-4.4075794,-0.9385847,-0.4388174,0.03489465,1.8455223,-41.8875,26.550001,-12.20625,-0.41664824,-0.57687825,-0.41243494,1002.1631, , , , 
2025-11-24 19:56:19.147,5.8749776,-4.412365,-0.60807604,-0.356353,-0.11781716,2.0764225,-41.175003,27.675001,-12.20625,-0.43053582,-0.5670593,-0.40319178,1002.1631, , , , 
2025-11-24 19:56:19.167,6.3179493,-4.536792,-0.64636123,-0.2268534,-0.22715883,2.3103771,-40.050003,29.1375,-11.925,-0.44547975,-0.5571521,-0.39140773,1002.15894, , , , 
2025-11-24 19:56:19.187,7.103393,-4.74736,-1.0199406,-0.16943376,-0.25220355,2.5455532,-38.9625,30.825,-11.90625,-0.46098316,-0.5468658,-0.37721694,1002.15894, , , , 
2025-11-24 19:56:19.207,7.8646097,-5.0539403,-1.5346966,-0.24701136,-0.20089239,2.7080386,-37.96875,32.53125,-11.587501,-0.4769786,-0.5355651,-0.3615393,1002.1609, , , , 
2025-11-24 19:56:19.227,9.152547,-5.748158,-2.111666,-0.43087637,-0.32978117,2.9138942,-36.506252,34.59375,-11.306251,-0.4984863,-0.51947606,-0.34093416,1002.1609, , , , 
2025-11-24 19:56:19.247,9.978668,-5.8920264,-2.0422742,-0.6068004,-0.5295282,3.1796126,-34.987503,36.61875,-11.08125,-0.5181879,-0.50543815,-0.3228618,1002.1616, , , , 
2025-11-24 19:56:19.267,11.053644,-5.8630137,-1.4988043,-0.7417976,-0.8166264,3.431358,-33.15,38.68125,-10.575001,-0.54028285,-0.49038142,-0.30273876,1002.1616, , , , 
2025-11-24 19:56:19.287,12.410973,-6.14088,-0.85483587,-0.8468634,-0.99743724,3.5755181,-30.825,40.725002,-10.05,-0.5638891,-0.47490618,-0.2806606,1002.16626, , , , 
2025-11-24 19:56:19.307,13.766208,-6.372984,-0.38315073,-0.89939624,-0.8581641,3.6720319,-28.425001,42.73125,-9.168751,-0.58759356,-0.45851853,-0.25770697,1002.16626, , , , 
2025-11-24 19:56:19.327,14.694922,-6.5958157,-0.02632105,-0.95131826,-0.40369368,3.6463764,-25.800001,44.7,-8.231251,-0.6100307,-0.4398552,-0.23576383,1002.16187, , , , 
2025-11-24 19:56:19.348,14.98236,-6.43759,0.35443684,-0.8786274,0.050165832,3.4710631,-22.95,46.74375,-7.2375,-0.6349292,-0.41265672,-0.21298891,1002.16187, , , , 
2025-11-24 19:56:19.367,15.039787,-6.305985,0.2321038,-0.69292986,0.28114244,3.3049128,-19.96875,48.225002,-6.0937505,-0.6517399,-0.38948298,-0.19782941,1002.16675, , , , 
2025-11-24 19:56:19.387,15.286248,-6.198308,-0.15553348,-0.5493808,0.41308546,3.1295233,-16.66875,49.593754,-5.11875,-0.6658343,-0.3662409,-0.18427244,1002.16675, , , , 
2025-11-24 19:56:19.407,15.726827,-5.8558354,-0.8883354,-0.4736357,0.46622917,2.935274,-13.5375,50.756252,-4.33125,-0.677822,-0.34371823,-0.17199948,1002.16724, , , , 
2025-11-24 19:56:19.427,16.095621,-5.0970116,-1.2568301,-0.47852248,0.43080002,2.6438997,-10.125,51.506252,-3.3375,-0.68828887,-0.32252944,-0.16120458,1002.16724, , , , 
2025-11-24 19:56:19.447,16.366009,-4.316652,-1.3070793,-0.5145625,0.27197975,2.329924,-7.0687504,52.350002,-2.8312502,-0.6977304,-0.3035165,-0.15184818,1002.17236, , , , 
2025-11-24 19:56:19.467,16.511972,-3.5288153,-1.2017952,-0.5695387,0.17852011,1.9377602,-4.51875,52.65,-2.3812501,-0.7062483,-0.28765765,-0.14382826,1002.17236, , , , 
2025-11-24 19:56:19.487,16.380367,-2.9590242,-0.91465646,-0.61290884,0.17485502,1.4832898,-2.2687502,52.74375,-1.95,-0.71370566,-0.27501172,-0.13810764,1002.1682, , , , 
2025-11-24 19:56:19.507,15.83929,-2.4514468,-0.4334,-0.5328879,0.14064758,0.9457443,-0.3,53.156254,-1.81875,-0.7211271,-0.2635747,-0.13511527,1002.1682, , , , 
2025-11-24 19:56:19.527,15.456438,-2.1284158,-0.124426775,-0.33558422,0.024510246,0.4569901,1.40625,52.93125,-1.4250001,-0.72489965,-0.25846815,-0.13532864,1002.16187, , , , 
2025-11-24 19:56:19.547,14.963218,-1.7883358,-0.06699903,-0.14438902,-0.02741177,-0.08544226,2.7562501,53.04375,-0.84375006,-0.72623825,-0.25778157,-0.13737208,1002.16187, , , , 
2025-11-24 19:56:19.568,13.658232,-1.5873387,-0.040677983,-0.07597413,0.11682454,-0.78302985,3.7687502,53.325,-0.22500001,-0.725188,-0.26139268,-0.14229678,1002.1599, , , , 
2025-11-24 19:56:19.587,12.353545,-2.1379871,0.076570325,-0.13278292,0.326956,-1.3957096,4.125,53.025,0.1875,-0.7221655,-0.2684707,-0.15169512,1002.1599, , , , 
2025-11-24 19:56:19.607,11.170893,-3.3086755,0.32333016,-0.08574768,0.4705051,-1.8990477,3.825,53.2125,0.39375,-0.71749556,-0.2780019,-0.16575667,1002.1626, , , , 
2025-11-24 19:56:19.627,10.002597,-4.436293,0.5075775,0.15439165,0.39414918,-2.1856115,2.90625,53.23125,0.3,-0.710794,-0.2895185,-0.18260367,1002.1626, , , , 
2025-11-24 19:56:19.647,9.073584,-5.168796,0.5985048,0.51784575,0.041003123,-2.2265382,1.3875,53.062504,0.15,-0.6996693,-0.306744,-0.20226027,1002.16943, , , , 
2025-11-24 19:56:19.667,8.879765,-5.221438,0.55782676,0.8171609,-0.41346723,-2.141554,-0.69375,52.987503,-0.056250002,-0.68931836,-0.32309878,-0.21365027,1002.16943, , , , 
2025-11-24 19:56:19.687,9.219545,-4.9606204,0.52193445,1.0071344,-0.834341,-2.0810802,-2.68125,52.912502,-0.3,-0.6783181,-0.34198198,-0.2204161,1002.16504, , , , 
2025-11-24 19:56:19.707,9.660124,-4.7835517,0.5075775,1.0578347,-1.1513708,-2.1831682,-4.65,52.968754,-0.90000004,-0.66681683,-0.36334926,-0.22407499,1002.16504, , , , 
2025-11-24 19:56:19.727,10.37827,-4.6779685,0.54346985,0.9472714,-1.3046933,-2.3572595,-6.6000004,52.74375,-1.6125001,-0.65489846,-0.38698944,-0.22650693,1002.16235, , , , 
2025-11-24 19:56:19.747,10.861919,-4.915157,0.3592225,0.6931589,-1.0542461,-2.6070962,-8.8125,52.237503,-2.30625,-0.64240247,-0.41191128,-0.22993082,1002.16235, , , , 
2025-11-24 19:56:19.767,10.99861,-5.535197,0.3711866,0.31565532,-0.542356,-2.903357,-10.9875,51.787502,-3.1875002,-0.629089,-0.43581507,-0.23743507,1002.1653, , , , 
2025-11-24 19:56:19.787,10.665708,-6.155237,0.44536412,-0.01977618,-0.1300341,-3.0365217,-13.368751,51.093754,-3.6750002,-0.615145,-0.45726106,-0.25009868,1002.1653, , , , 
2025-11-24 19:56:19.807,10.696815,-6.4232335,0.40947178,-0.30076593,0.30618718,-3.0517929,-15.8625,50.1375,-4.14375,-0.59768474,-0.47955078,-0.27164665,1002.16846, , , , 
2025-11-24 19:56:19.827,10.725529,-6.6053867,0.5482555,-0.49257195,0.7203416,-3.1000497,-18.45,48.956253,-4.21875,-0.58352077,-0.49333274,-0.2928443,1002.16846, , , , 
2025-11-24 19:56:19.847,10.328021,-6.9882383,0.45732823,-0.62451494,1.1509889,-3.07134,-21.243752,47.737503,-3.8437502,-0.56853086,-0.50373363,-0.317067,1002.1653, , , , 
2025-11-24 19:56:19.867,10.897812,-7.7760754,0.34486556,-0.5811448,1.4234269,-2.9296234,-23.8875,46.237503,-3.6562502,-0.5530876,-0.5106212,-0.34296122,1002.1653, , , , 
2025-11-24 19:56:19.887,11.49153,-8.041678,-0.04546363,-0.2989334,1.4722946,-2.7310982,-26.79375,44.5875,-3.5812502,-0.5371296,-0.51522154,-0.36811116,1002.16064, , , , 
2025-11-24 19:56:19.907,11.156535,-7.637292,-0.5721837,-0.03993414,1.4777923,-2.5625043,-28.875002,43.36875,-3.9750001,-0.52028596,-0.5190918,-0.39055654,1002.16064, , , , 
2025-11-24 19:56:19.927,10.747064,-7.656434,-0.6367899,0.010155336,1.3171394,-2.508139,-31.125002,41.325,-4.5750003,-0.49853286,-0.52416164,-0.41521454,1002.1631,37.88749537,127.74005621,145.90087890625,1.37
2025-11-24 19:56:19.947,10.64178,-8.235796,-0.7923234,0.1317903,1.3641746,-2.5038629,-33.1875,39.412502,-5.25,-0.48109582,-0.52832043,-0.4335486,1002.1631, , , , 
2025-11-24 19:56:19.967,9.772587,-8.589934,-1.015155,0.37124243,1.402658,-2.4977543,-34.78125,37.48125,-6.0750003,-0.46243218,-0.53234994,-0.45104098,1002.16846, , , , 
2025-11-24 19:56:19.988,9.075976,-9.068798,-1.5227325,0.6577298,1.218793,-2.3743632,-36.46875,35.737503,-7.1062503,-0.44283566,-0.5371458,-0.46622664,1002.16846, , , , 
2025-11-24 19:56:20.007,8.573184,-9.533304,-2.530709,0.75668705,0.9078717,-2.0560355,-37.912502,33.99375,-8.231251,-0.42391956,-0.543339,-0.47754732,1002.1653, , , , 
2025-11-24 19:56:20.027,7.0172515,-8.853444,-2.9446673,0.56182677,0.7496623,-1.5966784,-39.131252,32.025,-9.4875,-0.40761292,-0.5493995,-0.4854546,1002.1653, , , , 
2025-11-24 19:56:20.047,5.2070813,-7.278069,-2.7149563,0.19470756,0.5835118,-0.9833877,-39.9375,30.2625,-10.725,-0.39563254,-0.5531951,-0.49110967,1002.1592, , , , 
2025-11-24 19:56:20.067,4.249653,-5.81755,-1.8816559,-0.1828724,0.41003123,-0.24792764,-40.7625,28.25625,-11.587501,-0.38886276,-0.55335593,-0.4956203,1002.1592, , , , 
2025-11-24 19:56:20.087,4.627719,-4.7835517,-1.0295119,-0.24090289,0.34955734,0.28412032,-41.193752,27.000002,-12.431251,-0.38880166,-0.5510615,-0.49694943,1002.16064, , , , 
2025-11-24 19:56:20.107,5.6213384,-4.304688,-0.42622152,0.03581092,0.23838314,0.59267455,-41.643753,26.41875,-12.937501,-0.39198142,-0.5454002,-0.49632028,1002.16064, , , , 
2025-11-24 19:56:20.127,6.3179493,-4.254439,-0.5099703,0.46348035,0.08689302,0.6372664,-41.71875,26.1,-13.387501,-0.3947557,-0.54207456,-0.49265248,1002.1621, , , , 
2025-11-24 19:56:20.147,6.4761744,-4.249653,-1.3310076,0.7951704,-0.022524992,0.57679254,-41.643753,26.306252,-13.856251,-0.39596123,-0.5415252,-0.4861786,1002.1621, , , , 
2025-11-24 19:56:20.167,6.0978093,-4.4482574,-1.9800607,0.8532009,-0.106211066,0.57434916,-41.23125,26.437502,-14.062501,-0.39575616,-0.54314756,-0.47788265,1002.1719, , , , 
2025-11-24 19:56:20.187,5.6069818,-4.5798626,-2.3581266,0.7316423,-0.18623206,0.69346434,-40.706253,26.60625,-14.400001,-0.39593208,-0.5452645,-0.468684,1002.1719, , , , 
2025-11-24 19:56:20.207,5.2549376,-4.551149,-2.3772693,0.50196373,-0.32367268,0.91031516,-40.40625,27.281252,-14.512501,-0.39886275,-0.5469048,-0.4563873,1002.16797, , , , 
2025-11-24 19:56:20.227,5.250152,-4.45065,-2.152344,0.28877804,-0.47027603,1.1027321,-39.975002,27.562502,-14.493751,-0.40426263,-0.5470869,-0.4459141,1002.16797, , , , 
2025-11-24 19:56:20.247,5.348557,-4.3764725,-1.934298,0.09636115,-0.57900685,1.2878188,-39.84375,28.312502,-14.6625,-0.4122672,-0.5463495,-0.43492928,1002.16406, , , , 
2025-11-24 19:56:20.267,5.640481,-4.56072,-1.6639091,-0.19203511,-0.5692333,1.5413203,-39.581253,29.156252,-14.681251,-0.4225986,-0.54410565,-0.4236182,1002.16406, , , , 
2025-11-24 19:56:20.287,6.073881,-4.694718,-1.3238292,-0.38933876,-0.53930175,1.7923785,-39.1875,29.94375,-14.681251,-0.43533733,-0.5395456,-0.41230977,1002.1736, , , , 
2025-11-24 19:56:20.307,6.674779,-4.8385863,-1.041476,-0.49135026,-0.53258246,2.04588,-38.5875,31.06875,-14.587501,-0.4501575,-0.5327982,-0.40056363,1002.1736, , , , 
2025-11-24 19:56:20.327,7.6851482,-4.965406,-1.041476,-0.5218926,-0.58267194,2.2645636,-37.78125,32.41875,-13.781251,-0.46654075,-0.52438235,-0.38776898,1002.17114, , , , 
2025-11-24 19:56:20.347,9.092726,-4.9869413,-1.1491531,-0.5530458,-0.6950678,2.453926,-36.80625,33.825,-13.33125,-0.4886538,-0.51261634,-0.36971313,1002.17114, , , , 
2025-11-24 19:56:20.367,10.419247,-4.857729,-1.1036894,-0.5744255,-0.8282325,2.5321145,-35.53125,35.287502,-12.450001,-0.50725317,-0.5028571,-0.35382104,1002.1704, , , , 
2025-11-24 19:56:20.387,11.170893,-4.5128636,-0.83778703,-0.5561001,-0.834341,2.5809824,-34.2,37.237503,-11.306251,-0.5259643,-0.49302736,-0.33718422,1002.1704, , , , 
2025-11-24 19:56:20.407,11.817254,-4.2185464,-0.62721866,-0.4907394,-0.6620821,2.6530623,-32.643753,38.9625,-10.668751,-0.5439037,-0.48238695,-0.32032225,1002.1726, , , , 
2025-11-24 19:56:20.427,12.882658,-4.3262234,-1.0223335,-0.5212818,-0.42751673,2.6793287,-30.825,40.631252,-9.50625,-0.56066525,-0.4703353,-0.30377147,1002.1726, , , , 
2025-11-24 19:56:20.447,14.086846,-4.4458647,-1.5179468,-0.6379536,-0.1880646,2.6280177,-28.85625,42.3375,-8.6625,-0.5765283,-0.45672902,-0.28856096,1002.1748, , , , 
2025-11-24 19:56:20.467,14.364713,-4.2014976,-1.9582262,-0.8059366,0.16508147,2.5235627,-26.8875,43.800003,-8.212501,-0.5915569,-0.4414849,-0.27569827,1002.1748, , , , 
2025-11-24 19:56:20.487,14.338391,-4.4578285,-2.2002003,-1.199933,0.44484952,2.18271,-24.900002,45.05625,-7.65,-0.6093453,-0.42026702,-0.26483473,1002.1741, , , , 
2025-11-24 19:56:20.507,13.406985,-5.128118,-1.9247267,-1.7020495,0.6678088,1.8339162,-22.6875,46.518753,-6.8812504,-0.6237299,-0.40279508,-0.26152804,1002.1741, , , , 
2025-11-24 19:56:20.527,12.296118,-6.131309,-1.3310076,-2.151633,0.890768,1.694643,-20.550001,47.850002,-5.8875003,-0.6390375,-0.38391092,-0.26290718,1002.1709, , , , 
2025-11-24 19:56:20.548,11.745469,-7.091429,-1.0127622,-2.4417856,1.0263761,1.8809514,-18.65625,48.768753,-4.5750003,-0.6557826,-0.36239177,-0.26677713,1002.1709, , , , 
2025-11-24 19:56:20.567,12.5138645,-7.053144,-0.933799,-2.4259036,0.8877138,2.1436157,-16.706251,49.8375,-3.0937502,-0.67375225,-0.33785903,-0.2703758,1002.1697, , , , 
2025-11-24 19:56:20.587,13.710874,-6.4160547,-0.948156,-2.2469254,0.41430715,2.318929,-14.925,50.5125,-1.5,-0.6922296,-0.3125729,-0.2712135,1002.1697, , , , 
2025-11-24 19:56:20.607,14.9967165,-4.54397,-0.5554339,-1.9598271,-0.22715883,2.2718937,-13.368751,50.850002,0.15,-0.7149553,-0.28438604,-0.26617733,1002.1682, , , , 
2025-11-24 19:56:20.627,15.362819,-2.8633113,0.20338993,-1.720375,-0.73965967,1.9176023,-11.231251,51.206253,2.34375,-0.7317349,-0.2673031,-0.25841442,1002.1682, , , , 
2025-11-24 19:56:20.647,14.771492,-1.7620147,0.8644072,-1.5365099,-0.9681165,1.4063231,-9.1875,51.412502,4.36875,-0.7463992,-0.25628754,-0.24968192,1002.17065, , , , 
2025-11-24 19:56:20.667,13.8092785,-1.3597214,1.5586249,-1.3715812,-0.7885274,0.82662904,-7.3125005,51.43125,6.20625,-0.75849766,-0.25011542,-0.24253848,1002.17065, , , , 
2025-11-24 19:56:20.687,12.279367,-1.2999009,2.0231316,-1.1431243,-0.3212293,0.3922403,-5.64375,51.581253,8.2875,-0.7674896,-0.24654521,-0.23931587,1002.1765, , , , 
2025-11-24 19:56:20.707,11.259427,-1.3716856,2.1858435,-0.77905935,0.14981028,-0.0023670332,-4.2937503,51.61875,9.5625,-0.7728615,-0.24394801,-0.24110994,1002.1765, , , , 
2025-11-24 19:56:20.727,10.79492,-1.7835501,1.9223338,-0.2928249,0.45401222,-0.3548259,-3.5062501,51.43125,10.6875,-0.77435714,-0.24247539,-0.247126,1002.1741, , , , 
2025-11-24 19:56:20.747,10.804492,-2.2360928,1.0438689,0.2081462,0.54563934,-0.64986515,-3.0375001,51.35625,11.775001,-0.77204907,-0.24304648,-0.25552133,1002.1741, , , , 
2025-11-24 19:56:20.767,11.166107,-2.3102703,-0.0071784677,0.6418477,0.3837648,-0.98888534,-3.0,51.15,12.13125,-0.76509225,-0.24816477,-0.2665072,1002.17236, , , , 
2025-11-24 19:56:20.787,11.472388,-2.487339,-0.73011,0.88557583,0.1809635,-1.3718866,-3.4875002,51.24375,12.356251,-0.75722134,-0.25702232,-0.27469546,1002.17236, , , , 
2025-11-24 19:56:20.807,11.118251,-2.7532415,-1.204188,0.95582324,0.035505496,-1.8165834,-4.1062503,51.131252,12.31875,-0.7478175,-0.27035618,-0.28279746,1002.1753, , , , 
2025-11-24 19:56:20.827,10.416854,-3.2153554,-1.3764713,0.85381174,0.014125843,-2.0969622,-5.175,51.037502,11.56875,-0.73737794,-0.2870106,-0.29152086,1002.1753, , , , 
2025-11-24 19:56:20.847,10.028918,-3.9335012,-1.7548363,0.5673244,0.28236416,-2.227149,-6.3187504,50.812504,10.70625,-0.72645813,-0.3048507,-0.30151883,1002.17114, , , , 
2025-11-24 19:56:20.867,9.847063,-4.436293,-1.934298,0.19898349,0.6531484,-2.2259274,-8.1,50.7,9.8625,-0.7155577,-0.3208241,-0.31442606,1002.17114, , , , 
2025-11-24 19:56:20.887,9.849456,-4.749753,-1.9007984,-0.12239852,0.9976663,-2.1586578,-9.993751,50.531254,9.056251,-0.7051915,-0.33332798,-0.33038878,1002.17505, , , , 
2025-11-24 19:56:20.907,9.679267,-4.9462633,-1.7739788,-0.27449948,1.178477,-2.1770597,-12.093751,50.381252,8.512501,-0.6926313,-0.34479198,-0.35367212,1002.17505, , , , 
2025-11-24 19:56:20.927,9.820743,-5.219045,-1.8098712,-0.36246148,1.2676607,-2.1819465,-14.45625,49.7625,8.15625,-0.6824711,-0.35220236,-0.37371603,1002.1699,37.88750624,127.74004747,145.7498779296875,1.26
2025-11-24 19:56:20.947,9.679267,-5.331807,-1.8553349,-0.42110282,1.4222051,-2.1898875,-16.650002,48.6375,7.7812505,-0.6719458,-0.35850403,-0.39438152,1002.1699, , , , 
2025-11-24 19:56:20.967,9.602696,-5.532804,-1.6950158,-0.42171368,1.5394878,-2.2405877,-18.88125,47.643753,7.6312504,-0.66070974,-0.36374485,-0.41586494,1002.18286, , , , 
2025-11-24 19:56:20.987,9.55484,-6.1504517,-1.8840487,-0.28549474,1.6805935,-2.3578703,-21.0,46.443752,7.33125,-0.64813256,-0.36849904,-0.4381957,1002.18286, , , , 
2025-11-24 19:56:21.007,9.657731,-6.8374906,-2.3581266,-0.10162971,1.7496192,-2.3975754,-23.04375,45.54375,6.7500005,-0.633859,-0.3733897,-0.460626,1002.18066, , , , 
2025-11-24 19:56:21.027,9.595518,-7.036394,-2.992524,0.07551599,1.6995298,-2.303505,-25.1625,44.41875,6.1875005,-0.6182637,-0.37858567,-0.48208424,1002.18066, , , , 
